PacketCounter,SampleTimeFine,Quat_W,Quat_X,Quat_Y,Quat_Z,Acc_X,Acc_Y,Acc_Z,Gyr_X,Gyr_Y,Gyr_Z 
1,808502735,0.69338053,-0.01857311,-0.7102582,-0.12004866,-0.005337238311767578,1.3794236183166504,-2.152599334716797,-3.177443742752075,4.005870342254639, 0.4347420036792755
2,808519402,0.6935194,-0.018225646,-0.71019304,-0.11968527,9.655294418334961,1.428570032119751,-0.1145743578672409,3.478377342224121,-0.6712320446968079, 0.3092157244682312
3,808536069,0.693299,-0.017944489,-0.71044284,-0.119522676,9.667470932006836,1.4332259893417358,-0.14936646819114685,3.8886678218841553,-0.724570631980896, 0.24707934260368347
4,808552736,0.69283783,-0.017840456,-0.7108863,-0.11957556,9.696287155151367,1.4266945123672485,-0.11225242912769318,2.376519203186035,-0.9752548933029175, 0.023557281121611595
5,808569403,0.6925511,-0.017779667,-0.71116257,-0.11960339,9.731815338134766,1.3741530179977417,-0.10716964304447174,1.147596001625061,-1.1096829175949097, -0.0714978501200676
6,808586070,0.69242793,-0.017603694,-0.7113501,-0.11922616,9.773996353149414,1.4183759689331055,-0.04371408373117447,1.1463539600372314,-1.2000446319580078, -0.18831735849380493
7,808602737,0.69238037,-0.017648224,-0.7114044,-0.11917172,9.75576114654541,1.3862823247909546,-0.08903411030769348,1.9623746871948242,-1.3982229232788086, -0.4033103883266449
8,808619404,0.69243413,-0.017210769,-0.71145535,-0.11861679,9.762430191040039,1.3947138786315918,-0.08253077417612076,2.029953956604004,-1.1966638565063477, -0.4404488205909729
9,808636071,0.69229794,-0.017898634,-0.71147186,-0.11921042,9.68568229675293,1.3960367441177368,-0.13912133872509003,1.331264853477478,-1.2249913215637207, -0.6292783617973328
10,808652738,0.69225466,-0.017663097,-0.7115685,-0.11892006,9.697463035583496,1.4521403312683105,-0.098507359623909,1.1074227094650269,-1.328645944595337, -0.573353111743927
11,808669405,0.6921833,-0.017589452,-0.711645,-0.11888855,9.736352920532227,1.435390830039978,-0.14113178849220276,0.27823716402053833,-1.2804299592971802, -0.5844817757606506
12,808686072,0.69205797,-0.017791566,-0.7117183,-0.11914829,9.814398765563965,1.4423977136611938,-0.12518644332885742,0.614045262336731,-1.0362898111343384, -0.558292806148529
13,808702739,0.69195795,-0.017969482,-0.7117791,-0.119339414,9.782899856567383,1.4365406036376953,-0.10669615119695663,1.3131183385849,-0.7427555322647095, -0.2649890184402466
14,808719406,0.6918547,-0.01837484,-0.7117985,-0.11976048,9.672751426696777,1.432746171951294,-0.17036694288253784,1.9653071165084839,-0.32735589146614075, -0.2499927431344986
15,808736073,0.69178784,-0.018631024,-0.71181035,-0.120035976,9.697843551635742,1.4405707120895386,-0.17389307916164398,1.4959162473678589,-0.10161839425563812, -0.17193807661533356
16,808752740,0.69188774,-0.017984217,-0.71182936,-0.11944506,9.753690719604492,1.4175442457199097,-0.13545601069927216,0.40300944447517395,0.0279498603194952, -0.14883540570735931
17,808769407,0.6919138,-0.017823592,-0.7118304,-0.11931158,9.783440589904785,1.4362691640853882,-0.07513969391584396,-0.14857929944992065,-0.006223886273801327, -0.10102929919958115
18,808786074,0.6919292,-0.017710892,-0.7118299,-0.1192409,9.769150733947754,1.42185640335083,-0.06851539760828018,-0.8652353286743164,-0.2355215698480606, -0.17081108689308167
19,808802741,0.6918544,-0.018144285,-0.71181756,-0.11968314,9.755256652832031,1.4263523817062378,-0.06811244040727615,-0.48445144295692444,-0.29493024945259094, -0.11170979589223862
20,808819408,0.6917837,-0.018546894,-0.71181136,-0.12006617,9.72587776184082,1.4687520265579224,-0.04134581610560417,0.857993483543396,-0.22187002003192902, 0.0021194512955844402
21,808836075,0.69174325,-0.018557332,-0.71185446,-0.12004233,9.71088981628418,1.4660093784332275,-0.09392248839139938,2.4078049659729004,-0.46629199385643005, 0.13090011477470398
22,808852742,0.69178635,-0.018174697,-0.7118939,-0.11961818,9.668353080749512,1.4623457193374634,-0.15531060099601746,1.8178675174713135,-0.4093165099620819, 0.2881748378276825
23,808869409,0.6918288,-0.017942952,-0.71191365,-0.119289994,9.732786178588867,1.4853157997131348,-0.18293142318725586,0.4576157033443451,-0.3736892640590668, 0.6110613346099854
24,808886076,0.6920855,-0.016412193,-0.71197224,-0.117659874,9.698081970214844,1.454343557357788,-0.15788066387176514,0.7665303945541382,-0.3161759376525879, 0.8378617763519287
25,808902743,0.6919834,-0.017267626,-0.71194315,-0.118311815,9.73547077178955,1.469903826713562,-0.16582940518856049,0.278903067111969,-0.03703596070408821, 1.0672234296798706
26,808919410,0.692022,-0.017500816,-0.7118916,-0.11836184,9.757238388061523,1.4235581159591675,-0.12628698348999023,0.016347305849194527,0.3352254331111908, 1.1077685356140137
27,808936077,0.69200325,-0.018034993,-0.7118373,-0.11871906,9.711767196655273,1.3850228786468506,-0.15210659801959991,1.5163164138793945,0.5102881193161011, 0.9840077757835388
28,808952744,0.69189095,-0.019129993,-0.7117617,-0.1196507,9.674837112426758,1.390406608581543,-0.12247196584939957,1.3111717700958252,0.5629479289054871, 0.8051800727844238
29,808969411,0.6918869,-0.019416234,-0.7117252,-0.11984495,9.734892845153809,1.4023518562316895,-0.1319996416568756,0.8096109628677368,0.31118786334991455, 0.5265266299247742
30,808986078,0.6918628,-0.019660607,-0.71171206,-0.1200223,9.776449203491211,1.3953430652618408,-0.01989801786839962,-0.23404887318611145,-0.05373544618487358, 0.38289064168930054
31,809002745,0.69177413,-0.020136718,-0.71171033,-0.12046404,9.791489601135254,1.3682208061218262,0.01541720051318407,0.14442360401153564,-0.23800599575042725, 0.1425410807132721
32,809019412,0.69181716,-0.019729326,-0.711752,-0.12003701,9.771350860595703,1.430554986000061,-0.023278502747416496,1.3036030530929565,-0.3234115540981293, 0.1230626180768013
33,809036079,0.69175833,-0.019620825,-0.7118339,-0.11990848,9.733991622924805,1.4264910221099854,-0.06789249181747437,2.3217720985412598,-0.6927083134651184, 0.02684851363301277
34,809052746,0.6917265,-0.019405676,-0.71191245,-0.119659856,9.73449993133545,1.3872904777526855,-0.12329249829053879,2.5077075958251953,-0.6144999861717224, 0.11645455658435822
35,809069413,0.6915608,-0.020097556,-0.71194863,-0.12028677,9.714401245117188,1.4606131315231323,-0.1758369505405426,1.7473303079605103,-0.5374952554702759, 0.15838252007961273
36,809086080,0.6915972,-0.01991142,-0.71194917,-0.120105684,9.765835762023926,1.408664345741272,-0.17542006075382233,0.717405378818512,-0.05195536091923714, 0.028999976813793182
37,809102747,0.69214356,-0.016749486,-0.7120155,-0.11700719,9.75271224975586,1.3851171731948853,-0.18749305605888367,1.799875020980835,0.23819172382354736, 0.14483341574668884
38,809119414,0.6923311,-0.01587158,-0.71199685,-0.116130576,9.677413940429688,1.4284902811050415,-0.1804417073726654,1.8241170644760132,0.5072530508041382, 0.13974928855895996
39,809136081,0.692372,-0.016082,-0.711921,-0.11632323,9.717499732971191,1.3909755945205688,-0.169775128364563,1.8426350355148315,0.8583902716636658, 0.12225580215454102
40,809152748,0.69245136,-0.016047643,-0.7118573,-0.116245046,9.753539085388184,1.3975765705108643,-0.06767324358224869,2.5615193843841553,0.9143157005310059, 0.2612815201282501
41,809169415,0.6924296,-0.016667154,-0.7117704,-0.11681754,9.753153800964355,1.4150283336639404,-0.07610923051834106,2.2091786861419678,0.9279673099517822, 0.19593074917793274
42,809186082,0.6925366,-0.016312914,-0.7117385,-0.116426826,9.710295677185059,1.4707996845245361,-0.07355804741382599,1.4906526803970337,0.4925001859664917, 0.25549307465553284
43,809202749,0.69262874,-0.01604121,-0.7117032,-0.11613262,9.69857406616211,1.3996490240097046,-0.09256633371114731,0.66315758228302,0.37697410583496094, 0.2060861736536026
44,809219416,0.6926542,-0.015986368,-0.7116939,-0.116045095,9.669488906860352,1.424174427986145,-0.11290443688631058,0.6384028792381287,0.06406376510858536, 0.196302130818367
45,809236083,0.6928095,-0.015007284,-0.71173275,-0.11500582,9.735108375549316,1.4366481304168701,-0.02092590369284153,0.8727078437805176,-0.17551101744174957, 0.4316187798976898
46,809252750,0.6926511,-0.01586564,-0.71175015,-0.115735024,9.711175918579102,1.4823757410049438,-0.028089430183172226,0.8547533750534058,-0.3813474774360657, 0.5194575786590576
47,809269417,0.6925291,-0.01635589,-0.71180236,-0.1160753,9.706075668334961,1.4151688814163208,-0.0709037035703659,0.6516574025154114,-0.6977539658546448, 0.6655011177062988
48,809286084,0.69250375,-0.016078582,-0.71190196,-0.11565367,9.733683586120605,1.4310797452926636,-0.09316781163215637,1.2875951528549194,-0.9085847735404968, 0.703689694404602
49,809302751,0.692454,-0.016043706,-0.7119785,-0.11548595,9.776276588439941,1.3590809106826782,-0.11477407068014145,0.7432613968849182,-0.809873640537262, 0.6414380669593811
50,809319418,0.6922334,-0.017125959,-0.712018,-0.11640474,9.674702644348145,1.3977956771850586,-0.12632709741592407,-0.2731722593307495,-0.8444890975952148, 0.6509787440299988
51,809336085,0.69216764,-0.01737187,-0.71204984,-0.116565034,9.674945831298828,1.3939712047576904,-0.16727839410305023,-0.9402806758880615,-0.666058361530304, 0.41240930557250977
52,809352752,0.6922079,-0.016904432,-0.71210164,-0.11607611,9.763818740844727,1.3464431762695312,-0.11605606228113174,-0.797015905380249,-0.6597446203231812, 0.1867101788520813
53,809369419,0.69209886,-0.017301438,-0.7121373,-0.11644982,9.757181167602539,1.3581291437149048,-0.07749998569488525,-0.4769212603569031,-0.6559796929359436, 0.05444619432091713
54,809386086,0.69191843,-0.018050771,-0.71216947,-0.117208846,9.729851722717285,1.3666332960128784,-0.05876781418919563,0.5776367783546448,-0.5649393200874329, -0.19059689342975616
55,809402753,0.6918419,-0.01800941,-0.71223927,-0.117242984,9.7313232421875,1.348728060722351,-0.08353033661842346,2.3890180587768555,-0.4925321936607361, -0.457391619682312
56,809419420,0.6917817,-0.017841576,-0.7123073,-0.11720953,9.710001945495605,1.3749768733978271,-0.1629696786403656,2.628023147583008,-0.41347864270210266, -0.7404758930206299
57,809436087,0.6916943,-0.017775403,-0.7123775,-0.11730918,9.759727478027344,1.427104115486145,-0.08508098870515823,0.7765194773674011,-0.7146327495574951, -0.8906944990158081
58,809452754,0.6916412,-0.017733507,-0.71241075,-0.11742689,9.853611946105957,1.396118402481079,-0.0701170489192009,0.45967748761177063,-0.40561553835868835, -0.8201698660850525
59,809469421,0.69154763,-0.018095154,-0.7124086,-0.11793462,9.755644798278809,1.4053232669830322,-0.13319681584835052,0.3353278934955597,-0.18059515953063965, -0.7902030348777771
60,809486088,0.6915963,-0.017678892,-0.7124165,-0.11766375,9.72252368927002,1.442899227142334,-0.16714097559452057,0.5228383541107178,-0.05606619641184807, -0.668465793132782
61,809502755,0.69163096,-0.017524537,-0.7123959,-0.11760847,9.717320442199707,1.4432785511016846,-0.15141303837299347,0.23912657797336578,0.13088729977607727, -0.445507287979126
62,809519422,0.6917326,-0.01691333,-0.71240294,-0.11705595,9.694303512573242,1.4738019704818726,-0.10341566801071167,1.7071183919906616,0.18213829398155212, -0.21259820461273193
63,809536089,0.6917577,-0.016676357,-0.71241975,-0.11683945,9.708318710327148,1.4859565496444702,-0.09711094200611115,1.8616526126861572,0.017282167449593544, -0.08692950010299683
64,809552756,0.6917417,-0.016791342,-0.7124174,-0.116931714,9.753822326660156,1.4255810976028442,-0.09635496139526367,1.216084599494934,0.0274888314306736, 0.10724678635597229
65,809569423,0.6917579,-0.016797796,-0.7124125,-0.11686484,9.739994049072266,1.4368664026260376,-0.06126043200492859,0.30447739362716675,-0.05509291961789131, 0.3942627012729645
66,809586090,0.6916093,-0.017811706,-0.7123864,-0.11774972,9.711344718933105,1.4502772092819214,-0.07757151126861572,0.5355551242828369,-0.06310968846082687, 0.5207124948501587
67,809602757,0.6915866,-0.017906431,-0.71241045,-0.11772332,9.677779197692871,1.4321130514144897,-0.11953257769346237,0.940658450126648,-0.2845058739185333, 0.5857176780700684
68,809619424,0.6915946,-0.01771322,-0.7124589,-0.11741208,9.698993682861328,1.4208639860153198,-0.08923966437578201,1.4319483041763306,-0.382973849773407, 0.5909810662269592
69,809636091,0.69174635,-0.016410463,-0.71257025,-0.116023034,9.697139739990234,1.4158034324645996,-0.10058443993330002,2.4460701942443848,-0.6018087863922119, 0.5456465482711792
70,809652758,0.6916588,-0.01661236,-0.71263266,-0.11613345,9.7570161819458,1.4161969423294067,-0.1224525049328804,1.524512529373169,-0.6052024960517883, 0.38098248839378357
71,809669425,0.6915688,-0.016946886,-0.7126696,-0.11639394,9.791326522827148,1.4087296724319458,-0.09411247074604034,1.2370741367340088,-0.4266691505908966, 0.29929080605506897
72,809686092,0.6915212,-0.017097794,-0.7127028,-0.11645115,9.782281875610352,1.3868757486343384,-0.08762900531291962,0.7201586961746216,-0.4242359697818756, 0.43788114190101624
73,809702759,0.6916123,-0.016632993,-0.7127168,-0.11589035,9.913287162780762,1.4453802108764648,-0.028644908219575882,1.4302194118499756,0.007728631608188152, 0.5563270449638367
74,809719426,0.6917416,-0.016450714,-0.7126591,-0.11550006,10.223515510559082,1.4180465936660767,0.10549428313970566,3.7905330657958984,0.9797564148902893, 1.0931950807571411
75,809736093,0.69210607,-0.015935943,-0.71252424,-0.11421264,10.12751579284668,1.3503657579421997,0.11939378827810287,6.507592678070068,2.17391037940979, 3.9734842777252197
76,809752760,0.69264215,-0.0151739735,-0.712277,-0.11259776,9.767029762268066,1.4852042198181152,-0.18675285577774048,0.6251228451728821,2.4702234268188477, 4.590814590454102
77,809769427,0.6930057,-0.015789907,-0.71193624,-0.11243101,9.419306755065918,1.2390695810317993,-0.39957597851753235,-1.1974577903747559,2.8498549461364746, 4.143078327178955
78,809786094,0.6933828,-0.015638761,-0.7116235,-0.112106904,9.220487594604492,1.21065092086792,-0.4626462161540985,1.6475433111190796,3.1683104038238525, 1.1596471071243286
79,809802761,0.6938084,-0.014769285,-0.7113334,-0.11143096,9.239191055297852,0.8990765810012817,-0.44875726103782654,3.294273614883423,3.3629541397094727, -0.6052281260490417
80,809819428,0.6941785,-0.013253298,-0.7111691,-0.11035901,9.671985626220703,1.368782639503479,0.0017977054230868816,1.7618911266326904,2.0562963485717773, -1.894020676612854
81,809836095,0.69410205,-0.01369828,-0.7110792,-0.11136035,10.15584945678711,1.5517866611480713,0.46280401945114136,-2.9855449199676514,0.2681329846382141, -2.7234244346618652
82,809852762,0.6940345,-0.013428141,-0.71111614,-0.111578256,10.363179206848145,1.4585802555084229,0.5038392543792725,-1.2823508977890015,-0.6677870750427246, -2.4058520793914795
83,809869429,0.69398034,-0.013229022,-0.7111996,-0.11140758,10.33161735534668,1.2710542678833008,0.21094711124897003,0.3175398111343384,-0.9718866348266602, -0.19820386171340942
84,809886096,0.69395393,-0.013160665,-0.7113146,-0.11084395,9.931410789489746,1.5577021837234497,0.0672483891248703,0.8772158026695251,-1.257750153541565, 2.326727867126465
85,809902763,0.69393635,-0.01378189,-0.7113453,-0.110682026,9.540057182312012,1.626427173614502,-0.06362956762313843,-2.132615804672241,-0.9876000881195068, 3.7839243412017822
86,809919430,0.6938998,-0.014500952,-0.7114199,-0.110339135,9.207947731018066,1.743355393409729,-0.3057065010070801,0.7114760279655457,-1.0510940551757812, 5.103824138641357
87,809936097,0.6938642,-0.015215304,-0.71148914,-0.11001921,8.930445671081543,1.7357524633407593,-0.3417743444442749,-1.4236053228378296,-1.275077223777771, 5.039792537689209
88,809952764,0.6941389,-0.013793382,-0.7115755,-0.107895814,8.930313110351562,1.44940185546875,-0.41248980164527893,-1.9912593364715576,-1.0598279237747192, 3.728229284286499
89,809969431,0.6940919,-0.014470038,-0.71160495,-0.10791486,9.285343170166016,1.4082942008972168,-0.4254114031791687,-2.7648909091949463,-0.9880739450454712, 3.2967963218688965
90,809986098,0.6939006,-0.015964577,-0.71163684,-0.10872077,9.714537620544434,1.5100157260894775,-0.07756436616182327,-5.217820644378662,-1.4910564422607422, 3.3752870559692383
91,810002765,0.6937197,-0.016867978,-0.7117584,-0.10894308,9.996437072753906,1.381791114807129,0.20324014127254486,-3.8436214923858643,-2.0815443992614746, 3.3381357192993164
92,810019432,0.6934968,-0.017340222,-0.71203464,-0.10848226,10.32453441619873,0.9368981719017029,0.3033764660358429,1.9258382320404053,-2.7756869792938232, 4.433616638183594
93,810036099,0.6932467,-0.017999113,-0.7123887,-0.10764608,10.192410469055176,1.2394341230392456,0.19928544759750366,5.087996006011963,-3.2205543518066406, 7.0334343910217285
94,810052766,0.69284904,-0.020326745,-0.7126596,-0.107997656,9.384990692138672,1.5540294647216797,0.11648533493280411,-5.073941230773926,-4.1977691650390625, 9.372694969177246
95,810069433,0.69230914,-0.024010364,-0.7129091,-0.10905289,8.46396255493164,1.6418498754501343,-0.3334532380104065,-20.209882736206055,-6.393685340881348, 12.670787811279297
96,810086100,0.69135284,-0.029435417,-0.71318406,-0.1119541,7.536208629608154,1.6580381393432617,-1.1729354858398438,-34.84516143798828,-9.217071533203125, 12.093999862670898
97,810102767,0.6900532,-0.035608217,-0.713461,-0.11632817,9.000163078308105,2.641836643218994,-1.0017420053482056,-43.30965042114258,-10.827860832214355, 8.49605655670166
98,810119434,0.6890433,-0.03929175,-0.7136496,-0.11991675,12.403828620910645,1.531131386756897,-0.26002416014671326,-41.58512878417969,-8.777450561523438, 0.6750333905220032
99,810136101,0.6887112,-0.036975335,-0.71432215,-0.11854833,10.473904609680176,-0.03362104669213295,0.17019863426685333,-11.542984962463379,-6.904739856719971, -4.318419456481934
100,810152768,0.6868119,-0.044185348,-0.71419305,-0.127536,10.18671703338623,-0.2482537180185318,1.49977445602417,-12.61174488067627,-4.444562911987305, -10.00210189819336
101,810169435,0.6841239,-0.05002582,-0.71471345,-0.13658999,8.919736862182617,0.33377018570899963,0.8412922620773315,-39.682769775390625,-14.2186861038208, -17.31041717529297
102,810186102,0.68191963,-0.054614663,-0.71503913,-0.14395154,9.260485649108887,-4.448174953460693,1.9624757766723633,-17.81294059753418,-9.246845245361328, -15.333638191223145
103,810202769,0.68143046,-0.04624915,-0.7170233,-0.13925216,10.736987113952637,0.9661363959312439,0.8242365717887878,45.63372802734375,-8.230395317077637, -20.14189338684082
104,810219436,0.67828137,-0.044611026,-0.71920925,-0.14381418,9.34142780303955,5.674814224243164,-1.2969772815704346,-11.721073150634766,-23.08133888244629, -33.640140533447266
105,810236103,0.67533296,-0.043683793,-0.7210781,-0.14853813,9.020709037780762,-0.5098921656608582,-2.009340763092041,-17.99383544921875,-21.45538902282715, -30.17361831665039
106,810252770,0.6723473,-0.042394664,-0.72307295,-0.15270069,10.627029418945312,3.932021141052246,0.19205069541931152,-13.129997253417969,-21.84681510925293, -29.593008041381836
107,810269437,0.6700459,-0.043238092,-0.7241422,-0.15744019,10.431921005249023,1.8530436754226685,-1.33103346824646,-26.443893432617188,-16.256561279296875, -20.50884246826172
108,810286104,0.66870713,-0.044239867,-0.72448564,-0.16122794,10.03173828125,2.2452547550201416,-1.6498416662216187,-22.918306350708008,-8.504616737365723, -14.074280738830566
109,810302771,0.6682024,-0.043219563,-0.72473484,-0.16247234,9.507569313049316,1.2210992574691772,-1.1007460355758667,-0.8261250853538513,-2.3637969493865967, -11.46290397644043
110,810319438,0.66852313,-0.04149833,-0.7244001,-0.16309395,10.267952919006348,1.6302294731140137,-1.3945930004119873,5.08022403717041,5.075716495513916, -11.033815383911133
111,810336105,0.66937226,-0.03999089,-0.7234828,-0.16405557,10.100421905517578,2.5329344272613525,-1.3101290464401245,1.889559030532837,10.306537628173828, -10.79016399383545
112,810352772,0.670642,-0.039322373,-0.7220128,-0.16550191,10.244478225708008,1.8223015069961548,-0.8286466598510742,-4.898151874542236,14.187752723693848, -8.172622680664062
113,810369439,0.6720831,-0.038359717,-0.7205389,-0.1663031,9.659611701965332,2.5379638671875,-0.29864180088043213,-0.30239662528038025,15.240626335144043, -6.469594478607178
114,810386106,0.6733403,-0.0386549,-0.7189383,-0.16806656,9.17027759552002,2.472730875015259,-0.12736813724040985,-11.073600769042969,13.721821784973145, -4.81094217300415
115,810402773,0.67470074,-0.039407372,-0.71734124,-0.16925609,9.802757263183594,2.3682861328125,-0.3540065586566925,-10.314242362976074,13.518874168395996, 0.2752535045146942
116,810419440,0.67588454,-0.0410912,-0.7159284,-0.17011279,8.97266674041748,3.4247379302978516,-0.17673665285110474,-12.825993537902832,10.621000289916992, 6.190256118774414
117,810436107,0.67666954,-0.044246413,-0.71475613,-0.17112796,9.027055740356445,2.848376750946045,0.6332017779350281,-20.27167320251465,5.856887340545654, 12.281462669372559
118,810452774,0.67687345,-0.048692778,-0.71390295,-0.17266777,9.201404571533203,2.8893325328826904,0.5726717710494995,-28.646299362182617,0.0940309688448906, 15.482298851013184
119,810469441,0.67696154,-0.05376862,-0.71305996,-0.17429157,9.672150611877441,2.181598424911499,-0.3142513334751129,-32.00337219238281,-1.298416256904602, 18.119169235229492
120,810486108,0.6770433,-0.058371563,-0.7123844,-0.17525329,9.4813871383667,1.763771891593933,-0.10917876660823822,-26.360122680664062,-1.7813568115234375, 18.837242126464844
121,810502775,0.6770792,-0.063446775,-0.71159184,-0.17656586,9.774341583251953,1.1235260963439941,-0.15245206654071808,-30.43299102783203,-1.8980504274368286, 19.50958251953125
122,810519442,0.6771885,-0.06896248,-0.71044713,-0.17867614,9.98005199432373,0.9195694923400879,-0.6879364848136902,-36.78668975830078,-0.09045179188251495, 18.150388717651367
123,810536109,0.67727864,-0.07514946,-0.7090069,-0.18153687,10.114912986755371,0.8246777653694153,-0.6791462302207947,-43.95662307739258,0.7543191909790039, 17.99517250061035
124,810552776,0.6771506,-0.08131876,-0.70768785,-0.18447894,9.89455509185791,1.557422161102295,-0.6202529072761536,-44.23982238769531,-0.7770570516586304, 17.135190963745117
125,810569443,0.6762463,-0.08600083,-0.70761627,-0.18594146,9.440910339355469,1.8698630332946777,0.5484884977340698,-28.97283363342285,-9.27109146118164, 15.102865219116211
126,810586110,0.6736121,-0.08972937,-0.70964193,-0.1860214,8.578174591064453,2.3238158226013184,1.8574148416519165,-16.148412704467773,-27.08406639099121, 13.468896865844727
127,810602777,0.6694792,-0.09326432,-0.71332556,-0.18511146,9.096161842346191,1.6193445920944214,1.6377767324447632,-9.201904296875,-42.57550811767578, 14.240541458129883
128,810619444,0.66636807,-0.09127302,-0.71831995,-0.17787574,12.261200904846191,2.2723755836486816,1.3996269702911377,49.603553771972656,-40.745452880859375, 16.73757553100586
129,810636111,0.664718,-0.08741858,-0.72233915,-0.16951227,14.981085777282715,5.787114143371582,3.809704542160034,63.45178985595703,-27.610248565673828, 15.148355484008789
130,810652778,0.66591984,-0.07981717,-0.72532606,-0.15518518,22.296064376831055,6.668289661407471,5.91309118270874,110.75904083251953,-8.233275413513184, 28.01931381225586
131,810669445,0.6634297,-0.06771751,-0.7334436,-0.13166729,17.025747299194336,15.10622501373291,2.9143052101135254,180.7288055419922,-50.826454162597656, 41.23198318481445
132,810686112,0.6562221,-0.056911416,-0.74356735,-0.1150721,9.182421684265137,13.178327560424805,-1.0100353956222534,139.63751220703125,-81.88270568847656, 11.915128707885742
133,810702779,0.6473348,-0.034205902,-0.7552542,-0.09684482,11.210230827331543,11.587251663208008,0.34200912714004517,202.4176788330078,-88.5836410522461, -42.650901794433594
134,810719446,0.63888025,-0.007966373,-0.76459044,-0.08467685,11.475378036499023,13.938258171081543,8.02606201171875,185.40673828125,-71.98587799072266, -86.41397857666016
135,810736113,0.63228965,0.001468949,-0.76780474,-0.10336352,4.888535976409912,10.531147956848145,11.330550193786621,-53.793575286865234,-43.901180267333984, -131.3573760986328
136,810752780,0.6310026,0.00412729,-0.76408255,-0.13415234,5.616140365600586,-2.6914026737213135,10.821288108825684,-151.81394958496094,8.448713302612305, -143.97494506835938
137,810769447,0.6366401,0.008047722,-0.7544652,-0.15939596,4.7176127433776855,-10.146574974060059,9.994518280029297,-122.678466796875,70.86260223388672, -120.7148666381836
138,810786114,0.64972454,0.014990772,-0.739894,-0.17375496,6.106955051422119,-12.010058403015137,7.560631275177002,-58.76700210571289,134.3819122314453, -81.67284393310547
139,810802781,0.66891026,0.0215739,-0.72096115,-0.17974707,6.311021327972412,-10.125873565673828,3.937741994857788,-23.668746948242188,184.8391876220703, -36.50519561767578
140,810819448,0.6914788,0.02554453,-0.69831145,-0.18321052,7.711523056030273,-4.601293563842773,-0.30867645144462585,-28.29473114013672,215.6158905029297, -9.027063369750977
141,810836115,0.71511203,0.023091454,-0.67238367,-0.18969026,9.609302520751953,-1.4722131490707397,-4.482606887817383,-77.78665161132812,227.728515625, 7.798400402069092
142,810852782,0.7375868,0.016560934,-0.64539015,-0.19789743,11.11724853515625,-0.3213956654071808,-7.546023368835449,-107.19514465332031,222.3553924560547, 16.14242172241211
143,810869449,0.7570972,0.008471855,-0.61967313,-0.20673071,11.859971046447754,2.4061360359191895,-9.101568222045898,-116.01838684082031,201.10089111328125, 15.684743881225586
144,810886116,0.77269334,0.0018717791,-0.5972611,-0.21499148,12.331511497497559,4.657191276550293,-8.916093826293945,-101.10963439941406,170.09202575683594, 6.816588878631592
145,810902783,0.7844397,-0.0021928658,-0.57855964,-0.22342522,11.496585845947266,6.05651330947876,-7.1543660163879395,-83.08089447021484,139.06442260742188, -10.147822380065918
146,810919450,0.7927954,-0.002747817,-0.5640324,-0.23094556,11.17344856262207,6.02423095703125,-5.912232875823975,-54.404232025146484,109.1035385131836, -24.32305145263672
147,810936117,0.7980176,0.0014367199,-0.55439526,-0.23624595,10.704644203186035,4.973133563995361,-6.44399356842041,-12.488916397094727,78.3849105834961, -35.52630615234375
148,810952784,0.80081993,0.011570413,-0.5497737,-0.23728243,9.677149772644043,2.5394346714019775,-7.204410076141357,44.34625244140625,51.98869705200195, -38.60478973388672
149,810969451,0.8017305,0.023183515,-0.548892,-0.23539074,10.043571472167969,0.4437738358974457,-4.541749000549316,69.62671661376953,27.556964874267578, -30.919265747070312
150,810986118,0.80051816,0.03088429,-0.55097383,-0.2337632,9.643717765808105,0.211966872215271,-4.359760761260986,52.1103401184082,-2.6533641815185547, -20.76820945739746
151,811002785,0.79711777,0.030574888,-0.5549299,-0.23605447,9.50413703918457,-0.6382458806037903,-3.8761136531829834,-3.4199788570404053,-34.489891052246094, -15.303256034851074
152,811019452,0.7912366,0.023414597,-0.561073,-0.242062,9.790886878967285,0.17186644673347473,-5.507230281829834,-51.12367248535156,-67.41475677490234, -13.304924964904785
153,811036119,0.7818918,0.012752815,-0.5710912,-0.24967572,9.78416919708252,4.790060520172119,-7.644131660461426,-69.46324157714844,-107.43141174316406, -13.80588436126709
154,811052786,0.7660661,0.00310524,-0.5891658,-0.25693786,24.505958557128906,10.068082809448242,-1.4439793825149536,-48.466697692871094,-173.8083953857422, -26.156972885131836
155,811069453,0.74750257,-0.008030554,-0.6100402,-0.2627296,18.737449645996094,-6.999359607696533,8.196615219116211,-45.55788040161133,-201.70635986328125, -16.96480369567871
156,811086120,0.7278454,-0.013504316,-0.63320917,-0.26287913,11.184686660766602,-4.085299015045166,-4.886726379394531,11.560032844543457,-208.36447143554688, -14.508580207824707
157,811102787,0.70992774,-0.022695376,-0.650147,-0.26980883,7.317966938018799,5.8415751457214355,-3.1210567951202393,-47.75363540649414,-175.2931671142578, -28.91905975341797
158,811119454,0.69471633,-0.031158233,-0.6617608,-0.28012758,8.921043395996094,3.4909017086029053,-0.7370781898498535,-68.96580505371094,-135.0985870361328, -42.55715560913086
159,811136121,0.6836549,-0.027818182,-0.6740674,-0.27834508,14.44053840637207,1.9993807077407837,-1.4017713069915771,44.6334114074707,-99.30818176269531, -30.53542709350586
160,811152788,0.67443836,-0.028255042,-0.68336594,-0.27811122,11.510629653930664,5.950804233551025,2.355992555618286,14.242949485778809,-83.42766571044922, -16.392608642578125
161,811169455,0.66649157,-0.034910005,-0.6880798,-0.28481025,12.370813369750977,-0.9222549796104431,-0.7184708714485168,-55.670230865478516,-66.8716812133789, -15.854570388793945
162,811186122,0.6610272,-0.025185952,-0.6973279,-0.2759402,10.48143482208252,1.4421621561050415,-0.7559289336204529,102.4954833984375,-47.544498443603516, -18.550199508666992
163,811202789,0.65622985,-0.019953096,-0.7041307,-0.27048942,10.310039520263672,5.16606330871582,-0.40267622470855713,61.14199447631836,-41.15675735473633, -11.085894584655762
164,811219456,0.65192616,-0.016187359,-0.71034086,-0.26485187,9.331527709960938,3.598649740219116,-1.2278355360031128,54.38151550292969,-38.866798400878906, -2.116128921508789
165,811236123,0.64801574,-0.012651149,-0.71651906,-0.25790793,8.22999382019043,6.579293251037598,-0.6982543468475342,59.713783264160156,-37.34608459472656, 5.535660743713379
166,811252790,0.6439894,-0.01154898,-0.72201335,-0.2526683,8.526497840881348,5.987956523895264,-0.41079461574554443,39.26752471923828,-39.045616149902344, 9.945693016052246
167,811269457,0.63986385,-0.010677109,-0.72745174,-0.24753714,9.027568817138672,4.788100719451904,-0.6082206964492798,37.64112854003906,-39.70935821533203, 10.573118209838867
168,811286124,0.6359318,-0.008309007,-0.7328062,-0.24190363,9.216115951538086,4.7872748374938965,-0.7152942419052124,46.6358528137207,-35.895042419433594, 5.685084342956543
169,811302791,0.632122,-0.004140033,-0.7386212,-0.23418733,9.586920738220215,2.192474603652954,-1.5496269464492798,65.80322265625,-34.45163345336914, 5.928660869598389
170,811319458,0.62760013,-0.0023333156,-0.7443603,-0.2281252,10.028554916381836,2.5031185150146484,-0.9242245554924011,46.990997314453125,-41.50082015991211, 9.473445892333984
171,811336125,0.6220814,-0.0036572795,-0.74985874,-0.2251964,10.442325592041016,1.3002984523773193,-0.7007606029510498,17.07337760925293,-50.46975326538086, 10.339818000793457
172,811352792,0.61580575,-0.005496869,-0.75573194,-0.2227612,10.141802787780762,1.3884185552597046,-0.9356198310852051,12.892958641052246,-56.83574295043945, 9.580504417419434
173,811369459,0.6087079,-0.0086645335,-0.7614913,-0.22255567,9.504302978515625,2.961395263671875,-0.6412827372550964,-4.5083208084106445,-62.63941955566406, 5.684990882873535
174,811386126,0.60048544,-0.012821612,-0.76743644,-0.22426398,9.12324047088623,3.9354469776153564,-1.1615628004074097,-18.43224334716797,-70.78701782226562, 1.1430073976516724
175,811402793,0.59126824,-0.018814236,-0.77322376,-0.22841462,9.031937599182129,3.969141960144043,-1.3419076204299927,-39.21052169799805,-78.0560073852539, -0.6789467930793762
176,811419460,0.5811159,-0.02551776,-0.7792433,-0.23330946,10.318824768066406,3.4423391819000244,-1.497109293937683,-45.79133605957031,-85.04440307617188, -1.3140898942947388
177,811436127,0.57025623,-0.030734727,-0.7864172,-0.23539615,12.026391983032227,1.8755861520767212,-1.0529519319534302,-23.06706428527832,-91.62828826904297, 0.6519982218742371
178,811452794,0.55890316,-0.03024837,-0.7962824,-0.22944933,11.885987281799316,1.609169840812683,-0.29623091220855713,46.99656677246094,-97.45570373535156, -0.16540080308914185
179,811469461,0.5457593,-0.032358676,-0.8063895,-0.22546823,11.500056266784668,1.5363582372665405,-0.6395522952079773,26.27802085876465,-112.0823745727539, 3.4915902614593506
180,811486128,0.53075814,-0.035384692,-0.8175151,-0.22071096,11.151217460632324,2.558560609817505,0.5569950342178345,28.317447662353516,-127.99109649658203, 8.265277862548828
181,811502795,0.5135167,-0.03962684,-0.8291761,-0.21724993,10.938881874084473,3.977369785308838,1.7129881381988525,16.908159255981445,-144.3379364013672, 6.8037333488464355
182,811519462,0.49389014,-0.04331592,-0.84193075,-0.21295436,11.72580337524414,3.819897174835205,2.707653045654297,24.69706916809082,-161.5432891845703, 2.7847275733947754
183,811536129,0.4715923,-0.044400368,-0.85656744,-0.20474891,14.546693801879883,3.4737160205841064,6.9829630851745605,58.255332946777344,-181.1866912841797, -3.4682743549346924
184,811552796,0.44905487,-0.041999627,-0.87209636,-0.18982634,19.945186614990234,2.858656167984009,11.793045997619629,110.4886703491211,-183.38771057128906, -2.861400604248047
185,811569463,0.42831933,-0.036812194,-0.8868882,-0.16916539,26.73906135559082,0.4001738429069519,9.87826919555664,153.31488037109375,-169.4894256591797, 0.5977504253387451
186,811586130,0.4057675,-0.025641447,-0.9034434,-0.13596237,21.274871826171875,8.03503704071045,1.3603962659835815,249.18585205078125,-183.35357666015625, -1.735897421836853
187,811602797,0.38257682,-0.019698776,-0.9164137,-0.11590115,20.04587173461914,8.47456169128418,4.703387260437012,149.70639038085938,-180.67933654785156, -5.6417036056518555
188,811619464,0.3611572,-0.012434311,-0.9285528,-0.08485837,17.05457878112793,7.7498087882995605,-1.7901155948638916,222.319580078125,-168.7091827392578, 16.77569007873535
189,811636131,0.34351635,-0.0072948528,-0.9364866,-0.07025977,13.063905715942383,16.144485473632812,0.8249449729919434,110.15274810791016,-134.5142822265625, -7.595015048980713
190,811652798,0.33509353,-0.0022645216,-0.93960917,-0.069586255,12.093151092529297,8.496257781982422,6.752221584320068,19.051288604736328,-63.63214111328125, -34.5130615234375
191,811669465,0.33743376,0.0060269083,-0.9394903,-0.05882655,7.020564556121826,1.3232145309448242,9.66208267211914,90.78084564208984,14.103404998779297, -26.837636947631836
192,811686132,0.34765768,0.015082907,-0.93649596,-0.043386046,5.887357711791992,2.4497971534729004,7.003978729248047,121.43628692626953,71.66362762451172, -17.64252471923828
193,811702799,0.36419463,0.022058468,-0.9302444,-0.03900401,4.417686939239502,4.794470310211182,5.833532810211182,43.75908279418945,117.9386978149414, -28.884870529174805
194,811719466,0.38856682,0.027119804,-0.91986716,-0.046098888,3.3120861053466797,3.7133800983428955,7.27610445022583,-36.537864685058594,175.84202575683594, -43.67053985595703
195,811736133,0.41937143,0.032902725,-0.905525,-0.05540657,3.842033624649048,2.052321195602417,4.9331841468811035,-50.9119987487793,226.63421630859375, -52.69844436645508
196,811752800,0.45440677,0.040309936,-0.88766694,-0.06274849,6.313844203948975,2.446492910385132,0.4815313518047333,-36.2174186706543,263.9506530761719, -56.21728515625
197,811769467,0.49363124,0.04577239,-0.8651784,-0.07549694,7.290175914764404,3.9504294395446777,0.5163041949272156,-78.4400405883789,301.54119873046875, -60.61824417114258
198,811786134,0.53578943,0.048355013,-0.83776116,-0.0935319,8.778406143188477,2.5806241035461426,-1.3253390789031982,-123.12921142578125,332.43731689453125, -61.371368408203125
199,811802801,0.5788363,0.049554445,-0.80592364,-0.11393048,10.520234107971191,2.288907289505005,-3.3826217651367188,-145.0341033935547,352.0932312011719, -63.06251525878906
200,811819468,0.6213101,0.049839605,-0.77057284,-0.1330698,12.330143928527832,-0.08149653673171997,-6.22745943069458,-144.34230041503906,362.634765625, -54.73948669433594
201,811836135,0.66234636,0.050519582,-0.73264474,-0.1482465,15.695876121520996,1.5601248741149902,-7.600958347320557,-123.65225982666016,367.9542236328125, -42.34782409667969
202,811852802,0.70148015,0.051537864,-0.6928252,-0.15894355,18.996231079101562,1.4716813564300537,-9.892271041870117,-100.97221374511719,369.2110290527344, -26.425453186035156
203,811869469,0.73750573,0.052450523,-0.6524648,-0.16620557,21.65894889831543,3.6882176399230957,-12.675732612609863,-84.8572006225586,358.6277160644531, -13.161964416503906
204,811886136,0.7684275,0.054437306,-0.6140453,-0.17176779,20.264326095581055,5.285583019256592,-14.335847854614258,-68.02890014648438,328.4796142578125, -14.654086112976074
205,811902803,0.79249084,0.05918903,-0.58055884,-0.17721981,17.336013793945312,5.476065158843994,-14.604436874389648,-44.82789993286133,277.701416015625, -32.05022430419922
206,811919470,0.8095766,0.06215803,-0.5535495,-0.18521702,13.915874481201172,3.191091537475586,-15.76022720336914,-54.324127197265625,212.3544921875, -44.71539306640625
207,811936137,0.8201392,0.06039171,-0.5346503,-0.19461185,11.984182357788086,1.0514496564865112,-16.513513565063477,-73.19971466064453,136.8424530029297, -39.44559097290039
208,811952804,0.8246893,0.052557003,-0.52467334,-0.2045569,10.63257884979248,-0.6712596416473389,-18.05297088623047,-95.28446197509766,57.13533401489258, -24.7849178314209
209,811969471,0.8224819,0.044988405,-0.5256831,-0.21250251,8.880592346191406,0.08039359748363495,-18.637006759643555,-68.90033721923828,-27.445707321166992, -20.154541015625
210,811986138,0.8141133,0.036342625,-0.5368212,-0.2184538,9.544635772705078,0.26974907517433167,-17.04461669921875,-51.29904556274414,-107.10845184326172, -10.964859962463379
211,812002805,0.80081165,0.027352108,-0.5555409,-0.22209717,12.045563697814941,1.5652530193328857,-12.5613431930542,-32.24956130981445,-167.06301879882812, -2.3654844760894775
212,812019472,0.7871709,0.026828082,-0.57482034,-0.22186515,18.663034439086914,10.087530136108398,17.40782356262207,29.998655319213867,-157.39414978027344, -13.83307933807373
213,812036139,0.7750669,0.014670843,-0.58996916,-0.22581564,19.338163375854492,-11.807340621948242,3.7773501873016357,-55.94959259033203,-148.06253051757812, 11.242969512939453
214,812052806,0.7613542,0.013068836,-0.60908115,-0.22178705,11.304566383361816,-2.2867722511291504,-12.669668197631836,39.20184326171875,-158.6248779296875, 8.339507102966309
215,812069473,0.7467461,0.012419332,-0.62617403,-0.22388051,13.129005432128906,10.302323341369629,-2.5517308712005615,15.469443321228027,-150.6459503173828, -29.342220306396484
216,812086140,0.73393834,0.0077010985,-0.63913363,-0.22974683,13.385697364807129,-0.7087142467498779,-1.9810363054275513,-28.250133514404297,-128.3306427001953, -28.53287696838379
217,812102807,0.72475183,0.008549423,-0.64927983,-0.23042898,9.72052001953125,1.4683159589767456,1.3787990808486938,18.016557693481445,-89.24742889404297, -21.32689094543457
218,812119474,0.7172471,0.012428654,-0.6582151,-0.22837524,10.994298934936523,4.3937153816223145,1.3296575546264648,43.357032775878906,-70.9381103515625, -18.62257194519043
219,812136141,0.71108365,0.017069533,-0.66621214,-0.2241214,9.238204002380371,4.937942028045654,0.9104509949684143,55.51875686645508,-59.01980209350586, -9.140388488769531
220,812152808,0.70580256,0.018674115,-0.672465,-0.22200273,9.202828407287598,6.083699703216553,0.2570771872997284,28.136592864990234,-51.51358413696289, -4.4492878913879395
221,812169475,0.70153004,0.019673169,-0.67760974,-0.21980412,10.359443664550781,2.5205976963043213,-0.23698179423809052,23.765562057495117,-42.49229431152344, 0.21228621900081635
222,812186142,0.69759685,0.023492582,-0.6830129,-0.21517485,10.867132186889648,1.7802163362503052,-0.9461902379989624,49.05998229980469,-37.647972106933594, -0.6613287329673767
223,812202809,0.69432515,0.027556395,-0.6878842,-0.20968728,10.150818824768066,2.7931439876556396,-0.8310838937759399,53.391563415527344,-31.546934127807617, 3.1799428462982178
224,812219476,0.6917241,0.029335171,-0.6913825,-0.20651338,9.436964988708496,3.629361152648926,-0.8411085605621338,29.45240020751953,-25.606460571289062, 3.6525893211364746
225,812236143,0.68943006,0.030169267,-0.6942931,-0.20428778,9.090813636779785,4.254199981689453,-0.8356181979179382,19.568300247192383,-22.931612014770508, 3.971498966217041
226,812252810,0.68701416,0.030263273,-0.69723386,-0.20238866,9.537790298461914,3.6647908687591553,0.11630567908287048,14.579785346984863,-24.804706573486328, 5.820407867431641
227,812269477,0.6840004,0.028629318,-0.7003773,-0.20198059,8.258379936218262,4.554374694824219,0.020804304629564285,-0.3040110170841217,-31.388629913330078, 6.2871904373168945
228,812286144,0.6802606,0.023749268,-0.703224,-0.20532359,8.455073356628418,4.180202960968018,0.5598759055137634,-33.891719818115234,-38.777801513671875, 3.243116855621338
229,812302811,0.6754477,0.017185953,-0.70653105,-0.21045053,9.182307243347168,2.7095117568969727,0.18282172083854675,-49.54121780395508,-48.82468032836914, 1.62230384349823
230,812319478,0.66933674,0.010234265,-0.7109711,-0.21541597,9.260368347167969,1.9825242757797241,0.7064060568809509,-48.769405364990234,-60.97100830078125, 2.5158936977386475
231,812336145,0.66248274,0.009713621,-0.718035,-0.21318673,10.548847198486328,1.2205631732940674,0.24111367762088776,19.957136154174805,-66.67678833007812, 3.264016628265381
232,812352812,0.6543892,0.007347106,-0.7257383,-0.21219149,10.3937406539917,3.7266321182250977,0.9012821316719055,6.472311019897461,-78.52715301513672, 4.960692882537842
233,812369479,0.6460662,0.006230235,-0.7336366,-0.21056408,10.813179969787598,4.050899028778076,1.0826057195663452,15.558921813964844,-78.72543334960938, 1.2519451379776
234,812386146,0.6373069,0.0058249766,-0.7426089,-0.20576295,11.7573881149292,1.6791787147521973,-0.9750398397445679,36.31672668457031,-84.56240844726562, 11.182478904724121
235,812402813,0.6281962,0.0046640807,-0.75161076,-0.20107096,11.180283546447754,2.0238022804260254,-0.7204015254974365,32.516357421875,-87.56788635253906, 14.045672416687012
236,812419480,0.61802626,0.002303863,-0.76092935,-0.19754802,10.585906028747559,2.9130070209503174,0.437467485666275,21.756742477416992,-96.12511444091797, 13.730722427368164
237,812436147,0.60591626,-0.0007385673,-0.7712233,-0.19514038,10.038236618041992,3.7120401859283447,0.3575977683067322,14.390889167785645,-111.39176940917969, 9.941854476928711
238,812452814,0.59193885,-0.0046190256,-0.78226507,-0.19403304,9.860886573791504,4.09779691696167,0.18271379172801971,5.008119106292725,-125.55282592773438, 6.469353675842285
239,812469481,0.57605386,-0.008850468,-0.79424864,-0.19301064,10.581977844238281,3.8921380043029785,-0.3247646391391754,4.33224630355835,-140.1360321044922, 5.448448181152344
240,812486148,0.55808514,-0.012699115,-0.8073816,-0.19108905,11.194060325622559,3.4161264896392822,0.35288846492767334,12.16012954711914,-155.64073181152344, 4.092921733856201
241,812502815,0.53810257,-0.01586383,-0.8216159,-0.18746111,12.401848793029785,2.9612250328063965,1.1013813018798828,25.540998458862305,-170.32980346679688, 4.10146427154541
242,812519482,0.51612276,-0.01783791,-0.837034,-0.1807589,14.990852355957031,3.5425455570220947,3.754251003265381,48.63954544067383,-184.8367462158203, 6.037557125091553
243,812536149,0.49296328,-0.019645533,-0.85271835,-0.17167649,21.006940841674805,6.467690944671631,8.285518646240234,63.13416290283203,-192.7306365966797, 12.021565437316895
244,812552816,0.4722896,-0.016516993,-0.867012,-0.15798765,24.7233943939209,2.9453141689300537,11.021403312683105,105.61458587646484,-168.35910034179688, 1.816045880317688
245,812569483,0.4548687,-0.0055628885,-0.88110733,-0.1292811,20.499589920043945,-2.6214139461517334,4.505439758300781,220.77357482910156,-141.69557189941406, 7.470751762390137
246,812586150,0.4302104,0.0041563436,-0.89793456,-0.09281918,16.154029846191406,9.524374008178711,-2.0521693229675293,266.0820007324219,-195.6049041748047, 32.65430450439453
247,812602817,0.40465894,0.0048526376,-0.9113576,-0.07520169,15.846683502197266,13.188438415527344,3.5705971717834473,120.85116577148438,-197.32940673828125, 32.01312255859375
248,812619484,0.38162047,0.0050251493,-0.9218772,-0.06695627,15.211953163146973,10.792204856872559,3.933846950531006,59.139583587646484,-174.1274871826172, 10.473715782165527
249,812636151,0.3676252,0.007836607,-0.9279236,-0.061224464,13.13599967956543,4.604609966278076,7.811766147613525,47.81039047241211,-103.98399353027344, -8.805760383605957
250,812652818,0.36242184,0.016693939,-0.9308878,-0.042661462,7.609097957611084,5.126387596130371,8.252657890319824,143.2152099609375,-36.925846099853516, -11.399635314941406
251,812669485,0.36520272,0.022837581,-0.93000644,-0.03455138,6.17244291305542,5.497554779052734,9.058143615722656,67.51897430419922,21.737659454345703, -18.145532608032227
252,812686152,0.37559685,0.026710259,-0.9257632,-0.034298103,4.9948859214782715,3.906036138534546,7.132917404174805,9.60769271850586,77.06377410888672, -22.051965713500977
253,812702819,0.39200827,0.031781815,-0.9187062,-0.036043055,3.3008952140808105,5.402307987213135,5.315768241882324,-1.7775076627731323,122.54381561279297, -33.92926025390625
254,812719486,0.41403857,0.035504073,-0.90845615,-0.044935774,3.334069013595581,5.905808925628662,3.5806210041046143,-52.57337188720703,164.76797485351562, -43.96175003051758
255,812736153,0.44169858,0.038482618,-0.89445436,-0.058078147,5.068585395812988,3.931218147277832,2.139970541000366,-83.7662582397461,209.3809814453125, -50.57455825805664
256,812752820,0.47425786,0.043068554,-0.8765718,-0.069618404,6.747208118438721,3.0119881629943848,1.5835578441619873,-71.8819351196289,252.4006805419922, -54.661685943603516
257,812769487,0.51098704,0.048211828,-0.8544195,-0.08084212,8.040404319763184,2.6345367431640625,0.6706777811050415,-71.45140075683594,291.8565673828125, -56.2552604675293
258,812786154,0.5511169,0.05463618,-0.82769066,-0.090629265,10.174415588378906,1.771555781364441,-0.5047216415405273,-62.196414947509766,329.1514892578125, -58.36185836791992
259,812802821,0.5934261,0.06326621,-0.7962233,-0.09935707,11.475302696228027,3.215251922607422,-2.067638397216797,-51.6068000793457,361.33868408203125, -67.3292007446289
260,812819488,0.63636637,0.07310312,-0.7600448,-0.10966318,12.591876983642578,2.316080093383789,-3.3720459938049316,-58.8223876953125,384.2271728515625, -82.00395202636719
261,812836155,0.6774985,0.08578926,-0.7210161,-0.11735499,15.80654525756836,1.561783790588379,-4.552911281585693,-33.979286193847656,390.7612609863281, -88.2518081665039
262,812852822,0.71672714,0.09263737,-0.6788916,-0.12971912,20.827314376831055,2.056586980819702,-6.773368835449219,-85.74041748046875,388.3518371582031, -84.45779418945312
263,812869489,0.75276273,0.09495074,-0.63586473,-0.1414529,24.068519592285156,1.303977131843567,-10.175844192504883,-104.0239028930664,374.29779052734375, -63.63794708251953
264,812886156,0.7840923,0.09295662,-0.5944157,-0.15240996,25.21468734741211,3.161435842514038,-13.116775512695312,-118.35515594482422,341.96246337890625, -44.38142776489258
265,812902823,0.8077584,0.090605356,-0.559133,-0.16336411,18.18537139892578,6.094144344329834,-17.058734893798828,-108.94285583496094,277.1260681152344, -47.041988372802734
266,812919490,0.8226085,0.08612696,-0.533024,-0.17827833,13.365894317626953,3.1437883377075195,-22.091306686401367,-120.24642181396484,187.56375122070312, -65.05321502685547
267,812936157,0.8292748,0.08256821,-0.51931804,-0.1891955,10.843551635742188,-3.996678590774536,-24.317920684814453,-80.42196655273438,91.08738708496094, -48.517398834228516
268,812952824,0.82714283,0.078203656,-0.52094555,-0.19579339,7.657095909118652,0.019933387637138367,-24.43650245666504,-44.71454620361328,-26.158306121826172, -23.810131072998047
269,812969491,0.81651175,0.06770977,-0.5357849,-0.20410532,8.59751033782959,2.0581717491149902,-20.960391998291016,-63.43263626098633,-140.74826049804688, -15.949728012084961
270,812986158,0.7995421,0.055920374,-0.5595191,-0.21105449,13.475791931152344,2.209711790084839,-7.396864414215088,-50.3211669921875,-215.10438537597656, -8.262889862060547
271,813002825,0.783678,0.04125755,-0.5786658,-0.22201993,24.643150329589844,6.820257186889648,23.503131866455078,-88.67352294921875,-191.29893493652344, -19.432849884033203
272,813019492,0.7685353,0.016746039,-0.59541136,-0.23357809,14.933428764343262,-15.51234245300293,-5.018697738647461,-147.91366577148438,-190.8670654296875, 17.00834083557129
273,813036159,0.74996495,0.017256673,-0.6201645,-0.22945775,9.167308807373047,5.614629745483398,-14.335088729858398,61.806026458740234,-205.18341064453125, -7.2983174324035645
274,813052826,0.7315521,0.006116534,-0.6378973,-0.24058545,15.573887825012207,8.554661750793457,-1.8548617362976074,-74.44789123535156,-188.41517639160156, -36.78744125366211
275,813069493,0.7164653,-0.0044291937,-0.6515578,-0.24926028,8.603924751281738,-1.10906183719635,-0.2706144452095032,-67.5895004272461,-152.26315307617188, -21.664491653442383
276,813086160,0.7048642,-0.005308948,-0.66368365,-0.2503252,11.847923278808594,2.7985119819641113,-0.8561786413192749,11.613502502441406,-112.78580474853516, -21.46903419494629
277,813102827,0.69583905,-0.006882222,-0.6724275,-0.25219503,12.85692024230957,1.574106216430664,0.6045746803283691,-1.1218026876449585,-85.8281478881836, -17.64554214477539
278,813119494,0.68856955,-0.005114964,-0.680757,-0.24983208,9.99177074432373,5.529458522796631,0.30713969469070435,33.79022979736328,-70.18395233154297, -9.793726921081543
279,813136161,0.6823909,-0.013186637,-0.68379897,-0.2580466,10.665847778320312,3.297821044921875,-0.13881145417690277,-71.3176498413086,-56.60920715332031, -11.730772018432617
280,813152828,0.677574,-0.014715749,-0.6883979,-0.2584291,10.32796573638916,1.3504241704940796,-2.0333199501037598,-0.9076567888259888,-46.6468391418457, -3.462491750717163
281,813169495,0.6733762,-0.014894594,-0.6929301,-0.25727546,9.272140502929688,5.276838779449463,-0.5106669068336487,12.607837677001953,-41.17566680908203, -1.6044281721115112
282,813186162,0.66957814,-0.017347986,-0.6962367,-0.2581065,9.708970069885254,4.000106334686279,-0.49416399002075195,-9.500158309936523,-37.44660186767578, 0.8952773809432983
283,813202829,0.6668241,-0.01690317,-0.69942033,-0.2566541,10.323448181152344,2.7215700149536133,-0.30696901679039,14.691844940185547,-27.035736083984375, -0.5919497609138489
284,813219496,0.66493887,-0.012306829,-0.70323133,-0.25133798,10.289984703063965,2.9786767959594727,-0.9743552207946777,53.53101348876953,-18.880064010620117, -1.3911055326461792
285,813236163,0.6636775,-0.0048168553,-0.7073271,-0.24330583,10.221914291381836,2.7244136333465576,-0.44284123182296753,80.44337463378906,-12.41482925415039, -1.9222139120101929
286,813252830,0.6615627,0.00015284074,-0.71131134,-0.2374264,9.952595710754395,3.1781065464019775,-0.24373555183410645,58.26541519165039,-20.22426414489746, -0.9249765872955322
287,813269497,0.6589646,0.004618201,-0.7150659,-0.23329279,9.50657844543457,5.378777980804443,0.8743671178817749,47.0702018737793,-22.390287399291992, -7.193280220031738
288,813286164,0.65576035,0.007827108,-0.7196439,-0.22810073,9.753214836120605,2.8614578247070312,-1.5149664878845215,47.93892288208008,-31.112167358398438, 2.8487603664398193
289,813302831,0.65153813,0.008281603,-0.7246958,-0.22415574,9.055109024047852,3.1782641410827637,-0.025701399892568588,30.147314071655273,-42.683441162109375, 9.278464317321777
290,813319498,0.64623195,0.006993622,-0.7302407,-0.22154994,9.134923934936523,1.8054229021072388,-0.1262272298336029,16.502643585205078,-53.07535934448242, 10.320476531982422
291,813336165,0.6398686,0.0053040744,-0.73666,-0.21879728,9.52583122253418,1.7486176490783691,0.34259307384490967,16.8492488861084,-62.89262771606445, 11.41226577758789
292,813352832,0.6325443,0.0025986386,-0.7433674,-0.21745394,9.714031219482422,2.6997311115264893,-0.30081331729888916,5.7167744636535645,-70.63365936279297, 8.913322448730469
293,813369499,0.6244223,0.00023556064,-0.7508152,-0.21534477,10.390769958496094,2.4285669326782227,-0.0861862301826477,12.245360374450684,-77.42601776123047, 9.314281463623047
294,813386166,0.61490756,-0.0012298321,-0.75959617,-0.21189933,9.579179763793945,4.63791561126709,0.10752880573272705,24.98794937133789,-89.02740478515625, 8.351446151733398
295,813402833,0.60316175,-0.0033279788,-0.7697979,-0.20879795,9.553297996520996,4.9673638343811035,1.3562984466552734,22.580989837646484,-107.63240814208984, 6.954010963439941
296,813419500,0.58921313,-0.0051950663,-0.7814776,-0.20516835,10.151773452758789,3.943363666534424,0.5317960977554321,28.41924476623535,-125.14151000976562, 4.744778633117676
297,813436167,0.572568,-0.008322821,-0.7945953,-0.20178051,10.979252815246582,3.497411012649536,0.5753955841064453,23.964492797851562,-147.260498046875, 6.689749717712402
298,813452834,0.5531273,-0.012145937,-0.8090332,-0.19841439,12.068377494812012,2.7088584899902344,1.0872926712036133,22.796579360961914,-168.73497009277344, 6.4488420486450195
299,813469501,0.53072125,-0.015478339,-0.82502544,-0.19346566,13.163947105407715,3.039240598678589,3.2877275943756104,35.35762023925781,-190.6585235595703, 5.551308631896973
300,813486168,0.50585526,-0.018356727,-0.84208184,-0.18620448,16.57268714904785,4.662363052368164,6.551567554473877,51.312801361083984,-208.22103881835938, 8.017224311828613
301,813502835,0.4803898,-0.020185657,-0.8588672,-0.1765382,23.429410934448242,7.7443060874938965,10.841652870178223,68.51199340820312,-209.83360290527344, 9.56360149383545
302,813519502,0.45733225,-0.018956503,-0.8738596,-0.16388306,24.460046768188477,1.4761247634887695,11.35236644744873,94.50096893310547,-186.5844268798828, 4.542171478271484
303,813536169,0.43712062,-0.013485926,-0.8885891,-0.13839632,20.0188045501709,-1.8661926984786987,-1.3531605005264282,185.0749053955078,-165.77310180664062, 22.60653305053711
304,813552836,0.41244692,0.0019413761,-0.905342,-0.10119463,14.969762802124023,16.507129669189453,2.646010160446167,288.1440124511719,-190.85818481445312, -7.485186576843262
305,813569503,0.38811418,0.004823578,-0.9175587,-0.08620089,16.103273391723633,8.638226509094238,3.0387320518493652,111.18156433105469,-184.9402618408203, 7.934382438659668
306,813586170,0.36868516,0.0076681124,-0.9262918,-0.07743786,15.28897762298584,8.545026779174805,4.436206340789795,69.60717010498047,-145.02655029296875, -5.633950233459473
307,813602837,0.36010435,0.014652227,-0.93042374,-0.06650231,12.081141471862793,5.697068214416504,9.858519554138184,90.99060821533203,-62.05887222290039, -20.923250198364258
308,813619504,0.36141384,0.02268557,-0.9306663,-0.05221394,6.9858551025390625,2.770660161972046,11.063007354736328,112.32686614990234,11.53316593170166, -15.166333198547363
309,813636171,0.37210262,0.029858677,-0.9267951,-0.041223545,5.820981502532959,2.138908624649048,9.828890800476074,86.17908477783203,80.86036682128906, -15.092719078063965
310,813652838,0.3906923,0.037280932,-0.91912556,-0.03433019,5.204158782958984,4.897733688354492,8.355498313903809,58.03458786010742,140.0893096923828, -25.665782928466797
311,813669505,0.41535252,0.043118455,-0.9079104,-0.036360946,3.9497792720794678,6.125385761260986,5.390050888061523,-4.975754737854004,185.27090454101562, -39.04819107055664
312,813686172,0.44504446,0.04758089,-0.8930785,-0.04563741,5.116065979003906,5.232259750366211,2.7746846675872803,-56.4962158203125,224.51455688476562, -50.92338562011719
313,813702839,0.4796364,0.051248413,-0.8740375,-0.05815024,7.423697471618652,3.5002241134643555,2.6023778915405273,-81.71290588378906,266.1932067871094, -55.750186920166016
314,813719506,0.5181726,0.056026153,-0.8506544,-0.06889017,9.257783889770508,1.8980610370635986,1.3972468376159668,-70.51795196533203,305.2926940917969, -56.50664520263672
315,813736173,0.5600202,0.06250143,-0.82248497,-0.07739513,11.415640830993652,1.9864023923873901,-0.15947085618972778,-54.94733810424805,343.4024963378906, -58.73676681518555
316,813752840,0.604,0.07200579,-0.78929675,-0.08373012,13.1045503616333,2.370584726333618,-1.8154821395874023,-34.60512161254883,377.37689208984375, -68.51948547363281
317,813769507,0.6482083,0.082968034,-0.75144863,-0.090927586,13.346627235412598,1.5492931604385376,-3.385348320007324,-36.05984878540039,398.4435729980469, -82.16937255859375
318,813786174,0.69020766,0.09623281,-0.7105647,-0.09721608,16.094757080078125,1.4818328619003296,-4.96038293838501,-21.757429122924805,402.5923767089844, -93.11898803710938
319,813802841,0.7299645,0.10465087,-0.66689163,-0.10703257,21.40293312072754,0.47424042224884033,-6.6588287353515625,-62.51148223876953,399.3719787597656, -89.53336334228516
320,813819508,0.76599026,0.109423965,-0.62269837,-0.116328605,24.756153106689453,2.757723093032837,-9.45634651184082,-76.18965911865234,382.66619873046875, -73.38007354736328
321,813836175,0.7971119,0.1063001,-0.58002406,-0.12994353,23.800607681274414,4.847103595733643,-13.550496101379395,-131.46376037597656,344.25238037109375, -65.16034698486328
322,813852842,0.8200905,0.10232382,-0.54420024,-0.14431864,19.040264129638672,3.4826979637145996,-18.60161590576172,-127.18436431884766,273.0949401855469, -68.2526626586914
323,813869509,0.834127,0.09789252,-0.5191747,-0.15845259,14.157184600830078,1.3430147171020508,-21.780832290649414,-111.92630767822266,178.7268524169922, -66.51284790039062
324,813886176,0.8406993,0.08840059,-0.50582486,-0.1719059,11.660161972045898,-2.3940629959106445,-24.562698364257812,-120.90284729003906,80.36599731445312, -44.881805419921875
325,813902843,0.8390842,0.07966346,-0.50676787,-0.18104772,8.355648040771484,-1.139281153678894,-25.339941024780273,-79.79019927978516,-26.877519607543945, -23.65831756591797
326,813919510,0.8295396,0.06744002,-0.5208355,-0.18986,9.51516056060791,0.7289748191833496,-22.374767303466797,-78.20296478271484,-134.06846618652344, -12.331954002380371
327,813936177,0.8135598,0.05417311,-0.544511,-0.19670758,12.649801254272461,0.376459538936615,-17.191146850585938,-61.721038818359375,-212.09207153320312, -1.3395569324493408
328,813952844,0.79684794,0.05183787,-0.5693496,-0.19541681,19.369489669799805,9.128890991210938,20.175537109375,31.663360595703125,-203.26571655273438, 2.680595874786377
329,813969511,0.78423315,0.03068554,-0.5829658,-0.21020992,18.987459182739258,-3.21535587310791,15.80083179473877,-150.8887481689453,-156.93434143066406, -10.193154335021973
330,813986178,0.76980615,0.008955467,-0.599455,-0.21902585,9.70363998413086,-8.707605361938477,-17.50691795349121,-125.41926574707031,-179.4026336669922, 22.285791397094727
331,814002845,0.75233716,0.007419347,-0.62036103,-0.22155485,11.565613746643066,14.03532600402832,-5.706242561340332,14.158082008361816,-184.2657012939453, -32.09880447387695
332,814019512,0.73612905,-0.0034156062,-0.6359802,-0.23158573,17.926849365234375,-5.1639509201049805,-3.239217758178711,-74.15312957763672,-165.9997100830078, -29.41927146911621
333,814036179,0.72280973,-0.0030381763,-0.65109825,-0.2315355,9.161476135253906,-1.3633103370666504,1.572090744972229,25.93779754638672,-133.140625, -22.9208984375
334,814052846,0.7116866,-0.0009467851,-0.6633002,-0.23137563,10.947368621826172,5.13978910446167,-0.2934289872646332,30.372028350830078,-106.11650848388672, -26.53436279296875
335,814069513,0.70261985,0.00080377853,-0.6731092,-0.23075801,10.52398681640625,4.028202533721924,0.1097978800535202,26.96547508239746,-85.58512115478516, -19.42682647705078
336,814086180,0.69550496,-0.0014097583,-0.67961717,-0.23322059,9.416584014892578,7.774901390075684,1.769087314605713,-11.693662643432617,-66.92720031738281, -12.863554000854492
337,814102847,0.68940383,-0.0068551158,-0.6842182,-0.23774175,11.119375228881836,1.3720402717590332,-1.0797773599624634,-39.79205322265625,-58.27138900756836, -5.876809597015381
338,814119514,0.6840901,-0.00844902,-0.6897183,-0.23714629,9.34045124053955,4.189431667327881,-0.7722094655036926,4.042242527008057,-52.771724700927734, 1.4838542938232422
339,814136181,0.67906564,-0.015108906,-0.69341177,-0.24046253,9.867551803588867,3.965622663497925,-1.0364418029785156,-41.26584243774414,-50.9397087097168, 7.714695453643799
340,814152848,0.67468965,-0.023465773,-0.6959348,-0.24478266,10.401806831359863,2.047811985015869,-1.1487880945205688,-55.83715057373047,-45.0858154296875, 12.344649314880371
341,814169515,0.6711367,-0.028210772,-0.69876164,-0.24599208,10.271759986877441,2.1349568367004395,-0.9592940211296082,-23.546436309814453,-36.977291107177734, 10.827288627624512
342,814186182,0.66797894,-0.030867126,-0.7017323,-0.245812,10.009339332580566,4.1334075927734375,-0.03196791931986809,-6.910168170928955,-32.482093811035156, 7.836167812347412
343,814202849,0.6646909,-0.033020172,-0.70476735,-0.24576207,9.559466361999512,2.7846052646636963,-0.3160894811153412,-5.136005401611328,-32.54601287841797, 4.5954670906066895
344,814219516,0.6611881,-0.03264595,-0.7088372,-0.24354608,10.272880554199219,2.7771620750427246,0.1050189882516861,18.618133544921875,-34.551002502441406, 1.6470400094985962
345,814236183,0.6571611,-0.030895306,-0.7137166,-0.24040368,10.092673301696777,3.248992681503296,0.03650473803281784,30.639665603637695,-38.709598541259766, -1.9209433794021606
346,814252850,0.6534955,-0.02417154,-0.7194437,-0.23400995,9.136712074279785,4.194830417633057,-0.4262690544128418,70.5455093383789,-33.26192855834961, -11.22919750213623
347,814269517,0.64888823,-0.017417394,-0.7267034,-0.22481896,9.796756744384766,3.5761728286743164,0.14004036784172058,86.8373031616211,-45.23683547973633, -0.5810821652412415
348,814286184,0.6431677,-0.014281229,-0.73348624,-0.21938515,9.553909301757812,3.61234712600708,0.6766234040260315,51.06859588623047,-53.83967590332031, -0.9390053749084473
349,814302851,0.6365679,-0.013571601,-0.7403147,-0.2157122,10.127837181091309,0.8724732398986816,-0.32646360993385315,31.454769134521484,-62.00260543823242, 2.1841793060302734
350,814319518,0.62896365,-0.013197923,-0.74784434,-0.2120374,9.495580673217773,1.6985878944396973,0.3065856099128723,30.946992874145508,-70.70722198486328, 2.3080663681030273
351,814336185,0.61956865,-0.013557561,-0.75650185,-0.20894083,9.96268081665039,2.6547439098358154,0.07139599323272705,26.295425415039062,-85.84931945800781, 0.8446346521377563
352,814352852,0.6086177,-0.013685976,-0.7662803,-0.20545614,10.216038703918457,3.6997480392456055,0.9074652194976807,30.77713966369629,-98.46199798583984, -1.049148440361023
353,814369519,0.5952642,-0.014189227,-0.777554,-0.20216131,11.312926292419434,3.0381369590759277,-0.504801869392395,30.120861053466797,-117.94898223876953, -3.3923869132995605
354,814386186,0.5804761,-0.015807558,-0.789441,-0.19894888,10.836698532104492,2.0317537784576416,0.020283043384552002,25.852277755737305,-129.7135009765625, 0.1725441813468933
355,814402853,0.5635177,-0.018772429,-0.80225956,-0.19615124,11.371708869934082,2.708387851715088,0.6834979057312012,19.262544631958008,-147.07411193847656, 2.7449276447296143
356,814419520,0.54424405,-0.021961445,-0.81629854,-0.19228427,11.639847755432129,2.6677725315093994,1.571336030960083,25.676998138427734,-165.09600830078125, 4.834418773651123
357,814436187,0.5222703,-0.025729343,-0.83179,-0.18627249,14.026660919189453,4.629654407501221,4.06518030166626,37.0995979309082,-186.88812255859375, 12.309809684753418
358,814452854,0.49867296,-0.030093765,-0.8475283,-0.17920882,18.749706268310547,7.913832187652588,7.295546531677246,41.07839584350586,-198.19207763671875, 17.379518508911133
359,814469521,0.4763526,-0.029398786,-0.8626269,-0.16762796,23.029394149780273,3.8103134632110596,10.183765411376953,84.36119842529297,-183.54388427734375, 5.112883567810059
360,814486188,0.45789105,-0.022480583,-0.87701577,-0.14378433,22.742944717407227,-0.2827129662036896,8.422741889953613,177.583251953125,-154.04071044921875, 12.892934799194336
361,814502855,0.43661475,-0.013112114,-0.89307743,-0.10774322,17.8791561126709,4.789629936218262,-5.2638258934021,260.1709289550781,-176.17103576660156, 33.40438461303711
362,814519522,0.41174883,-0.005890737,-0.90767473,-0.08096405,15.504398345947266,16.435504913330078,5.533999919891357,195.4389190673828,-194.69161987304688, 16.2962589263916
363,814536189,0.38799533,-0.00623752,-0.9190145,-0.069522664,14.64085865020752,8.24088191986084,2.2020535469055176,76.75173950195312,-182.38137817382812, 21.05288314819336
364,814552856,0.37088236,-0.0029554754,-0.92667127,-0.060978796,13.897135734558105,7.69489049911499,6.424083709716797,66.79113006591797,-128.9593963623047, -6.2110419273376465
365,814569523,0.3633544,0.004987223,-0.93051106,-0.045806017,9.64191722869873,3.06150484085083,8.433640480041504,119.6744384765625,-56.626983642578125, -14.827540397644043
366,814586190,0.36363947,0.012992511,-0.9308884,-0.03231972,6.997547149658203,3.343580961227417,9.195725440979004,107.77413940429688,1.7161166667938232, -17.035888671875
367,814602857,0.37141117,0.021611786,-0.9279029,-0.02415095,4.819751739501953,4.422084331512451,7.814224720001221,73.9570083618164,57.47861099243164, -32.816322326660156
368,814619524,0.38613993,0.029703254,-0.92163545,-0.02453476,3.838750123977661,5.193036079406738,6.190215110778809,16.576889038085938,108.71943664550781, -50.52703857421875
369,814636191,0.40632743,0.038519464,-0.912445,-0.02930531,2.93101167678833,4.7589921951293945,1.7570395469665527,-10.779455184936523,150.1777801513672, -66.34932708740234
370,814652858,0.43166417,0.046455774,-0.899895,-0.041197754,3.811178207397461,6.174222946166992,1.5743669271469116,-59.86846160888672,189.77865600585938, -80.49091339111328
371,814669525,0.46304348,0.051731262,-0.8828027,-0.059784174,5.982629776000977,3.2390341758728027,2.8896324634552,-112.30558776855469,237.7294158935547, -83.54496002197266
372,814686192,0.4992567,0.057130378,-0.8612953,-0.075163096,7.929017066955566,0.36191216111183167,1.9416477680206299,-95.91980743408203,282.2335205078125, -73.6151123046875
373,814702859,0.5382893,0.0636247,-0.83585536,-0.08684873,9.566811561584473,1.452863335609436,0.12098497152328491,-73.42145538330078,314.3606872558594, -67.49018096923828
374,814719526,0.57940984,0.068330035,-0.80579877,-0.10150749,10.464719772338867,0.7556086778640747,-1.8811709880828857,-100.813232421875,341.0367126464844, -68.95481872558594
375,814736193,0.62083477,0.0750089,-0.7720552,-0.113441125,11.588890075683594,0.5495702028274536,-3.4193477630615234,-80.58230590820312,360.067138671875, -70.53900146484375
376,814752860,0.66163385,0.08528783,-0.73497945,-0.12154082,15.003009796142578,3.0131077766418457,-3.2513208389282227,-47.205833435058594,375.8003234863281, -75.46449279785156
377,814769527,0.70182,0.09340659,-0.69385785,-0.13147396,19.851213455200195,3.727778673171997,-5.713659763336182,-69.42528533935547,388.2894287109375, -75.7226333618164
378,814786194,0.7395859,0.09941988,-0.6507227,-0.14031665,22.71306037902832,4.131964683532715,-9.638436317443848,-74.76290893554688,385.3832092285156, -63.88809585571289
379,814802861,0.7730114,0.10026661,-0.60821795,-0.14990334,23.924375534057617,2.850081443786621,-12.48514175415039,-100.96217346191406,357.5071105957031, -48.355194091796875
380,814819528,0.7985766,0.10151415,-0.572214,-0.15665732,20.15363883972168,5.708878040313721,-16.035911560058594,-75.05408477783203,292.776123046875, -38.71908187866211
381,814836195,0.8156189,0.098085456,-0.5442023,-0.17026171,13.516071319580078,5.971323013305664,-19.439176559448242,-113.37236785888672,206.0023193359375, -61.61254119873047
382,814852862,0.8242722,0.09392216,-0.5268958,-0.18475717,11.026373863220215,-3.2260711193084717,-22.074016571044922,-102.90814208984375,113.63653564453125, -66.49565887451172
383,814869529,0.82455766,0.08716047,-0.52387905,-0.19508666,8.901363372802734,-2.7494847774505615,-23.959012985229492,-79.20259094238281,2.315148115158081, -35.079002380371094
384,814886196,0.81641954,0.07465404,-0.53442276,-0.2056175,8.609073638916016,-1.2082257270812988,-22.250614166259766,-89.51339721679688,-112.11925506591797, -18.865734100341797
385,814902863,0.80036867,0.06680767,-0.55698866,-0.2114485,15.255000114440918,6.091451168060303,-5.790292739868164,-25.266897201538086,-199.10943603515625, -14.717876434326172
386,814919530,0.7844521,0.03685719,-0.57623446,-0.2263419,29.545595169067383,-8.095041275024414,13.57923698425293,-186.67669677734375,-216.37388610839844, 18.802690505981445
387,814936197,0.76814896,0.030329045,-0.59911567,-0.2238034,9.381141662597656,-12.96417236328125,-7.339903354644775,14.679051399230957,-196.65243530273438, 19.960826873779297
388,814952864,0.7482009,0.034181986,-0.6249192,-0.22023499,12.747432708740234,18.62012481689453,-12.26950454711914,78.97764587402344,-210.67750549316406, -22.748022079467773
389,814969531,0.7315931,0.021545388,-0.6415192,-0.22969744,14.65096664428711,0.5700861811637878,-3.6913390159606934,-76.8545150756836,-176.60955810546875, -15.65884780883789
390,814986198,0.7195679,0.022337604,-0.65534765,-0.22856656,6.194282531738281,-0.5928160548210144,-1.4182631969451904,32.29303741455078,-119.49637603759766, -14.842130661010742
391,815002865,0.710912,0.029785965,-0.6663841,-0.22282177,14.586715698242188,2.6985318660736084,0.311825692653656,81.06684112548828,-79.2861557006836, -17.218780517578125
392,815019532,0.7039107,0.034877244,-0.6748283,-0.2188615,12.11471176147461,2.2978317737579346,0.9111066460609436,57.03042984008789,-62.98508834838867, -13.222707748413086
393,815036199,0.6979163,0.03827523,-0.681699,-0.21618219,9.471145629882812,6.294293403625488,-0.18357068300247192,40.2668571472168,-53.56230926513672, -10.49356460571289
394,815052866,0.69362146,0.036311314,-0.6853491,-0.21878655,9.589850425720215,3.4067442417144775,0.22029514610767365,-15.487666130065918,-39.489471435546875, -8.958741188049316
395,815069533,0.68962836,0.041457124,-0.69090074,-0.21295646,10.331659317016602,4.186819076538086,-0.7969150543212891,60.94903564453125,-34.33381271362305, -1.3133519887924194
396,815086200,0.68635184,0.04375169,-0.6953434,-0.2085781,9.146730422973633,6.134604454040527,-0.2085271030664444,38.6866569519043,-30.2356014251709, 6.068821430206299
397,815102867,0.6837314,0.042550605,-0.6984925,-0.20690401,9.430212020874023,3.6137564182281494,-1.1326825618743896,7.210502624511719,-26.81305694580078, 10.638862609863281
398,815119534,0.6814953,0.042061012,-0.7013878,-0.20457383,10.451498985290527,2.7168469429016113,-0.6585400700569153,13.224547386169434,-22.536409378051758, 10.783803939819336
399,815136201,0.6792663,0.043972835,-0.70471394,-0.20010567,10.736100196838379,2.800238847732544,-0.4762876033782959,35.38683319091797,-20.508459091186523, 9.318092346191406
400,815152868,0.67718166,0.04547341,-0.7077051,-0.19624203,10.63565444946289,3.0146305561065674,0.12245490401983261,30.02984619140625,-18.987783432006836, 8.541882514953613
401,815169535,0.67536163,0.0541485,-0.71132916,-0.18699148,9.303726196289062,4.199059009552002,0.08716071397066116,90.42298889160156,-9.302444458007812, -0.784821629524231
402,815186202,0.672386,0.061589837,-0.7161503,-0.17672877,9.604442596435547,4.149389266967773,-0.5879555344581604,91.61898803710938,-21.74910545349121, 8.884678840637207
403,815202869,0.66865575,0.06461491,-0.7209999,-0.16995251,8.9393310546875,3.003060817718506,0.6427783966064453,54.40192794799805,-32.44145965576172, 13.59376335144043
404,815219536,0.663701,0.06527886,-0.7265767,-0.16530609,9.800254821777344,2.2851531505584717,0.48697060346603394,34.39985275268555,-45.602210998535156, 14.383021354675293
405,815236203,0.6575164,0.064041935,-0.7330303,-0.16198052,10.243890762329102,2.08583664894104,0.6434485912322998,20.696727752685547,-58.53852462768555, 16.817882537841797
406,815252870,0.6499569,0.062154587,-0.7406161,-0.15868436,10.137954711914062,1.7273205518722534,0.3104587197303772,19.470630645751953,-71.38047790527344, 18.901683807373047
407,815269537,0.6408185,0.058152348,-0.7492287,-0.15692882,9.676185607910156,2.6509323120117188,0.3257044553756714,3.9970967769622803,-87.01445007324219, 21.471023559570312
408,815286204,0.62996477,0.052710056,-0.75889534,-0.15634622,10.612610816955566,1.9456825256347656,0.02048051357269287,-6.5696187019348145,-102.57270050048828, 22.30820655822754
409,815302871,0.61737925,0.047619756,-0.76990443,-0.15434626,9.81343936920166,2.7082359790802,1.442784070968628,4.446005344390869,-116.57939147949219, 25.222381591796875
410,815319538,0.6021078,0.04156061,-0.78224474,-0.15437683,9.509087562561035,5.052518844604492,0.5584559440612793,-8.095720291137695,-138.24795532226562, 19.341411590576172
411,815336205,0.58484334,0.034139674,-0.7951829,-0.15645169,10.573258399963379,3.2575998306274414,0.7566810250282288,-23.46268653869629,-153.55433654785156, 16.356761932373047
412,815352872,0.56545734,0.02718459,-0.80913407,-0.15754804,11.196137428283691,3.728783130645752,0.5414493680000305,-14.640058517456055,-168.61781311035156, 15.74942398071289
413,815369539,0.5438113,0.02135176,-0.82397246,-0.1577431,11.463860511779785,3.4613406658172607,1.5426936149597168,-3.8180015087127686,-183.38267517089844, 10.768214225769043
414,815386206,0.5194977,0.017477585,-0.8400608,-0.15529054,13.596652030944824,3.078974485397339,3.701201915740967,20.300643920898438,-200.8465118408203, 6.892606258392334
415,815402873,0.4938914,0.015249498,-0.85648143,-0.14925998,17.75406837463379,3.016038417816162,8.248394012451172,47.45101547241211,-207.61074829101562, 8.80644702911377
416,815419540,0.46920988,0.014524793,-0.87180907,-0.13992982,24.800386428833008,4.915079116821289,12.248686790466309,70.91949462890625,-197.074462890625, 11.920327186584473
417,815436207,0.4488491,0.015603882,-0.8849205,-0.12331691,25.984416961669922,-3.681889533996582,7.680952548980713,118.06011962890625,-162.3386688232422, 28.458086013793945
418,815452874,0.42693472,0.029149605,-0.90021634,-0.08054581,17.158660888671875,7.572178363800049,-1.5889168977737427,317.82293701171875,-165.9488525390625, 32.02774429321289
419,815469541,0.4022472,0.036756538,-0.91310406,-0.05556307,14.423450469970703,16.526046752929688,4.404516696929932,189.55880737304688,-183.2169647216797, 14.715967178344727
420,815486208,0.3784531,0.038699947,-0.92386425,-0.041842535,13.118535041809082,11.490415573120117,1.1130645275115967,102.54341125488281,-177.1674041748047, 19.29296875
421,815502875,0.36201224,0.036100943,-0.9302091,-0.048528135,12.898113250732422,11.17536449432373,5.711653232574463,-41.81151580810547,-126.03193664550781, -3.848829507827759
422,815519542,0.35776955,0.038076308,-0.93183327,-0.04731,10.981218338012695,3.577975273132324,7.925540924072266,15.879423141479492,-33.23183822631836, -10.406197547912598
423,815536209,0.36246467,0.041045386,-0.9303109,-0.03816827,5.913728713989258,4.026689052581787,10.003040313720703,65.88455963134766,33.712711334228516, 4.84660005569458
424,815552876,0.37569207,0.042831596,-0.925241,-0.030827675,4.718504428863525,2.169883966445923,5.632114887237549,48.23698043823242,95.93789672851562, 9.285955429077148
425,815569543,0.39629427,0.04621342,-0.9166263,-0.024730606,4.888241291046143,5.61466646194458,5.43876314163208,41.59825134277344,151.75502014160156, -3.44063663482666
426,815586210,0.42309675,0.04639138,-0.90439343,-0.030160047,3.9023842811584473,5.947347164154053,4.218115329742432,-42.20166778564453,196.2595977783203, -14.587848663330078
427,815602877,0.4547257,0.046577733,-0.888526,-0.03970882,5.150452613830566,5.159915447235107,1.502924919128418,-69.94981384277344,235.36807250976562, -26.627206802368164
428,815619544,0.49049202,0.04696493,-0.8686582,-0.051429033,7.302308559417725,4.844824314117432,1.5688769817352295,-84.89697265625,272.4045715332031, -34.6714973449707
429,815636211,0.52994007,0.04765775,-0.84430474,-0.063577875,8.962325096130371,3.46240496635437,0.22950153052806854,-89.12926483154297,309.3579406738281, -37.9597053527832
430,815652878,0.5717514,0.050861947,-0.8155069,-0.073905244,10.686695098876953,4.225774765014648,-1.1277562379837036,-72.07706451416016,340.86968994140625, -46.22379684448242
431,815669545,0.614937,0.054704376,-0.7818951,-0.08660556,12.130223274230957,3.3266026973724365,-2.689871072769165,-85.8262710571289,366.9536437988281, -59.97380065917969
432,815686212,0.6582022,0.058387082,-0.7435487,-0.10245178,14.706544876098633,2.4720957279205322,-3.4495418071746826,-106.29420471191406,386.1657409667969, -74.07662963867188
433,815702879,0.69924086,0.06430342,-0.7025806,-0.11536168,16.925033569335938,0.20939874649047852,-6.30282735824585,-82.17253112792969,389.4723205566406, -74.78996276855469
434,815719546,0.7370935,0.07394191,-0.6603586,-0.12309586,20.879966735839844,0.9647237062454224,-9.005304336547852,-39.07305145263672,385.55133056640625, -71.00955200195312
435,815736213,0.7707169,0.08185171,-0.61837155,-0.13004899,22.22915267944336,3.31398344039917,-10.860063552856445,-42.12439727783203,364.4727783203125, -62.72807693481445
436,815752880,0.799349,0.08418358,-0.5784046,-0.13929369,21.432531356811523,3.1242103576660156,-12.731578826904297,-77.07688903808594,326.7669982910156, -54.55775451660156
437,815769547,0.8207281,0.08334652,-0.54488844,-0.15018539,16.647008895874023,4.438096046447754,-15.974902153015137,-90.91497039794922,259.0846862792969, -54.35578536987305
438,815786214,0.8343782,0.07673792,-0.52035683,-0.16478254,13.254045486450195,0.9101183414459229,-19.29596519470215,-123.98092651367188,172.0413055419922, -56.581111907958984
439,815802881,0.84084076,0.06853868,-0.50674194,-0.17748813,11.634982109069824,-3.188051223754883,-21.67173957824707,-110.48126983642578,83.68152618408203, -42.61672592163086
440,815819548,0.8400137,0.061939426,-0.50595117,-0.18588805,8.710641860961914,0.18187570571899414,-21.30031967163086,-67.408203125,-11.010144233703613, -26.433237075805664
441,815836215,0.8324334,0.05025289,-0.5161762,-0.19517107,8.73585319519043,3.0752551555633545,-18.459760665893555,-83.21776580810547,-104.20626068115234, -17.89824676513672
442,815852882,0.8190611,0.037595432,-0.53505325,-0.2035771,10.791154861450195,1.6648039817810059,-15.364107131958008,-72.35799407958984,-174.58349609375, -14.201529502868652
443,815869549,0.80343384,0.038772073,-0.55869645,-0.20211245,20.56032371520996,9.059164047241211,16.22218132019043,48.886329650878906,-187.1560516357422, -11.47199821472168
444,815886216,0.7882137,0.015067397,-0.57672244,-0.21420404,23.011459350585938,-8.446176528930664,4.232030391693115,-148.49237060546875,-193.0121612548828, 8.443220138549805
445,815902883,0.77042,0.002176571,-0.5990478,-0.21815197,9.41327953338623,-6.347331523895264,-14.361618995666504,-50.86751174926758,-209.58792114257812, 5.926234245300293
446,815919550,0.75045186,-0.0045248186,-0.6217679,-0.2240679,14.473333358764648,9.994739532470703,-1.9947863817214966,-25.76721954345703,-210.8061065673828, -33.50447082519531
447,815936217,0.7318118,-0.022120154,-0.63804907,-0.23844421,11.109723091125488,2.353797674179077,-2.5146501064300537,-128.17587280273438,-188.24664306640625, -28.03060531616211
448,815952884,0.7173031,-0.030257735,-0.6513765,-0.24549869,6.068416595458984,0.36458921432495117,-2.199695110321045,-52.6942138671875,-140.6939697265625, -25.358285903930664
449,815969551,0.706636,-0.029566437,-0.66288644,-0.24570984,15.190713882446289,2.090111017227173,-0.05281645059585571,19.124954223632812,-100.97149658203125, -24.293869018554688
450,815986218,0.69880253,-0.027321767,-0.67244583,-0.24237435,11.63960075378418,3.1609582901000977,1.021689772605896,40.099552154541016,-76.62702941894531, -9.035787582397461
451,816002885,0.6917865,-0.03990652,-0.6749367,-0.25357398,11.769325256347656,3.3113150596618652,1.8627501726150513,-109.97134399414062,-60.88689041137695, -7.5811686515808105
452,816019552,0.6862711,-0.05025752,-0.67688334,-0.26141027,10.620138168334961,0.41655677556991577,-1.7235981225967407,-84.25062561035156,-48.41981506347656, 0.8987346291542053
453,816036219,0.6827638,-0.05280472,-0.6800582,-0.2618516,8.901268005371094,6.315460205078125,0.03467626869678497,-10.127521514892578,-33.329017639160156, 2.6104376316070557
454,816052886,0.6795222,-0.05768577,-0.68179524,-0.26472175,9.489964485168457,4.805206775665283,-0.042352430522441864,-34.94595718383789,-28.663637161254883, 3.2716171741485596
455,816069553,0.6763473,-0.06172846,-0.683728,-0.26694614,9.503680229187012,2.475914239883423,0.05005788058042526,-27.60858917236328,-27.996883392333984, 2.50099778175354
456,816086220,0.6731062,-0.06463501,-0.68620276,-0.26809776,9.630114555358887,3.243509292602539,0.10948028415441513,-16.309412002563477,-29.208118438720703, 1.8058881759643555
457,816102887,0.66914093,-0.06804309,-0.68895614,-0.27011147,9.56474781036377,2.024345636367798,0.07865164428949356,-22.49193000793457,-34.46834182739258, -1.2423642873764038
458,816119554,0.6645536,-0.06976691,-0.6929348,-0.2708186,9.714215278625488,1.8328921794891357,0.23011228442192078,-6.570401191711426,-40.55472183227539, -4.948876857757568
459,816136221,0.6589945,-0.07105322,-0.6979007,-0.27131638,9.93117904663086,2.9170258045196533,0.5691571831703186,-2.1809659004211426,-49.00374221801758, -8.384095191955566
460,816152888,0.652784,-0.0710253,-0.7036551,-0.2714741,9.53239631652832,3.970320224761963,1.1235013008117676,6.56248664855957,-53.46208190917969, -14.74348258972168
461,816169555,0.6463642,-0.06918728,-0.71068466,-0.2689869,10.815176963806152,2.6319291591644287,-0.8062455654144287,29.794111251831055,-58.174198150634766, -12.607446670532227
462,816186222,0.63987595,-0.06730833,-0.7179623,-0.26562893,10.468836784362793,1.8246791362762451,0.02266056090593338,34.644630432128906,-59.95583724975586, -9.217156410217285
463,816202889,0.633178,-0.06536383,-0.7253792,-0.26198903,10.837323188781738,0.9935703873634338,-0.636547327041626,36.503700256347656,-61.65151596069336, -8.809418678283691
464,816219556,0.6262506,-0.06266329,-0.7332856,-0.25724676,10.658042907714844,2.0998144149780273,0.25742873549461365,46.06306457519531,-64.08822631835938, -8.511877059936523
465,816236223,0.61819637,-0.060938932,-0.74158996,-0.25330648,10.785200119018555,3.055711507797241,-0.6000571250915527,38.054779052734375,-72.93122100830078, -9.264657020568848
466,816252890,0.6091761,-0.0584038,-0.7511487,-0.24752685,10.053008079528809,3.117227792739868,0.7081109285354614,52.683631896972656,-82.58876037597656, -7.813893795013428
467,816269557,0.5981258,-0.055931427,-0.76209307,-0.24151982,9.2852144241333,5.209538459777832,1.0520323514938354,55.16831588745117,-99.1751937866211, -10.564057350158691
468,816286224,0.5849648,-0.053785738,-0.77430564,-0.23531762,10.581061363220215,3.5797176361083984,1.9394099712371826,56.20891571044922,-116.18215942382812, -11.977643013000488
469,816302891,0.57003766,-0.05152025,-0.78760177,-0.22822478,10.145890235900879,3.399096965789795,-1.4397097826004028,62.623252868652344,-130.24099731445312, -12.300308227539062
470,816319558,0.5530709,-0.0514808,-0.801284,-0.22227596,11.011868476867676,2.119206190109253,1.5056504011154175,47.59711456298828,-145.95021057128906, -8.061141014099121
471,816336225,0.5341091,-0.051079117,-0.81600374,-0.21507405,11.102828979492188,2.126753568649292,0.04554802179336548,56.83909606933594,-160.9611358642578, -8.762751579284668
472,816352892,0.5132227,-0.050542437,-0.8315864,-0.20618515,12.529869079589844,3.6121826171875,3.216820001602173,67.44331359863281,-175.47853088378906, -6.523099899291992
473,816369559,0.49090418,-0.049545173,-0.847838,-0.19424088,15.475918769836426,3.6817004680633545,6.134140491485596,87.12164306640625,-186.7312469482422, -0.6677974462509155
474,816386226,0.46853507,-0.048068795,-0.8637134,-0.17934303,21.406064987182617,6.571444988250732,10.642568588256836,105.6171646118164,-186.575439453125, 6.502511978149414
475,816402893,0.4479675,-0.042948678,-0.8783885,-0.16097988,24.29026985168457,0.17075683176517487,6.398131370544434,137.35409545898438,-169.3782958984375, -1.401031732559204
476,816419560,0.42797878,-0.028786369,-0.89473253,-0.124336496,20.84615707397461,3.8154454231262207,-0.2663514018058777,277.81536865234375,-167.12974548339844, 0.22879979014396667
477,816436227,0.40537477,-0.01690886,-0.9089555,-0.0958417,17.75988006591797,12.834491729736328,4.513189315795898,218.7009735107422,-177.75791931152344, -11.519991874694824
478,816452894,0.38289317,-0.009887456,-0.92105234,-0.07041463,14.814053535461426,7.083552360534668,2.717017889022827,184.9850616455078,-174.43128967285156, 10.866010665893555
479,816469561,0.36408436,-0.0020825383,-0.92985934,-0.052918136,12.6552734375,12.513160705566406,4.905266761779785,135.70054626464844,-141.99644470214844, -12.844101905822754
480,816486228,0.3539491,0.0030600815,-0.9341357,-0.045845944,12.19754695892334,3.7361538410186768,6.326719760894775,61.27372360229492,-76.43315887451172, -18.456453323364258
481,816502895,0.35198736,0.01212915,-0.9354705,-0.029207049,7.864583969116211,2.2540032863616943,8.646322250366211,131.3546905517578,-15.78632926940918, -17.808361053466797
482,816519562,0.3574845,0.019769799,-0.9334865,-0.02042666,5.9885735511779785,4.306240558624268,7.621488571166992,76.18634796142578,38.9053955078125, -26.31488609313965
483,816536229,0.36979625,0.026220046,-0.92847615,-0.02226216,4.627368450164795,6.659548759460449,5.931173324584961,3.948953628540039,88.1803970336914, -44.095130920410156
484,816552896,0.38911787,0.030311637,-0.9200378,-0.03463227,4.26345682144165,5.298301696777344,5.721225738525391,-70.86077880859375,139.18055725097656, -55.2327880859375
485,816569563,0.41521174,0.034170482,-0.90769297,-0.05025376,4.656886100769043,3.288655996322632,4.428117752075195,-94.21621704101562,191.5563201904297, -61.57646560668945
486,816586230,0.44743475,0.040035784,-0.8911679,-0.06339983,6.481942653656006,1.501536250114441,2.4852285385131836,-75.81232452392578,242.87310791015625, -65.82440185546875
487,816602897,0.4843573,0.046822373,-0.870462,-0.07417542,8.353986740112305,0.668799638748169,1.6695656776428223,-61.527374267578125,285.4712219238281, -63.21100997924805
488,816619564,0.52496505,0.054894473,-0.8453135,-0.082726866,9.656511306762695,0.4854665696620941,0.269880473613739,-47.38222885131836,323.59100341796875, -62.975807189941406
489,816636231,0.56855536,0.0648684,-0.8151297,-0.09000443,11.802165985107422,0.8890789747238159,-0.9071839451789856,-37.13086700439453,360.61834716796875, -69.54772186279297
490,816652898,0.61319417,0.07449431,-0.7801415,-0.09911148,12.337823867797852,0.9870039224624634,-2.2482542991638184,-52.23796463012695,384.2375183105469, -76.1552505493164
491,816669565,0.6568976,0.08429116,-0.7415036,-0.1074863,14.801558494567871,0.373664528131485,-3.97819447517395,-49.61450958251953,395.1683044433594, -76.42204284667969
492,816686232,0.69886017,0.09155169,-0.69961214,-0.11728648,18.671241760253906,2.1890621185302734,-5.253930568695068,-70.03477478027344,398.3745422363281, -73.07920837402344
493,816702899,0.73845917,0.09428896,-0.65508604,-0.12903577,23.81892204284668,2.6702449321746826,-8.103349685668945,-101.87409210205078,395.0176696777344, -64.27963256835938
494,816719566,0.7746998,0.08947665,-0.60944456,-0.14286923,27.277667999267578,2.103076457977295,-12.12864875793457,-148.73956298828125,377.8296203613281, -44.71927261352539
495,816736233,0.8039437,0.08510849,-0.5681598,-0.15370694,20.816898345947266,3.000528573989868,-17.439977645874023,-125.48980712890625,328.1114807128906, -35.07906723022461
496,816752900,0.8238609,0.083509944,-0.53596026,-0.16439712,16.370628356933594,4.297674179077148,-19.842967987060547,-94.84131622314453,245.19537353515625, -49.80328369140625
497,816769567,0.8354317,0.08235549,-0.51460963,-0.174496,12.037479400634766,-0.7699954509735107,-22.216745376586914,-73.44886016845703,154.63494873046875, -51.40180587768555
498,816786234,0.8391656,0.081254035,-0.50659406,-0.18044874,9.279930114746094,-2.3570973873138428,-24.057369232177734,-38.35782241821289,53.56435775756836, -29.843416213989258
499,816802901,0.8347499,0.07749631,-0.512958,-0.18455717,8.19468879699707,0.6138043403625488,-22.412656784057617,-25.18370819091797,-59.19945526123047, -12.258523941040039
500,816819568,0.8235091,0.06713146,-0.52997684,-0.19092147,10.193621635437012,1.5154938697814941,-18.7703800201416,-54.236175537109375,-153.24400329589844, -4.982364654541016
501,816836235,0.8078334,0.05866053,-0.5533711,-0.1942811,14.660253524780273,4.462763786315918,-1.795029878616333,-22.437641143798828,-200.94964599609375, 2.2021708488464355
502,816852902,0.79491955,0.04448354,-0.5691677,-0.20535971,22.360876083374023,5.401366233825684,24.165531158447266,-94.87092590332031,-158.7339630126953, -18.296533584594727
503,816869569,0.7817527,0.029285615,-0.5863645,-0.21019512,14.517810821533203,-12.901598930358887,-9.781805038452148,-73.7049789428711,-167.38755798339844, 19.917255401611328
504,816886236,0.7652391,0.033021763,-0.6088902,-0.2063291,12.336487770080566,7.044097423553467,-8.772299766540527,71.43718719482422,-179.98052978515625, -13.963555335998535
505,816902903,0.75025874,0.027897006,-0.6253127,-0.21288025,15.406364440917969,0.9856244921684265,-2.5109455585479736,-28.0096378326416,-156.00820922851562, -30.764535903930664
506,816919570,0.7382286,0.026714882,-0.6384157,-0.21617305,10.905691146850586,0.20200353860855103,0.4979333281517029,0.805145800113678,-119.63799285888672, -27.30934715270996
507,816936237,0.72950923,0.029599864,-0.6483007,-0.21597803,9.31236743927002,5.795052528381348,0.09846925735473633,31.34303855895996,-82.06747436523438, -23.211618423461914
508,816952904,0.72319376,0.031998735,-0.6553979,-0.21545462,11.953352928161621,2.868070363998413,0.29540467262268066,25.69770622253418,-58.01400375366211, -16.30438232421875
509,816969571,0.7184538,0.03837366,-0.66212416,-0.20962746,9.871298789978027,6.55002498626709,0.3116084635257721,68.45901489257812,-42.004722595214844, -5.648420810699463
510,816986238,0.7153727,0.038397733,-0.6654915,-0.20949683,10.433390617370605,3.537794589996338,0.7385997176170349,5.857827663421631,-28.52340316772461, -3.2837119102478027
511,817002905,0.71276784,0.043913595,-0.6696978,-0.20381129,11.12987232208252,1.6029326915740967,-0.9196039438247681,59.373046875,-21.113521575927734, -0.19642654061317444
512,817019572,0.7105052,0.04955197,-0.6736001,-0.19745946,10.170540809631348,3.4456417560577393,-0.17578469216823578,62.49052810668945,-17.652097702026367, 2.7872087955474854
513,817036239,0.70843667,0.053627647,-0.6770386,-0.1919913,9.939738273620605,3.317295551300049,-0.10761116445064545,50.07114791870117,-16.912437438964844, 5.781412601470947
514,817052906,0.70621514,0.056878097,-0.6804412,-0.18714994,8.890718460083008,3.266101121902466,-0.5743759870529175,43.14305114746094,-18.77935791015625, 6.328788757324219
515,817069573,0.7036391,0.060117543,-0.6842097,-0.18203104,8.401589393615723,4.306331634521484,0.4963291585445404,44.99484634399414,-22.119428634643555, 7.4024505615234375
516,817086240,0.7005954,0.061587904,-0.68817174,-0.17830671,8.737364768981934,4.321756362915039,0.459949791431427,30.3354549407959,-28.07697296142578, 8.506024360656738
517,817102907,0.6968712,0.06265003,-0.69273674,-0.17481817,8.674728393554688,3.756739377975464,0.8477140665054321,28.287691116333008,-34.83882141113281, 8.760184288024902
518,817119574,0.69261307,0.06275255,-0.6976017,-0.17234108,9.009049415588379,3.6301581859588623,0.3512214422225952,19.501861572265625,-40.450469970703125, 7.999192237854004
519,817136241,0.68827647,0.064287946,-0.7023884,-0.16968623,8.605408668518066,5.313696384429932,1.1717110872268677,27.12346649169922,-38.71986770629883, 1.8666362762451172
520,817152908,0.6831981,0.06712181,-0.70831084,-0.16441123,8.62116527557373,3.816890001296997,-1.3268146514892578,47.615989685058594,-45.06736373901367, 7.700364589691162
521,817169575,0.67763686,0.06722572,-0.71433985,-0.16126958,9.095280647277832,4.0083088874816895,0.006269544363021851,24.742490768432617,-51.98136520385742, 10.502081871032715
522,817186242,0.6711565,0.06455803,-0.7207247,-0.16105127,9.476079940795898,3.4405527114868164,0.09243560582399368,-1.6746844053268433,-62.608951568603516, 9.68290901184082
523,817202909,0.6631179,0.0628221,-0.72864556,-0.15938686,9.932623863220215,3.0248780250549316,1.1655594110488892,12.189884185791016,-75.79193878173828, 10.72504997253418
524,817219576,0.6532835,0.05519316,-0.7370658,-0.16403915,10.30711841583252,2.5682642459869385,0.5488069653511047,-44.97464370727539,-96.33600616455078, 9.725808143615723
525,817236243,0.6414124,0.04818235,-0.74725384,-0.16697463,10.777800559997559,1.9861379861831665,0.37830159068107605,-30.69103240966797,-113.31105041503906, 12.70470905303955
526,817252910,0.6282601,0.041999795,-0.7583574,-0.16858137,11.906638145446777,2.106964588165283,0.9919970631599426,-18.722091674804688,-122.61392974853516, 13.142807960510254
527,817269577,0.613479,0.035813108,-0.7704217,-0.16973975,12.216663360595703,1.9183835983276367,-0.23931166529655457,-14.77359676361084,-135.23468017578125, 13.478654861450195
528,817286244,0.59750146,0.02922844,-0.7830633,-0.17014697,11.620389938354492,1.7436834573745728,1.0693782567977905,-11.496597290039062,-144.37046813964844, 17.485122680664062
529,817302911,0.579105,0.022444412,-0.79696345,-0.17024545,11.61353588104248,3.0822291374206543,0.9576989412307739,-8.654070854187012,-162.86473083496094, 17.231481552124023
530,817319578,0.55843985,0.015341574,-0.81197536,-0.16913272,12.581082344055176,3.4722161293029785,3.0386273860931396,-1.590528130531311,-180.05331420898438, 21.339218139648438
531,817336245,0.534609,0.008205919,-0.8287695,-0.16512881,16.006006240844727,7.494556427001953,6.097809314727783,16.919296264648438,-204.52932739257812, 29.145523071289062
532,817352912,0.5092562,0.0043808618,-0.8457994,-0.15894282,19.036380767822266,7.692197322845459,7.600347518920898,42.06298828125,-210.54592895507812, 16.658798217773438
533,817369579,0.4863506,0.008266959,-0.8616777,-0.14459123,22.346433639526367,3.3367691040039062,10.987665176391602,115.44593811035156,-184.0613555908203, 3.0725817680358887
534,817386246,0.4657718,0.014615979,-0.87627345,-0.122426555,21.111865997314453,-0.07343657314777374,8.699324607849121,168.7557373046875,-163.71861267089844, 16.746906280517578
535,817402913,0.4414596,0.020365827,-0.89201385,-0.09492355,14.485307693481445,4.184496879577637,-5.264069080352783,200.4334259033203,-190.4390869140625, 34.30265808105469
536,817419580,0.4153093,0.026015678,-0.90638554,-0.07284891,15.356215476989746,16.0291805267334,4.5457305908203125,166.21246337890625,-198.50628662109375, 17.100488662719727
537,817436247,0.39270353,0.021511417,-0.9163185,-0.075379476,15.875048637390137,7.864903450012207,4.829596042633057,-18.625194549560547,-173.59071350097656, 11.350820541381836
538,817452914,0.3797593,0.024528023,-0.92234206,-0.06683434,13.157885551452637,2.1895129680633545,9.005755424499512,68.23472595214844,-97.03021240234375, -1.6543807983398438
539,817469581,0.3758298,0.03231937,-0.9248936,-0.047745354,8.251873970031738,4.631906986236572,11.052046775817871,144.57278442382812,-27.271587371826172, -0.8350376486778259
540,817486248,0.38050184,0.036784284,-0.9232518,-0.038366035,6.861661911010742,5.421302795410156,10.991475105285645,71.10771942138672,34.63501739501953, -2.7661941051483154
541,817502915,0.39296523,0.04053577,-0.9179717,-0.035548985,5.09428071975708,5.66094970703125,9.19129753112793,24.834291458129883,91.42552185058594, -14.153189659118652
542,817519582,0.41214916,0.043972805,-0.9092094,-0.03921676,4.3582634925842285,5.930147647857666,6.423717498779297,-19.494659423828125,141.1173858642578, -28.90515899658203
543,817536249,0.437189,0.047264602,-0.8968275,-0.04829691,4.9770965576171875,5.403781890869141,4.1810712814331055,-56.329532623291016,186.14578247070312, -42.73725509643555
544,817552916,0.46767837,0.050359163,-0.88038033,-0.06059628,6.379496097564697,3.776181697845459,3.086733102798462,-79.76454162597656,230.7484893798828, -50.61311721801758
545,817569583,0.5029339,0.054390498,-0.8595769,-0.07229895,7.829972743988037,2.168947219848633,2.0481414794921875,-76.51713562011719,274.111572265625, -53.817989349365234
546,817586250,0.5421465,0.05952225,-0.83415294,-0.08199683,9.503164291381836,1.787757158279419,0.9807618260383606,-64.60491943359375,314.7020568847656, -53.089088439941406
547,817602917,0.5842792,0.06615701,-0.8038977,-0.089386694,11.446683883666992,1.5597833395004272,-0.31058400869369507,-49.66501998901367,351.2141418457031, -53.36741256713867
548,817619584,0.62823427,0.0750988,-0.7685348,-0.09506148,13.469075202941895,1.5305863618850708,-1.887596607208252,-34.910030364990234,384.01568603515625, -60.34933853149414
549,817636251,0.6719559,0.08407729,-0.72858644,-0.10280334,15.598407745361328,2.198148727416992,-3.3678579330444336,-48.578407287597656,401.61688232421875, -71.92853546142578
550,817652918,0.7137817,0.08936971,-0.6851429,-0.11449177,19.876972198486328,0.4810205399990082,-6.055209159851074,-86.84933471679688,403.4982604980469, -75.01441955566406
551,817669585,0.7514756,0.09455324,-0.64134896,-0.122539625,24.634958267211914,2.639620780944824,-10.39228630065918,-68.1927719116211,388.0580139160156, -60.172813415527344
552,817686252,0.7838721,0.09340891,-0.59913915,-0.13361105,22.65486717224121,6.525209903717041,-14.189796447753906,-109.62000274658203,349.5798645019531, -51.419532775878906
553,817702919,0.8088049,0.08949266,-0.562584,-0.14603178,19.213457107543945,3.5237557888031006,-18.705673217773438,-120.39022827148438,285.41204833984375, -50.54359436035156
554,817719586,0.82502353,0.08946646,-0.5357298,-0.1559679,15.31989574432373,2.6340012550354004,-21.69227409362793,-74.30027770996094,203.80047607421875, -54.66621780395508
555,817736253,0.83383375,0.08608707,-0.51934963,-0.16609286,11.242901802062988,-0.3543313145637512,-24.58551788330078,-78.49422454833984,114.08609008789062, -44.988773345947266
556,817752920,0.83463216,0.08055871,-0.5163049,-0.1741524,8.388520240783691,-1.4681024551391602,-25.944721221923828,-63.77674102783203,8.50456714630127, -26.899965286254883
557,817769587,0.8270875,0.07046464,-0.52715385,-0.18185236,8.72115421295166,-0.8579182624816895,-24.52334976196289,-67.7159423828125,-105.40684509277344, -11.061447143554688
558,817786254,0.81252664,0.061983157,-0.5492084,-0.18528074,12.482372283935547,0.39817506074905396,-14.022075653076172,-25.90766716003418,-189.8369903564453, 3.945744037628174
559,817802921,0.7987557,0.05562019,-0.56825954,-0.1896766,26.941579818725586,9.672536849975586,26.75794792175293,-22.050527572631836,-167.35462951660156, -9.811163902282715
560,817819588,0.78601533,0.040577173,-0.5859922,-0.19273505,15.622941970825195,-16.38200569152832,-5.407609939575195,-66.42709350585938,-167.30313110351562, 32.34922790527344
561,817836255,0.76878715,0.04806614,-0.61085427,-0.183067,10.370594024658203,7.327523231506348,-11.61445140838623,117.35804748535156,-190.3043212890625, 5.867526531219482
562,817852922,0.7530316,0.039883934,-0.62820286,-0.19160977,14.246940612792969,6.834428787231445,-2.276735305786133,-52.1150016784668,-169.8441925048828, -25.089616775512695
563,817869589,0.7405342,0.03467374,-0.6416969,-0.19655128,11.792049407958984,-3.381079912185669,-0.6398385167121887,-27.1876163482666,-130.8244171142578, -15.929720878601074
564,817886256,0.73117656,0.041750103,-0.653297,-0.19194087,9.76911735534668,2.9291932582855225,-0.6602044105529785,74.17477416992188,-88.4595947265625, -17.8671875
565,817902923,0.72395176,0.04726768,-0.6620273,-0.18809502,12.236739158630371,4.414730072021484,0.8398103713989258,58.52052688598633,-66.7453842163086, -12.718574523925781
566,817919590,0.71770155,0.051232606,-0.6696322,-0.18404518,8.603050231933594,7.171243190765381,0.13457846641540527,49.96488571166992,-58.70587921142578, -3.7277376651763916
567,817936257,0.71280247,0.046887483,-0.6745296,-0.18634474,9.335858345031738,6.099149703979492,0.34681209921836853,-24.162330627441406,-51.9286003112793, 4.071499824523926
568,817952924,0.7084023,0.040525176,-0.67861843,-0.1897397,10.550054550170898,2.2716310024261475,-0.7278810739517212,-40.29721450805664,-48.642578125, 8.533895492553711
569,817969591,0.7042391,0.03586133,-0.68292975,-0.19070621,9.503543853759766,4.124865531921387,-0.7470123171806335,-20.454505920410156,-45.75947952270508, 12.808448791503906
570,817986258,0.70051354,0.026153842,-0.68555933,-0.19648336,9.997298240661621,3.6309425830841064,-0.7751816511154175,-69.75377655029297,-43.394989013671875, 13.408799171447754
571,818002925,0.696818,0.015392835,-0.6877191,-0.20310211,10.145522117614746,1.6599541902542114,-0.7176685929298401,-79.40640258789062,-42.59811782836914, 14.324226379394531
572,818019592,0.6929079,0.007905063,-0.6907279,-0.20666745,10.23304271697998,1.26559317111969,-0.5137052536010742,-48.06884002685547,-42.8250732421875, 13.265435218811035
573,818036259,0.68880373,0.0034618333,-0.69464016,-0.20739537,9.4399995803833,2.746276617050171,0.5804905295372009,-18.755338668823242,-43.6087760925293, 12.080467224121094
574,818052926,0.6842595,0.00009684311,-0.6989764,-0.20789713,9.143694877624512,3.070042848587036,0.38341236114501953,-11.947333335876465,-46.246131896972656, 7.394351005554199
575,818069593,0.6790268,-0.002060012,-0.7040619,-0.2078837,9.585132598876953,2.8687658309936523,0.45975998044013977,-2.675886392593384,-51.40885925292969, 3.044949531555176
576,818086260,0.6730262,-0.002423489,-0.710254,-0.20632371,9.58313274383545,2.479271650314331,0.7433491349220276,14.771060943603516,-57.81453323364258, 0.4762805700302124
577,818102927,0.6666125,0.00057266525,-0.7173906,-0.20243165,9.35617733001709,4.132050037384033,1.4819165468215942,43.08421325683594,-59.53693771362305, -5.747906684875488
578,818119594,0.65928584,0.004525656,-0.7256308,-0.19693153,9.077106475830078,2.9945383071899414,-0.5043854713439941,56.964324951171875,-67.84229278564453, -4.345545768737793
579,818136261,0.65085006,0.0060740747,-0.7344575,-0.19217208,9.893800735473633,2.7664029598236084,0.30837905406951904,43.21814727783203,-79.35601806640625, 2.810299873352051
580,818152928,0.6416977,0.006444913,-0.743393,-0.18854597,10.570747375488281,2.839229106903076,-0.7569447755813599,32.44270706176758,-85.11763763427734, 2.737046718597412
581,818169595,0.63171303,0.006065255,-0.7527222,-0.18523355,10.926963806152344,2.529200553894043,0.1162969172000885,28.070432662963867,-92.14530944824219, 4.126308917999268
582,818186262,0.6205669,0.0058914395,-0.76287127,-0.18135543,10.91968822479248,2.936973810195923,0.9720208644866943,32.99958419799805,-101.49442291259766, 4.065468788146973
583,818202929,0.60771596,0.004480034,-0.7738187,-0.17851074,11.079111099243164,2.8801960945129395,0.45769113302230835,23.409135818481445,-115.49825286865234, 4.050008296966553
584,818219596,0.5925497,0.0018555239,-0.78611094,-0.17581657,11.737838745117188,1.920745611190796,0.5763961672782898,19.307588577270508,-134.99386596679688, 7.069653034210205
585,818236263,0.57502955,-0.0010403498,-0.7996957,-0.17270571,10.967360496520996,3.0629653930664062,-0.8322180509567261,22.045419692993164,-153.38796997070312, 7.394303321838379
586,818252930,0.5547437,-0.004391172,-0.81458676,-0.16937827,12.921941757202148,3.0854105949401855,2.0149102210998535,22.989208221435547,-174.35870361328125, 7.463900089263916
587,818269597,0.5319414,-0.0066161104,-0.83078575,-0.16367655,14.588573455810547,2.8701164722442627,2.8585729598999023,42.082252502441406,-192.308837890625, 7.232894420623779
588,818286264,0.5075756,-0.0071058488,-0.8479501,-0.15263586,19.024904251098633,5.385578632354736,6.893379211425781,79.97914123535156,-203.19667053222656, 15.031028747558594
589,818302931,0.4840326,-0.0057020993,-0.86355114,-0.14127834,23.068626403808594,5.330167770385742,9.25963306427002,86.91586303710938,-191.1701202392578, 6.027484893798828
590,818319598,0.46306568,-0.0030585427,-0.8773814,-0.12555085,22.736040115356445,-0.04726871848106384,8.703008651733398,115.46075439453125,-169.2027587890625, 15.761697769165039
591,818336265,0.44174463,0.0022784139,-0.89173526,-0.098311864,18.01154899597168,2.329373598098755,-2.823122501373291,193.98243713378906,-171.19058227539062, 35.79478073120117
592,818352932,0.41879156,0.012341771,-0.90536886,-0.069056086,14.283824920654297,15.411744117736816,7.166369915008545,220.25787353515625,-175.8806610107422, 11.836225509643555
593,818369599,0.39533266,0.014742837,-0.91667444,-0.056595776,12.361370086669922,10.727481842041016,3.6762399673461914,92.69850158691406,-177.5258331298828, 10.868644714355469
594,818386266,0.37860712,0.01522636,-0.9237695,-0.055454127,12.78472900390625,8.251129150390625,6.430803298950195,13.935933113098145,-125.62281799316406, -5.563956260681152
595,818402933,0.37320042,0.020779798,-0.9263507,-0.046520405,9.88577938079834,3.1436986923217773,9.668739318847656,73.81102752685547,-39.35922622680664, -13.602940559387207
596,818419600,0.37649468,0.02652815,-0.9253224,-0.036422756,6.210752964019775,3.374075174331665,9.732990264892578,79.37149810791016,25.42688751220703, -9.574814796447754
597,818436267,0.38772938,0.034195762,-0.9206832,-0.028972607,3.921290397644043,5.141908168792725,7.3193135261535645,65.178955078125,85.20833587646484, -27.267250061035156
598,818452934,0.40588853,0.04076742,-0.9125386,-0.029430907,4.290153503417969,6.145947456359863,5.377586364746094,9.920707702636719,136.2786407470703, -40.80811309814453
599,818469601,0.42966193,0.046889264,-0.9010721,-0.035518527,4.367361545562744,5.673829078674316,2.586270809173584,-28.85726547241211,179.09677124023438, -53.43552017211914
600,818486268,0.4588657,0.05222659,-0.88570446,-0.047354512,5.7461371421813965,5.331615924835205,2.84427547454834,-69.46697235107422,222.24673461914062, -65.44761657714844
601,818502935,0.49313852,0.056829944,-0.8659393,-0.061108112,7.824570655822754,2.1085855960845947,2.542966842651367,-86.6953353881836,266.086181640625, -66.92280578613281
602,818519602,0.530382,0.062774666,-0.8424014,-0.07151635,9.514616966247559,1.14939284324646,0.8691643476486206,-64.97526550292969,298.4454650878906, -63.7807731628418
603,818536269,0.5696215,0.06818686,-0.8150036,-0.08155788,10.77828598022461,1.575990080833435,-0.15394669771194458,-67.5719223022461,324.00555419921875, -60.03680419921875
604,818552936,0.61014163,0.07358787,-0.78359056,-0.0910943,13.66723918914795,1.6320668458938599,-1.4470093250274658,-67.64872741699219,347.18060302734375, -59.15459060668945
605,818569603,0.65146846,0.078814745,-0.7478135,-0.10075874,15.119500160217285,1.805803656578064,-2.7253291606903076,-72.225830078125,369.7250671386719, -60.45610046386719
606,818586270,0.6920036,0.085816264,-0.7085965,-0.10797075,17.621395111083984,0.5433915853500366,-4.339254856109619,-53.7457160949707,383.6658630371094, -60.995323181152344
607,818602937,0.72974914,0.0941989,-0.6677649,-0.112619236,20.312898635864258,0.4517970085144043,-7.116299629211426,-34.251304626464844,380.3765869140625, -58.56732177734375
608,818619604,0.7640589,0.098459676,-0.6265073,-0.11835832,22.538257598876953,2.3666563034057617,-9.478392601013184,-58.1153678894043,362.9459228515625, -48.079627990722656
609,818636271,0.79308224,0.09834459,-0.587843,-0.12565884,20.541732788085938,3.982234239578247,-12.945749282836914,-82.3589096069336,322.00701904296875, -40.05270767211914
610,818652938,0.81449336,0.096458934,-0.5555651,-0.13654277,16.528444290161133,6.3283233642578125,-16.363597869873047,-95.81555938720703,252.64329528808594, -54.70342254638672
611,818669605,0.82814753,0.09234567,-0.5320249,-0.15031317,12.688015937805176,1.7533819675445557,-19.175674438476562,-106.07908630371094,170.2613525390625, -63.86063766479492
612,818686272,0.83486784,0.085846625,-0.5187403,-0.16289535,11.165627479553223,-1.0174797773361206,-20.45326805114746,-100.4051513671875,85.00678253173828, -49.0639762878418
613,818702939,0.8347547,0.07744759,-0.51694965,-0.17306015,9.02695369720459,0.022442370653152466,-21.196327209472656,-85.86690521240234,-5.815878868103027, -29.34123992919922
614,818719606,0.82749236,0.067999214,-0.5266229,-0.18248622,8.683237075805664,1.4470062255859375,-19.30641746520996,-71.90809631347656,-97.65995788574219, -23.810516357421875
615,818736273,0.8142522,0.05624871,-0.54526114,-0.19110239,10.308826446533203,0.5416750907897949,-16.529407501220703,-68.11318969726562,-172.63693237304688, -14.182676315307617
616,818752940,0.7980913,0.05428494,-0.56876105,-0.19134864,18.99959373474121,6.416435241699219,11.812517166137695,25.511390686035156,-194.54017639160156, -5.991535663604736
617,818769607,0.78318906,0.033471897,-0.5872284,-0.20163737,22.973838806152344,-9.178699493408203,8.934237480163574,-124.27919006347656,-190.61346435546875, 12.415138244628906
618,818786274,0.76688707,0.021502553,-0.6077736,-0.20502049,9.122267723083496,-4.640255451202393,-14.73221206665039,-45.526466369628906,-193.62164306640625, 12.29294204711914
619,818802941,0.7474624,0.016612992,-0.6296905,-0.21098416,15.792839050292969,9.228862762451172,-5.785824298858643,-16.619522094726562,-204.15823364257812, -35.1488037109375
620,818819608,0.73055995,0.0058165286,-0.6461452,-0.22078305,13.189299583435059,-0.30314791202545166,-1.4046040773391724,-71.85934448242188,-174.09967041015625, -26.181079864501953
621,818836275,0.717695,0.003662291,-0.6593552,-0.2239453,6.439496994018555,-0.07700224965810776,-1.2144476175308228,-4.070570468902588,-126.45599365234375, -25.258188247680664
622,818852942,0.70803535,0.005525604,-0.6694714,-0.22464153,12.713176727294922,5.549250602722168,1.2177317142486572,22.085041046142578,-90.40967559814453, -26.453269958496094
623,818869609,0.7003133,0.0094685145,-0.67847633,-0.2216796,11.785135269165039,2.365791082382202,0.9679051637649536,47.27054977416992,-72.74586486816406, -15.248849868774414
624,818886276,0.6937996,0.0062921466,-0.68447,-0.2238386,9.666088104248047,8.295598983764648,1.9070059061050415,-15.553650856018066,-63.81056594848633, -5.058879375457764
625,818902943,0.68791807,-0.006347199,-0.6868316,-0.23450154,10.277410507202148,1.695764183998108,-1.3608098030090332,-106.3362808227539,-58.4765625, -0.2082420289516449
626,818919610,0.6831208,-0.013178134,-0.6905336,-0.23735183,10.121237754821777,2.6847054958343506,-1.1334266662597656,-39.759124755859375,-50.667842864990234, 11.008062362670898
627,818936277,0.67932343,-0.02041005,-0.69323623,-0.23984756,10.017048835754395,4.737916469573975,-0.5036581754684448,-41.47507095336914,-41.90663528442383, 16.306997299194336
628,818952944,0.6761082,-0.028409839,-0.6947664,-0.24366063,9.749825477600098,3.678831100463867,-0.5414162278175354,-53.211387634277344,-34.75173568725586, 14.963785171508789
629,818969611,0.67320925,-0.03272786,-0.696829,-0.24525064,10.315652847290039,1.6949372291564941,-1.0533640384674072,-24.49798583984375,-29.98169708251953, 8.152585983276367
630,818986278,0.6704972,-0.033224765,-0.69992197,-0.24380167,9.46617317199707,3.3496804237365723,-0.11696866899728775,9.516178131103516,-28.10280418395996, 3.9823968410491943
631,819002945,0.66737604,-0.033675563,-0.70321244,-0.24283244,9.78149127960205,2.6534578800201416,-0.32178762555122375,7.668731689453125,-30.804489135742188, 0.8218055367469788
632,819019612,0.66386926,-0.03221513,-0.70743585,-0.24036299,10.567608833312988,3.890686273574829,0.7546105980873108,25.164274215698242,-34.11632537841797, -2.4000535011291504
633,819036279,0.6599735,-0.027544372,-0.7127001,-0.23608258,9.296259880065918,4.260076999664307,-0.30259066820144653,50.27269744873047,-35.8744010925293, -10.621835708618164
634,819052946,0.65530145,-0.022883005,-0.71928096,-0.22954673,9.844557762145996,3.269685745239258,0.010853715240955353,63.278682708740234,-46.104331970214844, -1.845960021018982
635,819069613,0.6495051,-0.019145096,-0.7263322,-0.22409475,9.352008819580078,2.336273670196533,0.3569214344024658,54.32514572143555,-55.086509704589844, -4.01652717590332
636,819086280,0.6425077,-0.017057091,-0.73387057,-0.21983461,9.8483304977417,1.1745049953460693,0.6164361834526062,41.601234436035156,-65.66590118408203, -3.024091958999634
637,819102947,0.6346127,-0.015610194,-0.74178916,-0.21626888,9.856023788452148,1.4960243701934814,-0.2601681053638458,35.760032653808594,-72.78024291992188, -4.279789447784424
638,819119614,0.6257032,-0.01584381,-0.7499448,-0.21407354,10.884880065917969,2.1709229946136475,-0.684791088104248,21.668596267700195,-81.36270141601562, -3.2348239421844482
639,819136281,0.61597186,-0.016248126,-0.75872725,-0.21130039,10.673135757446289,2.8227720260620117,-0.2090686410665512,24.754009246826172,-88.626708984375, -1.1569089889526367
640,819152948,0.60520744,-0.01605115,-0.76836866,-0.2075484,10.865057945251465,4.842254638671875,0.8406194448471069,33.539466857910156,-96.91544342041016, -1.7464157342910767
641,819169615,0.59324753,-0.013376782,-0.77944976,-0.20084016,11.268157005310059,3.257274866104126,0.5525205135345459,61.415584564208984,-106.0477523803711, -4.386573791503906
642,819186282,0.57916147,-0.011166904,-0.7918976,-0.19325039,10.255104064941406,3.114499807357788,-0.07491503655910492,65.94723510742188,-123.77848052978516, -1.366532325744629
643,819202949,0.5623014,-0.0121695865,-0.80515057,-0.18815339,11.547168731689453,2.151231288909912,1.9307416677474976,40.47060775756836,-146.19268798828125, 2.4461021423339844
644,819219616,0.5429328,-0.014129413,-0.81955475,-0.18263172,12.179061889648438,1.3985143899917603,2.8373258113861084,40.41730880737305,-165.8668670654297, 6.034811973571777
645,819236283,0.5214065,-0.016878499,-0.8351136,-0.17445883,15.032742500305176,3.5095374584198,5.473033905029297,53.672969818115234,-183.66177368164062, 17.538833618164062
646,819252950,0.49850318,-0.019241778,-0.85076755,-0.16528486,19.938020706176758,7.4962263107299805,9.373520851135254,60.79548645019531,-191.68017578125, 17.24149513244629
647,819269617,0.4771563,-0.016041465,-0.8654656,-0.15176961,22.847801208496094,2.0876123905181885,11.05798625946045,104.4764404296875,-173.7184600830078, 1.4688255786895752
648,819286284,0.45696214,-0.009138527,-0.8804883,-0.12586887,21.586990356445312,-3.2750020027160645,1.9435598850250244,190.87124633789062,-165.6529998779297, 21.19671058654785
649,819302951,0.43365806,0.00034737075,-0.8963846,-0.09184481,17.360910415649414,10.4227933883667,1.709909200668335,248.74118041992188,-185.6708984375, 28.285137176513672
650,819319618,0.41024613,0.005088128,-0.90942264,-0.067991726,14.657316207885742,12.037429809570312,4.692283630371094,170.13629150390625,-180.93161010742188, 27.190494537353516
651,819336285,0.38809294,0.0077457107,-0.9198098,-0.057218898,13.548818588256836,13.461830139160156,2.834843158721924,81.27249145507812,-167.12721252441406, 3.8817386627197266
652,819352952,0.37446386,0.007443332,-0.92517054,-0.061492033,13.306621551513672,6.760234355926514,7.5012969970703125,-24.08305549621582,-101.86770629882812, -14.410565376281738
653,819369619,0.37074047,0.013159256,-0.9270137,-0.05499158,8.234638214111328,3.9885501861572266,10.339154243469238,58.0349006652832,-26.849925994873047, -20.937780380249023
654,819386286,0.3753879,0.018710606,-0.9253762,-0.049121827,6.518827438354492,2.314913034439087,9.429960250854492,51.58158874511719,35.12784957885742, -18.624269485473633
655,819402953,0.38835162,0.026840087,-0.9201781,-0.041652877,4.9251708984375,3.538961172103882,7.785811424255371,66.18382263183594,98.2027816772461, -28.524267196655273
656,819419620,0.40877903,0.03405942,-0.91110206,-0.040409327,4.6873321533203125,5.1298933029174805,7.300103187561035,21.929973602294922,154.2969970703125, -37.925045013427734
657,819436287,0.4354129,0.039958257,-0.8981549,-0.046226416,4.598122596740723,4.0879316329956055,5.219630718231201,-28.48344612121582,201.9784393310547, -48.630226135253906
658,819452954,0.4671137,0.04658407,-0.8813166,-0.05400271,6.005325794219971,3.4283268451690674,3.4378082752227783,-40.98503875732422,244.578857421875, -58.40779495239258
659,819469621,0.50293654,0.05288524,-0.8603738,-0.06336574,7.840524196624756,2.460524320602417,2.3783819675445557,-54.464988708496094,282.08984375, -61.274112701416016
660,819486288,0.5421494,0.059547734,-0.83505833,-0.072150685,10.021464347839355,1.985535979270935,0.9867526888847351,-52.91048049926758,317.6197204589844, -61.491416931152344
661,819502955,0.5840188,0.06735973,-0.8050452,-0.07929197,12.529735565185547,2.162980794906616,-0.13315314054489136,-42.58698272705078,351.62994384765625, -62.534889221191406
662,819519622,0.6280678,0.077835105,-0.76963127,-0.084503435,15.025424003601074,2.7212228775024414,-1.41743803024292,-25.14425277709961,387.7583312988281, -70.80149841308594
663,819536289,0.6734583,0.088418804,-0.7280186,-0.09287241,18.758228302001953,3.4852466583251953,-2.7026758193969727,-45.73752212524414,420.0576171875, -87.50582885742188
664,819552956,0.7168538,0.09417078,-0.6826612,-0.10595562,19.378244400024414,-0.7528515458106995,-5.846679210662842,-92.93620300292969,421.4976501464844, -88.66203308105469
665,819569623,0.7549581,0.104274966,-0.63745075,-0.11323484,22.82917594909668,2.5928497314453125,-9.390303611755371,-40.816131591796875,402.87506103515625, -84.26376342773438
666,819586290,0.7886227,0.10111862,-0.5929263,-0.12762438,26.630996704101562,4.13677978515625,-13.047711372375488,-137.2995147705078,364.5064697265625, -66.0551986694336
667,819602957,0.81424475,0.09515638,-0.554604,-0.1427069,20.773277282714844,5.018187999725342,-17.39987564086914,-144.3618927001953,295.2791442871094, -61.17146682739258
668,819619624,0.83129376,0.08747558,-0.52519464,-0.15959153,14.916994094848633,1.0726419687271118,-22.456270217895508,-146.544189453125,210.0369415283203, -67.30733489990234
669,819636291,0.8399013,0.08486683,-0.5081735,-0.17065518,11.593384742736816,-2.7150540351867676,-25.742475509643555,-77.96896362304688,118.06623840332031, -54.22704315185547
670,819652958,0.8400991,0.08066581,-0.5059251,-0.1782317,7.391005039215088,-0.8530502319335938,-26.57976531982422,-52.875205993652344,3.8368256092071533, -29.879199981689453
671,819669625,0.8317529,0.071648106,-0.5181668,-0.18589501,7.835651397705078,0.4423297643661499,-23.235675811767578,-58.61796951293945,-115.22984313964844, -16.103681564331055
672,819686292,0.8167479,0.058148365,-0.54036564,-0.19376984,11.328514099121094,-0.386613130569458,-18.711116790771484,-69.13021087646484,-201.48696899414062, -4.981288433074951
673,819702959,0.80064434,0.059075046,-0.56456053,-0.19170414,19.784866333007812,12.233100891113281,22.323707580566406,51.84245300292969,-193.3300018310547, -3.4601118564605713
674,819719626,0.78800243,0.038309164,-0.57965106,-0.20393509,22.060535430908203,-11.562663078308105,8.484957695007324,-136.45193481445312,-164.3253173828125, 2.9884519577026367
675,819736293,0.7720429,0.03491366,-0.6026621,-0.19881997,11.141570091247559,-6.113628387451172,-21.20596694946289,38.87947082519531,-191.53175354003906, 24.9893798828125
676,819752960,0.75341815,0.039173722,-0.6255946,-0.19864054,15.87852954864502,15.025934219360352,0.218472421169281,59.446502685546875,-192.62673950195312, -36.73126220703125
677,819769627,0.73797005,0.02586618,-0.64052093,-0.2108661,14.272582054138184,-3.921018123626709,-2.2589569091796875,-96.7749252319336,-164.779541015625, -23.105070114135742
678,819786294,0.7262919,0.03122827,-0.6545317,-0.20763767,7.242281436920166,0.42398735880851746,-0.4753284752368927,64.00312042236328,-113.64998626708984, -21.689729690551758
679,819802961,0.7174232,0.031967666,-0.6635528,-0.20971398,12.41372013092041,7.041900634765625,0.943677544593811,9.320169448852539,-83.8077621459961, -24.453184127807617
680,819819628,0.710259,0.037043158,-0.6722145,-0.20564044,10.350598335266113,2.978593349456787,-0.824029266834259,57.842071533203125,-66.65945434570312, -11.489522933959961
681,819836295,0.7044971,0.038387,-0.6787276,-0.20381203,8.951679229736328,7.8105082511901855,0.5352809429168701,25.84099578857422,-55.51424026489258, -3.779510498046875
682,819852962,0.6997978,0.03406301,-0.6827511,-0.2073015,10.498769760131836,3.2889795303344727,0.054140202701091766,-30.21339988708496,-47.84736251831055, -2.1932530403137207
683,819869629,0.6954351,0.034386378,-0.6875487,-0.20606932,10.895501136779785,1.5234367847442627,-1.1031761169433594,15.35469913482666,-42.250186920166016, -0.6248006224632263
684,819886296,0.6917235,0.03588226,-0.69196606,-0.20350522,9.690499305725098,3.3174490928649902,-0.9062721729278564,26.545085906982422,-35.365333557128906, 1.0044152736663818
685,819902963,0.6885496,0.036814515,-0.6956175,-0.20164534,9.978105545043945,3.100778102874756,-0.5980461239814758,19.29669952392578,-30.116954803466797, 0.8971848487854004
686,819919630,0.6857194,0.03831618,-0.6990508,-0.1991207,9.84011459350586,3.0902888774871826,-0.9948157072067261,24.78459930419922,-26.473012924194336, 1.7362737655639648
687,819936297,0.6831057,0.040227357,-0.7024416,-0.19576667,9.684066772460938,3.4422247409820557,-1.0629465579986572,30.586437225341797,-24.44011878967285, 3.9560375213623047
688,819952964,0.68058425,0.041646563,-0.70565575,-0.1926675,9.133079528808594,3.63037109375,-1.1591980457305908,26.78158950805664,-23.88569450378418, 5.207015514373779
