PacketCounter,SampleTimeFine,Quat_W,Quat_X,Quat_Y,Quat_Z,Acc_X,Acc_Y,Acc_Z,Gyr_X,Gyr_Y,Gyr_Z 
1,808570869,0.69800985,-0.05301351,-0.71411294,0.0038369354,0.35723647475242615,-0.036898091435432434,1.6994459629058838,-0.6984080672264099,-1.2056210041046143, -3.296097755432129
2,808587536,0.6977329,-0.05248321,-0.7144237,0.00361722,9.848579406738281,-0.6686801314353943,-0.28831133246421814,0.5795961618423462,-1.1876224279403687, 1.175142526626587
3,808604203,0.6973464,-0.051848345,-0.7148502,0.0030347386,9.869324684143066,-0.7239301800727844,-0.2807401120662689,0.44305485486984253,-1.6628403663635254, 1.0397666692733765
4,808620870,0.69702846,-0.051364917,-0.7151952,0.002955857,9.889190673828125,-0.7275791764259338,-0.2536797821521759,1.6608104705810547,-1.8505431413650513, 1.4132894277572632
5,808637537,0.69679004,-0.051025536,-0.71545154,0.0030635265,9.874089241027832,-0.6776053309440613,-0.3514127731323242,2.2853763103485107,-2.3952486515045166, 1.353778600692749
6,808654204,0.6964887,-0.050529085,-0.7157785,0.0033911692,9.928216934204102,-0.6832820177078247,-0.3072657585144043,3.395418167114258,-1.93561589717865, 1.5643020868301392
7,808670871,0.6962642,-0.05025149,-0.71601564,0.0035372484,9.894890785217285,-0.6583403944969177,-0.39350083470344543,2.0325405597686768,-1.4494483470916748, 1.5065197944641113
8,808687538,0.6959468,-0.049935687,-0.71634567,0.003679759,9.887860298156738,-0.6319928765296936,-0.4238095283508301,1.8942577838897705,-1.7423549890518188, 1.2221163511276245
9,808704205,0.6955663,-0.04962815,-0.71673626,0.0037382238,9.934557914733887,-0.6846600770950317,-0.40697216987609863,1.841854214668274,-1.9639946222305298, 0.8747698068618774
10,808720872,0.69521797,-0.04935753,-0.7170924,0.0037842295,9.981792449951172,-0.6837056279182434,-0.37784093618392944,1.485696792602539,-1.683023452758789, 0.6187452673912048
11,808737539,0.694994,-0.04912104,-0.7173254,0.003865252,9.895370483398438,-0.6509625911712646,-0.3976248502731323,1.1452398300170898,-0.7614014744758606, 0.734207272529602
12,808754206,0.69485176,-0.04888883,-0.71747875,0.003930047,9.872746467590332,-0.681242823600769,-0.46692386269569397,0.912702202796936,-0.11014742404222488, 0.6074116230010986
13,808770873,0.69476664,-0.04871871,-0.71757215,0.0040142406,9.907991409301758,-0.6868247985839844,-0.37519678473472595,0.9650288820266724,0.5456593632698059, 0.7985720038414001
14,808787540,0.6947394,-0.04859504,-0.7176063,0.0041369437,9.894481658935547,-0.6558743119239807,-0.3786150813102722,0.9526963829994202,0.8478764891624451, 1.0502166748046875
15,808804207,0.69473714,-0.04841318,-0.7176199,0.004293087,9.90610408782959,-0.6350888609886169,-0.371976375579834,0.9273142218589783,0.9121258854866028, 0.8874865174293518
16,808820874,0.6947835,-0.048378885,-0.7175771,0.0043357573,9.90853214263916,-0.6589739322662354,-0.36344531178474426,0.49267953634262085,1.2515454292297363, 1.0570553541183472
17,808837541,0.69484586,-0.048320636,-0.71751946,0.0044662864,9.911465644836426,-0.6871525049209595,-0.31979912519454956,0.5368229150772095,1.2760181427001953, 1.3145267963409424
18,808854208,0.694902,-0.048211176,-0.7174716,0.0046486305,9.895322799682617,-0.635368287563324,-0.3608958423137665,0.7388944029808044,1.0246168375015259, 1.2102577686309814
19,808870875,0.6949446,-0.048160482,-0.71743286,0.0047620106,9.936542510986328,-0.642654538154602,-0.34229129552841187,0.6777055859565735,0.8332131505012512, 1.1441768407821655
20,808887542,0.6949731,-0.048040893,-0.71741205,0.0049474915,9.833783149719238,-0.6579623818397522,-0.36119744181632996,0.6692085862159729,0.6251675486564636, 1.1512267589569092
21,808904209,0.69501185,-0.04799617,-0.7173763,0.005131289,9.913250923156738,-0.6628458499908447,-0.34624338150024414,0.7230528593063354,0.6884244680404663, 1.4565750360488892
22,808920876,0.695048,-0.04798802,-0.71734065,0.0053078714,9.885581016540527,-0.6598966121673584,-0.3545510768890381,0.6812402606010437,0.6206021308898926, 1.5576555728912354
23,808937543,0.6950691,-0.047948018,-0.7173213,0.0055090976,9.90837287902832,-0.6858366131782532,-0.3211745321750641,1.0478090047836304,0.4256638288497925, 1.478115200996399
24,808954210,0.6951618,-0.04794247,-0.71722966,0.0057845428,9.904983520507812,-0.6827497482299805,-0.34174588322639465,0.9474202394485474,1.0708478689193726, 1.9845168590545654
25,808970877,0.695248,-0.047941256,-0.7171441,0.006027672,9.913089752197266,-0.6763505339622498,-0.39404526352882385,1.2976481914520264,0.9558083415031433, 1.7939071655273438
26,808987544,0.695285,-0.04795348,-0.7171061,0.0061780377,9.818108558654785,-0.6712591052055359,-0.3735348582267761,1.0809903144836426,0.5168322324752808, 1.3678269386291504
27,809004211,0.6952545,-0.047881622,-0.71713877,0.006370315,9.823641777038574,-0.6933075785636902,-0.33869296312332153,1.305063247680664,-0.13796280324459076, 1.123020887374878
28,809020878,0.6952103,-0.04785837,-0.7171819,0.0065084184,9.9779691696167,-0.6699041128158569,-0.28451254963874817,1.3481309413909912,-0.29801657795906067, 1.0488080978393555
29,809037545,0.69515705,-0.04785527,-0.71723247,0.006655333,9.935702323913574,-0.6584200859069824,-0.30140694975852966,1.0117336511611938,-0.4138243794441223, 1.1911505460739136
30,809054212,0.69506955,-0.047824703,-0.71731794,0.006799693,9.934197425842285,-0.6603807210922241,-0.3201080560684204,1.1083064079284668,-0.786297082901001, 1.0326592922210693
31,809070879,0.6950198,-0.047856417,-0.71736306,0.00690479,9.91977310180664,-0.6603516340255737,-0.3178662955760956,0.7351420521736145,-0.42018917202949524, 1.1571369171142578
32,809087546,0.6950703,-0.047955945,-0.717306,0.007042292,9.90644359588623,-0.6421334147453308,-0.3428347110748291,0.24646462500095367,0.5627942681312561, 1.683426856994629
33,809104213,0.69517773,-0.04810588,-0.71719056,0.0071859397,9.888486862182617,-0.6604580283164978,-0.452860951423645,0.21634405851364136,1.1068464517593384, 1.9773963689804077
34,809120880,0.69527346,-0.04815016,-0.71709275,0.007389084,9.886422157287598,-0.653849184513092,-0.4567457437515259,0.9370214939117432,0.9930748343467712, 1.7337045669555664
35,809137547,0.69533753,-0.04816082,-0.71702826,0.0075306613,9.893288612365723,-0.669868528842926,-0.4169938266277313,1.1832491159439087,0.7074291110038757, 1.250341534614563
36,809154214,0.6954085,-0.04813254,-0.7169598,0.0076854057,9.899609565734863,-0.6636849045753479,-0.3885408341884613,1.2542600631713867,0.7894281148910522, 1.1215095520019531
37,809170881,0.6954932,-0.04818426,-0.7168734,0.0077478243,9.917583465576172,-0.6432547569274902,-0.3273511528968811,0.5033215880393982,0.9777968525886536, 1.0733962059020996
38,809187548,0.6956032,-0.04825783,-0.7167608,0.007831929,9.920659065246582,-0.6331027746200562,-0.28929004073143005,0.10599176585674286,1.2380475997924805, 1.3101345300674438
39,809204215,0.6957796,-0.04845624,-0.71657544,0.007901311,9.9393949508667,-0.6903194189071655,-0.29457148909568787,-0.11218363046646118,1.8661092519760132, 1.869067668914795
40,809220882,0.695958,-0.048528407,-0.71639496,0.008119523,9.87352466583252,-0.6656177639961243,-0.37786227464675903,1.388022780418396,1.763210415840149, 1.9408471584320068
41,809237549,0.69607455,-0.048564933,-0.71627647,0.008349999,9.85539436340332,-0.6320347785949707,-0.4085926413536072,1.305696964263916,1.1884292364120483, 1.8123544454574585
42,809254216,0.69614035,-0.048648495,-0.71620494,0.0085099265,9.856975555419922,-0.6197136044502258,-0.3721924424171448,0.8089962601661682,0.7519440054893494, 1.6977312564849854
43,809270883,0.69617856,-0.048752688,-0.71615916,0.008647769,9.911713600158691,-0.637310266494751,-0.3016965091228485,0.5596438050270081,0.5112230777740479, 1.6976288557052612
44,809287550,0.6962303,-0.04887991,-0.71609837,0.008799411,9.901662826538086,-0.6740328669548035,-0.3128286600112915,0.4247417151927948,0.6415660381317139, 1.8899415731430054
45,809304217,0.69625175,-0.04900846,-0.716067,0.008946647,9.917024612426758,-0.6735062003135681,-0.30551645159721375,0.3937375843524933,0.34394654631614685, 1.8629589080810547
46,809320884,0.69626546,-0.04914582,-0.71604264,0.009071144,9.892136573791504,-0.7303535342216492,-0.31493645906448364,0.3770509362220764,0.25997528433799744, 1.7888227701187134
47,809337551,0.69631475,-0.049282283,-0.71598357,0.009205224,9.870537757873535,-0.7026538848876953,-0.34345871210098267,0.30529698729515076,0.603210985660553, 1.8281255960464478
48,809354218,0.6963366,-0.049370445,-0.71595436,0.009356037,9.830890655517578,-0.7013923525810242,-0.3710227608680725,0.6954296827316284,0.3103170692920685, 1.651859164237976
49,809370885,0.69632155,-0.049357478,-0.7159674,0.009534438,9.861512184143066,-0.7048237919807434,-0.3679003119468689,1.0971648693084717,-0.06447997689247131, 1.2733802795410156
50,809387552,0.6962858,-0.049327426,-0.716002,0.009706019,9.947737693786621,-0.7061833143234253,-0.2925730049610138,1.2812561988830566,-0.27390220761299133, 1.140360713005066
51,809404219,0.69626033,-0.04942,-0.7160194,0.009779857,9.919427871704102,-0.6562927961349487,-0.3235950767993927,0.3556003272533417,-0.12132734805345535, 1.27297043800354
52,809420886,0.6962415,-0.049525104,-0.7160296,0.009837911,9.900012016296387,-0.6989384293556213,-0.3021998405456543,0.05950470268726349,-0.03820133954286575, 1.2718178033828735
53,809437553,0.6962647,-0.04965588,-0.7159968,0.009930981,9.917527198791504,-0.7094252109527588,-0.2956467866897583,0.598921000957489,0.3176807165145874, 1.5606011152267456
54,809454220,0.6962949,-0.04971949,-0.7159606,0.01009595,9.855581283569336,-0.6854545474052429,-0.3897611200809479,0.9378154277801514,0.3596727252006531, 1.5814623832702637
55,809470887,0.69627696,-0.049752176,-0.71597373,0.010238729,9.912298202514648,-0.667214035987854,-0.3635741174221039,1.100212812423706,-0.10977603495121002, 1.305626630783081
56,809487554,0.6962661,-0.04982188,-0.71597797,0.010346555,9.935367584228516,-0.635263204574585,-0.2797403931617737,0.6298226714134216,-0.003227200359106064, 1.3315722942352295
57,809504221,0.69628143,-0.049890388,-0.71595645,0.01046996,9.916025161743164,-0.6581476926803589,-0.30667179822921753,0.6803180575370789,0.2371031641960144, 1.4189499616622925
58,809520888,0.69628286,-0.049912315,-0.71595114,0.010633431,9.905488967895508,-0.6975048780441284,-0.3989080488681793,1.1517326831817627,0.06443514674901962, 1.3813121318817139
59,809537555,0.69627506,-0.0499051,-0.7159568,0.010792339,9.887727737426758,-0.6831991076469421,-0.3709533214569092,1.2778881788253784,-0.025689538568258286, 1.212268352508545
60,809554222,0.69629383,-0.049966127,-0.71593255,0.010909247,9.916393280029297,-0.6554942727088928,-0.31195101141929626,0.7887366414070129,0.2703484296798706, 1.3565189838409424
61,809570889,0.69636637,-0.050083283,-0.7158524,0.0110003315,9.889409065246582,-0.6754716634750366,-0.3512416481971741,0.21458962559700012,0.8291279673576355, 1.5373575687408447
62,809587556,0.6964688,-0.050239064,-0.71574056,0.011083005,9.897760391235352,-0.6573010087013245,-0.32899224758148193,0.33413687348365784,1.1067568063735962, 1.6895354986190796
63,809604223,0.69655746,-0.05031329,-0.7156471,0.011212438,9.870511054992676,-0.6450828313827515,-0.362953782081604,0.7386894226074219,0.9461778998374939, 1.519787073135376
64,809620890,0.6965809,-0.050351873,-0.7156198,0.011322818,9.893786430358887,-0.642737865447998,-0.34741151332855225,0.9133425354957581,0.30559152364730835, 1.239737868309021
65,809637557,0.6965669,-0.05038686,-0.7156294,0.011420969,9.884974479675293,-0.6584578156471252,-0.33046403527259827,0.7843568921089172,-0.042773205786943436, 1.164231538772583
66,809654224,0.6965693,-0.050434835,-0.7156214,0.011558124,9.912030220031738,-0.6585575342178345,-0.2984407842159271,0.9998622536659241,0.1026621162891388, 1.4235602617263794
67,809670891,0.69665295,-0.0506328,-0.7155242,0.0116744405,9.895182609558105,-0.6798721551895142,-0.3128204345703125,0.19441959261894226,0.9460115432739258, 2.0934348106384277
68,809687558,0.6967327,-0.05079979,-0.71543235,0.011821754,9.8651704788208,-0.6659040451049805,-0.39468321204185486,0.40371379256248474,0.8943378925323486, 2.0947282314300537
69,809704225,0.69678146,-0.050976936,-0.71537006,0.011951948,9.884586334228516,-0.6804707646369934,-0.3401718735694885,0.37411829829216003,0.6052217483520508, 2.057500123977661
70,809720892,0.6968395,-0.05111494,-0.71530104,0.0121057965,9.944745063781738,-0.7013768553733826,-0.316209614276886,0.6045814156532288,0.6800364255905151, 1.9868347644805908
71,809737559,0.69692636,-0.05125896,-0.715204,0.012225971,9.972942352294922,-0.6856037378311157,-0.2588212788105011,0.43219512701034546,0.9655795693397522, 1.8655458688735962
72,809754226,0.69728726,-0.051377997,-0.7148403,0.012414048,10.250069618225098,-0.8079081177711487,0.10734521597623825,1.118999719619751,3.547288179397583, 2.1418941020965576
73,809770893,0.6982458,-0.050696936,-0.7139334,0.013488976,10.154430389404297,-0.7608970403671265,-0.12737604975700378,9.60897445678711,8.65575885772705, 2.597238063812256
74,809787560,0.6991186,-0.049286883,-0.713152,0.014775861,9.763189315795898,-0.751997709274292,-0.5758134722709656,14.117253303527832,7.473876476287842, 0.002452418440952897
75,809804227,0.6997738,-0.047832448,-0.71258056,0.016059455,9.65571117401123,-0.7093023061752319,-0.46918046474456787,14.323434829711914,5.422257423400879, -0.2829693555831909
76,809820894,0.7003801,-0.046892002,-0.7120238,0.017061329,9.436233520507812,-0.5683807134628296,-0.3954820930957794,10.46112060546875,5.288941383361816, 0.8831710815429688
77,809837561,0.7010212,-0.045818258,-0.71142715,0.018483136,9.467726707458496,-0.6666694283485413,-0.41009461879730225,13.296795845031738,5.508750915527344, 2.2748894691467285
78,809854228,0.70157504,-0.044455785,-0.7109166,0.020347388,10.357648849487305,-0.4824802279472351,-0.22045350074768066,16.916547775268555,4.504043102264404, 2.9832746982574463
79,809870895,0.70200914,-0.04327226,-0.71050584,0.022188064,10.437850952148438,-0.22245004773139954,0.11434377729892731,15.930801391601562,3.4688785076141357, 3.7627973556518555
80,809887562,0.7024382,-0.042032886,-0.7101002,0.023913477,10.076215744018555,-0.4712009131908417,0.16448402404785156,15.651376724243164,3.414720296859741, 2.9921228885650635
81,809904229,0.70279837,-0.039717477,-0.7097894,0.026387133,9.455716133117676,-0.8414005637168884,-0.06549331545829773,24.455652236938477,2.197350263595581, 1.366702914237976
82,809920896,0.7030965,-0.03662224,-0.70952785,0.029740639,9.536467552185059,-1.009993076324463,-0.2539364993572235,32.57218551635742,1.2657395601272583, 1.7979222536087036
83,809937563,0.7035717,-0.03271393,-0.70906544,0.033808492,10.024311065673828,-0.7205948233604431,-0.3733886480331421,40.09855651855469,2.7691521644592285, 1.2729135751724243
84,809954230,0.70389324,-0.029537477,-0.70871085,0.037295282,10.047414779663086,-1.1585499048233032,-0.7446168065071106,33.650962829589844,1.8300796747207642, 2.0486209392547607
85,809970897,0.7042215,-0.027351456,-0.7083318,0.03987905,9.418416976928711,-1.1532005071640015,-0.6427053809165955,24.486557006835938,2.4795641899108887, 2.474339246749878
86,809987564,0.70474243,-0.025966108,-0.70777214,0.04150354,9.897850036621094,-0.7426720857620239,-0.37490928173065186,15.997714042663574,4.746415615081787, 1.674412727355957
87,810004231,0.7054004,-0.025737585,-0.7071159,0.04165621,10.18515396118164,-0.3723939061164856,0.07859931141138077,3.246569871902466,6.502200603485107, 0.1588563621044159
88,810020898,0.70604116,-0.026097411,-0.70651215,0.040811732,9.97706127166748,-0.4496883749961853,0.257370263338089,-4.432944297790527,6.488792419433594, -1.7766507863998413
89,810037565,0.7064665,-0.026277963,-0.7061206,0.040106915,9.30676555633545,-1.2398293018341064,0.018907612189650536,-3.00104022026062,4.308767318725586, -1.9128973484039307
90,810054232,0.7065188,-0.02473775,-0.7060759,0.040942013,9.357152938842773,-1.2336665391921997,0.41900986433029175,12.67302417755127,0.05498409643769264, -2.790095329284668
91,810070899,0.7063087,-0.020813309,-0.70621854,0.044160888,9.594880104064941,-1.5441055297851562,0.07449658960103989,35.76433181762695,-3.2444522380828857, -2.7860593795776367
92,810087566,0.7061464,-0.015430281,-0.70619774,0.049031056,10.46197509765625,-0.4973331391811371,-0.0349382609128952,50.860965728759766,-2.8955166339874268, -1.908355474472046
93,810104233,0.7062505,-0.010578484,-0.70589083,0.053072467,10.588418960571289,0.21732676029205322,-1.0532312393188477,44.31361770629883,0.06717617809772491, -3.3828718662261963
94,810120900,0.70687866,-0.0071757785,-0.70516145,0.05494016,10.206781387329102,0.8468571901321411,-1.2119967937469482,26.859432220458984,5.448227882385254, -6.976049423217773
95,810137567,0.70803064,-0.0071984646,-0.70417696,0.05268641,9.951237678527832,1.217267632484436,-1.715999722480774,-9.677705764770508,10.829361915588379, -10.446407318115234
96,810154234,0.70947623,-0.011144418,-0.70316654,0.045564666,10.473564147949219,1.6058814525604248,0.4626034200191498,-52.268611907958984,14.16882610321045, -15.086522102355957
97,810170901,0.7105368,-0.016619883,-0.702504,0.036735404,9.743613243103027,-1.368301510810852,0.7544174194335938,-68.02394104003906,11.15650463104248, -15.72868824005127
98,810187568,0.710852,-0.02033183,-0.70243746,0.02928869,9.2204008102417,-2.8217384815216064,1.40939462184906,-52.882633209228516,3.9621551036834717, -17.43090057373047
99,810204235,0.7103702,-0.022742158,-0.7030726,0.023366202,8.541496276855469,-3.7373228073120117,2.922407388687134,-39.31981658935547,-3.912799835205078, -16.391334533691406
100,810220902,0.7092106,-0.024462657,-0.7042925,0.019854331,8.027243614196777,-7.57712459564209,3.7761189937591553,-24.5045166015625,-10.761614799499512, -8.204153060913086
101,810237569,0.7071765,-0.020813987,-0.706405,0.021451084,9.754742622375488,-2.422367572784424,1.4399957656860352,26.14249038696289,-21.228166580200195, -9.898646354675293
102,810254236,0.7037025,-0.023020115,-0.70997965,0.014220066,12.054399490356445,0.944307804107666,0.3978286385536194,-45.67376708984375,-33.300411224365234, -24.534515380859375
103,810270903,0.69896424,-0.020365454,-0.7148031,0.009538744,15.566837310791016,-2.2153148651123047,1.1960242986679077,-10.032042503356934,-46.41205978393555, -35.8857307434082
104,810287570,0.6948702,-0.01606202,-0.71894497,0.0039658044,23.046295166015625,-1.3014590740203857,4.696146011352539,-6.370864391326904,-40.044673919677734, -48.34830093383789
105,810304237,0.6942419,-0.016052026,-0.71953267,-0.006589093,21.318742752075195,-3.901177167892456,8.548970222473145,-50.954017639160156,-5.655733585357666, -50.68452072143555
106,810320904,0.6917526,-0.020031184,-0.7217335,-0.013339344,11.520415306091309,-9.221158981323242,3.1551897525787354,-51.4029541015625,-23.839599609375, -13.343568801879883
107,810337571,0.6885473,-0.027083442,-0.72445333,-0.018352998,8.831470489501953,-4.398037433624268,1.1501305103302002,-57.905517578125,-30.60352325439453, 9.32517147064209
108,810354238,0.6867318,-0.049634952,-0.7245006,-0.032169674,9.14008903503418,-3.869422674179077,5.48339319229126,-176.0831298828125,-11.372881889343262, 45.19877243041992
109,810370905,0.6872311,-0.07597741,-0.7213181,-0.04050998,8.986184120178223,-8.92193603515625,6.122285842895508,-167.8152618408203,12.42027473449707, 91.25298309326172
110,810387572,0.69215953,-0.089378886,-0.7155775,-0.029587436,4.644657135009766,-8.329611778259277,6.275887489318848,-8.3069486618042,39.584693908691406, 119.90477752685547
111,810404239,0.7022131,-0.09155889,-0.70601845,-0.007185041,2.6908600330352783,2.2998855113983154,6.231251239776611,102.29158782958984,77.88272857666016, 122.2428207397461
112,810420906,0.7153227,-0.09436312,-0.69232625,0.009674881,3.459103584289551,7.263996124267578,4.067326068878174,75.36750793457031,115.51627349853516, 101.53063201904297
113,810437573,0.73080575,-0.10041629,-0.6749173,0.018065257,2.783973217010498,6.635846138000488,2.5255677700042725,22.11256217956543,150.33132934570312, 78.27984619140625
114,810454240,0.7482497,-0.105737664,-0.65452874,0.023110714,5.297334671020508,4.519331932067871,-1.201397180557251,10.86306381225586,176.67552185058594, 60.373497009277344
115,810470907,0.76628476,-0.10917231,-0.63260084,0.026559927,8.137591361999512,2.28074312210083,-5.245339870452881,14.065690040588379,188.2898406982422, 45.095611572265625
116,810487574,0.78356385,-0.10986632,-0.61073345,0.031015322,10.048686027526855,0.668302595615387,-8.545395851135254,32.37717819213867,183.92393493652344, 38.85857391357422
117,810504241,0.79857713,-0.10535636,-0.5913923,0.037814155,13.187982559204102,-0.12362486124038696,-10.836686134338379,68.1422348022461,158.67868041992188, 28.4317626953125
118,810520908,0.81058335,-0.09553483,-0.5759734,0.045634218,14.962545394897461,1.1962878704071045,-10.821867942810059,98.44330596923828,123.78055572509766, 10.607523918151855
119,810537575,0.8180465,-0.086118996,-0.5664419,0.05027128,13.143083572387695,1.949690341949463,-12.226724624633789,78.88211822509766,76.23784637451172, -7.651607513427734
120,810554242,0.81990314,-0.08489408,-0.56380033,0.05177997,10.560975074768066,-0.27506035566329956,-13.194104194641113,15.051064491271973,21.447288513183594, 4.819842338562012
121,810570909,0.81668884,-0.08978908,-0.56764203,0.052342374,10.672240257263184,-1.552765965461731,-12.56505298614502,-28.191862106323242,-30.92132568359375, 21.359716415405273
122,810587576,0.8089107,-0.09653172,-0.5773914,0.054447766,10.967363357543945,-1.7764520645141602,-13.441610336303711,-37.2550163269043,-81.15314483642578, 35.296627044677734
123,810604243,0.7963689,-0.10637962,-0.59285086,0.054845516,11.623902320861816,-0.07761223614215851,-12.3574800491333,-66.33072662353516,-128.45980834960938, 36.199893951416016
124,810620910,0.780502,-0.1157537,-0.61181295,0.055699997,10.007007598876953,-1.3519713878631592,-9.707764625549316,-65.37545013427734,-160.7371826171875, 35.6845817565918
125,810637577,0.76360565,-0.12315653,-0.631233,0.05730643,9.390678405761719,-2.0663440227508545,1.5593153238296509,-52.37755584716797,-168.1516571044922, 31.561065673828125
126,810654244,0.75349087,-0.11947402,-0.6430986,0.06634524,13.765851974487305,-9.84152603149414,24.547527313232422,46.858436584472656,-109.7509765625, 26.16172218322754
127,810670911,0.7440122,-0.103970416,-0.6533572,0.093597814,33.538326263427734,1.0546863079071045,-1.4491108655929565,189.63014221191406,-120.51693725585938, 68.71360778808594
128,810687578,0.7274826,-0.11540633,-0.6711062,0.08406521,6.667984962463379,12.737380981445312,3.5309529304504395,-123.2504653930664,-146.51536560058594, 1.3331788778305054
129,810704245,0.71456766,-0.118156716,-0.6832936,0.092422575,8.118882179260254,-8.035588264465332,-3.199831485748291,8.788490295410156,-121.49532318115234, 54.04496383666992
130,810720912,0.7051859,-0.10592796,-0.6924439,0.10960546,14.025278091430664,3.796696186065674,0.7621511220932007,128.804443359375,-106.45648193359375, 26.74811553955078
131,810737579,0.6945257,-0.11322522,-0.7020597,0.10920823,5.692906856536865,-5.497853755950928,-0.7190662622451782,-50.80940628051758,-87.33482360839844, 35.530948638916016
132,810754246,0.68480796,-0.120647185,-0.71067536,0.10687832,12.680770874023438,-3.636225700378418,-2.381985902786255,-59.195472717285156,-76.43885040283203, 26.758363723754883
133,810770913,0.67588156,-0.12283821,-0.7187355,0.10730428,10.6881685256958,-3.3920414447784424,-3.5578792095184326,-19.96308708190918,-76.02047729492188, 14.093338966369629
134,810787580,0.66845393,-0.123439096,-0.7253546,0.10859569,9.944645881652832,-0.9576610326766968,-2.6759493350982666,-5.891289710998535,-63.68195343017578, 10.355207443237305
135,810804247,0.66241485,-0.1262338,-0.7305583,0.107501395,10.368563652038574,-4.269957065582275,-2.353126049041748,-25.575336456298828,-46.52208709716797, 10.632022857666016
136,810820914,0.6575627,-0.12812333,-0.73479056,0.10620183,9.850359916687012,-4.025741100311279,-2.6395184993743896,-20.716747283935547,-36.596580505371094, 5.06851053237915
137,810837581,0.65329033,-0.13051732,-0.7385448,0.10357922,9.123087882995605,-5.750108242034912,-1.6842118501663208,-28.80899429321289,-29.929656982421875, 1.5970062017440796
138,810854248,0.64915293,-0.13082781,-0.7422316,0.10284428,7.6556291580200195,-5.43825626373291,-2.356675386428833,-9.727511405944824,-32.13469314575195, -0.703916609287262
139,810870915,0.6451178,-0.12905613,-0.7457516,0.1049866,7.699728012084961,-3.6048471927642822,-1.7883676290512085,14.43799877166748,-34.88903045654297, 1.3883370161056519
140,810887582,0.63974303,-0.13036779,-0.750204,0.104533896,9.374202728271484,-1.5787906646728516,-0.8251549601554871,-14.416462898254395,-41.368350982666016, 5.743725776672363
141,810904249,0.63265043,-0.133223,-0.75592744,0.102852896,9.68832015991211,-3.208885431289673,-0.5001935958862305,-29.99654769897461,-53.70490264892578, 8.497172355651855
142,810920916,0.6245027,-0.13499466,-0.76232404,0.10312621,10.77331829071045,-1.294565200805664,-0.9355162382125854,-18.734830856323242,-64.0516128540039, 11.931580543518066
143,810937583,0.61537474,-0.13918296,-0.7691749,0.10154975,12.423584938049316,-1.230695128440857,-1.2558443546295166,-37.887046813964844,-68.58958435058594, 16.635807037353516
144,810954250,0.60566205,-0.14479686,-0.7761238,0.099192254,11.482400894165039,0.1398528665304184,-3.1018898487091064,-48.64553451538086,-70.51246643066406, 21.378026962280273
145,810970917,0.59436995,-0.15110813,-0.78428197,0.09377015,11.66504192352295,-1.0477604866027832,-2.1607608795166016,-70.2100601196289,-80.51042175292969, 12.476371765136719
146,810987584,0.5824432,-0.15251924,-0.7929448,0.09346914,11.50239372253418,-3.9552931785583496,-2.3301169872283936,-23.49954605102539,-94.606689453125, 7.038549900054932
147,811004251,0.56953466,-0.15156142,-0.8021963,0.09560591,11.623184204101562,-3.309420347213745,-1.7844080924987793,-2.130075693130493,-106.51651763916016, 3.8577020168304443
148,811020918,0.5551639,-0.15224634,-0.81217104,0.09482869,11.365966796875,-4.1572771072387695,-1.9595927000045776,-26.636112213134766,-113.47374725341797, 1.7111575603485107
149,811037585,0.5396638,-0.15460119,-0.82252836,0.09115199,12.153156280517578,-3.6486217975616455,-1.5435045957565308,-50.65839767456055,-117.30890655517578, 0.2668291926383972
150,811054252,0.52284706,-0.15769368,-0.8333337,0.085549824,12.260774612426758,-2.7019453048706055,-1.0329958200454712,-65.99227905273438,-124.17611694335938, -2.3415095806121826
151,811070919,0.50505,-0.16049622,-0.84436333,0.078842185,12.488608360290527,-0.822878897190094,-0.3325415849685669,-72.49553680419922,-129.90052795410156, -7.579403877258301
152,811087586,0.48672318,-0.16324112,-0.8552561,0.07063994,13.382527351379395,-0.3843396008014679,2.5752995014190674,-81.46019744873047,-131.28529357910156, -12.511712074279785
153,811104253,0.4669256,-0.16231865,-0.86687225,0.06454321,19.496700286865234,-3.7652792930603027,7.757101535797119,-58.81170654296875,-147.1037139892578, -26.97001838684082
154,811120920,0.44730696,-0.15856895,-0.8780624,0.06147229,19.57478904724121,-4.632049083709717,10.928597450256348,-31.484586715698242,-150.37966918945312, -33.6596794128418
155,811137587,0.42788637,-0.15728489,-0.8882712,0.05611716,16.792320251464844,-4.805393695831299,4.686075687408447,-52.46769714355469,-143.8927001953125, -24.823360443115234
156,811154254,0.40193808,-0.15682924,-0.90047467,0.05473533,19.27002716064453,-11.599701881408691,-2.396749496459961,-38.61922836303711,-194.49143981933594, -7.790196895599365
157,811170921,0.37664232,-0.14925537,-0.91183156,0.06653307,19.825349807739258,-9.464359283447266,6.778051376342773,63.35793685913086,-205.65689086914062, -15.08082389831543
158,811187588,0.35173717,-0.14815558,-0.92205244,0.06442379,17.303974151611328,-7.930088520050049,4.961628437042236,-40.071189880371094,-184.13784790039062, -9.680087089538574
159,811204255,0.33315617,-0.14952406,-0.928925,0.061222196,15.209542274475098,-10.409420013427734,3.8913474082946777,-45.37873077392578,-134.69300842285156, 3.773205280303955
160,811220922,0.32315448,-0.1538229,-0.9323465,0.05137836,13.338780403137207,-1.3034619092941284,8.855162620544434,-84.7140121459961,-64.63619995117188, 6.875051021575928
161,811237589,0.32250002,-0.15891987,-0.93236595,0.0378418,9.369680404663086,-0.3883898854255676,9.600077629089355,-99.1830825805664,6.506959915161133, 3.967705488204956
162,811254256,0.33078003,-0.16547886,-0.9287955,0.023243086,7.129229545593262,-1.690413236618042,7.726441860198975,-98.59724426269531,73.20350646972656, 12.401098251342773
163,811270923,0.34769142,-0.17201646,-0.92162335,0.011468456,6.922369003295898,-2.7585902214050293,8.045286178588867,-70.1889877319336,133.59365844726562, 21.179779052734375
164,811287590,0.37232542,-0.17854242,-0.91075647,0.004379584,6.027909755706787,-3.9132111072540283,4.738780498504639,-31.12094497680664,186.2409210205078, 35.87809753417969
165,811304257,0.4042407,-0.18277463,-0.8961954,0.0040937173,6.540122985839844,-4.820056438446045,1.954818844795227,26.35662841796875,233.47491455078125, 43.10629653930664
166,811320924,0.44266185,-0.18423188,-0.8775105,0.009207032,7.922842979431152,-3.102294683456421,1.5538257360458374,75.6317367553711,278.8125915527344, 45.931819915771484
167,811337591,0.48566794,-0.1843793,-0.8543355,0.0155524295,8.780336380004883,-3.038255214691162,-0.15091684460639954,93.21280670166016,319.0731506347656, 47.188961029052734
168,811354258,0.53235877,-0.18259396,-0.826225,0.024615878,10.519773483276367,-3.193571090698242,-1.98338782787323,120.92776489257812,354.09942626953125, 50.804656982421875
169,811370925,0.58123,-0.17770295,-0.7932424,0.036879983,11.510135650634766,-3.946519613265991,-5.07866096496582,154.152099609375,380.28814697265625, 50.66884994506836
170,811387592,0.63018197,-0.17054154,-0.75575215,0.0512353,12.836787223815918,-5.555269718170166,-6.5229597091674805,175.9884490966797,396.1141052246094, 52.16189956665039
171,811404259,0.6787569,-0.15679969,-0.7138525,0.07153602,17.059253692626953,-4.78113317489624,-9.831338882446289,236.66400146484375,404.4453430175781, 49.04201889038086
172,811420926,0.7234524,-0.14570498,-0.6696311,0.08355259,20.706378936767578,-4.150846004486084,-15.293587684631348,180.66592407226562,406.8675231933594, 27.806320190429688
173,811437593,0.76252687,-0.13405634,-0.6270358,0.08606907,22.376964569091797,1.5754445791244507,-17.18699836730957,133.20492553710938,382.5086975097656, -20.384016036987305
174,811454260,0.79126436,-0.14316745,-0.590823,0.06581871,20.21538734436035,-0.9220143556594849,-16.872804641723633,-87.1050796508789,338.1188049316406, -49.89908218383789
175,811470927,0.8124121,-0.15145352,-0.56060123,0.052676205,16.27544593811035,-10.888823509216309,-19.216068267822266,-63.82912826538086,267.5993957519531, -16.975505828857422
176,811487594,0.8289038,-0.14313439,-0.53772163,0.057329394,11.685036659240723,-3.44726300239563,-21.91115379333496,90.16793060302734,184.36045837402344, 12.35549259185791
177,811504261,0.837003,-0.13425969,-0.5268038,0.062276505,9.624285697937012,1.4785840511322021,-22.88753318786621,81.52859497070312,84.89080810546875, 3.4798405170440674
178,811520928,0.83561087,-0.13136154,-0.5291777,0.0668565,7.089056015014648,-5.174538612365723,-22.005002975463867,31.401689529418945,-22.875648498535156, 14.828248977661133
179,811537595,0.827726,-0.12081413,-0.5420364,0.08043864,7.915921211242676,-6.797915458679199,-18.980756759643555,97.50487518310547,-118.25311279296875, 32.153343200683594
180,811554262,0.81542015,-0.10781404,-0.5605327,0.09627779,9.94217586517334,-0.4147290587425232,-14.426956176757812,113.15423583984375,-169.97940063476562, 33.514896392822266
181,811570929,0.8014528,-0.10795433,-0.5793669,0.1017519,13.076764106750488,-2.3172085285186768,11.86799144744873,-1.9292417764663696,-161.85739135742188, 26.890216827392578
182,811587596,0.79078275,-0.09154249,-0.59190965,0.1261962,31.913789749145508,4.2128753662109375,11.438131332397461,171.65074157714844,-139.97305297851562, 67.854248046875
183,811604263,0.77401775,-0.09676249,-0.61393565,0.1208994,15.31888484954834,17.8383731842041,-9.577461242675781,-79.1833724975586,-178.9877471923828, -6.37449312210083
184,811620930,0.75523776,-0.114494406,-0.6345939,0.11746334,8.250750541687012,-17.53790855407715,-3.892197847366333,-138.15585327148438,-171.03256225585938, 59.16911697387695
185,811637597,0.7409879,-0.10742431,-0.64881396,0.13578466,11.440380096435547,-2.6719868183135986,-3.4101338386535645,94.40501403808594,-155.03170776367188, 65.15729522705078
186,811654264,0.7289545,-0.10948224,-0.66099465,0.14044628,8.023744583129883,-5.938755989074707,0.8534750938415527,-9.502028465270996,-116.17131805419922, 35.698490142822266
187,811670931,0.7195333,-0.113336734,-0.66987383,0.14385962,11.064581871032715,-3.0970070362091064,-0.6406270265579224,-19.041175842285156,-85.15874481201172, 37.52857971191406
188,811687598,0.7104253,-0.12927341,-0.6787272,0.13384295,11.500252723693848,-2.385655403137207,-0.5952647924423218,-140.42144775390625,-61.23342514038086, 26.462881088256836
189,811704265,0.70270574,-0.13932948,-0.68581486,0.12825744,9.809599876403809,-9.102773666381836,-2.14522647857666,-88.16712188720703,-55.52862548828125, 20.983829498291016
190,811720932,0.69843715,-0.13584052,-0.68968475,0.13441683,11.011199951171875,-4.797103404998779,-2.3696248531341553,38.792213439941406,-46.938133239746094, 13.843745231628418
191,811737599,0.69507444,-0.13484663,-0.6931498,0.13502319,10.98737907409668,0.1505320966243744,-1.6639257669448853,1.686596393585205,-33.239471435546875, -1.4611077308654785
192,811754266,0.69095486,-0.14353986,-0.6972038,0.12603484,9.299402236938477,-2.595661163330078,-2.7920732498168945,-91.59918212890625,-21.81290626525879, -0.9486600160598755
193,811770933,0.68807185,-0.14987838,-0.6999491,0.11901756,9.637045860290527,-4.258681774139404,-2.717942953109741,-68.61901092529297,-13.680863380432129, -2.640650749206543
194,811787600,0.6858621,-0.15335262,-0.7022117,0.113908544,9.889358520507812,-4.125229835510254,-1.2475050687789917,-44.806907653808594,-12.493370056152344, -7.456401348114014
195,811804267,0.68330413,-0.15625289,-0.70486134,0.10886223,9.416096687316895,-3.6063361167907715,-0.8833246827125549,-42.48398208618164,-16.552358627319336, -10.072296142578125
196,811820934,0.68009573,-0.16023977,-0.7080389,0.10234285,8.938718795776367,-3.144909143447876,-0.7369988560676575,-55.83682632446289,-19.823556900024414, -11.809089660644531
197,811837601,0.67630553,-0.16434664,-0.7117026,0.09529175,9.12145709991455,-3.9273769855499268,-0.6855481863021851,-59.98347473144531,-24.291805267333984, -13.837295532226562
198,811854268,0.67236984,-0.16636382,-0.7156002,0.090323105,9.360420227050781,-3.673530340194702,-0.864026665687561,-40.40708923339844,-29.842988967895508, -14.555196762084961
199,811870935,0.6679961,-0.16764754,-0.7198896,0.08622452,9.465956687927246,-2.338078498840332,-0.7034316062927246,-33.49103546142578,-35.2851676940918, -14.322622299194336
200,811887602,0.66269046,-0.16931915,-0.7248334,0.082395084,9.068760871887207,-3.321798324584961,-0.4219224452972412,-35.41142272949219,-43.00756072998047, -11.362588882446289
201,811904269,0.656853,-0.17024772,-0.730114,0.08058323,8.397489547729492,-5.173267841339111,0.03778526186943054,-22.790578842163086,-49.98552322387695, -5.967886924743652
202,811920936,0.65010506,-0.16983473,-0.7362326,0.080507375,7.795666694641113,-4.1143574714660645,-0.6248120665550232,-9.56031322479248,-61.142311096191406, -5.3602986335754395
203,811937603,0.64203143,-0.1700923,-0.7433193,0.079628676,9.554357528686523,-3.4482650756835938,0.05285217612981796,-18.714208602905273,-70.88958740234375, -5.964183330535889
204,811954270,0.6322791,-0.17182855,-0.7513936,0.07814002,10.603878021240234,-3.1515004634857178,-0.675061821937561,-30.872493743896484,-82.3314208984375, -1.3363406658172607
205,811970937,0.6210267,-0.17207545,-0.7606063,0.07870309,11.400557518005371,-2.0824942588806152,-1.0628353357315063,-16.188278198242188,-98.27359008789062, -0.6459363698959351
206,811987604,0.6075879,-0.17074879,-0.7714544,0.08087039,11.360845565795898,-0.6262327432632446,-0.6231274008750916,-4.554244041442871,-119.46157836914062, -2.762763500213623
207,812004271,0.59172446,-0.16790487,-0.7838369,0.08526356,12.305634498596191,-1.7250796556472778,0.10592454671859741,9.890957832336426,-142.2160186767578, -1.940608263015747
208,812020938,0.5736947,-0.16448382,-0.79724497,0.090664856,13.318114280700684,-0.8504543304443359,-0.08755339682102203,14.565818786621094,-159.6020965576172, -0.8464483022689819
209,812037605,0.5527315,-0.16382857,-0.81179214,0.0929614,14.45962905883789,-2.0693628787994385,1.7985608577728271,-17.39238166809082,-174.980712890625, 2.6338298320770264
210,812054272,0.52876073,-0.16559339,-0.8272555,0.0929488,16.356765747070312,-4.317388534545898,5.1512932777404785,-43.46512985229492,-191.16696166992188, 8.27540111541748
211,812070939,0.50143766,-0.17014922,-0.8436313,0.088860534,21.152305603027344,-5.34345006942749,10.115867614746094,-81.22991180419922,-207.2345733642578, 10.44254207611084
212,812087606,0.47482234,-0.17620644,-0.8584542,0.08094275,25.514307022094727,-4.4272379875183105,12.340686798095703,-106.8951644897461,-192.53335571289062, 7.342324733734131
213,812104273,0.4505656,-0.1838524,-0.87123185,0.06437529,21.346567153930664,0.7689116597175598,15.038797378540039,-159.1993865966797,-160.76651000976562, -10.33586311340332
214,812120940,0.42294586,-0.19346586,-0.8840768,0.045784473,12.267105102539062,-8.517563819885254,-4.481300354003906,-181.73287963867188,-177.89877319335938, -3.38689923286438
215,812137607,0.39354366,-0.1968795,-0.89708275,0.040059257,19.02916145324707,-15.819047927856445,-0.09188973903656006,-87.9200210571289,-208.2530975341797, -3.3725640773773193
216,812154274,0.36850083,-0.19980963,-0.90719336,0.035831064,14.841667175292969,-7.842716693878174,0.49075257778167725,-70.76248931884766,-175.74880981445312, 0.34276050329208374
217,812170941,0.3503225,-0.2037395,-0.913714,0.029853601,10.856002807617188,-10.76007080078125,3.0874826908111572,-73.92740631103516,-121.22648620605469, 5.36399507522583
218,812187608,0.342123,-0.20752256,-0.9161426,0.023860246,8.525789260864258,0.14759080111980438,5.444364547729492,-58.91970443725586,-48.72501754760742, 8.036362648010254
219,812204275,0.34008026,-0.21255559,-0.91601026,0.009525808,5.725876331329346,-1.537488341331482,4.925262928009033,-105.18531036376953,8.146842002868652, -1.064070224761963
220,812220942,0.34749484,-0.2156855,-0.9125293,0.004188204,4.552252292633057,-5.757554531097412,3.793309211730957,-30.03059959411621,62.25215530395508, 12.245381355285645
221,812237609,0.36425254,-0.21480913,-0.9061149,0.011539338,3.2997472286224365,-6.2816948890686035,3.3120810985565186,73.06326293945312,108.9530029296875, 21.48114013671875
222,812254276,0.3882839,-0.2117207,-0.8965284,0.025434984,2.4120841026306152,-5.277853012084961,1.5955195426940918,130.34988403320312,152.39511108398438, 28.185041427612305
223,812270943,0.41839194,-0.20622589,-0.8835325,0.042303815,3.9048171043395996,-4.190955638885498,1.196448802947998,164.54425048828125,194.25210571289062, 25.18370246887207
224,812287610,0.45391712,-0.19942154,-0.86644626,0.05883141,5.412142753601074,-1.7606462240219116,0.49979713559150696,175.11907958984375,239.07154846191406, 20.474699020385742
225,812304277,0.49289,-0.19422148,-0.84535116,0.06869382,6.459005355834961,0.014666523784399033,-0.36791616678237915,136.7635498046875,281.9416198730469, 13.346315383911133
226,812320944,0.5346239,-0.19107713,-0.8200103,0.072455384,6.89725923538208,-0.08615068346261978,-1.039578914642334,100.05117797851562,321.53948974609375, 9.004782676696777
227,812337611,0.579062,-0.1890595,-0.7897136,0.0727773,9.762212753295898,-0.849336564540863,-2.4594550132751465,82.56401824951172,360.14935302734375, 7.891236305236816
228,812354278,0.6256449,-0.18645425,-0.7539537,0.073194005,12.432969093322754,-1.8749586343765259,-3.5660550594329834,90.97874450683594,393.21044921875, 11.122476577758789
229,812370945,0.6715553,-0.1832165,-0.71423054,0.07293899,15.273680686950684,-0.19909675419330597,-3.7009057998657227,91.3785171508789,407.3827819824219, 10.387656211853027
230,812387612,0.71356046,-0.18438178,-0.67236876,0.06895904,19.0992374420166,-6.032530784606934,-10.439177513122559,48.910987854003906,405.0238037109375, 19.507774353027344
231,812404279,0.752374,-0.17765449,-0.6305679,0.06896798,23.530845642089844,-5.952649116516113,-14.631567001342773,102.07877349853516,381.2912292480469, 4.016440391540527
232,812420946,0.7837395,-0.17154226,-0.5935625,0.06332049,20.513038635253906,-2.2124948501586914,-15.84968376159668,63.05809020996094,331.5382385253906, -24.889057159423828
233,812437613,0.8055857,-0.17345133,-0.5641939,0.051298242,17.753440856933594,-5.91433048248291,-17.771821975708008,-20.68043327331543,262.7247314453125, -31.310075759887695
234,812454280,0.820392,-0.17433435,-0.5425919,0.0464619,12.885656356811523,-8.571025848388672,-19.377817153930664,1.8472349643707275,183.68807983398438, -2.2509968280792236
235,812470947,0.82987374,-0.16647011,-0.53000873,0.05184805,9.38071060180664,-2.667109966278076,-20.47417449951172,80.18248748779297,98.1533432006836, 13.629560470581055
236,812487614,0.83072275,-0.1615133,-0.5297058,0.056789473,8.305733680725098,1.0402337312698364,-19.055051803588867,47.81265640258789,-1.5812389850616455, 10.707536697387695
237,812504281,0.8238418,-0.15620625,-0.54096967,0.06508844,8.885653495788574,-2.9267468452453613,-16.89321517944336,49.021236419677734,-99.44496154785156, 18.808879852294922
238,812520948,0.81259763,-0.14219293,-0.55935305,0.081181824,10.783452033996582,-2.432131290435791,-13.598498344421387,119.55793762207031,-168.09413146972656, 24.842994689941406
239,812537615,0.79905856,-0.124960825,-0.5797733,0.098758765,11.691410064697266,0.6003463268280029,-5.141554355621338,139.9428253173828,-191.40164184570312, 19.98427963256836
240,812554282,0.7892598,-0.1122481,-0.59243524,0.11614609,22.712764739990234,-10.899062156677246,27.47573471069336,122.84208679199219,-130.56536865234375, 41.065120697021484
241,812570949,0.7793391,-0.09752348,-0.604667,0.13227898,16.860260009765625,19.60345458984375,-4.862458229064941,128.7945556640625,-129.6870574951172, 26.4051513671875
242,812587616,0.76310587,-0.114322804,-0.6247195,0.11969016,10.07951831817627,-0.20384380221366882,-11.560232162475586,-170.9534149169922,-149.8485107421875, 4.359954357147217
243,812604283,0.748052,-0.12508187,-0.64053136,0.120385565,13.264278411865234,-9.03856086730957,-0.22509293258190155,-77.6985092163086,-137.8062744140625, 50.53801345825195
244,812620950,0.735349,-0.1282208,-0.65357876,0.12512414,10.4987211227417,-0.5754625201225281,-1.7931352853775024,-16.358583450317383,-123.03459167480469, 38.138671875
245,812637617,0.7247668,-0.13314228,-0.6639693,0.12700817,10.118047714233398,-5.155196189880371,-0.4441501498222351,-34.030189514160156,-96.02897644042969, 32.26313781738281
246,812654284,0.71720177,-0.13090456,-0.6709956,0.1350947,10.537189483642578,-3.9237420558929443,-0.6689705848693848,35.6662483215332,-77.44772338867188, 30.896896362304688
247,812670951,0.7093862,-0.14148948,-0.6780565,0.1303518,10.715402603149414,-1.2962957620620728,1.0331103801727295,-87.0089111328125,-55.34416198730469, 26.987316131591797
248,812687618,0.701476,-0.1537754,-0.6850349,0.12252322,8.015457153320312,-8.990690231323242,-1.2443927526474,-109.72399139404297,-50.91449737548828, 20.089099884033203
249,812704285,0.6959306,-0.15466441,-0.6900816,0.12468801,9.95970630645752,-5.369338035583496,-0.9066355228424072,-3.5572290420532227,-50.64406204223633, 14.583202362060547
250,812720952,0.6907309,-0.15492569,-0.69520557,0.124813065,9.399879455566406,-3.269474744796753,-0.8495690822601318,-9.937707901000977,-47.765140533447266, 1.4408352375030518
251,812737619,0.6858915,-0.15658888,-0.69985956,0.123408146,9.525306701660156,-3.3805947303771973,-1.2876629829406738,-23.130687713623047,-41.002342224121094, 1.0712913274765015
252,812754286,0.6816781,-0.15876956,-0.7038589,0.121201776,10.540852546691895,-2.7146694660186768,-1.4923101663589478,-28.204805374145508,-33.61802291870117, -0.03758688643574715
253,812770953,0.67760247,-0.16068792,-0.7078023,0.118533865,10.778491973876953,-2.76586651802063,-1.5602418184280396,-29.01708984375,-32.41939926147461, -3.5007927417755127
254,812787620,0.67368066,-0.1618163,-0.7115912,0.11665417,9.962145805358887,-2.7989585399627686,-1.1591203212738037,-21.209564208984375,-32.481109619140625, -3.6049294471740723
255,812804287,0.6695194,-0.16365491,-0.71559346,0.11352064,9.411574363708496,-2.6910388469696045,-1.312642216682434,-31.079225540161133,-32.69703674316406, -5.966445446014404
256,812820954,0.66495097,-0.16628835,-0.7198607,0.109495334,9.155787467956543,-3.861607551574707,-0.890304446220398,-39.79743576049805,-34.315189361572266, -6.124134540557861
257,812837621,0.66021323,-0.16779505,-0.7242594,0.106825896,9.55873966217041,-4.544726371765137,-0.9526910781860352,-28.239778518676758,-38.17877197265625, -5.528660774230957
258,812854288,0.6552354,-0.1685689,-0.7288893,0.10474546,9.795378684997559,-4.09083366394043,-0.23764833807945251,-22.440425872802734,-41.66681671142578, -6.608654022216797
259,812870955,0.6498791,-0.16935217,-0.73375607,0.102854855,10.156336784362793,-4.507162570953369,0.11525965481996536,-22.157974243164062,-44.8822021484375, -5.714781761169434
260,812887622,0.6433521,-0.17118727,-0.7394018,0.10039029,8.871343612670898,-2.116215705871582,-1.0118714570999146,-31.688779830932617,-52.902896881103516, -3.06221866607666
261,812904289,0.63549685,-0.17134987,-0.74633086,0.09886092,9.643725395202637,-2.8280441761016846,-1.6820157766342163,-21.991613388061523,-67.6131591796875, -8.003805160522461
262,812920956,0.62624925,-0.17058411,-0.7543689,0.09818664,10.333698272705078,-0.8367261290550232,-1.5889371633529663,-15.944997787475586,-81.26004028320312, -9.383416175842285
263,812937623,0.6151121,-0.16951792,-0.76378036,0.09767518,10.964932441711426,-1.996956467628479,-0.5076754093170166,-16.94610595703125,-97.39402770996094, -10.533793449401855
264,812954290,0.60284156,-0.16784531,-0.7737438,0.09864447,11.97285270690918,-1.9536871910095215,-0.10045625269412994,-8.30446720123291,-107.86589050292969, -7.31280517578125
265,812970957,0.5885119,-0.16750968,-0.78484005,0.09808496,11.57227611541748,-1.738396167755127,0.1943874955177307,-25.13413429260254,-120.91388702392578, -6.415660381317139
266,812987624,0.57221097,-0.16616617,-0.79694045,0.09924509,11.366567611694336,-3.0574727058410645,0.4246688485145569,-14.733365058898926,-138.3546142578125, -4.690902233123779
267,813004291,0.5537427,-0.16379286,-0.8099469,0.10260154,11.276461601257324,-2.647728443145752,0.7944124937057495,-1.7580933570861816,-157.0976104736328, -1.2418116331100464
268,813020958,0.53238595,-0.16265936,-0.82409817,0.10473607,12.571711540222168,-2.083155632019043,2.6071510314941406,-17.362688064575195,-175.39605712890625, 1.7727402448654175
269,813037625,0.50874066,-0.16340119,-0.83885133,0.103979945,15.201608657836914,-3.2009434700012207,4.821079730987549,-43.62923812866211,-186.14181518554688, 2.826744794845581
270,813054292,0.483289,-0.1664193,-0.85382974,0.09854546,21.145784378051758,-5.1341986656188965,9.710018157958984,-80.82597351074219,-190.69972229003906, 0.6651535034179688
271,813070959,0.45905462,-0.17266186,-0.8670158,0.08797938,22.654203414916992,-3.1637496948242188,12.815228462219238,-119.17706298828125,-169.93223571777344, 3.8093979358673096
272,813087626,0.43837225,-0.17973812,-0.8778328,0.07023936,18.08047103881836,0.43933427333831787,9.131244659423828,-159.04876708984375,-132.740234375, -13.140080451965332
273,813104293,0.41194397,-0.18556489,-0.8906748,0.05065972,13.446826934814453,-4.749956130981445,-6.031578540802002,-174.51194763183594,-172.25680541992188, -25.904945373535156
274,813120960,0.38615698,-0.1875547,-0.9023116,0.039244898,20.708812713623047,-13.295014381408691,3.7597076892852783,-112.38432312011719,-176.7462921142578, -25.02348518371582
275,813137627,0.36477143,-0.1869877,-0.9112493,0.04003099,13.337265014648438,-14.102921485900879,-0.0007981956005096436,-23.68647003173828,-159.04148864746094, -6.307831764221191
276,813154294,0.35081118,-0.18081272,-0.91726017,0.05359413,11.956393241882324,-9.889811515808105,1.554351568222046,80.57835388183594,-123.3323745727539, -7.777316093444824
277,813170961,0.34629732,-0.17941785,-0.91886044,0.059858296,11.256609916687012,-1.0661718845367432,7.680714130401611,36.21722412109375,-42.467811584472656, 6.7459797859191895
278,813187628,0.3493947,-0.17999467,-0.91785973,0.05530644,6.971835136413574,1.717513918876648,8.055463790893555,-26.407527923583984,25.690092086791992, -6.421225070953369
279,813204295,0.35967574,-0.18413906,-0.9139139,0.038568623,7.011264801025391,0.14060384035110474,6.062593936920166,-101.88753509521484,94.32984161376953, -12.269156455993652
280,813220962,0.377048,-0.19132248,-0.90598786,0.020414645,5.202210426330566,-4.295840740203857,3.352494478225708,-108.30936431884766,151.1545867919922, 6.409892559051514
281,813237629,0.4022349,-0.19599938,-0.8942314,0.01190205,5.254321575164795,-6.730498790740967,3.1209301948547363,-31.02970314025879,196.6306915283203, 19.59388542175293
282,813254296,0.4341842,-0.19947882,-0.8783918,0.010963204,5.403039455413818,-5.771113395690918,2.395932197570801,28.16274070739746,239.11866760253906, 37.98891830444336
283,813270963,0.471259,-0.20251173,-0.8583345,0.012886037,6.7170796394348145,-4.637851715087891,1.164798617362976,54.0154914855957,278.6538391113281, 49.126243591308594
284,813287630,0.51202583,-0.2056919,-0.83382004,0.016272075,7.730940818786621,-3.6793642044067383,-0.1732790172100067,67.6251220703125,312.8225402832031, 60.53300857543945
285,813304297,0.5557884,-0.20887099,-0.80441755,0.019614454,9.992450714111328,-2.7405788898468018,-0.6807153224945068,72.10562133789062,347.2629699707031, 66.88250732421875
286,813320964,0.60149807,-0.21171905,-0.7699641,0.023034252,11.90758228302002,-2.7496206760406494,-2.8473966121673584,77.23989868164062,377.18121337890625, 72.29563903808594
287,813337631,0.64825916,-0.21473312,-0.7299834,0.027823096,15.19005012512207,-3.610875129699707,-5.782724380493164,86.2037582397461,403.7075500488281, 86.6881103515625
288,813354298,0.6950509,-0.20894915,-0.68685037,0.0384849,17.56502342224121,0.0876971036195755,-7.739114761352539,155.6170196533203,407.6879577636719, 73.35076141357422
289,813370965,0.73497003,-0.21084341,-0.6433267,0.03866387,19.648380279541016,-2.525228977203369,-13.750202178955078,59.6453857421875,394.33343505859375, 61.988372802734375
290,813387632,0.770729,-0.20182556,-0.60301894,0.040144533,22.37063217163086,-3.4992895126342773,-16.005191802978516,113.84415435791016,355.2392578125, 16.791364669799805
291,813404299,0.7974332,-0.19686544,-0.5693452,0.034503553,18.824304580688477,-3.6903200149536133,-15.985601425170898,48.59640121459961,293.9768981933594, -10.735660552978516
292,813420966,0.81716055,-0.19114922,-0.54276687,0.033392996,16.218534469604492,-8.173917770385742,-18.610082626342773,59.56879806518555,221.94557189941406, 3.27854323387146
293,813437633,0.8310941,-0.18249886,-0.5237695,0.04052939,11.715126991271973,-2.497490406036377,-20.67995834350586,97.75786590576172,146.8139190673828, 30.0085391998291
294,813454300,0.8370353,-0.1762371,-0.51581115,0.047450222,9.347440719604492,3.3269879817962646,-21.04720115661621,70.4797592163086,56.51877975463867, 25.821319580078125
295,813470967,0.8340546,-0.17249474,-0.52125204,0.053803623,8.546993255615234,-0.687388002872467,-20.68710708618164,38.99310302734375,-50.09299087524414, 18.33730697631836
296,813487634,0.82515544,-0.16203514,-0.5369062,0.06778678,10.022509574890137,-2.5918304920196533,-17.9320125579834,94.32364654541016,-140.79953002929688, 28.13970184326172
297,813504301,0.8130209,-0.14594795,-0.55707836,0.08579061,12.687455177307129,-1.213782787322998,-4.342437267303467,135.65306091308594,-184.92770385742188, 26.607431411743164
298,813520968,0.80320925,-0.12190748,-0.5718056,0.114157945,29.620372772216797,-3.871598243713379,17.456077575683594,225.4841766357422,-160.45571899414062, 58.13568878173828
299,813537635,0.79121286,-0.107305475,-0.5886659,0.12625429,12.560580253601074,20.844135284423828,-4.706290245056152,105.72445678710938,-159.9407196044922, 5.367107391357422
300,813554302,0.7733505,-0.12906905,-0.61046094,0.1122843,8.349339485168457,-4.359499454498291,-8.602712631225586,-206.3389129638672,-159.53091430664062, 12.870241165161133
301,813570969,0.7574866,-0.13683395,-0.6273607,0.11793842,14.612818717956543,-15.867796897888184,-5.841987133026123,-43.74837112426758,-153.0494384765625, 61.27045822143555
302,813587636,0.74551845,-0.13067532,-0.6408516,0.1282011,10.15464973449707,-1.1566762924194336,1.1114356517791748,55.29412841796875,-133.86830139160156, 24.928709030151367
303,813604303,0.73546445,-0.12846722,-0.6514928,0.13470504,8.461763381958008,-5.120192527770996,-1.124627709388733,22.73986053466797,-103.95785522460938, 23.956117630004883
304,813620970,0.72724867,-0.124819025,-0.6598104,0.14205572,11.672013282775879,-2.688340663909912,0.26177963614463806,37.6494255065918,-85.99844360351562, 22.034603118896484
305,813637637,0.7193745,-0.12794952,-0.6677923,0.14206697,9.655967712402344,-2.9904327392578125,0.8864809274673462,-28.892499923706055,-69.83428955078125, 16.069866180419922
306,813654304,0.71268666,-0.12906316,-0.67461145,0.1425481,9.733107566833496,-5.5666632652282715,-1.049106478691101,-14.569762229919434,-61.0368537902832, 9.018532752990723
307,813670971,0.7070835,-0.12659918,-0.68014914,0.14629662,10.50332260131836,-3.411893844604492,-1.8069242238998413,20.368431091308594,-56.08933639526367, 8.440958976745605
308,813687638,0.701822,-0.12332727,-0.6855736,0.14908132,10.495765686035156,-1.9074771404266357,-1.8573081493377686,20.236608505249023,-53.850433349609375, -0.27548062801361084
309,813704305,0.6965949,-0.12250305,-0.6910304,0.14908281,9.535240173339844,-2.6780917644500732,-2.0338871479034424,-4.665149688720703,-48.91267013549805, -2.1826815605163574
310,813720972,0.691738,-0.12141893,-0.6961663,0.14868943,9.266339302062988,-3.8000354766845703,-2.0037715435028076,-4.624958038330078,-45.487945556640625, -5.394062042236328
311,813737639,0.6874091,-0.12003024,-0.7007206,0.14850001,10.492494583129883,-3.6737020015716553,-0.7118905186653137,-1.1388756036758423,-40.6168327331543, -5.950018882751465
312,813754306,0.6831294,-0.119935825,-0.7052373,0.14693615,10.252538681030273,-2.4237539768218994,-0.6091378927230835,-13.79464340209961,-37.73397445678711, -6.219388484954834
313,813770973,0.6787075,-0.121106796,-0.7097843,0.14455302,9.476128578186035,-2.5477676391601562,-0.8635292053222656,-23.853546142578125,-36.60966491699219, -3.7577147483825684
314,813787640,0.67404795,-0.12334048,-0.71448034,0.14129627,9.242842674255371,-2.1943814754486084,-0.7830801010131836,-33.41365432739258,-36.67631530761719, -2.487027406692505
315,813804307,0.66851854,-0.12747274,-0.71988124,0.1363995,9.294637680053711,-2.0603158473968506,-0.11111709475517273,-51.6829948425293,-40.98774337768555, -0.4468972086906433
316,813820974,0.66200584,-0.13207312,-0.7259312,0.13163903,9.754210472106934,-3.508436441421509,0.0873340591788292,-54.629451751708984,-48.55666732788086, 2.927157163619995
317,813837641,0.6545255,-0.1350508,-0.7325622,0.12926868,9.822089195251465,-3.991502523422241,0.3707423806190491,-36.72325897216797,-59.72196578979492, 6.081821918487549
318,813854308,0.6465693,-0.13659397,-0.7393794,0.1288741,10.139847755432129,-2.784677267074585,-0.4316233992576599,-20.93473243713379,-66.1337890625, 7.9933671951293945
319,813870975,0.6380993,-0.13997273,-0.7464062,0.12694445,9.442953109741211,-2.8999111652374268,-0.4612847864627838,-37.55900573730469,-66.66006469726562, 10.797893524169922
320,813887642,0.62837726,-0.14373673,-0.75450087,0.1233295,10.699970245361328,-2.8167057037353516,-0.7751802802085876,-50.03123092651367,-75.8707046508789, 5.479785919189453
321,813904309,0.6175217,-0.14732826,-0.7632116,0.120289475,11.187468528747559,-2.278855085372925,-0.859338641166687,-47.93852996826172,-85.19237518310547, 7.474569797515869
322,813920976,0.6047505,-0.14962763,-0.77324176,0.11826141,11.862883567810059,-1.04734206199646,0.001095995306968689,-40.1577262878418,-103.01964569091797, 5.3064446449279785
323,813937643,0.58990014,-0.15026905,-0.7845523,0.11796133,11.809189796447754,-1.462760329246521,0.26076123118400574,-27.242183685302734,-122.65177154541016, 4.154758930206299
324,813954310,0.5727521,-0.14990821,-0.7970681,0.119017504,12.259571075439453,-1.7204935550689697,0.006449282169342041,-19.199560165405273,-142.3011016845703, 4.943782806396484
325,813970977,0.5527464,-0.15004547,-0.81097835,0.11946539,12.99975872039795,-2.186674118041992,0.8564306497573853,-28.564443588256836,-162.58921813964844, 6.246059417724609
326,813987644,0.5294667,-0.1524011,-0.8262834,0.11702512,14.794428825378418,-2.8345935344696045,3.209287405014038,-57.62371826171875,-181.58506774902344, 8.954034805297852
327,814004311,0.5029895,-0.15740845,-0.8425649,0.110944994,17.087608337402344,-5.519673824310303,7.519876956939697,-92.14118957519531,-197.75120544433594, 12.391656875610352
328,814020978,0.47536623,-0.16408293,-0.8582917,0.102174334,23.087337493896484,-7.093230247497559,11.13471794128418,-114.48453521728516,-198.905517578125, 14.243605613708496
329,814037645,0.4503981,-0.17263044,-0.8715837,0.08764999,22.128297805786133,-0.16026757657527924,13.454495429992676,-150.1354217529297,-168.37066650390625, 7.419492721557617
330,814054312,0.42685288,-0.18380474,-0.88343704,0.059595097,17.368379592895508,0.07207959145307541,1.9962823390960693,-236.99246215820312,-138.78408813476562, -17.709352493286133
331,814070979,0.3943365,-0.19299053,-0.8979107,0.031780586,14.663263320922852,-13.402352333068848,-2.9239425659179688,-242.08934020996094,-202.7211456298828, -28.689178466796875
332,814087646,0.36817634,-0.19501805,-0.90867287,0.026982771,17.156124114990234,-13.79465389251709,4.7823872566223145,-71.5499038696289,-185.84280395507812, -7.292316436767578
333,814104313,0.3466955,-0.19576512,-0.91686064,0.029068865,11.910310745239258,-10.598846435546875,-0.2311537116765976,-18.979188919067383,-160.21324157714844, 4.468564510345459
334,814120980,0.33509323,-0.19600596,-0.921025,0.031740516,12.170096397399902,-5.1803717613220215,6.049805641174316,-0.3057730793952942,-89.59402465820312, 5.951132774353027
335,814137647,0.3322403,-0.20028064,-0.9212947,0.026835373,8.053118705749512,-1.1941192150115967,7.657332420349121,-45.18125915527344,-14.677526473999023, 17.343238830566406
336,814154314,0.33691198,-0.20558307,-0.91859275,0.020333644,5.6346435546875,-5.217855930328369,5.901122093200684,-46.880523681640625,41.703487396240234, 22.893917083740234
337,814170981,0.3514184,-0.20964806,-0.91220206,0.020988585,5.176177501678467,-4.775699138641357,4.358609199523926,15.323020935058594,101.75491333007812, 35.37884521484375
338,814187648,0.37365785,-0.21293396,-0.9024604,0.024580015,4.559933185577393,-3.864070177078247,3.63986873626709,46.986846923828125,153.7635955810547, 41.23073959350586
339,814204315,0.40296426,-0.21563514,-0.88891417,0.030873276,4.917914867401123,-4.387822151184082,2.0510458946228027,76.00725555419922,203.15188598632812, 48.88140869140625
340,814220982,0.4385188,-0.21690819,-0.87130165,0.038543887,6.559403896331787,-2.131727933883667,1.390303134918213,98.2730712890625,250.13565063476562, 48.62318420410156
341,814237649,0.47861633,-0.2183319,-0.8493375,0.043401703,7.803943634033203,-0.9277433156967163,0.4935053586959839,88.72327423095703,294.5735778808594, 46.34160614013672
342,814254316,0.52190816,-0.2206844,-0.82276326,0.044396255,9.101027488708496,-0.3072381019592285,-0.2744459807872772,69.14234161376953,334.36419677734375, 45.02878952026367
343,814270983,0.5682819,-0.22234485,-0.7909421,0.045050386,10.886740684509277,-2.101269483566284,-2.6161651611328125,75.87153625488281,370.8640441894531, 46.927581787109375
344,814287650,0.61803424,-0.21828692,-0.7535172,0.050955474,13.117348670959473,-2.1440296173095703,-3.7431576251983643,133.6170654296875,401.38140869140625, 43.86360168457031
345,814304317,0.6683852,-0.20956004,-0.7111545,0.06004216,15.781189918518066,1.05357027053833,-5.47805643081665,172.53160095214844,419.17242431640625, 40.48244094848633
346,814320984,0.71384305,-0.20532885,-0.6667446,0.060990192,19.20261573791504,-0.6058077812194824,-10.180214881896973,105.80912780761719,418.4078063964844, 30.24840545654297
347,814337651,0.7556381,-0.19355251,-0.62263,0.062293954,24.644031524658203,-1.1005185842514038,-15.723480224609375,139.28665161132812,396.9561462402344, -1.2963886260986328
348,814354318,0.7888651,-0.18396698,-0.5840057,0.05277767,23.919424057006836,-1.5260807275772095,-17.135629653930664,68.02367401123047,347.8258972167969, -51.51666259765625
349,814370985,0.8133992,-0.1733378,-0.55333817,0.04639681,16.634370803833008,-9.376557350158691,-20.308488845825195,72.67568969726562,266.3175964355469, -45.354408264160156
350,814387652,0.8301593,-0.16296479,-0.53092617,0.04894527,13.18851375579834,-4.951498031616211,-21.195173263549805,93.75249481201172,181.07968139648438, -1.9227070808410645
351,814404319,0.83887494,-0.15563798,-0.5188853,0.05314095,8.998044967651367,-0.5862642526626587,-22.96221160888672,70.28141784667969,92.81033325195312, 9.692766189575195
352,814420986,0.8384052,-0.1523741,-0.5203666,0.055474605,8.096501350402832,-2.136359214782715,-22.14098358154297,25.834604263305664,-13.353311538696289, 2.4506494998931885
353,814437653,0.8309516,-0.14469232,-0.5333807,0.063944094,8.919212341308594,-6.832059860229492,-20.64577293395996,61.99030685424805,-111.8719482421875, 12.626829147338867
354,814454320,0.8188474,-0.13434856,-0.5527567,0.07680832,12.51455307006836,-5.057370185852051,-6.98871374130249,86.4310531616211,-169.80702209472656, 23.49056625366211
355,814470987,0.80940926,-0.11597044,-0.5673087,0.097818516,29.604793548583984,-0.3131979703903198,18.754226684570312,167.93496704101562,-143.7640838623047, 41.69926834106445
356,814487654,0.79792935,-0.1094594,-0.58362955,0.10346077,10.653938293457031,13.851639747619629,-3.6129097938537598,38.91565704345703,-141.63143920898438, 2.6955766677856445
357,814504321,0.7812924,-0.12290317,-0.604071,0.09785386,8.2013521194458,-8.952762603759766,-10.181397438049316,-122.5428466796875,-162.02658081054688, 22.338043212890625
358,814520988,0.7669413,-0.120775715,-0.620771,0.1088941,15.839290618896484,-5.315621852874756,-1.8470308780670166,35.10169982910156,-156.4750518798828, 48.4487419128418
359,814537655,0.7546119,-0.11748078,-0.6347847,0.1175057,10.347033500671387,-0.4591614902019501,-2.1509461402893066,34.7805290222168,-132.31027221679688, 31.28288459777832
360,814554322,0.7440354,-0.12436069,-0.6457681,0.118023835,9.632329940795898,1.2014044523239136,1.6206001043319702,-49.33807373046875,-94.0400619506836, 34.818359375
361,814570989,0.7342348,-0.1374713,-0.6552071,0.11271485,10.718363761901855,-4.31555700302124,-0.841206431388855,-105.12726593017578,-72.75273895263672, 33.59882736206055
362,814587656,0.72597295,-0.1487881,-0.6626833,0.108057424,10.242969512939453,-5.905401706695557,0.783312976360321,-90.05563354492188,-57.91893768310547, 29.515777587890625
363,814604323,0.7203095,-0.15217984,-0.6678471,0.10943479,9.751322746276855,-6.487680912017822,-1.2274069786071777,-18.572391510009766,-46.66160202026367, 23.8963623046875
364,814620990,0.71569496,-0.1562282,-0.6718741,0.109356396,11.079959869384766,-1.416724443435669,0.730218231678009,-26.483240127563477,-34.16440963745117, 19.97744369506836
365,814637657,0.710446,-0.16427661,-0.6764552,0.103383616,9.273384094238281,-4.044417858123779,-1.1422865390777588,-74.48170471191406,-30.556913375854492, 9.480843544006348
366,814654324,0.70589966,-0.16970298,-0.6806125,0.09835244,9.744235038757324,-4.473326206207275,-1.4624502658843994,-56.16108322143555,-28.149335861206055, 1.885959267616272
367,814670991,0.70209914,-0.1729916,-0.68432635,0.09396015,9.714942932128906,-3.3913841247558594,-1.6707929372787476,-41.59477615356445,-24.681596755981445, -5.007874488830566
368,814687658,0.69857806,-0.17611171,-0.6877924,0.0889664,9.622721672058105,-3.0006847381591797,-1.4084759950637817,-43.09221649169922,-21.539899826049805, -8.554445266723633
369,814704325,0.6952045,-0.17912945,-0.6910916,0.083641544,10.100586891174316,-3.4251580238342285,-1.455477237701416,-43.872188568115234,-19.695642471313477, -10.466475486755371
370,814720992,0.6919006,-0.18123206,-0.69447416,0.07832206,10.188379287719727,-2.831479549407959,-1.2891349792480469,-39.425628662109375,-20.290843963623047, -14.895167350769043
371,814737659,0.6884184,-0.18319187,-0.6980126,0.072797686,9.386314392089844,-2.056152820587158,-0.9018990993499756,-40.02786636352539,-21.712011337280273, -16.592464447021484
372,814754326,0.6841342,-0.18609127,-0.7020694,0.06655148,9.685297966003418,-1.9454874992370605,-0.17851340770721436,-49.2122802734375,-26.667705535888672, -15.674478530883789
373,814770993,0.6785975,-0.18989538,-0.7070185,0.05974984,9.476243019104004,-3.4813029766082764,0.29558196663856506,-58.17134094238281,-35.86432647705078, -14.401474952697754
374,814787660,0.67258006,-0.1935031,-0.7122125,0.054279257,9.302339553833008,-5.9633469581604,1.3101117610931396,-51.53494644165039,-41.271583557128906, -9.258316993713379
375,814804327,0.66508293,-0.19841738,-0.71838516,0.047096506,7.735622882843018,-2.1713063716888428,-1.0522778034210205,-68.35104370117188,-50.439884185791016, -11.631669044494629
376,814820994,0.6561757,-0.20274477,-0.7257733,0.039768457,9.076122283935547,-3.704545259475708,-0.34875601530075073,-68.69046783447266,-63.014041900634766, -16.36129379272461
377,814837661,0.6473654,-0.20299639,-0.733687,0.03760308,9.450481414794922,-3.6240198612213135,-0.5730499625205994,-24.556184768676758,-73.30442810058594, -14.205957412719727
378,814854328,0.63771236,-0.20113592,-0.7425683,0.03820829,10.394017219543457,-3.3203070163726807,0.3942810297012329,-2.60730242729187,-86.35289001464844, -13.72633171081543
379,814870995,0.6263898,-0.19844638,-0.75271946,0.040845305,10.118656158447266,-4.114928722381592,-0.1934042125940323,8.74587631225586,-103.60203552246094, -10.426230430603027
380,814887662,0.61278355,-0.19564348,-0.7643756,0.044157878,11.443309783935547,-1.7311097383499146,-0.2884257137775421,9.185151100158691,-122.96868896484375, -9.624195098876953
381,814904329,0.5956569,-0.19440834,-0.7780573,0.045002855,12.667596817016602,-0.1938723772764206,0.32764026522636414,-15.710014343261719,-146.35189819335938, -13.426363945007324
382,814920996,0.57572854,-0.19162002,-0.7934313,0.047805306,12.981626510620117,-0.9191063642501831,1.04354727268219,-3.0942606925964355,-171.57809448242188, -15.030387878417969
383,814937663,0.5529458,-0.18772341,-0.81007063,0.05288301,14.384664535522461,-0.22738610208034515,3.768892288208008,9.571904182434082,-195.78579711914062, -12.76367473602295
384,814954330,0.526769,-0.18427001,-0.8278415,0.056901574,17.127216339111328,-1.360619306564331,5.532562255859375,-2.7816996574401855,-217.89651489257812, -14.476131439208984
385,814970997,0.49822688,-0.18124929,-0.8458776,0.058393255,25.93962860107422,-5.910430908203125,10.60689926147461,-21.853260040283203,-229.54249572753906, -20.51096534729004
386,814987664,0.47053543,-0.18106444,-0.861813,0.055594366,24.91843032836914,-3.336390495300293,16.466806411743164,-54.82918167114258,-211.949462890625, -16.412870407104492
387,815004331,0.44558138,-0.18604432,-0.87474763,0.04076097,20.278411865234375,-1.9266271591186523,13.262552261352539,-138.5517120361328,-170.3832244873047, -21.952919006347656
388,815020998,0.41423672,-0.19405049,-0.8889246,0.023781758,10.53291130065918,-9.583182334899902,-6.053815841674805,-169.40809631347656,-210.1912841796875, -10.119592666625977
389,815037665,0.38350376,-0.1994593,-0.9016219,0.014796474,19.17081642150879,-15.109613418579102,0.5525698065757751,-112.20780944824219,-213.4612579345703, -1.7465293407440186
390,815054332,0.35924396,-0.1995314,-0.9115051,0.017017439,14.207179069519043,-11.574280738830566,1.4077693223953247,-19.943540573120117,-182.44839477539062, -2.473442792892456
391,815070999,0.34501746,-0.20064844,-0.9166548,0.02115177,11.601690292358398,-7.676937580108643,7.323801517486572,3.3841054439544678,-110.86870574951172, 13.89179515838623
392,815087666,0.3398683,-0.20363772,-0.91797084,0.018726913,7.907588481903076,-1.000403642654419,7.253181457519531,-29.675174713134766,-35.83867645263672, 13.980340003967285
393,815104333,0.34133646,-0.20803165,-0.91659874,0.007681863,6.732606887817383,-2.363476514816284,6.763933181762695,-77.88053131103516,24.000091552734375, 5.584115505218506
394,815121000,0.35202605,-0.21150579,-0.9117801,-0.00035474746,5.169530391693115,-4.734167098999023,5.3974528312683105,-43.57035827636719,85.4568862915039, 11.18198299407959
395,815137667,0.37146232,-0.21186683,-0.9039515,0.00019540092,4.069524765014648,-6.487810134887695,3.2544069290161133,30.24629020690918,134.82208251953125, 16.722322463989258
396,815154334,0.3988483,-0.20876293,-0.8928804,0.010141265,3.6056060791015625,-7.21437931060791,1.3514012098312378,108.7804183959961,178.6844482421875, 23.80823516845703
397,815171001,0.43293142,-0.20317967,-0.8778793,0.024830768,4.971811294555664,-5.514066696166992,1.594592809677124,154.29690551757812,223.56353759765625, 26.720834732055664
398,815187668,0.47226837,-0.1973454,-0.8581813,0.039276347,6.464898109436035,-3.91196608543396,0.9336704611778259,161.4703369140625,269.4959716796875, 30.16602897644043
399,815204335,0.5151046,-0.1929758,-0.8337072,0.048581503,7.8056206703186035,-2.799555778503418,-0.1814098060131073,132.21572875976562,312.96392822265625, 27.683151245117188
400,815221002,0.5609924,-0.19085135,-0.8037753,0.05299593,9.516775131225586,-3.0026535987854004,-1.7757362127304077,101.94036102294922,357.0134582519531, 29.45315170288086
401,815237669,0.60909945,-0.18827356,-0.7683924,0.05589351,11.829668045043945,-3.265838623046875,-3.5088577270507812,100.09310913085938,392.1882629394531, 27.386947631835938
402,815254336,0.6581204,-0.18831372,-0.7266995,0.05764921,15.116905212402344,-4.120570659637451,-5.336887836456299,86.61565399169922,426.0855407714844, 44.18704605102539
403,815271003,0.7056892,-0.18739714,-0.6807038,0.059394553,17.81968116760254,1.3976839780807495,-8.085217475891113,90.68270111083984,438.1805114746094, 45.412147521972656
404,815287670,0.7466525,-0.19688304,-0.63341576,0.050318256,20.828840255737305,-5.217673301696777,-15.159791946411133,-18.449066162109375,432.120849609375, 46.05229568481445
405,815304337,0.7826307,-0.19268802,-0.5901228,0.04599637,23.364425659179688,-4.066547870635986,-15.362496376037598,64.66004180908203,379.4441833496094, 7.073639869689941
406,815321004,0.8099496,-0.19110976,-0.5533006,0.036295753,22.422025680541992,-4.964393615722656,-16.32448387145996,15.535429000854492,318.2608337402344, -17.00932502746582
407,815337671,0.8303326,-0.18565159,-0.52422076,0.03569465,15.559731483459473,-8.38552474975586,-20.453411102294922,61.0859260559082,236.77471923828125, 10.562236785888672
408,815354338,0.8429372,-0.18077905,-0.50505704,0.041149758,10.838617324829102,1.217244267463684,-23.187318801879883,67.69935607910156,145.61395263671875, 36.41602325439453
409,815371005,0.8452057,-0.18053968,-0.501011,0.044953592,7.997300148010254,2.5275516510009766,-24.123857498168945,18.388338088989258,26.579843521118164, 27.29354476928711
410,815387672,0.8388028,-0.17492111,-0.51274824,0.05387124,7.4921875,-1.601940631866455,-21.972232818603516,52.045169830322266,-101.94273376464844, 21.797727584838867
411,815404339,0.82718635,-0.15644251,-0.534617,0.073981315,11.209425926208496,-0.8491155505180359,-17.76698875427246,156.16424560546875,-196.0306854248047, 30.752294540405273
412,815421006,0.8133792,-0.13635427,-0.5580055,0.0919335,14.392942428588867,3.2928855419158936,4.796100616455078,154.6706085205078,-210.3394317626953, 12.006392478942871
413,815437673,0.8063793,-0.11241301,-0.568367,0.118637465,28.100744247436523,-3.673720359802246,27.913236618041992,224.3903350830078,-121.93733215332031, 54.218196868896484
414,815454340,0.79315895,-0.110364445,-0.58739775,0.11697384,15.8627290725708,22.824174880981445,-17.287277221679688,-20.103609085083008,-155.2104034423828, -18.999065399169922
415,815471007,0.7741716,-0.13679524,-0.6100466,0.09893864,10.282564163208008,-14.155123710632324,-3.2705798149108887,-248.7596435546875,-162.1571807861328, 9.822395324707031
416,815487674,0.76024467,-0.13648123,-0.6257666,0.10870843,9.932449340820312,-8.433765411376953,-5.214008808135986,20.081483840942383,-148.2251434326172, 48.336647033691406
417,815504341,0.7477025,-0.13475233,-0.64007276,0.11441066,12.07148551940918,-0.9151323437690735,0.9148914217948914,12.58180046081543,-131.8642578125, 20.998884201049805
418,815521008,0.7376697,-0.1327185,-0.65072054,0.121622436,9.297967910766602,-4.947132587432861,-1.0410633087158203,26.063583374023438,-103.65141296386719, 28.892871856689453
419,815537675,0.7291483,-0.13206327,-0.6594507,0.12659782,11.64298152923584,-1.3273593187332153,0.5053757429122925,12.14604663848877,-83.92359161376953, 24.06951904296875
420,815554342,0.7202767,-0.14160961,-0.6681829,0.121160716,8.926775932312012,-5.340538501739502,-0.20480522513389587,-86.48662567138672,-67.23430633544922, 18.534761428833008
421,815571009,0.71325815,-0.14538476,-0.6752748,0.11887044,8.560951232910156,-7.065751075744629,-0.827982485294342,-40.2389030456543,-58.510986328125, 7.595050811767578
422,815587676,0.70745194,-0.14659138,-0.6810101,0.1193651,11.663036346435547,-2.737484931945801,-1.4838087558746338,-12.35245132446289,-51.12215805053711, 9.527310371398926
423,815604343,0.70261043,-0.14903077,-0.6857447,0.117825106,11.885016441345215,-0.15051871538162231,-1.779544711112976,-26.04150390625,-38.6579704284668, 5.6718034744262695
424,815621010,0.69817215,-0.15521766,-0.68980783,0.11237636,10.14390754699707,-1.5130622386932373,-2.6343705654144287,-61.578678131103516,-26.46455192565918, 5.002336025238037
425,815637677,0.6942765,-0.16119772,-0.6933407,0.10617986,9.324384689331055,-4.2279791831970215,-2.524583101272583,-63.0970573425293,-20.6833553314209, 0.6996921896934509
426,815654344,0.6911378,-0.16400239,-0.6964687,0.1017998,8.939518928527832,-5.304043292999268,-1.5104299783706665,-38.120540618896484,-19.449935913085938, -5.877883434295654
427,815671011,0.6882783,-0.16434647,-0.6996554,0.09872035,8.690942764282227,-4.2913007736206055,-1.487620234489441,-19.92848014831543,-21.587997436523438, -11.817025184631348
428,815687678,0.68544674,-0.1636313,-0.70298135,0.0959426,9.122973442077637,-3.9758028984069824,-1.466964602470398,-13.535754203796387,-23.17597198486328, -15.713929176330566
429,815704345,0.6825249,-0.1627246,-0.70636976,0.093393065,10.045644760131836,-2.950627565383911,-1.766067385673523,-11.682709693908691,-24.295228958129883, -15.614246368408203
430,815721012,0.678825,-0.16156244,-0.7105142,0.09090697,10.412632942199707,-1.9154657125473022,-0.5370995998382568,-11.53381633758545,-31.85504722595215, -16.89590072631836
431,815737679,0.67361736,-0.16157448,-0.7158505,0.08770242,9.581463813781738,-1.793673038482666,0.37205177545547485,-22.957836151123047,-43.30588912963867, -14.84329891204834
432,815754346,0.66680104,-0.16273695,-0.722364,0.084163085,8.75575065612793,-3.308560371398926,0.9532989263534546,-32.45231628417969,-55.709224700927734, -11.025114059448242
433,815771013,0.65859276,-0.1633953,-0.7298865,0.082603104,8.993302345275879,-4.552797317504883,0.8864295482635498,-22.483280181884766,-69.8802261352539, -4.810412406921387
434,815787680,0.6489486,-0.16336264,-0.7384286,0.08307742,9.341870307922363,-4.619807243347168,1.3613910675048828,-11.367897987365723,-84.50704956054688, 0.5121710300445557
435,815804347,0.6380949,-0.16363001,-0.7476937,0.08375227,9.555922508239746,-1.8702518939971924,-1.0679309368133545,-13.497836112976074,-94.07962036132812, 2.7138354778289795
436,815821014,0.6256507,-0.1648762,-0.7579423,0.08306962,11.568341255187988,-2.237617015838623,0.3262859880924225,-27.100740432739258,-104.55329895019531, 1.6095871925354004
437,815837681,0.61243653,-0.16463396,-0.7685882,0.084199205,12.508790969848633,-0.8165159225463867,-1.123640537261963,-12.356120109558105,-113.32858276367188, 1.6575825214385986
438,815854348,0.59781134,-0.16428675,-0.78004616,0.08461409,12.14115047454834,-0.4246554970741272,-1.2298496961593628,-17.719018936157227,-123.5715103149414, -1.9372076988220215
439,815871015,0.58152866,-0.16320524,-0.792353,0.08582198,11.788875579833984,-1.363120675086975,-0.7642708420753479,-12.764101028442383,-137.39517211914062, -2.5384397506713867
440,815887682,0.5633164,-0.16198348,-0.8055147,0.08707679,12.44628620147705,-3.02799916267395,0.36072424054145813,-14.585280418395996,-151.6117401123047, -2.9103784561157227
441,815904349,0.5432032,-0.16224658,-0.8192787,0.085960306,13.699000358581543,-3.051542043685913,2.079003095626831,-35.95815658569336,-161.16259765625, -3.4254136085510254
442,815921016,0.52030385,-0.1648492,-0.83413744,0.07952092,15.77171802520752,-5.3397722244262695,4.923209190368652,-78.47636413574219,-173.95652770996094, -9.699856758117676
443,815937683,0.49562433,-0.16866171,-0.8490315,0.07110083,20.625160217285156,-7.133831024169922,8.31452465057373,-96.32740783691406,-181.8759307861328, -8.954553604125977
444,815954350,0.47153917,-0.1743405,-0.8624056,0.059272148,21.550556182861328,-2.981632709503174,13.294553756713867,-121.3720932006836,-169.07330322265625, -8.244513511657715
445,815971017,0.44705352,-0.18241145,-0.874863,0.038523007,18.627622604370117,-1.2662701606750488,9.24189281463623,-182.3404998779297,-157.7436065673828, -21.6507625579834
446,815987684,0.4168264,-0.18873179,-0.8889091,0.0218341,12.502697944641113,-9.072309494018555,-5.349278450012207,-160.2317657470703,-203.49375915527344, -20.15213966369629
447,816004351,0.38629127,-0.19007255,-0.9024724,0.0139720095,20.63335418701172,-12.516192436218262,4.6925787925720215,-92.43893432617188,-216.355712890625, -24.885019302368164
448,816021018,0.36158362,-0.18962625,-0.9127476,0.013825175,16.267013549804688,-11.154781341552734,4.117144584655762,-32.21274185180664,-182.36093139648438, -11.980987548828125
449,816037685,0.34382653,-0.1877026,-0.919858,0.02031064,12.019559860229492,-8.945372581481934,2.967745780944824,22.11773109436035,-140.17474365234375, -1.461423397064209
450,816054352,0.33626693,-0.18680367,-0.92273504,0.024274336,11.809617042541504,-2.309826135635376,7.2471442222595215,17.216630935668945,-62.63931655883789, 2.998990535736084
451,816071019,0.33672878,-0.18725562,-0.9225117,0.022837825,8.184734344482422,-1.8159748315811157,8.00326919555664,-9.478276252746582,2.116243362426758, 1.7709455490112305
452,816087686,0.34502745,-0.18991913,-0.9189667,0.019670332,6.213390827178955,-3.3942651748657227,6.764036655426025,-15.104969024658203,61.72071838378906, 14.840802192687988
453,816104353,0.36221805,-0.19141227,-0.91200465,0.020176077,4.631763935089111,-2.4470036029815674,4.427126884460449,22.759708404541016,120.78983306884766, 19.379657745361328
454,816121020,0.3869334,-0.19356571,-0.90135497,0.019351937,5.251067638397217,-2.3957676887512207,4.478214263916016,23.02989387512207,178.85572814941406, 23.991580963134766
455,816137687,0.41923565,-0.19585885,-0.8862876,0.019369634,6.031477928161621,-2.917640209197998,3.6593737602233887,38.38784408569336,236.38494873046875, 31.936893463134766
456,816154354,0.4578564,-0.19743519,-0.86657846,0.020713959,7.106834888458252,-2.167438268661499,1.932530403137207,57.476165771484375,286.27142333984375, 36.759666442871094
457,816171021,0.50116193,-0.19850984,-0.84200275,0.021495534,8.607921600341797,-1.105154275894165,1.1787523031234741,62.591705322265625,330.130859375, 37.91042709350586
458,816187688,0.54817533,-0.19948433,-0.81196266,0.02064963,11.774757385253906,-0.6608266830444336,-0.31459736824035645,59.25302505493164,372.5863952636719, 38.614410400390625
459,816204355,0.59858096,-0.19820002,-0.77585083,0.021756945,14.319005012512207,-2.4481890201568604,-3.359386444091797,84.07608032226562,411.4120178222656, 41.23265838623047
460,816221022,0.6508964,-0.19390775,-0.7335232,0.026029695,17.689172744750977,-1.6363335847854614,-4.901153564453125,116.7946548461914,442.54254150390625, 46.39943313598633
461,816237689,0.70130086,-0.18676403,-0.6871797,0.032872032,20.630067825317383,0.30269908905029297,-8.083081245422363,140.62074279785156,447.1198425292969, 49.29276657104492
462,816254356,0.74608546,-0.17941354,-0.6401249,0.037515577,21.143096923828125,-2.809823989868164,-15.381098747253418,124.12976837158203,427.0679626464844, 40.05794143676758
463,816271023,0.78428143,-0.16581333,-0.5965808,0.03873228,25.544111251831055,0.2018868625164032,-17.160762786865234,132.18775939941406,383.2668762207031, -7.609640121459961
464,816287690,0.8119762,-0.15859619,-0.5608613,0.031252835,18.196481704711914,-6.337398052215576,-19.965248107910156,48.16401290893555,310.30633544921875, -34.235435485839844
465,816304357,0.83151823,-0.14825937,-0.53437626,0.03222736,15.224892616271973,-8.486418724060059,-22.428977966308594,87.59369659423828,218.23568725585938, -7.434114456176758
466,816321024,0.8436404,-0.13596067,-0.5179843,0.038444683,10.390995025634766,-1.0442721843719482,-24.30516242980957,108.62457275390625,128.40867614746094, 6.575366973876953
467,816337691,0.8459429,-0.13234068,-0.51503605,0.04005863,7.700748443603516,0.21892209351062775,-24.19012451171875,29.453691482543945,22.96639633178711, 0.8823553919792175
468,816354358,0.8394768,-0.12975855,-0.5257578,0.04494668,7.930860996246338,-6.638386249542236,-21.988094329833984,23.57487678527832,-89.43856811523438, 13.662482261657715
469,816371025,0.8282577,-0.114752546,-0.545174,0.060056426,9.747915267944336,-3.652294635772705,-17.52581787109375,125.71885681152344,-169.0049591064453, 21.30760955810547
470,816387692,0.8141504,-0.10180756,-0.5669338,0.07335255,11.97688102722168,0.3045479357242584,-3.743655204772949,104.24744415283203,-190.23582458496094, 17.934005737304688
471,816404359,0.8048788,-0.09494103,-0.5790828,0.08842841,27.78963851928711,-12.52364730834961,29.275861740112305,85.49542236328125,-115.5029525756836, 55.89534378051758
472,816421026,0.7943724,-0.083634324,-0.59336805,0.09946009,14.029180526733398,19.193119049072266,-10.843573570251465,91.7273941040039,-132.92982482910156, 14.956931114196777
473,816437693,0.7772073,-0.107498065,-0.6146887,0.080936365,8.212736129760742,-3.3289716243743896,-4.636869430541992,-229.6200408935547,-157.08627319335938, -1.7399866580963135
474,816454360,0.7620574,-0.11480822,-0.63132966,0.08666357,14.122920036315918,-13.525390625,-5.052430152893066,-34.362632751464844,-150.5480194091797, 60.244140625
475,816471027,0.74930257,-0.10609968,-0.646046,0.09956395,12.21837329864502,2.0475175380706787,0.27188557386398315,83.96231079101562,-145.06240844726562, 28.02289581298828
476,816487694,0.73798805,-0.10947512,-0.6578875,0.10282465,8.585461616516113,-2.868101119995117,-0.7052749395370483,-18.048847198486328,-108.52347564697266, 33.25498962402344
477,816504361,0.72917074,-0.1093895,-0.66671944,0.10876278,11.106036186218262,-4.151913166046143,-0.7696108818054199,15.697091102600098,-86.40950012207031, 31.636579513549805
478,816521028,0.72078454,-0.11851353,-0.6749798,0.10405047,9.797018051147461,-2.840047597885132,0.8573668599128723,-78.4945297241211,-66.668212890625, 20.53280258178711
479,816537695,0.71312594,-0.12773855,-0.6823262,0.09780384,8.048152923583984,-8.60231876373291,-1.1598396301269531,-84.85509490966797,-57.511962890625, 13.657404899597168
480,816554362,0.7073334,-0.12623145,-0.6881502,0.100968204,10.547500610351562,-4.813109397888184,-1.869110345840454,14.606635093688965,-56.77569580078125, 9.34632396697998
481,816571029,0.70190597,-0.122714326,-0.69380844,0.10439938,10.535719871520996,-2.1176977157592773,-1.490769386291504,26.104501724243164,-55.83697509765625, 0.9411193132400513
482,816587696,0.69642353,-0.12141417,-0.69934803,0.105667435,10.027196884155273,-2.0587127208709717,-1.7426013946533203,5.144507884979248,-52.0968017578125, 1.2204378843307495
483,816604363,0.6923606,-0.12360794,-0.70320046,0.10424587,11.040239334106445,-1.194870948791504,-0.8632184863090515,-22.08713150024414,-32.39912796020508, 5.539026260375977
484,816621030,0.6902061,-0.12874351,-0.70497423,0.10026043,11.634092330932617,-2.471804618835449,-1.5185340642929077,-45.368255615234375,-9.019351959228516, 8.036105155944824
485,816637697,0.6881196,-0.1339749,-0.7067259,0.09529385,10.330185890197754,-1.9551184177398682,-0.9779024720191956,-50.49502944946289,-7.667884826660156, 3.877650737762451
486,816654364,0.6853594,-0.13967912,-0.7091473,0.08878366,9.277424812316895,-3.1851301193237305,-0.8523087501525879,-61.29377746582031,-12.413979530334473, -1.2373024225234985
487,816671031,0.68207383,-0.14500144,-0.7120417,0.0821374,9.764883041381836,-3.656496047973633,-0.9820574522018433,-60.95954895019531,-17.347126007080078, -3.8542792797088623
488,816687698,0.6784751,-0.15164715,-0.71501803,0.07364769,10.2691011428833,-3.8501625061035156,0.9006214141845703,-76.56047821044922,-16.720460891723633, -5.911898136138916
489,816704365,0.6740195,-0.16000275,-0.71830815,0.064266615,8.474067687988281,-4.620808124542236,-0.8685410022735596,-90.00652313232422,-20.706350326538086, -1.5389724969863892
490,816721032,0.66793835,-0.16639751,-0.7232608,0.055354055,8.99306583404541,-3.522573709487915,-1.261054277420044,-81.143310546875,-37.872291564941406, -10.188383102416992
491,816737699,0.66143763,-0.16852078,-0.7290077,0.051467884,8.450806617736816,-2.5288610458374023,-1.3172426223754883,-37.324256896972656,-51.01662826538086, -9.10599422454834
492,816754366,0.65409684,-0.16732499,-0.7358899,0.05124347,9.498456001281738,-1.172101616859436,-0.37140488624572754,-5.248932361602783,-65.833251953125, -10.124105453491211
493,816771033,0.64487374,-0.16517116,-0.74436885,0.05264647,9.940549850463867,-2.4778809547424316,-0.8674147129058838,4.56559944152832,-84.8048324584961, -8.812146186828613
494,816787700,0.6336709,-0.16228767,-0.75435996,0.055362664,11.551900863647461,-0.9975988864898682,-0.4268913269042969,11.728397369384766,-103.4447021484375, -7.754798889160156
495,816804367,0.6197625,-0.16175003,-0.7659678,0.05499907,12.17277717590332,-0.8485085368156433,0.47911545634269714,-18.091299057006836,-120.27086639404297, -9.754070281982422
496,816821034,0.6041235,-0.15979466,-0.7786652,0.056400247,13.088584899902344,-1.183416485786438,0.2033073604106903,-5.0858025550842285,-136.64796447753906, -10.224448204040527
497,816837701,0.5864998,-0.15640543,-0.7924947,0.059224572,11.52126693725586,-1.4795745611190796,0.3547995388507843,5.878771781921387,-154.22161865234375, -12.444714546203613
498,816854368,0.5663331,-0.15214956,-0.8074992,0.06374017,11.793700218200684,-2.484222412109375,1.6569273471832275,15.384176254272461,-175.1163787841797, -10.586886405944824
499,816871035,0.54311,-0.14947778,-0.8235096,0.067232445,12.878730773925781,-3.641113042831421,3.746694326400757,-0.11806467920541763,-194.41915893554688, -5.5267534255981445
500,816887702,0.5167308,-0.15038237,-0.8402408,0.066107854,15.221386909484863,-4.72901725769043,7.732015132904053,-43.251953125,-208.8491973876953, -1.8412593603134155
501,816904369,0.48869845,-0.15347093,-0.8567778,0.059601385,21.046573638916016,-7.748850345611572,10.571557998657227,-83.84402465820312,-211.56887817382812, -7.429002285003662
502,816921036,0.4640301,-0.1566659,-0.87031716,0.051769845,22.516714096069336,-3.5985991954803467,11.650009155273438,-87.42353057861328,-180.80125427246094, -9.518573760986328
503,816937703,0.44092554,-0.16416566,-0.88183105,0.031756032,18.123149871826172,-0.9570286273956299,5.3237223625183105,-171.81320190429688,-150.9764404296875, -20.958147048950195
504,816954370,0.41083473,-0.17259768,-0.8951604,0.010629332,14.919894218444824,-13.640714645385742,-3.398723602294922,-189.72035217285156,-197.8584747314453, -19.183305740356445
505,816971037,0.38437468,-0.17511615,-0.90640086,0.005310461,18.264530181884766,-11.573678970336914,3.959104061126709,-71.4427490234375,-188.9830780029297, -8.974766731262207
506,816987704,0.36197892,-0.17796396,-0.9150389,0.0020271223,13.1863374710083,-11.021717071533203,0.11483019590377808,-54.89314270019531,-159.62747192382812, 1.2894152402877808
507,817004371,0.34884158,-0.1781976,-0.920075,0.0041526235,11.9437894821167,-6.403499603271484,4.635563850402832,-3.2156970500946045,-99.3062744140625, 2.441289186477661
508,817021038,0.34472048,-0.18120855,-0.9210487,0.001010881,8.769694328308105,-1.1819218397140503,7.033850193023682,-32.20572280883789,-26.297626495361328, 12.044828414916992
509,817037705,0.34805578,-0.18451089,-0.91913104,-0.0033339309,5.863650798797607,-4.360692024230957,5.499606609344482,-31.27709197998047,28.9977970123291, 14.592781066894531
510,817054372,0.3603179,-0.18680958,-0.9139317,-0.0014432853,4.888099670410156,-4.4652557373046875,3.615326404571533,21.638477325439453,85.19831848144531, 27.485671997070312
511,817071039,0.37957427,-0.18724632,-0.90600705,0.0036723018,3.667515993118286,-3.179326057434082,2.70235276222229,55.337989807128906,131.66610717773438, 27.30545997619629
512,817087706,0.4048321,-0.18772303,-0.89485437,0.010338046,3.6825647354125977,-4.697523593902588,0.7626410126686096,72.59672546386719,175.4226531982422, 35.5877685546875
513,817104373,0.43624255,-0.18526576,-0.8802929,0.021304049,5.497176170349121,-3.4168412685394287,1.1299774646759033,115.29586029052734,217.00271606445312, 33.42997360229492
514,817121040,0.47267807,-0.18211636,-0.8616143,0.032096513,6.767024993896484,-1.366253137588501,0.6731768846511841,123.23797607421875,259.8538818359375, 33.22898483276367
515,817137707,0.51254326,-0.18007058,-0.83864146,0.039427124,7.140170574188232,-0.5024265646934509,-0.2922036051750183,104.32941436767578,298.6752624511719, 33.161582946777344
516,817154374,0.5555382,-0.17713977,-0.8110229,0.04733601,9.105337142944336,-2.0729146003723145,-2.514270544052124,115.89035034179688,332.1479797363281, 35.0317268371582
517,817171041,0.60140866,-0.16969068,-0.77842575,0.059716683,11.784856796264648,-2.342832326889038,-4.098963260650635,163.2073211669922,360.3563537597656, 32.06510925292969
518,817187708,0.6484304,-0.1566084,-0.74110115,0.0760322,14.571608543395996,-0.9886583089828491,-4.827605247497559,210.88299560546875,379.27685546875, 23.286848068237305
519,817204375,0.69254166,-0.14854966,-0.7010729,0.08256004,17.435279846191406,-0.10488984733819962,-8.341734886169434,136.8372344970703,389.75311279296875, 9.770267486572266
520,817221042,0.7331139,-0.14147525,-0.65983933,0.084503904,20.342025756835938,-3.058804512023926,-13.646903038024902,107.16310119628906,383.8740234375, -3.980034828186035
521,817237709,0.7675729,-0.13641515,-0.621532,0.076947086,22.264362335205078,0.8550612926483154,-13.581388473510742,46.35839080810547,352.1335754394531, -42.00999069213867
522,817254376,0.7940978,-0.14007717,-0.5884337,0.05943963,19.881696701049805,-4.462287425994873,-15.595758438110352,-52.29368209838867,305.0580139160156, -57.82550048828125
523,817271043,0.8140282,-0.1398649,-0.56128967,0.05243951,15.079408645629883,-9.037403106689453,-17.99746322631836,2.7788357734680176,234.60107421875, -19.168333053588867
524,817287710,0.82750815,-0.1345217,-0.54224706,0.055700414,12.392562866210938,-2.2113733291625977,-20.195411682128906,62.2066535949707,153.16778564453125, 12.889847755432129
525,817304377,0.8332545,-0.12749395,-0.5346643,0.059718646,10.27116584777832,1.0843214988708496,-21.95406150817871,63.28280258178711,58.35976028442383, 3.3289761543273926
526,817321044,0.830829,-0.1208748,-0.5393924,0.064562306,8.388114929199219,-4.507941246032715,-22.107303619384766,51.96366500854492,-42.17386245727539, 2.2284488677978516
527,817337711,0.8213369,-0.11076565,-0.5544242,0.07583317,9.620522499084473,-6.278493881225586,-19.11066436767578,85.5608139038086,-133.5706024169922, 20.519550323486328
528,817354378,0.8089371,-0.10204483,-0.5721363,0.08870024,23.088388442993164,-6.3647966384887695,8.085311889648438,80.45637512207031,-159.7869873046875, 34.18077087402344
529,817371045,0.7983861,-0.092240825,-0.5869827,0.09758462,18.625762939453125,17.767019271850586,9.058568000793457,73.87913513183594,-134.43666076660156, 8.598828315734863
530,817387712,0.78454643,-0.106747724,-0.60458726,0.08698414,8.681975364685059,2.959246873855591,-9.214823722839355,-142.30587768554688,-134.28549194335938, 0.7320520281791687
531,817404379,0.7690429,-0.119922146,-0.6224002,0.08252071,11.057888984680176,-17.20801544189453,-6.075735569000244,-110.82530212402344,-147.4268035888672, 29.30374526977539
532,817421046,0.7572664,-0.11190817,-0.6361831,0.09641252,10.01771354675293,-6.173022747039795,-3.438913106918335,85.30980682373047,-137.15232849121094, 36.54472351074219
533,817437713,0.747721,-0.10294539,-0.6471392,0.10736137,11.784093856811523,2.5253424644470215,1.98702073097229,81.0533676147461,-110.93086242675781, 17.616497039794922
534,817454380,0.7375079,-0.115582354,-0.6577187,0.1006432,10.924786567687988,-0.7430133819580078,0.2548246383666992,-108.7951889038086,-83.55435180664062, 23.77755355834961
535,817471047,0.7279961,-0.12802434,-0.6670395,0.09321943,9.296957969665527,-4.379759311676025,0.43449103832244873,-109.54362487792969,-73.6025390625, 19.92527198791504
536,817487714,0.7196763,-0.13253248,-0.6752924,0.09209618,8.786040306091309,-10.079729080200195,-0.7022044062614441,-39.17887878417969,-73.45381164550781, 15.231225967407227
537,817504381,0.7136768,-0.12045426,-0.68207717,0.10453208,8.958606719970703,-6.19467830657959,-0.8383903503417969,108.91813659667969,-78.26947784423828, 4.975306987762451
538,817521048,0.7072792,-0.11198656,-0.6890246,0.11162577,9.924726486206055,-0.2807002663612366,-0.10622211545705795,65.70733642578125,-73.89901733398438, -4.29711389541626
539,817537715,0.70005167,-0.11301963,-0.696591,0.10915723,9.34203052520752,-2.9672374725341797,-0.23375755548477173,-26.906606674194336,-66.19843292236328, -5.5924811363220215
540,817554382,0.6931834,-0.11167795,-0.70365363,0.10907143,9.713896751403809,-4.585503101348877,-1.3663016557693481,-3.4097940921783447,-65.70429992675781, -5.386638164520264
541,817571049,0.68726957,-0.10577164,-0.70954394,0.11410694,10.214435577392578,-3.196816921234131,-1.1711407899856567,44.73723220825195,-62.847816467285156, -2.9396185874938965
542,817587716,0.68244475,-0.10442397,-0.71425664,0.11490321,10.611788749694824,-0.1542336642742157,-1.9168269634246826,31.75740623474121,-53.71027755737305, -1.5923248529434204
543,817604383,0.6778848,-0.10858618,-0.7186491,0.11056659,10.399351119995117,-1.6371419429779053,-1.600645899772644,-18.8304500579834,-42.86115264892578, 1.065438985824585
544,817621050,0.67357713,-0.11370087,-0.7226668,0.10544565,10.83204460144043,-2.4231977462768555,-1.384097695350647,-27.456924438476562,-38.32337951660156, 1.8877793550491333
545,817637717,0.6691992,-0.117335014,-0.7267095,0.10148093,9.96285343170166,-3.170753002166748,-0.5351824164390564,-22.1295108795166,-38.5814323425293, 0.0970279797911644
546,817654384,0.6644672,-0.119594,-0.7309972,0.099115014,9.339315414428711,-2.812382459640503,-0.47592222690582275,-15.737024307250977,-41.49052429199219, 1.0129188299179077
547,817671051,0.6587036,-0.121669166,-0.7361695,0.09675042,9.4639253616333,-2.555682897567749,-0.07816290110349655,-26.1133975982666,-47.915367126464844, 0.8976770639419556
548,817687718,0.6518165,-0.1241169,-0.74217695,0.09435952,9.656167984008789,-3.089492082595825,-0.3150242269039154,-33.36399459838867,-55.97396469116211, 3.1607887744903564
549,817704385,0.6435707,-0.1271853,-0.7491776,0.09150751,10.563094139099121,-2.510453224182129,-0.07897569239139557,-43.88679122924805,-65.52767944335938, 4.848827838897705
550,817721052,0.63458323,-0.1310567,-0.7564682,0.08879436,10.78378963470459,-3.684417963027954,0.1079682856798172,-49.39873123168945,-69.74796295166016, 10.273502349853516
551,817737719,0.6238398,-0.1347497,-0.7652025,0.08444924,11.557276725769043,-1.585097312927246,-1.0117303133010864,-59.67815017700195,-83.8633041381836, 2.2118735313415527
552,817754386,0.61276823,-0.13820416,-0.77383226,0.08122971,11.363409042358398,-2.5724081993103027,-1.2156010866165161,-45.83578109741211,-88.54146575927734, 4.698603630065918
553,817771053,0.5996845,-0.14020132,-0.78386074,0.0792759,12.362698554992676,-0.6833211779594421,-0.12755323946475983,-35.651588439941406,-107.21495819091797, 2.085358142852783
554,817787720,0.5842155,-0.14140972,-0.7953253,0.07844444,11.204591751098633,-2.2833170890808105,0.4056853652000427,-29.423919677734375,-127.5959701538086, 2.426636219024658
555,817804387,0.56550306,-0.1415459,-0.8086029,0.079576425,11.467499732971191,-2.9048092365264893,2.234546184539795,-18.51409339904785,-155.2080078125, 4.4379425048828125
556,817821054,0.5428177,-0.14182019,-0.82371044,0.08208215,12.351414680480957,-3.727121591567993,3.5607516765594482,-16.29537010192871,-185.82489013671875, 10.924962043762207
557,817837721,0.5163789,-0.14514932,-0.8400197,0.08155672,15.361734390258789,-3.5009446144104004,6.786435604095459,-49.235023498535156,-207.08644104003906, 17.836881637573242
558,817854388,0.4875016,-0.15030262,-0.85671645,0.07608209,22.46719741821289,-6.46319580078125,11.23630142211914,-87.00617218017578,-216.8818817138672, 11.786081314086914
559,817871055,0.460647,-0.15578254,-0.8709699,0.07034024,25.734447479248047,-4.629782199859619,12.935539245605469,-86.41973876953125,-196.77584838867188, 14.27696418762207
560,817887722,0.4348444,-0.16688015,-0.88344216,0.05090694,19.776060104370117,-0.3668901026248932,7.3202314376831055,-184.35096740722656,-167.99827575683594, 5.987161159515381
561,817904389,0.40266395,-0.17961484,-0.8971534,0.026767332,14.271876335144043,-10.639184951782227,-3.9366893768310547,-225.63621520996094,-204.89773559570312, 2.6980865001678467
562,817921056,0.37527373,-0.18554462,-0.9079998,0.01671514,17.965736389160156,-9.421374320983887,6.069733619689941,-113.51237487792969,-186.17794799804688, 2.217374801635742
563,817937723,0.35404325,-0.19206104,-0.91527385,0.0063121472,11.882214546203613,-5.871414661407471,1.0461758375167847,-109.09507751464844,-138.32427978515625, 8.711339950561523
564,817954390,0.34221137,-0.19512546,-0.9191383,-0.0015601636,11.005648612976074,-6.454437732696533,5.597415924072266,-72.2890396118164,-74.54589080810547, -2.8377771377563477
565,817971057,0.3414684,-0.1969753,-0.9190119,-0.0041484297,7.445994853973389,-4.868287086486816,8.494599342346191,-21.323314666748047,-2.382702350616455, 7.319001197814941
566,817987724,0.34991354,-0.19756742,-0.91571164,-0.00026511165,6.405735015869141,-6.465189456939697,6.087428569793701,34.76435470581055,54.193843841552734, 19.086957931518555
567,818004391,0.367109,-0.19738157,-0.90897167,0.006508801,5.192861557006836,-4.31547212600708,4.271599292755127,66.58544921875,113.49176025390625, 25.790632247924805
568,818021058,0.39217865,-0.196705,-0.89852905,0.012194007,5.731659889221191,-3.149679660797119,4.390917778015137,71.7827377319336,173.41519165039062, 24.633480072021484
569,818037725,0.42392105,-0.19592705,-0.8840837,0.017320402,6.180742263793945,-2.8299968242645264,2.323704957962036,77.89241027832031,226.0941619873047, 27.351655960083008
570,818054392,0.4605481,-0.19575574,-0.8655455,0.020152966,7.801576614379883,-1.7773901224136353,1.53657865524292,69.18778228759766,270.8267517089844, 29.275123596191406
571,818071059,0.50126845,-0.19606648,-0.84251094,0.021528777,8.119311332702637,-1.18265962600708,0.11188143491744995,65.07955169677734,311.409423828125, 33.01445388793945
572,818087726,0.54465353,-0.19694242,-0.81493396,0.021198463,9.741924285888672,0.274374783039093,-0.4423927962779999,57.47841262817383,344.87469482421875, 36.13322448730469
573,818104393,0.5904732,-0.19943678,-0.7818305,0.017537495,12.937505722045898,-0.33591440320014954,-1.6743738651275635,36.8277702331543,383.9749755859375, 39.869571685791016
574,818121060,0.6383044,-0.19883776,-0.74348646,0.016086495,15.39412784576416,-0.8167071342468262,-3.3261449337005615,64.6526107788086,412.69635009765625, 39.16621398925781
575,818137727,0.685106,-0.19639386,-0.7012623,0.017048547,17.42438507080078,-2.410693645477295,-6.909881114959717,84.10093688964844,421.013916015625, 45.7757453918457
576,818154394,0.7300534,-0.18446192,-0.65750664,0.026095716,21.068992614746094,-2.8940963745117188,-12.438918113708496,165.51368713378906,407.3954772949219, 40.44044494628906
577,818171061,0.7696695,-0.16761449,-0.61518747,0.032540124,25.31993865966797,0.1873273253440857,-15.526429176330566,171.4434356689453,378.7339782714844, 4.352104187011719
578,818187728,0.8000474,-0.15659443,-0.57847786,0.027671397,21.54633331298828,-2.3707079887390137,-18.469009399414062,80.86363220214844,324.60003662109375, -35.135780334472656
579,818204395,0.8208253,-0.15285733,-0.54991186,0.021849886,15.461465835571289,-7.030533313751221,-20.409608840942383,25.21047019958496,244.40985107421875, -18.29073715209961
580,818221062,0.833803,-0.150886,-0.53058136,0.022130407,11.597433090209961,-4.753180980682373,-22.523929595947266,28.87815284729004,157.07984924316406, 14.235905647277832
581,818237729,0.83991104,-0.14520907,-0.522314,0.02553622,9.039859771728516,-0.3112802803516388,-23.985694885253906,52.867244720458984,65.2587890625, 8.178435325622559
582,818254396,0.8378313,-0.14017965,-0.5268078,0.029363735,9.007686614990234,-1.238801121711731,-22.941396713256836,40.36750411987305,-37.668582916259766, 1.6756585836410522
583,818271063,0.82905346,-0.1307598,-0.5422468,0.039255287,9.271219253540039,-3.1609690189361572,-20.602012634277344,79.11217498779297,-131.26657104492188, 11.522340774536133
584,818287730,0.81549567,-0.11778656,-0.56413144,0.053375725,11.921667098999023,-1.9354225397109985,-15.561246871948242,109.26358795166016,-190.19686889648438, 17.833471298217773
585,818304397,0.8045899,-0.11329493,-0.5796147,0.062019326,21.17788314819336,-13.00110149383545,30.437719345092773,45.06599044799805,-136.11529541015625, 24.211204528808594
586,818321064,0.7980871,-0.096124604,-0.5891255,0.08214786,15.249763488769531,14.979177474975586,5.806037902832031,166.8995819091797,-100.29398345947266, 39.83417892456055
587,818337731,0.7843795,-0.10502901,-0.60685426,0.073795445,9.880654335021973,3.5853536128997803,-16.875930786132812,-101.06102752685547,-141.04441833496094, -11.890220642089844
588,818354398,0.7686428,-0.12285606,-0.62423885,0.06648997,13.247590065002441,-15.192900657653809,-0.30338940024375916,-146.01451110839844,-143.58506774902344, 32.405757904052734
589,818371065,0.7559459,-0.11923514,-0.6388605,0.0786519,10.521197319030762,-1.7510731220245361,-4.5560126304626465,54.82726287841797,-142.14288330078125, 43.97650909423828
590,818387732,0.74528337,-0.11535488,-0.6509439,0.08670786,12.683366775512695,1.49984872341156,0.9146019816398621,41.23419952392578,-116.68537139892578, 22.460554122924805
591,818404399,0.7358988,-0.11702838,-0.66044354,0.09258398,9.65414810180664,-3.8255553245544434,-0.40579280257225037,5.586666584014893,-92.68458557128906, 37.498966217041016
592,818421066,0.72810096,-0.12157274,-0.6679713,0.094358645,11.011178016662598,-1.915289282798767,0.16036802530288696,-25.003379821777344,-70.36882781982422, 30.332935333251953
593,818437733,0.7205143,-0.13191885,-0.67498285,0.088628374,8.623342514038086,-6.2135090827941895,-0.35017478466033936,-87.98877716064453,-56.790626525878906, 19.738338470458984
594,818454400,0.7145453,-0.1359307,-0.68080175,0.08635378,8.962671279907227,-6.489592552185059,-0.05476299673318863,-38.36200714111328,-50.37820053100586, 7.5108842849731445
595,818471067,0.7089954,-0.13867663,-0.68616235,0.085297905,10.68372631072998,-3.169083595275879,-0.9125454425811768,-25.767927169799805,-48.068626403808594, 7.693374156951904
596,818487734,0.70399266,-0.14046612,-0.6911119,0.083834305,10.425315856933594,-3.0623466968536377,-1.8802931308746338,-22.258790969848633,-43.65425491333008, 1.2697155475616455
597,818504401,0.69978726,-0.1410469,-0.6953572,0.082958676,9.91292667388916,-2.2749407291412354,-2.182556629180908,-12.427940368652344,-37.704917907714844, -1.4041855335235596
598,818521068,0.6955763,-0.14380528,-0.6993982,0.079597265,9.99683952331543,-2.4062798023223877,-0.8506785035133362,-34.66856384277344,-33.078529357910156, -2.7356886863708496
599,818537735,0.69183534,-0.14596637,-0.7029977,0.07649904,9.807998657226562,-3.7313075065612793,-0.7390449047088623,-29.839887619018555,-29.301931381225586, -4.15169095993042
600,818554402,0.68862915,-0.14754596,-0.7060977,0.07379838,9.989863395690918,-2.876540184020996,-1.0695298910140991,-24.355131149291992,-25.056961059570312, -4.857648849487305
601,818571069,0.6854776,-0.14967708,-0.709061,0.0703573,9.8231840133667,-2.759629726409912,-1.2654367685317993,-30.437496185302734,-23.120628356933594, -5.566628456115723
602,818587736,0.68203276,-0.15224296,-0.7122243,0.06625797,10.15469741821289,-2.553765058517456,-1.4003448486328125,-36.09519958496094,-24.610963821411133, -6.602397441864014
603,818604403,0.67813385,-0.15476285,-0.71579736,0.06178399,10.168692588806152,-2.5846104621887207,-0.7130537033081055,-38.376068115234375,-28.39083480834961, -8.789697647094727
604,818621070,0.6732929,-0.15641452,-0.72031766,0.057911433,9.530174255371094,-2.7745370864868164,-0.15443462133407593,-38.25559997558594,-36.828853607177734, -10.434223175048828
605,818637737,0.66750497,-0.15716802,-0.7257198,0.055374693,9.069254875183105,-3.60650897026062,0.12604987621307373,-29.648609161376953,-47.21321487426758, -9.107338905334473
606,818654404,0.6607262,-0.15721913,-0.7319553,0.054449484,8.829054832458496,-5.438073635101318,0.4555189907550812,-20.154619216918945,-57.93407440185547, -5.603287696838379
607,818671071,0.65205765,-0.15769999,-0.7397055,0.05279735,8.426969528198242,-3.078042984008789,-0.6344171166419983,-27.700895309448242,-73.63599395751953, -7.669634819030762
608,818687738,0.6414169,-0.1581746,-0.74893767,0.051553685,10.006368637084961,-2.284421682357788,-0.4806780219078064,-27.888153076171875,-90.9090805053711, -6.678251266479492
609,818704405,0.6289808,-0.15955853,-0.7592245,0.05002587,11.784834861755371,-1.1278308629989624,0.7995646595954895,-30.191646575927734,-105.78565216064453, -4.632664680480957
610,818721072,0.61494327,-0.15928322,-0.7706382,0.05089819,12.412820816040039,-0.30540984869003296,-0.9043458700180054,-12.633201599121094,-122.28939056396484, -3.574045419692993
611,818737739,0.5992862,-0.15734513,-0.7831025,0.053378344,13.41799545288086,0.6786578893661499,0.007440119981765747,0.7876112461090088,-137.7022247314453, -6.136368751525879
612,818754406,0.58164227,-0.15422173,-0.7966191,0.05750038,12.595246315002441,-0.5277190208435059,0.04523006081581116,11.992217063903809,-155.01817321777344, -6.115515232086182
613,818771073,0.56187934,-0.15077756,-0.8109886,0.06209121,12.685983657836914,-2.5412111282348633,1.6382124423980713,13.270973205566406,-170.7344970703125, -6.044620513916016
614,818787740,0.5395438,-0.14891674,-0.82610786,0.065285094,13.291613578796387,-4.0808634757995605,3.5538156032562256,-3.629300832748413,-185.96145629882812, -2.300493001937866
615,818804407,0.5140815,-0.14961231,-0.8421518,0.064164065,16.348974227905273,-5.285949230194092,6.755268096923828,-41.26877975463867,-201.74331665039062, -3.3538568019866943
616,818821074,0.48678184,-0.15357144,-0.857967,0.057896663,22.023305892944336,-7.199404239654541,10.692465782165527,-84.4517593383789,-205.0742950439453, -1.6215776205062866
617,818837741,0.46160322,-0.1608827,-0.8711566,0.046104882,22.222200393676758,-2.1781466007232666,14.522974967956543,-125.07132720947266,-176.94601440429688, 1.570235252380371
618,818854408,0.43914196,-0.17045435,-0.8818566,0.020708997,19.555973052978516,1.086425542831421,7.089656352996826,-210.02468872070312,-137.4201202392578, -26.14971160888672
619,818871075,0.40868676,-0.18048069,-0.8946293,-0.0063440693,11.696624755859375,-8.945722579956055,-5.112164497375488,-231.1275177001953,-190.47438049316406, -29.666980743408203
620,818887742,0.38043278,-0.18602237,-0.9057178,-0.018500863,18.80116844177246,-17.723289489746094,1.7414435148239136,-124.25291442871094,-190.53382873535156, -13.332032203674316
621,818904409,0.35948822,-0.18490788,-0.9146128,-0.0078100986,13.4059476852417,-12.838506698608398,0.238239124417305,44.32606887817383,-167.86468505859375, 8.54268741607666
622,818921076,0.34701055,-0.18311088,-0.91981125,0.00127132,12.169206619262695,-3.507887840270996,4.522740840911865,46.29978561401367,-103.54165649414062, 5.336008548736572
623,818937743,0.34303623,-0.18798809,-0.9203164,-0.0021484168,9.35222339630127,-1.6220433712005615,6.628471374511719,-37.99471664428711,-22.949872970581055, 23.54972267150879
624,818954410,0.3464857,-0.19099852,-0.9183813,-0.0065834075,5.627223968505859,-2.08239483833313,6.1918816566467285,-30.497642517089844,30.95179557800293, 12.597344398498535
625,818971077,0.3579016,-0.19445984,-0.91321224,-0.011636104,5.7318949699401855,-2.791341543197632,3.7622175216674805,-25.20137596130371,89.63599395751953, 18.55325698852539
626,818987744,0.37586626,-0.19795899,-0.90515655,-0.015118472,4.647491931915283,-3.697267770767212,2.4588794708251953,-6.958787441253662,135.67213439941406, 27.002981185913086
627,819004411,0.4012572,-0.19939242,-0.8939105,-0.012631328,4.718264579772949,-4.898069381713867,2.4698486328125,45.25471496582031,182.17822265625, 34.65156173706055
628,819021078,0.43354443,-0.19856928,-0.8789652,-0.0054595126,5.703644275665283,-2.8575751781463623,2.5309033393859863,89.3495864868164,228.5107879638672, 39.34405517578125
629,819037745,0.47063985,-0.19796672,-0.85982984,0.00027264497,6.924765586853027,-1.4086626768112183,1.2828243970870972,86.36084747314453,271.9786071777344, 42.281185150146484
630,819054412,0.5111582,-0.19862549,-0.8362168,0.0026243946,7.873778820037842,-0.34579840302467346,0.3485944867134094,66.93595123291016,311.2850036621094, 44.89030456542969
631,819071079,0.55473727,-0.20121841,-0.80732596,0.0016847972,9.928363800048828,-1.0025113821029663,-1.7076081037521362,45.47176742553711,351.9661865234375, 51.60065841674805
632,819087746,0.6014581,-0.20128591,-0.77312356,0.0035265442,10.964432716369629,-1.2105650901794434,-2.6309831142425537,74.95767211914062,385.826904296875, 55.50347900390625
633,819104413,0.64966875,-0.19818562,-0.7338668,0.009628859,14.318668365478516,-1.0051504373550415,-4.7130656242370605,112.9126968383789,408.73516845703125, 63.2613639831543
634,819121080,0.6970022,-0.1884466,-0.6915484,0.020900572,19.34424591064453,0.0018135607242584229,-8.514458656311035,167.70068359375,410.5773620605469, 57.13623046875
635,819137747,0.7405142,-0.17350155,-0.6485113,0.031134509,23.697742462158203,-1.6903080940246582,-15.930928230285645,182.8935089111328,396.55841064453125, 28.978740692138672
636,819154414,0.7772986,-0.15260386,-0.609306,0.03557357,24.09221839904785,0.31641238927841187,-18.325956344604492,178.5685577392578,352.8979187011719, -30.126407623291016
637,819171081,0.80336463,-0.14011006,-0.57804084,0.029045096,19.0300350189209,-4.286406517028809,-20.29021453857422,74.53347778320312,279.3663024902344, -59.12887954711914
638,819187748,0.8203279,-0.13532749,-0.5550371,0.02613,14.31801700592041,-7.842171669006348,-22.612226486206055,35.97136306762695,195.9434051513672, -14.641251564025879
639,819204415,0.8297705,-0.13157871,-0.5416246,0.028474364,8.931174278259277,-3.354562759399414,-24.167186737060547,41.61993408203125,108.82103729248047, 11.337811470031738
640,819221082,0.83021015,-0.13083655,-0.5411032,0.028988019,7.476118564605713,-2.5400171279907227,-23.45856285095215,7.100796699523926,4.38456916809082, 2.176689624786377
641,819237749,0.8229413,-0.12859948,-0.5523295,0.034089003,8.530698776245117,-7.196720600128174,-21.478771209716797,23.542722702026367,-95.40752410888672, 13.759805679321289
642,819254416,0.8111242,-0.12109913,-0.5703863,0.04552123,12.734450340270996,-5.0837016105651855,-5.572250843048096,71.88770294189453,-157.8306427001953, 24.53975486755371
643,819271083,0.8000311,-0.105782315,-0.58690804,0.06557178,30.932096481323242,1.357445478439331,13.483246803283691,150.4373779296875,-155.926513671875, 42.942474365234375
644,819287750,0.7884008,-0.0931852,-0.60318327,0.0768816,8.596961975097656,12.308512687683105,-4.217706680297852,99.86666107177734,-149.19580078125, 6.350142478942871
645,819304417,0.7713556,-0.104755566,-0.623345,0.074013665,9.105829238891602,-8.095342636108398,-9.071256637573242,-95.49141693115234,-170.7804718017578, 30.296039581298828
646,819321084,0.756512,-0.10592036,-0.6399564,0.08322519,15.289451599121094,-6.354925632476807,-1.3947139978408813,14.95699405670166,-156.35667419433594, 51.11509323120117
647,819337751,0.7450951,-0.10117187,-0.65283227,0.09169335,7.304871559143066,0.1395810842514038,0.12418872117996216,47.118873596191406,-124.63619995117188, 21.930879592895508
648,819354418,0.73449206,-0.108749114,-0.66373163,0.09030852,11.47809886932373,-3.074967861175537,-0.9078547954559326,-58.43069839477539,-96.23157501220703, 27.662817001342773
649,819371085,0.7258419,-0.11153644,-0.67243975,0.092402704,11.150726318359375,-4.190665245056152,0.24991735816001892,-15.522796630859375,-81.8122787475586, 23.803314208984375
650,819387752,0.71792996,-0.11522357,-0.68021095,0.092807926,9.222689628601074,-5.132200717926025,-0.5255915522575378,-26.648731231689453,-71.86131286621094, 19.768035888671875
651,819404419,0.7114086,-0.112484924,-0.6867981,0.097741745,9.392670631408691,-5.968928813934326,-0.37517112493515015,28.11698341369629,-67.19986724853516, 12.077438354492188
652,819421086,0.7051318,-0.10957443,-0.69311595,0.10184859,9.880417823791504,-2.080665349960327,-0.3048882484436035,25.427867889404297,-64.20474243164062, 7.203827857971191
653,819437753,0.6982199,-0.11156141,-0.6999307,0.10069816,9.745946884155273,-2.7208824157714844,-0.8957468271255493,-24.19365119934082,-62.25637435913086, 5.131604194641113
654,819454420,0.6917437,-0.11179327,-0.7062788,0.1008136,10.570197105407715,-2.8336164951324463,-1.7406288385391235,-9.016005516052246,-60.10356903076172, 2.820955753326416
655,819471087,0.68598163,-0.11168849,-0.7118912,0.10082669,10.940768241882324,-2.126760482788086,-1.6182665824890137,-6.846574306488037,-53.2808837890625, 0.771916925907135
656,819487754,0.68204683,-0.114121065,-0.7156078,0.098457694,10.837286949157715,-2.1274023056030273,-1.2908847332000732,-20.93562889099121,-33.863670349121094, 1.8998005390167236
657,819504421,0.6789919,-0.11801244,-0.71843076,0.09434169,11.254105567932129,-2.7956502437591553,-1.2157618999481201,-35.479679107666016,-22.865150451660156, 0.9565955400466919
658,819521088,0.67701346,-0.122949004,-0.7201212,0.089230135,11.14111614227295,-2.8834774494171143,-0.8373314142227173,-45.03425598144531,-10.364692687988281, 1.7362147569656372
659,819537755,0.6749675,-0.12791099,-0.72177327,0.084268585,9.79873275756836,-5.248837471008301,-0.08603926748037338,-46.66801071166992,-9.974599838256836, 2.7644777297973633
660,819554422,0.67143804,-0.13219151,-0.7249697,0.07820167,8.081049919128418,-2.6078054904937744,-1.3555811643600464,-53.4923210144043,-23.25916290283203, -6.1161298751831055
661,819571089,0.6667813,-0.13472848,-0.72926724,0.07362255,9.034974098205566,-2.850175380706787,-1.0080829858779907,-41.86434555053711,-35.59785079956055, -8.132940292358398
662,819587756,0.66144353,-0.13728952,-0.733997,0.0699479,9.208739280700684,-1.7612857818603516,-0.5747791528701782,-39.46427917480469,-41.49387741088867, -3.7674543857574463
663,819604423,0.65476704,-0.1393667,-0.7398828,0.0665628,10.004010200500488,-2.006197690963745,-0.7832526564598083,-38.25218200683594,-53.85934829711914, -5.193138599395752
664,819621090,0.6463882,-0.14111549,-0.74712515,0.06382041,9.321691513061523,-2.593035936355591,0.36406925320625305,-36.108497619628906,-69.32157135009766, -4.349168300628662
665,819637757,0.6364126,-0.141574,-0.7555961,0.06332792,10.486708641052246,-2.232052803039551,-0.5263252258300781,-20.875001907348633,-85.78688049316406, -1.3768997192382812
666,819654424,0.62452817,-0.14326301,-0.765331,0.060900077,11.673955917358398,-0.5695352554321289,0.44780755043029785,-38.26105499267578,-98.98402404785156, -3.821566343307495
667,819671091,0.6106566,-0.14446738,-0.77631927,0.059634604,11.861371994018555,-1.6701126098632812,-0.11572098731994629,-29.220417022705078,-117.16578674316406, -2.4180142879486084
668,819687758,0.59450024,-0.14382763,-0.7888349,0.060188882,12.075316429138184,-0.7878354787826538,0.6855857968330383,-14.660340309143066,-138.38929748535156, -5.186798095703125
669,819704425,0.5754331,-0.14213015,-0.80298287,0.06240668,11.298006057739258,-1.6387923955917358,1.125485897064209,-4.866613388061523,-163.00193786621094, -4.512241363525391
670,819721092,0.5535078,-0.14045592,-0.8183226,0.06518921,11.88542366027832,-3.518183708190918,2.506765127182007,-5.146782875061035,-184.1177215576172, -2.0840342044830322
671,819737759,0.52874833,-0.14067791,-0.83437014,0.06679423,13.68525505065918,-4.2017130851745605,5.5174946784973145,-22.061065673828125,-200.87960815429688, 4.673486232757568
672,819754426,0.5011591,-0.14408486,-0.8509917,0.06238942,17.596908569335938,-4.674168586730957,10.273538589477539,-71.16026306152344,-212.09230041503906, 1.827180027961731
673,819771093,0.4733051,-0.15004225,-0.86642754,0.05265835,24.478492736816406,-7.009454727172852,11.743974685668945,-110.93174743652344,-203.4403076171875, -0.31667134165763855
674,819787760,0.44878286,-0.15668868,-0.87892395,0.039182864,21.694398880004883,-0.27720552682876587,10.04653549194336,-131.0640106201172,-170.2355499267578, -6.580833435058594
675,819804427,0.41895762,-0.1686734,-0.89204645,0.01664312,14.877347946166992,-7.095148086547852,-5.703029632568359,-208.25148010253906,-193.3408966064453, -1.4987056255340576
676,819821094,0.38841048,-0.17566128,-0.9045754,0.004888015,20.052135467529297,-14.26465129852295,4.996823310852051,-128.4876708984375,-209.20339965820312, -0.376919686794281
677,819837761,0.36398935,-0.18052384,-0.91374123,-0.00005610045,14.992074012756348,-8.292888641357422,3.4175713062286377,-73.06922912597656,-170.63844299316406, 8.332844734191895
678,819854428,0.3457197,-0.18473555,-0.9199568,-0.0055239485,11.9265718460083,-8.757107734680176,1.5593422651290894,-67.18490600585938,-124.12679290771484, 6.534970760345459
679,819871095,0.33706912,-0.18875012,-0.9223043,-0.010618761,11.198660850524902,-3.1945431232452393,5.560737133026123,-52.380985260009766,-54.680973052978516, 11.383357048034668
680,819887762,0.337225,-0.19118926,-0.92167366,-0.015615431,7.644956588745117,-2.653414726257324,6.705142021179199,-36.94114685058594,7.894086837768555, 6.105696201324463
681,819904429,0.34567747,-0.19395189,-0.91791975,-0.017705163,6.033255100250244,-5.246121883392334,3.471419334411621,-8.74055004119873,63.72654724121094, 19.869592666625977
682,819921096,0.362098,-0.19438554,-0.91155463,-0.012953794,4.359767913818359,-5.178770065307617,2.241955518722534,50.214447021484375,111.30496215820312, 25.84612464904785
683,819937763,0.38592744,-0.19358677,-0.90197533,-0.0049912604,4.609952449798584,-4.262982368469238,2.2881195545196533,82.97069549560547,161.52040100097656, 31.046707153320312
684,819954430,0.41639215,-0.19293733,-0.88847244,0.0031096158,5.240854263305664,-3.1404271125793457,2.1873748302459717,92.0886001586914,212.85963439941406, 37.775291442871094
685,819971097,0.45237026,-0.19241802,-0.8707782,0.009052972,6.419089317321777,-1.9194468259811401,1.7802914381027222,85.91079711914062,261.37847900390625, 37.82503128051758
686,819987764,0.4924036,-0.19269113,-0.84867465,0.012663298,7.01881742477417,-1.7841358184814453,0.49355053901672363,75.10089111328125,302.4849853515625, 40.88847732543945
687,820004431,0.5356773,-0.19337316,-0.8218431,0.0151956165,8.072883605957031,-2.1081759929656982,-2.079094171524048,72.12380981445312,338.8638916015625, 45.595794677734375
688,820021098,0.5820651,-0.19214049,-0.78987265,0.019588826,10.742222785949707,-2.8282179832458496,-3.4364068508148193,94.38330841064453,372.7557678222656, 48.12702941894531
