PacketCounter,SampleTimeFine,Quat_W,Quat_X,Quat_Y,Quat_Z,Acc_X,Acc_Y,Acc_Z,Gyr_X,Gyr_Y,Gyr_Z 
1,449945977,0.76632684,0.19070897,-0.5753105,0.21305157,0.9240888357162476,-0.7013343572616577,0.6118543148040771,-1.8045121431350708,2.1043248176574707, -0.9142037630081177
2,449962644,0.76650244,0.1908122,-0.5749442,0.2133167,9.497594833374023,0.4864444434642792,2.638930082321167,1.0493587255477905,-0.0660935565829277, 0.002196288900449872
3,449979311,0.76660657,0.19108452,-0.5746788,0.21341427,9.492742538452148,0.4679827392101288,2.618222236633301,0.976247251033783,-0.18356621265411377, 0.04552017152309418
4,449995978,0.7666002,0.19119991,-0.5746457,0.2134226,9.498697280883789,0.500978946685791,2.6185038089752197,1.036155343055725,-0.25106847286224365, 0.1459091603755951
5,450012645,0.76659423,0.19133264,-0.5746678,0.21326514,9.490724563598633,0.5068557262420654,2.6475815773010254,0.8980773687362671,-0.24763640761375427, 0.14594757556915283
6,450029312,0.76661205,0.19155951,-0.57458085,0.21323216,9.499250411987305,0.4809712767601013,2.6686625480651855,0.7326576709747314,-0.23965802788734436, 0.020791107788681984
7,450045979,0.76669574,0.19157785,-0.5745149,0.21309178,9.504634857177734,0.4463064968585968,2.6355233192443848,0.8789830803871155,-0.3161375820636749, 0.07625541090965271
8,450062646,0.7667182,0.19156106,-0.57451,0.21303955,9.510845184326172,0.46264997124671936,2.6195406913757324,1.1006736755371094,-0.40069785714149475, 0.07095357775688171
9,450079313,0.7666983,0.19157366,-0.574523,0.21306467,9.49090576171875,0.4801923930644989,2.6304311752319336,0.9986839294433594,-0.2898973524570465, 0.10366099327802658
10,450095980,0.76666796,0.19162251,-0.5745199,0.21313834,9.487546920776367,0.48440980911254883,2.647775411605835,0.9013172388076782,-0.21330255270004272, 0.14094027876853943
11,450112647,0.76666707,0.19162416,-0.5745212,0.21313666,9.541112899780273,0.4779556393623352,2.6272542476654053,0.8352365493774414,-0.20406918227672577, 0.11074290424585342
12,450129314,0.76657313,0.191847,-0.5744698,0.21341233,9.5480318069458,0.46846121549606323,2.64326810836792,0.9811391830444336,-0.23508614301681519, 0.12270402908325195
13,450145981,0.7665311,0.19193263,-0.57448184,0.21345402,9.528665542602539,0.4958060085773468,2.6320974826812744,1.0083911418914795,-0.35628542304039, -0.09561220556497574
14,450162648,0.76652354,0.19192429,-0.5745202,0.21338567,9.51399040222168,0.44166088104248047,2.6791493892669678,0.8364530801773071,-0.28984612226486206, -0.005686019081622362
15,450179315,0.7664939,0.19189364,-0.5745718,0.21338093,9.544668197631836,0.5312062501907349,2.6420984268188477,0.6118553280830383,-0.4831835925579071, 0.24552972614765167
16,450195982,0.7663054,0.19222313,-0.574468,0.2140393,9.587773323059082,0.7630215287208557,2.7116501331329346,0.03660695254802704,-0.19049446284770966, 0.9845202565193176
17,450212649,0.7665992,0.1912801,-0.5746902,0.21323419,9.719968795776367,1.1475141048431396,2.772122859954834,-1.956182837486267,0.42308980226516724, 1.8909536600112915
18,450229316,0.7667168,0.19086865,-0.57462454,0.21335706,9.73322868347168,1.0205515623092651,2.778493642807007,-5.094699859619141,1.0721412897109985, 2.958440065383911
19,450245983,0.76630545,0.19199851,-0.573992,0.21551286,9.721607208251953,0.9156294465065002,2.7663862705230713,-4.96549654006958,1.4591491222381592, 3.3675644397735596
20,450262650,0.7670096,0.18988425,-0.57454795,0.21338972,9.71073055267334,0.650932252407074,2.8882222175598145,-4.733112335205078,0.5538683533668518, 4.196724891662598
21,450279317,0.76714706,0.18882096,-0.57479566,0.21317214,9.520755767822266,0.27040573954582214,3.374918222427368,-5.899258613586426,-0.04943251609802246, 6.015636444091797
22,450295984,0.767307,0.18748483,-0.575356,0.21226183,9.543891906738281,0.5187566876411438,2.9166901111602783,-2.1299524307250977,-2.519470453262329, 5.48806619644165
23,450312651,0.7662013,0.18880767,-0.5755925,0.2144308,9.432469367980957,0.2337929904460907,3.1979446411132812,-0.8210152983665466,-7.008750915527344, 4.950737476348877
24,450329318,0.76580685,0.18812086,-0.5764734,0.21407697,9.465641021728516,0.30056867003440857,2.4258906841278076,1.4716100692749023,-7.170687198638916, 5.785865306854248
25,450345985,0.76540905,0.18742803,-0.57707465,0.2144875,9.63168716430664,0.992074728012085,2.4026074409484863,1.8716422319412231,-4.421854496002197, 8.359199523925781
26,450362652,0.76462173,0.18786894,-0.5773872,0.21606237,10.0946044921875,1.227731704711914,3.848233222961426,-4.300757884979248,-4.932610511779785, 5.76611852645874
27,450379319,0.76559484,0.18446358,-0.57875454,0.21185112,10.508126258850098,-0.01612468995153904,3.123439073562622,-3.635709762573242,-4.092986106872559, 2.844296455383301
28,450395986,0.7664642,0.18168776,-0.57975817,0.20833306,9.839892387390137,0.3753865659236908,2.1980206966400146,2.923362970352173,-2.6386971473693848, 3.0340609550476074
29,450412653,0.7640457,0.18782184,-0.5779629,0.21660194,9.085176467895508,0.24482490122318268,2.3933844566345215,-0.6650208234786987,-2.5449929237365723, 2.0417866706848145
30,450429320,0.76452065,0.18591867,-0.5786872,0.21462426,8.862060546875,-0.2140922248363495,1.9532681703567505,-5.4148969650268555,-2.096374273300171, 2.140011787414551
31,450445987,0.76538134,0.18311217,-0.57959336,0.2115016,8.994892120361328,-0.4064187705516815,1.7173439264297485,-5.057676315307617,-0.916166365146637, 1.7583825588226318
32,450462654,0.76449406,0.18494093,-0.5790059,0.21470426,8.826939582824707,-0.35160645842552185,1.5360805988311768,-6.936905384063721,-0.38123226165771484, 1.6496052742004395
33,450479321,0.76543206,0.18150567,-0.58014935,0.21117795,8.72182559967041,-0.3736814558506012,1.629737377166748,-6.098499774932861,-0.4296146333217621, 2.675342559814453
34,450495988,0.76551723,0.18031847,-0.58075285,0.2102259,9.041637420654297,-0.002107531065121293,2.356335163116455,-0.7027484178543091,-1.3836236000061035, 2.499600887298584
35,450512655,0.7659871,0.17850384,-0.58156127,0.20781437,9.902581214904785,0.14176182448863983,3.152406930923462,3.1217844486236572,-1.3988759517669678, 0.6400165557861328
36,450529322,0.7659928,0.17898332,-0.581406,0.20781602,10.824654579162598,0.26622456312179565,3.4473981857299805,5.16412878036499,0.5386031270027161, -2.188720703125
37,450545989,0.7644756,0.18491536,-0.57929415,0.21401294,11.057687759399414,0.1418670117855072,3.3776204586029053,10.18148136138916,2.4952991008758545, -5.885224342346191
38,450562656,0.7654969,0.18523012,-0.57877994,0.21146737,10.619733810424805,0.4095591604709625,3.5949435234069824,20.03281021118164,4.079297065734863, -9.66959285736084
39,450579323,0.7660864,0.18805254,-0.5771994,0.21116115,10.122039794921875,0.5581420660018921,3.4534106254577637,25.0739688873291,6.254019260406494, -13.697827339172363
40,450595990,0.76654243,0.19154753,-0.5753588,0.21138771,9.483497619628906,-0.27166086435317993,2.7355878353118896,28.115243911743164,6.504489898681641, -14.451403617858887
41,450612657,0.7665791,0.19560625,-0.57353586,0.21248913,8.543909072875977,0.3432387113571167,2.418647527694702,28.590669631958008,4.75922155380249, -13.41309928894043
42,450629324,0.76652545,0.19848906,-0.5725341,0.21271077,8.209427833557129,0.4581006169319153,2.4255318641662598,16.42978286743164,0.5437392592430115, -12.543863296508789
43,450645991,0.7659666,0.20146182,-0.5717667,0.21398884,8.58552074432373,0.37059885263442993,2.1906073093414307,4.669702529907227,-2.468770742416382, -10.839107513427734
44,450662658,0.7657279,0.20234084,-0.57196903,0.21347238,8.798511505126953,0.6194707751274109,1.9571824073791504,-4.242476463317871,-4.9399237632751465, -8.134878158569336
45,450679325,0.76539195,0.20216054,-0.5728583,0.21246141,9.005424499511719,0.6069937348365784,2.047654151916504,-13.099255561828613,-7.958141326904297, -5.528416156768799
46,450695992,0.7646115,0.20239608,-0.5737471,0.21264829,9.236028671264648,0.3163186311721802,2.147770643234253,-15.01266860961914,-9.168319702148438, -2.708456039428711
47,450712659,0.7648584,0.19956668,-0.5758075,0.20883143,9.398688316345215,0.5006623864173889,2.1882762908935547,-11.724310874938965,-9.664152145385742, -1.2494779825210571
48,450729326,0.7646882,0.19794638,-0.57737184,0.20666741,9.549446105957031,0.6549628973007202,2.1486947536468506,-8.4679594039917,-8.837512016296387, -0.3752902150154114
49,450745993,0.76382834,0.19868372,-0.5779276,0.20758417,9.611591339111328,0.7979183793067932,1.995387077331543,-4.0186591148376465,-6.841564178466797, 0.15820328891277313
50,450762660,0.7644764,0.19578938,-0.5794212,0.20374909,9.483226776123047,0.9022941589355469,1.7982221841812134,-0.9065614342689514,-4.04829216003418, 0.4839071035385132
51,450779327,0.76374364,0.1973811,-0.57907766,0.20592602,9.424522399902344,0.8919572830200195,1.8525639772415161,0.21849554777145386,-1.287985920906067, 0.48859429359436035
52,450795994,0.7647566,0.19484101,-0.57968134,0.20286454,9.4960298538208,0.7667892575263977,2.0798511505126953,-0.7713007926940918,2.481800079345703, 0.1322447657585144
53,450812661,0.76227546,0.20246077,-0.5764051,0.21378265,9.558619499206543,0.49294424057006836,2.1599526405334473,-1.8444857597351074,5.761660575866699, 1.3991256952285767
54,450829328,0.7644058,0.19760063,-0.57719713,0.20852211,9.492674827575684,0.48477211594581604,2.363414764404297,-1.241114854812622,7.765790939331055, 2.35318660736084
55,450845995,0.76399803,0.19964923,-0.5754404,0.21287447,9.49953556060791,0.4113657772541046,2.477126121520996,-2.7631118297576904,8.957603454589844, 3.62613844871521
56,450862662,0.7648427,0.19803613,-0.57493323,0.21271925,9.538719177246094,0.5325313210487366,2.6127281188964844,-4.38864803314209,8.947256088256836, 4.693484306335449
57,450879329,0.76686156,0.19306052,-0.57561624,0.20812733,9.569960594177246,0.7118075489997864,2.73641300201416,-3.175527572631836,8.536747932434082, 5.378943920135498
58,450895996,0.7675624,0.19142574,-0.57530665,0.2079102,9.48865795135498,0.8811346292495728,2.7714290618896484,-3.111854314804077,7.257072448730469, 5.5230278968811035
59,450912663,0.7667909,0.19314367,-0.57421553,0.21214128,9.4429349899292,0.6842871904373169,3.0417237281799316,-3.1782803535461426,4.422103404998779, 6.306968688964844
60,450929330,0.76713824,0.19131896,-0.5747441,0.21110496,9.684256553649902,0.4103175103664398,3.4353318214416504,-0.7447533011436462,0.9082840085029602, 5.693338394165039
61,450945997,0.7663505,0.1924054,-0.57446826,0.21371336,9.997384071350098,0.2946808636188507,3.333432674407959,0.46624717116355896,-0.5397493243217468, 5.366713047027588
62,450962664,0.76640296,0.19092491,-0.57521856,0.21283312,9.970439910888672,0.07524251937866211,3.256351947784424,-1.9367302656173706,-2.1433346271514893, 4.815834999084473
63,450979331,0.7661468,0.19006255,-0.57584894,0.21282303,9.795397758483887,-0.04632806032896042,3.149928331375122,-5.18082332611084,-3.098176956176758, 4.291722774505615
64,450995998,0.7656702,0.18980621,-0.5762781,0.21360342,9.634778022766113,-0.04746609181165695,2.772665500640869,-7.0245280265808105,-3.2373435497283936, 3.65164852142334
65,451012665,0.76571447,0.18822852,-0.57713675,0.21251957,9.457619667053223,0.18828162550926208,2.5361363887786865,-7.900367259979248,-3.2555289268493652, 2.8585894107818604
66,451029332,0.7659314,0.18661107,-0.577908,0.21106425,9.379183769226074,0.42037007212638855,2.307626485824585,-6.448408603668213,-2.3886919021606445, 1.5497928857803345
67,451045999,0.76593506,0.18604162,-0.5782682,0.21056567,9.264111518859863,0.500858724117279,2.110949754714966,-3.0140767097473145,-1.629172444343567, 0.3819429576396942
68,451062666,0.76582414,0.18626407,-0.5782908,0.21071051,9.20250129699707,0.41900333762168884,2.199341297149658,0.5093917846679688,-0.7436135411262512, -0.6591941118240356
69,451079333,0.7659779,0.18596466,-0.5783939,0.21013242,9.300569534301758,0.36725205183029175,2.1349313259124756,1.927771806716919,0.07567911595106125, -0.6219915747642517
70,451096000,0.7660318,0.18619317,-0.57823175,0.21017972,9.35960865020752,0.4262419641017914,2.2641937732696533,3.127598524093628,0.9580237865447998, -0.8566295504570007
71,451112667,0.7661031,0.1864325,-0.57799155,0.21036822,9.505070686340332,0.4375879466533661,2.531559944152832,2.701416015625,1.5830632448196411, -0.5782707333564758
72,451129334,0.7663927,0.18616223,-0.577813,0.21004315,9.600543022155762,0.376485139131546,2.633453607559204,1.280730962753296,2.368643283843994, -0.4782019257545471
73,451146001,0.76648396,0.18633045,-0.57745665,0.2105403,9.585335731506348,0.2898614704608917,2.6900486946105957,-0.47710055112838745,2.584519624710083, 0.03536473214626312
74,451162668,0.7673925,0.1842046,-0.5778813,0.20791955,9.553753852844238,0.200813427567482,2.826422691345215,-0.17141297459602356,2.216222047805786, -0.09732826054096222
75,451179335,0.7676418,0.18383904,-0.5778009,0.20754667,9.626601219177246,0.31200215220451355,2.9367825984954834,0.40147271752357483,1.7209750413894653, -0.20418445765972137
76,451196002,0.76742667,0.18479413,-0.5773359,0.20878386,9.689985275268555,0.4362972378730774,2.8154337406158447,1.4470213651657104,1.4295408725738525, -0.47578147053718567
77,451212669,0.76738,0.18524142,-0.5770914,0.20923452,9.619205474853516,0.5599074363708496,2.7248990535736084,1.5350265502929688,0.9297473430633545, -0.7991418242454529
78,451229336,0.7674353,0.1853962,-0.5769683,0.20923446,9.460082054138184,0.538965106010437,2.6685187816619873,1.8472455739974976,0.7075316309928894, -0.8959194421768188
79,451246003,0.7674322,0.18550767,-0.5769379,0.20923032,9.407959938049316,0.36808761954307556,2.6313140392303467,1.1674333810806274,0.020803915336728096, -0.6289070844650269
80,451262670,0.7676776,0.18483633,-0.57720137,0.20819584,9.432108879089355,0.24619972705841064,2.5889885425567627,1.5561188459396362,-0.3151770830154419, -0.3656853139400482
81,451279337,0.7674596,0.18537879,-0.5770619,0.20890246,9.491988182067871,0.18352171778678894,2.6013684272766113,1.1791383028030396,-0.221639484167099, 0.05159037932753563
82,451296004,0.7676887,0.18457788,-0.57733864,0.20800294,9.462446212768555,0.1599237620830536,2.5845108032226562,0.8090603351593018,-0.11754947900772095, 0.7050983905792236
83,451312671,0.7675674,0.18471986,-0.5772915,0.20845532,9.47217845916748,0.33086130023002625,2.656308174133301,0.43165719509124756,0.047005705535411835, 0.9668857455253601
84,451329338,0.7674849,0.1847888,-0.5772226,0.20888838,9.504342079162598,0.5880886316299438,2.6329588890075684,-1.221764326095581,0.33884963393211365, 0.7418398261070251
85,451346005,0.7675388,0.1845813,-0.5771783,0.20899601,9.47568416595459,0.6051161885261536,2.506056070327759,-1.7377957105636597,0.8408071994781494, 0.6555249691009521
86,451362672,0.7677519,0.18402801,-0.5772192,0.20858735,9.432988166809082,0.5906218886375427,2.5306544303894043,-2.3483641147613525,1.0315577983856201, 0.1977108269929886
87,451379339,0.7687063,0.18156679,-0.57786936,0.20540518,9.420173645019531,0.48206451535224915,2.511317491531372,0.32886064052581787,1.1009169816970825, -0.07621058821678162
88,451396006,0.7695591,0.17922918,-0.57856894,0.20227171,9.366779327392578,0.30393338203430176,2.5846686363220215,2.003431558609009,0.36516666412353516, 0.12453534454107285
89,451412673,0.76905894,0.18075842,-0.5781051,0.20413055,9.46558952331543,0.3083770275115967,2.7270381450653076,3.7169978618621826,0.09350556135177612, 0.017602326348423958
90,451429340,0.76891446,0.18130597,-0.57794523,0.20464145,9.555604934692383,0.3244083821773529,2.793977975845337,5.065647602081299,0.14638297259807587, 0.19458608329296112
91,451446007,0.7687057,0.18204251,-0.5776866,0.20550048,9.589502334594727,0.42563125491142273,2.734949827194214,2.838136911392212,0.355907678604126, -0.08357424288988113
92,451462674,0.7684563,0.18285728,-0.5773923,0.206534,9.573637008666992,0.3935336172580719,2.797550678253174,1.7677053213119507,0.3817380666732788, -0.08753140270709991
93,451479341,0.7684156,0.18307145,-0.5772726,0.20683043,9.563618659973145,0.33169323205947876,2.7245442867279053,0.578366756439209,0.4403911232948303, -0.17376935482025146
94,451496008,0.7684919,0.18290876,-0.5772525,0.20674649,9.531290054321289,0.37646377086639404,2.6947150230407715,0.002081031911075115,0.5714128613471985, 0.15596212446689606
95,451512675,0.76851004,0.18284531,-0.5772229,0.206818,9.455842971801758,0.4171682596206665,2.6545684337615967,-0.20421002805233002,0.3770381212234497, 0.257170706987381
96,451529342,0.7684236,0.18307513,-0.5771513,0.20713547,9.4285249710083,0.41196465492248535,2.6478333473205566,0.8491826057434082,0.0005058507667854428, 0.03264978900551796
97,451546009,0.7683135,0.18361874,-0.576995,0.20749766,9.406232833862305,0.5740045309066772,2.6215126514434814,2.9386541843414307,-0.034922920167446136, -1.0180920362472534
98,451562676,0.7684235,0.18355718,-0.57704514,0.20700489,9.453726768493652,0.4662458598613739,2.6347248554229736,3.065180778503418,-0.14348234236240387, -1.1482173204421997
99,451579343,0.768714,0.18302195,-0.57728755,0.2057205,9.462392807006836,0.3811681866645813,2.655909538269043,4.1160054206848145,-0.4400262236595154, -1.468888282775879
100,451596010,0.76833004,0.18416293,-0.5769715,0.20701946,9.578775405883789,0.17593251168727875,2.7674238681793213,1.9449834823608398,-0.32939210534095764, -0.5635178089141846
101,451612677,0.7678905,0.18532036,-0.57664824,0.2085129,9.678140640258789,0.3454166352748871,2.8231403827667236,1.1337653398513794,-0.38039979338645935, -0.03407769650220871
102,451629344,0.7677489,0.18550271,-0.57661927,0.20895113,9.682806968688965,0.5420778393745422,2.889150381088257,-0.48341405391693115,-0.31941595673561096, 0.5598616003990173
103,451646011,0.7680862,0.18430659,-0.57706195,0.20754334,9.645352363586426,0.5810660719871521,2.9099152088165283,-0.49412018060684204,-0.5777456760406494, 0.5866396427154541
104,451662678,0.7680004,0.18431604,-0.5771733,0.20754276,9.642498970031738,0.48805710673332214,2.9639945030212402,1.2058395147323608,-0.9721940755844116, 0.32672202587127686
105,451679345,0.76791465,0.18450361,-0.57723737,0.20751494,9.57957935333252,0.42467471957206726,2.7070770263671875,3.8635802268981934,-0.9532408714294434, -0.09397301077842712
106,451696012,0.7678199,0.18468334,-0.57729846,0.20753552,9.545533180236816,0.3571550250053406,2.59203839302063,2.8471269607543945,-0.9571210145950317, -0.12368373572826385
107,451712679,0.7676028,0.18521513,-0.57721627,0.20809264,9.529034614562988,0.22154703736305237,2.6362032890319824,2.0027661323547363,-0.7396307587623596, -0.1308809071779251
108,451729346,0.767655,0.18485697,-0.57739735,0.20771658,9.446446418762207,0.24076040089130402,2.642251491546631,-0.7461620569229126,-0.6842177510261536, 0.16483694314956665
109,451746013,0.7681834,0.18306705,-0.577996,0.20567405,9.351480484008789,0.345338374376297,2.4786784648895264,-3.1934170722961426,-0.48661571741104126, 0.44443798065185547
110,451762680,0.7681203,0.18295018,-0.57807004,0.20580482,9.254701614379883,0.42556506395339966,2.357640027999878,-3.157174825668335,-0.5456017255783081, 0.2472842037677765
111,451779347,0.768115,0.18287334,-0.5781384,0.20570067,9.17905330657959,0.42754286527633667,2.2464396953582764,-0.769738495349884,-0.48189014196395874, -0.36724767088890076
112,451796014,0.7679198,0.183586,-0.5779317,0.20637463,9.331459999084473,0.40553542971611023,2.2981514930725098,1.5620862245559692,-0.1495141088962555, -0.9930042028427124
113,451812681,0.7678766,0.18391266,-0.57790655,0.20631465,9.269157409667969,0.29189354181289673,2.3449220657348633,4.006152153015137,-0.5102818012237549, -1.1668248176574707
114,451829348,0.76754266,0.18515213,-0.57753825,0.20747729,9.391206741333008,0.4675139784812927,2.4870731830596924,4.3843889236450195,-0.05520818382501602, -1.1575020551681519
115,451846015,0.7672816,0.18627962,-0.57705295,0.20877966,9.654210090637207,0.5686597228050232,2.7798357009887695,3.5090489387512207,1.1505417823791504, -0.47051817178726196
116,451862682,0.7673839,0.1866213,-0.57672733,0.20899834,9.786620140075684,0.7981638312339783,2.8811757564544678,3.034637451171875,1.8837310075759888, -0.9990490078926086
117,451879349,0.76742655,0.18730393,-0.57619935,0.20968555,9.81255054473877,0.7696104049682617,2.8230199813842773,2.217092990875244,2.58494234085083, -1.3590353727340698
118,451896016,0.7675924,0.18780717,-0.5757122,0.20996664,9.727821350097656,0.7899059057235718,2.8754096031188965,1.5531479120254517,2.6826553344726562, -2.3132882118225098
119,451912683,0.7677022,0.18864936,-0.57505625,0.21060634,9.629180908203125,0.973286509513855,2.888397216796875,1.2534407377243042,3.124448537826538, -2.93375563621521
120,451929350,0.76802146,0.1888746,-0.57469654,0.21022189,9.60960865020752,0.6479170322418213,2.7101244926452637,2.269432783126831,2.3847410678863525, -3.276376962661743
121,451946017,0.767911,0.19022003,-0.57402235,0.21125168,9.521256446838379,0.5177764892578125,2.892779588699341,3.612563133239746,1.9970546960830688, -3.1244428157806396
122,451962684,0.76703554,0.19334318,-0.5728615,0.21472012,9.626184463500977,0.10206245630979538,2.9847073554992676,5.205250263214111,1.1336501836776733, -2.1333329677581787
123,451979351,0.7674035,0.19286685,-0.5730145,0.21342205,9.648856163024902,0.10752937942743301,3.075389862060547,7.702309608459473,0.36119675636291504, -0.9586323499679565
124,451996018,0.7671625,0.19375063,-0.5727772,0.21412325,9.635688781738281,0.19505541026592255,2.9581258296966553,7.392435073852539,-0.23719926178455353, -0.10512734204530716
125,452012685,0.7663515,0.19622093,-0.57204574,0.2167176,9.45276927947998,0.6000781655311584,2.716958522796631,10.0674409866333,-0.5044423341751099, -0.2955706715583801
126,452029352,0.76655036,0.19591807,-0.5723085,0.21559198,9.215657234191895,0.7635018825531006,2.545269250869751,7.410478591918945,-1.044281244277954, -0.9265780448913574
127,452046019,0.7662383,0.19689095,-0.572184,0.21614523,9.024772644042969,0.5143064856529236,2.2200427055358887,7.563374042510986,-1.4387809038162231, -0.8745970129966736
128,452062686,0.7651845,0.19960883,-0.5715251,0.21910766,8.8873291015625,0.3056790232658386,2.053577423095703,6.082241535186768,-2.1006128787994385, -0.7700074911117554
129,452079353,0.7646869,0.20052493,-0.57155424,0.21993084,9.018437385559082,-0.1717482954263687,2.0944788455963135,4.484188556671143,-2.7001678943634033, 0.18302197754383087
130,452096020,0.764185,0.20122282,-0.57168037,0.22070839,9.144328117370605,-0.25920745730400085,2.3144824504852295,6.014074325561523,-2.761561870574951, 1.7244199514389038
131,452112687,0.7637284,0.20157284,-0.57189745,0.2214065,9.385347366333008,-0.167355015873909,2.6784441471099854,5.821671485900879,-2.5074453353881836, 3.2707359790802
132,452129354,0.76324326,0.20174368,-0.5721732,0.2222102,9.712603569030762,0.2635929584503174,3.297055244445801,4.372542858123779,-2.5649709701538086, 4.365384578704834
133,452146021,0.76290196,0.2014972,-0.57258815,0.22253636,9.951644897460938,0.6214517951011658,3.187056064605713,0.3467767834663391,-2.771601676940918, 3.5769994258880615
134,452162688,0.7627781,0.20098639,-0.57302135,0.22230743,9.859525680541992,1.0773231983184814,2.889721632003784,-2.7517006397247314,-2.3621444702148438, 1.6283340454101562
135,452179355,0.762675,0.20056164,-0.57338583,0.22210515,9.608461380004883,0.9932782649993896,2.6788370609283447,-5.428253650665283,-2.2050232887268066, 0.438854455947876
136,452196022,0.7626484,0.20001422,-0.57383484,0.22152941,9.377577781677246,0.5494645833969116,2.5311641693115234,-4.065927028656006,-2.4781572818756104, 0.005474715493619442
137,452212689,0.7625512,0.19958352,-0.5742975,0.22105356,9.253968238830566,0.1776864230632782,2.298466920852661,-2.2020647525787354,-2.825772762298584, 0.4123580753803253
138,452229356,0.76231706,0.1993824,-0.5746593,0.22110255,9.227530479431152,0.04746127873659134,2.1613638401031494,-1.2210086584091187,-2.590545415878296, 1.5957671403884888
139,452246023,0.76216424,0.19879788,-0.5750905,0.2210349,9.206851959228516,0.08608823269605637,2.2662761211395264,-1.782170295715332,-2.0809683799743652, 3.0132896900177
140,452262690,0.7619286,0.19827326,-0.57546955,0.22133112,9.354917526245117,0.17384937405586243,2.5516340732574463,-2.1331536769866943,-1.830603837966919, 4.09414529800415
141,452279357,0.76181465,0.19755018,-0.57584983,0.22138093,9.664040565490723,0.47051578760147095,2.9229445457458496,-1.3098208904266357,-1.2457634210586548, 4.194573402404785
142,452296024,0.7619653,0.19650924,-0.57622606,0.22080879,9.925682067871094,0.8063498735427856,3.084743022918701,-1.391666054725647,-0.35478711128234863, 2.9660465717315674
143,452312691,0.76247287,0.19488311,-0.57681745,0.21894588,10.024811744689941,0.8362412452697754,3.074458122253418,-0.9150649905204773,-0.5139060020446777, 0.8318940997123718
144,452329358,0.7621979,0.19570893,-0.57649696,0.22000831,9.820405006408691,0.6330414414405823,2.88455867767334,-0.9258607625961304,0.12192285060882568, -0.7780753970146179
145,452346025,0.7622451,0.19568019,-0.5764918,0.21988375,9.50410270690918,0.4132128059864044,2.6044394969940186,-1.4245142936706543,-0.12834525108337402, -1.0920103788375854
146,452362692,0.7624132,0.19531067,-0.576622,0.21928725,9.363985061645508,0.34556424617767334,2.5261905193328857,-0.7673948407173157,-0.26206913590431213, -0.957172155380249
147,452379359,0.7624338,0.19522323,-0.57670623,0.21907185,9.407084465026855,0.36800384521484375,2.523191213607788,-0.06633688509464264,-0.6377817988395691, -0.607802152633667
148,452396026,0.7628151,0.1941844,-0.5771309,0.21754488,9.49439811706543,0.5321658253669739,2.6104366779327393,0.8623219132423401,-0.7508107423782349, -0.5579214692115784
149,452412693,0.76251286,0.19492614,-0.57696724,0.21837358,9.690185546875,0.6204172968864441,2.8129351139068604,1.4743757247924805,-0.8273285627365112, -0.3462964594364166
150,452429360,0.76243097,0.195219,-0.57692325,0.218514,9.647812843322754,0.5697759389877319,2.8706071376800537,2.5174143314361572,-0.5320013761520386, -0.5605723261833191
151,452446027,0.76244843,0.1952421,-0.5769901,0.21825515,9.633466720581055,0.5005791187286377,2.7130987644195557,2.0433363914489746,-0.7324976921081543, -0.8220396637916565
152,452462694,0.7625204,0.19521248,-0.5769429,0.21815507,9.50377082824707,0.6209404468536377,2.5441317558288574,-0.029902825132012367,0.24869287014007568, -0.685664713382721
153,452479361,0.76285875,0.1942745,-0.57719797,0.21713252,9.44174575805664,0.6335297226905823,2.5539727210998535,-2.698899745941162,0.15970158576965332, -0.1479005515575409
154,452496028,0.76307577,0.19363125,-0.57733244,0.21658629,9.470465660095215,0.5672128200531006,2.603670120239258,-2.9417338371276855,0.3153115510940552, 0.14154216647148132
155,452512695,0.763246,0.19297779,-0.57751715,0.21607657,9.479132652282715,0.4256058931350708,2.664759874343872,-3.527918577194214,-0.10554993152618408, 0.3423585295677185
156,452529362,0.7632795,0.1926048,-0.5776496,0.21593697,9.479912757873535,0.2727169394493103,2.649571180343628,-3.1933014392852783,-0.4397315979003906, 0.5358753204345703
157,452546029,0.76321554,0.19236109,-0.57786745,0.21579728,9.47313117980957,0.15108108520507812,2.5795557498931885,-1.5345208644866943,-1.4270756244659424, 0.5317900776863098
158,452562696,0.76270115,0.19336101,-0.57772964,0.21708764,9.45053482055664,0.13761770725250244,2.5533361434936523,0.5786612629890442,-1.8172591924667358, 0.2790183126926422
159,452579363,0.76229817,0.19423786,-0.5775868,0.21809784,9.526887893676758,0.297044038772583,2.5813262462615967,1.862715721130371,-1.3934974670410156, -0.03870078921318054
160,452596030,0.76231664,0.19405729,-0.5777908,0.21765332,9.528277397155762,0.36180219054222107,2.5701181888580322,1.4108434915542603,-1.3464851379394531, -0.4548303186893463
161,452612697,0.76206946,0.19469692,-0.57766783,0.21827379,9.54336166381836,0.3832949101924896,2.5917742252349854,0.9170178771018982,-0.9484894871711731, -0.8013828992843628
162,452629364,0.76213396,0.19471367,-0.5776257,0.2181447,9.586821556091309,0.4651336073875427,2.598377227783203,0.3216378390789032,0.08128830045461655, -0.9683136940002441
163,452646031,0.7622554,0.19473158,-0.5774864,0.21807304,9.551689147949219,0.48408061265945435,2.6007301807403564,-0.592191219329834,0.8337382674217224, -1.207869291305542
164,452662698,0.7628641,0.19361645,-0.5776506,0.21649696,9.566483497619629,0.4342232048511505,2.569195032119751,-0.3913620412349701,1.4805357456207275, -1.389219880104065
165,452679365,0.7631604,0.19346502,-0.5774285,0.21617988,9.541690826416016,0.40035271644592285,2.543649673461914,0.10591492056846619,2.0154569149017334, -1.4738445281982422
166,452696032,0.7634127,0.19342156,-0.57716376,0.2160351,9.507296562194824,0.4656146168708801,2.637974262237549,1.1045410633087158,2.119213819503784, -1.0884371995925903
167,452712699,0.76375437,0.1930904,-0.5770089,0.2155366,9.478264808654785,0.4803106486797333,2.6563820838928223,1.4136607646942139,2.01910662651062, -0.8448988795280457
168,452729366,0.76398546,0.19294278,-0.5768501,0.21527505,9.50899887084961,0.489885538816452,2.6805479526519775,2.0717406272888184,1.572510838508606, -0.5457169413566589
169,452746033,0.7641751,0.19273245,-0.5767718,0.21500045,9.529059410095215,0.5470088124275208,2.708284616470337,1.5865339040756226,1.055377721786499, -0.19845999777317047
170,452762700,0.76424044,0.19269842,-0.57668734,0.2150251,9.518421173095703,0.562463104724884,2.7723355293273926,1.4509787559509277,0.6089739799499512, 0.20492079854011536
171,452779367,0.7638686,0.19370879,-0.57628375,0.21651575,9.524641990661621,0.5971122980117798,2.7183754444122314,0.9089242219924927,0.31965288519859314, 0.5154363512992859
172,452796034,0.7641486,0.1928502,-0.5765404,0.21560818,9.505964279174805,0.5489494800567627,2.7020866870880127,0.36839383840560913,0.00839456170797348, 0.8183577656745911
173,452812701,0.76408815,0.19273354,-0.5765974,0.21577488,9.469061851501465,0.5223851203918457,2.710559368133545,0.11576299369335175,-0.4121723771095276, 1.292154312133789
174,452829368,0.76376957,0.19314793,-0.5765195,0.21673822,9.481520652770996,0.5424214005470276,2.6607837677001953,-0.1552385687828064,-0.7849780321121216, 1.7513771057128906
175,452846035,0.7636953,0.1928056,-0.5767226,0.21676362,9.507735252380371,0.474884033203125,2.6342103481292725,-0.4530758559703827,-1.03093683719635, 2.0395970344543457
176,452862702,0.7635193,0.19270946,-0.57688195,0.21704493,9.532730102539062,0.346597820520401,2.6855642795562744,-0.033155638724565506,-1.3299649953842163, 1.9421278238296509
177,452879369,0.76325,0.19287978,-0.5769676,0.21761273,9.48597526550293,0.34925347566604614,2.6164498329162598,0.726574718952179,-1.426627516746521, 1.8837950229644775
178,452896036,0.7630981,0.19271217,-0.57717496,0.21774401,9.494446754455566,0.5217622518539429,2.6306118965148926,0.01646256446838379,-1.5313705205917358, 1.7593940496444702
179,452912703,0.76314366,0.19201764,-0.5775277,0.21726236,9.547407150268555,0.43187952041625977,2.6032543182373047,-0.6352334022521973,-1.3155707120895386, 1.88866126537323
180,452929370,0.7627191,0.19263308,-0.57741374,0.21850817,9.526540756225586,0.3702526092529297,2.6348190307617188,-0.7439592480659485,-1.0707134008407593, 1.7677563428878784
181,452946037,0.7628238,0.19192474,-0.57772624,0.21793877,9.504268646240234,0.31907814741134644,2.6141905784606934,-0.5075924396514893,-0.9449419379234314, 1.4903581142425537
182,452962704,0.76259106,0.19217847,-0.5777365,0.21850142,9.458939552307129,0.24950063228607178,2.5582938194274902,0.0891001746058464,-1.0682159662246704, 1.0700410604476929
183,452979371,0.7623626,0.19255123,-0.5777095,0.2190413,9.4940185546875,0.20233382284641266,2.5627126693725586,0.9090396165847778,-1.0532070398330688, 0.48108971118927
184,452996038,0.7622355,0.19285075,-0.5776922,0.21926558,9.519871711730957,0.1893533170223236,2.566706418991089,1.6548043489456177,-0.9007090330123901, -0.35611897706985474
185,453012705,0.7619763,0.19362836,-0.5774958,0.21999794,9.489227294921875,0.2011706531047821,2.5530989170074463,2.3639817237854004,-0.7135441899299622, -0.7778063416481018
186,453029372,0.7621072,0.19345744,-0.57758754,0.21945275,9.436354637145996,0.3051196038722992,2.503737449645996,2.4856419563293457,-0.46631762385368347, -0.9505001306533813
187,453046039,0.76207995,0.19362056,-0.57758075,0.21942165,9.487977981567383,0.5004364252090454,2.6170108318328857,2.4647676944732666,-0.5716626048088074, -0.5948805212974548
188,453062706,0.7622216,0.19319658,-0.57781,0.21869878,9.51510238647461,0.6264843940734863,2.87919282913208,1.0927083492279053,-0.956608772277832, -0.47436001896858215
189,453079373,0.7621639,0.19279484,-0.5782832,0.21800305,9.584681510925293,0.4074856638908386,3.147092819213867,-0.0551825650036335,-3.094590663909912, -0.1343258172273636
190,453096040,0.76172537,0.19283998,-0.5788223,0.21806397,9.586494445800781,0.3329213559627533,3.1077287197113037,1.0046902894973755,-4.854862213134766, 1.461966633796692
191,453112707,0.7614106,0.19227627,-0.5795909,0.21761917,9.63415813446045,0.6735826730728149,2.7640328407287598,0.036888692528009415,-5.148101329803467, 2.603306770324707
192,453129374,0.7611141,0.19109319,-0.5808209,0.21641596,9.52320384979248,0.17590785026550293,2.61776065826416,-0.05218588188290596,-7.295407295227051, 3.4943861961364746
193,453146041,0.76068,0.19045684,-0.581696,0.21615353,9.501046180725098,0.3084631860256195,2.162825345993042,4.81279993057251,-5.682715892791748, 5.2930378913879395
194,453162708,0.76020104,0.18997464,-0.5824539,0.21622147,9.401556015014648,0.7241013050079346,2.147361993789673,4.7944746017456055,-5.131722927093506, 5.686744213104248
195,453179375,0.7594313,0.19028595,-0.5828642,0.21754244,9.457402229309082,0.45859771966934204,2.257840871810913,4.127917289733887,-4.416757583618164, 6.290987014770508
196,453196042,0.75969076,0.18805479,-0.5840077,0.21550094,9.727124214172363,0.473721981048584,2.582867383956909,6.1875104904174805,-3.576493978500366, 6.346988201141357
197,453212709,0.7592544,0.18836579,-0.58408284,0.21656093,10.032285690307617,0.930558443069458,2.6036007404327393,7.0765533447265625,-1.5307559967041016, 5.007610321044922
198,453229376,0.7598663,0.18684295,-0.58428675,0.21517888,10.180713653564453,1.167419672012329,2.483835458755493,3.667245626449585,2.1701836585998535, 2.7320876121520996
199,453246043,0.7599865,0.18711738,-0.58363897,0.21627124,9.84389877319336,0.8227002024650574,2.4435718059539795,0.5762025713920593,4.352052688598633, 1.9096509218215942
200,453262710,0.76150733,0.18372396,-0.58412176,0.2124947,9.449649810791016,0.2889079749584198,2.5576257705688477,-0.904704749584198,4.604888916015625, 1.071014404296875
201,453279377,0.7622199,0.1827535,-0.5837835,0.21170434,9.397027969360352,-0.3551960587501526,2.364938974380493,3.768378496170044,5.151156902313232, 1.4061824083328247
202,453296044,0.76235676,0.18336974,-0.58293605,0.21301024,9.357625961303711,-0.2180851846933365,2.273446798324585,6.820875644683838,5.346261978149414, 2.2523367404937744
203,453312711,0.76258695,0.18383808,-0.58204454,0.21421687,9.41397762298584,-0.03125176206231117,2.3964905738830566,5.2241530418396,6.043157577514648, 2.002074956893921
204,453329378,0.7636416,0.18242148,-0.58164465,0.21275203,9.507201194763184,0.010338000021874905,2.4234611988067627,3.961754322052002,6.850790023803711, 0.504743218421936
205,453346045,0.7640934,0.18277551,-0.5806888,0.21343675,9.356230735778809,-0.24339993298053741,2.576185703277588,1.4361493587493896,6.762247562408447, -0.955430805683136
206,453362712,0.76481307,0.18232961,-0.57999563,0.21312419,9.228530883789062,-0.23019103705883026,2.393092155456543,1.367993712425232,6.659142971038818, -0.7218940854072571
207,453379379,0.7655735,0.18183222,-0.5792444,0.21286212,9.451171875,0.25919637084007263,2.7064034938812256,-2.0960283279418945,7.160025119781494, -1.3333461284637451
208,453396046,0.76629853,0.18152189,-0.5781227,0.21356669,9.679585456848145,0.07939492911100388,2.9163365364074707,-11.706294059753418,9.404830932617188, -1.5224584341049194
209,453412713,0.7673416,0.1806254,-0.5768267,0.21408527,9.505064964294434,-0.05429212376475334,2.8169236183166504,-14.942712783813477,12.238629341125488, -0.7153380513191223
210,453429380,0.76874745,0.17887828,-0.5759209,0.21294442,9.229093551635742,-0.004208569414913654,2.6113851070404053,-10.376432418823242,11.33509635925293, -1.5211652517318726
211,453446047,0.7693072,0.17926581,-0.5748459,0.21350022,8.976848602294922,-0.05749834328889847,2.6312732696533203,-3.0911459922790527,7.465763092041016, -3.3997018337249756
212,453462714,0.76954085,0.18045509,-0.5739677,0.21401882,9.1253662109375,-0.10052910447120667,2.6269876956939697,3.1426215171813965,3.9659674167633057, -5.493784427642822
213,453479381,0.77003044,0.18135583,-0.57327515,0.2133524,9.378815650939941,0.0928753986954689,2.8409476280212402,6.593013286590576,3.292917490005493, -7.848912715911865
214,453496048,0.7712519,0.18041386,-0.57293653,0.21063045,9.544551849365234,0.25792196393013,3.0538134574890137,-2.231250762939453,4.840858459472656, -9.078397750854492
215,453512715,0.77145225,0.1824178,-0.5715278,0.21199387,9.351287841796875,0.25677207112312317,2.8096702098846436,-7.251255035400391,5.741365909576416, -10.362751007080078
216,453529382,0.77245176,0.1825809,-0.5707788,0.21022396,9.392539024353027,0.26144939661026,2.937437057495117,-6.336483955383301,5.125968933105469, -12.82103443145752
217,453546049,0.7739422,0.18148033,-0.5702679,0.20705824,9.392868995666504,0.1362994760274887,2.6999459266662598,-10.503689765930176,6.26400899887085, -13.042372703552246
218,453562716,0.7741143,0.18373494,-0.5686322,0.20891649,9.282538414001465,0.1608956903219223,2.9449431896209717,-13.722776412963867,6.485598087310791, -12.077555656433105
219,453579383,0.7759445,0.18102075,-0.56840354,0.20508353,9.238601684570312,0.09867122769355774,3.3648226261138916,-21.653358459472656,7.591922760009766, -10.181558609008789
220,453596050,0.776937,0.18055321,-0.56728846,0.20482478,9.172517776489258,0.11539436131715775,2.8231258392333984,-21.724288940429688,8.883199691772461, -8.385973930358887
221,453612717,0.77799815,0.18001541,-0.5665835,0.20321557,9.42664623260498,0.8480815887451172,3.1431801319122314,-10.272467613220215,6.2763142585754395, -9.545527458190918
222,453629384,0.7797168,0.17823774,-0.56568736,0.20067668,9.895513534545898,1.5469999313354492,3.1684858798980713,-20.155305862426758,10.482372283935547, -10.542017936706543
223,453646051,0.7813292,0.17711885,-0.5647849,0.19791855,9.2040433883667,0.943406343460083,3.1861019134521484,-17.548654556274414,8.9128999710083, -14.152481079101562
224,453662718,0.782559,0.17640601,-0.5641911,0.19537447,8.609721183776855,-0.16522127389907837,2.642089366912842,-14.217090606689453,5.48198938369751, -13.573660850524902
225,453679385,0.7829214,0.17690732,-0.56412226,0.19366,8.677356719970703,-0.3141602575778961,2.469412326812744,-4.189689636230469,-1.3294792175292969, -12.072334289550781
226,453696052,0.78267163,0.17855816,-0.56424975,0.19278118,8.66628646850586,0.6777300238609314,2.795171022415161,5.753660678863525,-5.258022308349609, -11.008654594421387
227,453712719,0.78210914,0.18002792,-0.564898,0.19179547,8.42042350769043,0.9636446237564087,2.530503273010254,4.054690837860107,-9.16504955291748, -9.819108009338379
228,453729386,0.7812353,0.18152712,-0.56599665,0.19070151,8.688996315002441,1.1302037239074707,3.1490275859832764,3.5561022758483887,-12.963647842407227, -9.532746315002441
229,453746053,0.7802927,0.18267713,-0.56747556,0.18906093,10.06320858001709,0.4091777205467224,3.5150363445281982,-0.8218357563018799,-15.512812614440918, -10.505305290222168
230,453762720,0.7794081,0.18464917,-0.5688375,0.18668605,10.673293113708496,-0.04900364205241203,4.302902698516846,0.7895323634147644,-16.66829490661621, -17.8927001953125
231,453779387,0.77834594,0.18840648,-0.5701097,0.18345462,9.869585037231445,-2.6306426525115967,4.702785968780518,7.371593475341797,-20.30671501159668, -29.385578155517578
232,453796054,0.77668345,0.19562563,-0.57081175,0.18074106,9.597963333129883,-4.6917266845703125,4.7366042137146,29.46824073791504,-23.383771896362305, -40.32032012939453
233,453812721,0.77415943,0.20777105,-0.5700453,0.18043463,10.848018646240234,-3.3503029346466064,3.0443239212036133,68.29583740234375,-21.89734649658203, -47.945194244384766
234,453829388,0.77131057,0.22247277,-0.56850594,0.17996438,12.25500774383545,-0.7685018181800842,3.723177909851074,82.74004364013672,-22.469999313354492, -59.727142333984375
235,453846055,0.7691836,0.2361794,-0.5667129,0.17723602,14.36369800567627,-2.8999199867248535,6.90950345993042,67.87039184570312,-20.55303192138672, -69.18426513671875
236,453862722,0.7664932,0.25307325,-0.5635213,0.17574507,18.331378936767578,-3.840959072113037,6.566736698150635,92.25733947753906,-17.37714958190918, -76.84990692138672
237,453879389,0.7664654,0.27313542,-0.55534995,0.17179729,17.119064331054688,-0.12839005887508392,9.739747047424316,100.93276977539062,10.978885650634766, -114.24569702148438
238,453896056,0.7674667,0.28019738,-0.5534557,0.16177453,9.51740837097168,-3.012403964996338,-0.3426966369152069,-0.012627399526536465,-14.460792541503906, -86.18230438232422
239,453912723,0.76614434,0.28063947,-0.5570831,0.15467048,8.748525619506836,-5.5948591232299805,-4.664605617523193,-25.4796142578125,-39.30615997314453, -32.59227752685547
240,453929390,0.75941724,0.28224373,-0.5634681,0.1616407,7.75455904006958,-14.908791542053223,-1.3409674167633057,42.01398849487305,-48.318973541259766, 47.83546829223633
241,453946057,0.7470852,0.29096955,-0.5668735,0.18935408,5.810826778411865,-8.966161727905273,6.63685941696167,173.85887145996094,-22.102184295654297, 128.3239288330078
242,453962724,0.7419368,0.28221342,-0.56912065,0.21444644,4.6066107749938965,-0.14431613683700562,9.721124649047852,61.06666564941406,29.0010929107666, 170.93865966796875
243,453979391,0.7432471,0.26002273,-0.56871784,0.23776484,4.847402572631836,4.161874771118164,8.450997352600098,-22.978347778320312,83.7406997680664, 199.81790161132812
244,453996058,0.7481022,0.23278159,-0.56391007,0.2610774,5.543270587921143,7.376392841339111,5.907277584075928,-47.941123962402344,128.05072021484375, 206.07461547851562
245,454012725,0.7553583,0.20268944,-0.55633885,0.28078145,6.138580322265625,7.544832229614258,5.279500961303711,-76.21186065673828,150.73410034179688, 189.97265625
246,454029392,0.76291925,0.17195234,-0.54821205,0.29639527,11.639571189880371,9.3534574508667,-2.26707124710083,-94.01287841796875,150.23776245117188, 170.34185791015625
247,454046059,0.7678862,0.15426011,-0.53789353,0.3118096,13.070734024047852,11.938769340515137,-7.148622512817383,-18.924196243286133,125.40885925292969, 123.22822570800781
248,454062726,0.7689748,0.15653515,-0.5251596,0.32921433,14.71981143951416,8.372770309448242,-9.86439037322998,103.00062561035156,83.60887145996094, 66.21955871582031
249,454079393,0.7688192,0.15910731,-0.5192431,0.33762228,12.367680549621582,10.89052677154541,-7.959528923034668,57.888668060302734,33.34900665283203, 28.158655166625977
250,454096060,0.76872283,0.15207428,-0.52436155,0.33314246,10.454167366027832,7.424347400665283,-7.914770126342773,-64.72682189941406,-16.037195205688477, 6.7609686851501465
251,454112727,0.7661335,0.14655218,-0.53457826,0.3252512,10.476508140563965,4.898026943206787,-7.560359477996826,-78.20562744140625,-58.511985778808594, -5.315967082977295
252,454129394,0.7597774,0.14435893,-0.5488345,0.31730053,9.592601776123047,1.8456318378448486,-5.126509666442871,-66.16468048095703,-100.685302734375, -5.098827362060547
253,454146061,0.7509415,0.14264807,-0.5671025,0.3068114,7.9950270652771,2.5043694972991943,-4.193905830383301,-79.50406646728516,-134.24961853027344, -10.63545036315918
254,454162728,0.7395569,0.14625321,-0.5855206,0.29804587,6.413762092590332,0.4443797171115875,-2.0221166610717773,-43.145320892333984,-154.2379608154297, -16.772741317749023
255,454179395,0.7249895,0.1548536,-0.60386926,0.29283562,7.405211448669434,-2.2383177280426025,-5.862491607666016,-0.052857428789138794,-173.22850036621094, -12.294941902160645
256,454196062,0.69942874,0.16930038,-0.63000214,0.2919491,17.75354766845703,-6.538794040679932,-49.486541748046875,43.19184875488281,-264.5920104980469, 15.335142135620117
257,454212729,0.66297096,0.20282932,-0.6562462,0.29777658,25.320919036865234,2.6827621459960938,1.6324628591537476,176.9162139892578,-340.7685546875, -13.38028621673584
258,454229396,0.6324291,0.22030893,-0.68192005,0.29407924,3.434952735900879,-2.0479464530944824,14.30653190612793,53.625877380371094,-291.80908203125, 2.779103994369507
259,454246063,0.59572405,0.24227393,-0.70507836,0.29879904,19.26340103149414,-5.335930347442627,-5.237821578979492,127.05064392089844,-306.75732421875, 26.803627014160156
260,454262730,0.55975443,0.26827267,-0.72210795,0.3053931,11.634723663330078,9.078719139099121,-4.794990539550781,164.0263214111328,-283.1233825683594, 2.8916826248168945
261,454279397,0.5277948,0.28723422,-0.7398589,0.30255273,13.13890552520752,4.2953877449035645,-2.9565794467926025,81.25373077392578,-268.5058898925781, -5.307681083679199
262,454296064,0.50228626,0.295818,-0.7582025,0.29211152,12.00289535522461,-3.2815771102905273,-2.3423120975494385,-9.00191593170166,-231.28378295898438, 7.823694229125977
263,454312731,0.48414686,0.29888922,-0.7728905,0.28090477,9.98941421508789,-1.6026650667190552,-6.717283725738525,-39.69093322753906,-170.80859375, 11.61581039428711
264,454329398,0.46952122,0.29896152,-0.7857667,0.26970854,11.576080322265625,0.8276726007461548,-7.743070602416992,-53.32041549682617,-140.2247314453125, 17.104915618896484
265,454346065,0.4575217,0.29886448,-0.79643357,0.25893575,15.643506050109863,-0.8286101222038269,-7.271612167358398,-52.81757354736328,-117.6729736328125, 10.109102249145508
266,454362732,0.44773105,0.29789305,-0.80618584,0.24670064,16.547521591186523,-1.579439401626587,-6.234426021575928,-66.45237731933594,-104.21656036376953, 4.582146644592285
267,454379399,0.43933365,0.29507414,-0.8166059,0.23037396,16.992538452148438,-2.6266255378723145,-5.730896949768066,-98.80306243896484,-103.94718170166016, 1.3197964429855347
268,454396066,0.4328715,0.29017973,-0.82767504,0.20825964,16.52168083190918,-3.9389915466308594,-3.7173094749450684,-142.5581512451172,-103.70238494873047, -6.180472373962402
269,454412733,0.431162,0.2812607,-0.83832884,0.17943436,16.025196075439453,-1.7343913316726685,-0.23793183267116547,-201.70262145996094,-83.33855438232422, -10.835445404052734
270,454429400,0.43470377,0.269567,-0.84700423,0.14474218,16.045570373535156,-1.0754656791687012,0.3380637764930725,-251.5312042236328,-55.55290222167969, -22.419506072998047
271,454446067,0.44554275,0.25746185,-0.85075635,0.10685894,19.628955841064453,-1.4321949481964111,4.820217132568359,-280.0320129394531,-4.299928188323975, -45.84672546386719
272,454462734,0.46300086,0.24365951,-0.8498996,0.0627,13.358983039855957,-5.294254779815674,-2.111093521118164,-330.40277099609375,37.99441146850586, -68.14260864257812
273,454479401,0.45699888,0.23964459,-0.8560462,0.03012745,14.833476066589355,-7.002679347991943,-5.878164291381836,-195.29885864257812,-106.52238464355469, -66.75630950927734
274,454496068,0.44215193,0.2368285,-0.8651076,0.0017303708,11.928524017333984,-6.757630348205566,-1.1092522144317627,-153.15158081054688,-161.28726196289062, -54.34654998779297
275,454512735,0.42013136,0.23401912,-0.87654376,-0.019903785,19.08078956604004,-9.092020988464355,-1.2174229621887207,-101.39820861816406,-200.42051696777344, -30.155548095703125
276,454529402,0.38914573,0.23754291,-0.8896865,-0.024435809,17.004667282104492,-10.064723014831543,4.091061115264893,34.42068099975586,-231.42478942871094, -17.82537841796875
277,454546069,0.3576469,0.24081604,-0.9017795,-0.029836128,16.92620277404785,-9.122217178344727,6.919491767883301,28.854028701782227,-233.76576232910156, -20.809383392333984
278,454562736,0.32722512,0.24655892,-0.9116144,-0.033043392,16.80149269104004,-8.552329063415527,9.295156478881836,46.06098175048828,-218.0317840576172, -34.573219299316406
279,454579403,0.3014162,0.25596762,-0.91789263,-0.033196013,17.06578826904297,-3.1724507808685303,10.301412582397461,64.638427734375,-175.80409240722656, -55.91995620727539
280,454596070,0.28360412,0.26534078,-0.9208081,-0.035714738,14.999635696411133,-1.3927738666534424,9.923873901367188,34.7794303894043,-123.27021789550781, -64.810546875
281,454612737,0.27343956,0.27581623,-0.9208834,-0.033614293,13.328904151916504,-0.7184358835220337,6.978183746337891,51.599159240722656,-61.275150299072266, -66.15328979492188
282,454629404,0.2691275,0.28779766,-0.9188472,-0.021516101,11.559155464172363,-1.7776764631271362,4.352825164794922,106.25164794921875,-1.4971662759780884, -59.55561065673828
283,454646071,0.27194053,0.30000243,-0.91435593,0.0005926518,9.165595054626465,0.26622357964515686,3.14479923248291,155.52574157714844,67.44500732421875, -46.196067810058594
284,454662738,0.28452665,0.30971295,-0.9068719,0.026573464,7.202467441558838,1.0049113035202026,1.5008068084716797,155.19500732421875,142.13465881347656, -29.337465286254883
285,454679405,0.30657065,0.3170895,-0.8957454,0.055759422,6.813178539276123,0.9247182607650757,-0.7795839309692383,151.28567504882812,215.26673889160156, -17.808855056762695
286,454696072,0.33797225,0.32167456,-0.88037246,0.08511547,7.065179824829102,0.19037342071533203,-2.5384044647216797,127.79759216308594,283.1662902832031, -12.920336723327637
287,454712739,0.3777981,0.3209689,-0.8610401,0.11339121,7.972326278686523,-1.2269649505615234,-2.538168430328369,92.7242431640625,344.0183410644531, 3.0446441173553467
288,454729406,0.42455202,0.3132775,-0.83834356,0.13708839,8.901778221130371,-1.632871389389038,-3.4163291454315186,34.80405807495117,389.0765380859375, 19.726940155029297
289,454746073,0.4726737,0.29829365,-0.8133607,0.16138506,10.039438247680664,-4.37832498550415,-4.842616558074951,16.153034210205078,411.78778076171875, 57.287071228027344
290,454762740,0.5185202,0.2780605,-0.7853051,0.19265297,11.07386302947998,-4.010405540466309,-5.059014797210693,46.07704544067383,429.2304992675781, 105.43931579589844
291,454779407,0.56156814,0.25471768,-0.75275993,0.23046225,13.106395721435547,-1.3534893989562988,-3.178739070892334,81.53175354003906,446.89251708984375, 140.6431121826172
292,454796074,0.6012691,0.23224519,-0.7147147,0.2715155,16.02896499633789,-0.18728239834308624,-3.434631109237671,116.215576171875,455.2552490234375, 144.42190551757812
293,454812741,0.63629454,0.21316129,-0.67187285,0.31349382,16.988222122192383,1.2899662256240845,-4.667187690734863,151.14532470703125,447.47515869140625, 132.83470153808594
294,454829408,0.6672096,0.20121108,-0.6236814,0.35407218,17.017053604125977,3.0855021476745605,-6.28137731552124,193.40985107421875,434.8245849609375, 95.01494598388672
295,454846075,0.69426394,0.19755526,-0.5752573,0.38477075,18.12228775024414,2.5453314781188965,-10.423640251159668,194.9134979248047,385.903076171875, 23.448583602905273
296,454862742,0.71730155,0.1850737,-0.5396436,0.40001392,25.19127655029297,-5.985395431518555,-19.091739654541016,63.16162109375,311.7789306640625, 12.797225952148438
297,454879409,0.73854905,0.16524619,-0.5178096,0.398889,15.975590705871582,5.777990818023682,-19.431427001953125,-69.27806091308594,237.48870849609375, -18.327953338623047
298,454896076,0.7559051,0.1217662,-0.52517235,0.37144917,6.022187232971191,5.429899215698242,-31.617795944213867,-358.81787109375,111.16288757324219, -23.800167083740234
299,454912743,0.7593811,0.088401966,-0.5445666,0.34492454,6.826809883117676,0.6490789651870728,-36.06280517578125,-321.8645935058594,-25.72877311706543, -9.940102577209473
300,454929410,0.75012016,0.07788701,-0.569887,0.32631627,5.122668743133545,0.3765740990638733,-33.033172607421875,-178.9307403564453,-152.87351989746094, -20.27850341796875
301,454946077,0.7299444,0.07637134,-0.6048195,0.30909887,15.98813533782959,0.666222333908081,-36.71506118774414,-142.59043884277344,-264.0294494628906, -18.68000602722168
302,454962744,0.68793297,0.1095111,-0.6418067,0.3206865,25.414432525634766,-16.35406494140625,-48.018157958984375,158.61245727539062,-423.1330871582031, 29.302959442138672
303,454979411,0.6490754,0.16465446,-0.65818894,0.34406018,23.52416229248047,18.040904998779297,34.79557800292969,358.2806396484375,-350.50299072265625, -35.09032440185547
304,454996078,0.6110866,0.18566696,-0.6878275,0.34495547,17.528209686279297,-12.942476272583008,-2.034393548965454,71.35163116455078,-351.2280578613281, 32.32843780517578
305,455012745,0.57425874,0.21600823,-0.70362246,0.35844514,12.425084114074707,10.379966735839844,-6.697259902954102,201.4832000732422,-293.75543212890625, 20.39773941040039
306,455029412,0.54169667,0.23422824,-0.72303796,0.3590517,10.544646263122559,-0.5961591601371765,-6.159524440765381,76.00044250488281,-276.71734619140625, 23.163894653320312
307,455046079,0.5136494,0.25050068,-0.7358279,0.3632784,16.49820327758789,2.1669654846191406,-0.8580653667449951,95.80988311767578,-219.0279998779297, 24.467586517333984
308,455062746,0.4927785,0.25905484,-0.74838936,0.3605181,16.85714340209961,-1.5993143320083618,-1.436394453048706,21.37166404724121,-174.86041259765625, 20.573280334472656
309,455079413,0.47685567,0.26533562,-0.7579383,0.35740083,12.34106159210205,-1.9124932289123535,-5.501171112060547,10.450446128845215,-134.38014221191406, 13.448004722595215
310,455096080,0.4656578,0.26917306,-0.765299,0.35359067,11.724233627319336,-4.492546081542969,-6.156214714050293,-4.435988903045654,-97.94121551513672, 8.307538032531738
311,455112747,0.45959285,0.2707533,-0.77085173,0.34821653,12.079967498779297,-6.038866996765137,-6.632371425628662,-25.028669357299805,-62.63610076904297, -0.6708201766014099
312,455129414,0.45801252,0.26811227,-0.7769093,0.3387513,13.857317924499512,-7.038838863372803,-5.840314865112305,-69.64358520507812,-38.04823303222656, -1.0485177040100098
313,455146081,0.4591545,0.26544684,-0.7821915,0.32694322,14.901759147644043,-2.549968719482422,-5.793673992156982,-85.48873901367188,-25.41584587097168, -16.08517837524414
314,455162748,0.46164125,0.2628296,-0.787384,0.3127857,17.118227005004883,-0.8632854223251343,-4.984921932220459,-100.2513427734375,-22.383508682250977, -26.910396575927734
315,455179415,0.4674276,0.25751397,-0.7923964,0.29547554,19.39519500732422,0.04705158621072769,-1.9553507566452026,-131.48095703125,-3.944634437561035, -29.67405128479004
316,455196082,0.4770462,0.24844962,-0.79716307,0.27428204,18.430513381958008,1.2480181455612183,0.6319859027862549,-171.00218200683594,18.32696533203125, -29.88968276977539
317,455212749,0.49042243,0.23505254,-0.80247074,0.24551375,17.74795913696289,1.9776930809020996,3.3024075031280518,-234.21682739257812,32.23078155517578, -37.09505844116211
318,455229416,0.51403517,0.20772353,-0.8080475,0.19919373,13.953558921813965,-0.19539321959018707,4.1756672859191895,-395.2337646484375,82.82470703125, -36.219181060791016
319,455246083,0.5218988,0.19674313,-0.8141415,0.16151755,7.649266242980957,-2.2049574851989746,-4.107371807098389,-267.51751708984375,-16.740734100341797, -74.19290161132812
320,455262750,0.52005637,0.19553292,-0.8206051,0.13384901,8.946089744567871,-5.778224468231201,-0.4958120584487915,-163.68667602539062,-69.72338104248047, -81.72342681884766
321,455279417,0.5113102,0.19602625,-0.82998836,0.10608904,6.511809349060059,-7.38222074508667,1.5201722383499146,-151.54998779296875,-120.85413360595703, -81.45646667480469
322,455296084,0.49778208,0.19601768,-0.84172934,0.072677225,10.808709144592285,-5.080263137817383,2.196829319000244,-180.89236450195312,-163.74574279785156, -91.89007568359375
323,455312751,0.48147446,0.19524969,-0.8538694,0.031099932,12.942892074584961,-5.423902988433838,6.626896858215332,-227.2617950439453,-191.91432189941406, -113.59521484375
324,455329418,0.4610818,0.19953832,-0.86461794,-0.0048807953,13.030288696289062,-8.31539535522461,8.187443733215332,-171.87396240234375,-204.95166015625, -125.8190689086914
325,455346085,0.43744504,0.20851773,-0.87414545,-0.032125372,12.94972038269043,-9.284673690795898,10.604326248168945,-100.66510772705078,-208.31166076660156, -127.8688735961914
326,455362752,0.41282263,0.22092143,-0.8820964,-0.051742125,13.135042190551758,-9.25363540649414,12.142163276672363,-43.472354888916016,-197.89877319335938, -128.05416870117188
327,455379419,0.39004862,0.23579472,-0.88771486,-0.06500386,17.05736541748047,-8.967399597167969,11.014123916625977,-1.5694503784179688,-169.63201904296875, -127.93556213378906
328,455396086,0.36972374,0.2527309,-0.89143986,-0.06904097,20.603620529174805,-9.797844886779785,8.67350959777832,55.43782043457031,-133.83499145507812, -117.80729675292969
329,455412753,0.35149053,0.27218184,-0.89372456,-0.060232494,20.254026412963867,-7.179811954498291,8.067699432373047,136.23110961914062,-93.9546127319336, -102.11344146728516
330,455429420,0.33936545,0.2878092,-0.8940426,-0.05181571,17.815858840942383,-2.583366632461548,7.299628734588623,112.32563781738281,-54.082557678222656, -80.71774291992188
331,455446087,0.33653775,0.29830155,-0.8919488,-0.046758376,14.82706069946289,-3.465850830078125,3.7000486850738525,60.4488410949707,0.14729590713977814, -58.43513107299805
332,455462754,0.34278792,0.3072033,-0.88710403,-0.03419512,12.986711502075195,-1.5026741027832031,1.277238368988037,83.30638122558594,77.03800964355469, -34.03022003173828
333,455479421,0.36001801,0.3124607,-0.87889445,-0.01732019,11.035691261291504,-1.7593339681625366,0.38723063468933105,77.04725646972656,160.1913299560547, -6.140855312347412
334,455496088,0.38709924,0.31285647,-0.86732984,0.0037755212,9.947877883911133,-3.171478271484375,-1.1085903644561768,68.9660873413086,236.55447387695312, 27.676837921142578
335,455512755,0.42042542,0.30924597,-0.8524217,0.03141467,9.93579387664795,-4.270398139953613,-2.2887935638427734,83.98188781738281,296.9462890625, 61.658756256103516
336,455529422,0.45768523,0.3016426,-0.833785,0.06586817,10.491107940673828,-4.251031875610352,-3.7337453365325928,104.82223510742188,346.2253112792969, 96.01542663574219
337,455546089,0.49741858,0.2891483,-0.81113166,0.10504117,10.693184852600098,-3.6277012825012207,-4.093473434448242,113.17278289794922,385.1543884277344, 129.49468994140625
338,455562756,0.53913724,0.27052945,-0.783845,0.14741814,11.696105003356934,-2.048642158508301,-4.877354621887207,109.48999786376953,422.9914855957031, 164.01162719726562
339,455579423,0.5802029,0.24899293,-0.750847,0.19389746,13.457115173339844,0.35765767097473145,-5.318170070648193,127.81708526611328,451.3609619140625, 185.02877807617188
340,455596090,0.6199734,0.22926599,-0.7102615,0.24207176,17.490558624267578,3.357273578643799,-6.811983585357666,156.1733856201172,475.5509338378906, 171.2150115966797
341,455612757,0.6557945,0.2104899,-0.6657147,0.28714383,19.17137908935547,0.2954266369342804,-10.37016773223877,157.9093780517578,466.7119140625, 153.70382690429688
342,455629424,0.68740594,0.19874477,-0.61547893,0.33039278,24.503459930419922,1.323610544204712,-15.800951957702637,198.63514709472656,456.6531066894531, 113.37846374511719
343,455646091,0.71358985,0.18701568,-0.57104963,0.36016262,24.738666534423828,2.878821611404419,-21.229646682739258,135.76614379882812,387.75543212890625, 69.83723449707031
344,455662758,0.73362774,0.17087585,-0.54215163,0.3723756,18.35770606994629,-1.5712732076644897,-25.107593536376953,14.589519500732422,275.79302978515625, 36.2136116027832
345,455679425,0.7491163,0.1497634,-0.52826065,0.3705894,11.085908889770508,2.7536497116088867,-24.894662857055664,-95.71122741699219,179.5651092529297, 13.426142692565918
346,455696092,0.7581489,0.12635654,-0.5299883,0.35826927,9.071534156799316,3.7572522163391113,-31.934097290039062,-178.88394165039062,70.81383514404297, 0.08936797827482224
347,455712759,0.7578015,0.11081545,-0.54251224,0.3451633,6.581172943115234,2.6493101119995117,-31.88374900817871,-159.14532470703125,-39.53070068359375, -0.13088048994541168
348,455729426,0.74881,0.104508296,-0.5650009,0.33035737,6.128460884094238,2.5434789657592773,-28.56308364868164,-134.3943328857422,-146.75242614746094, -15.28097915649414
349,455746093,0.7323139,0.10801512,-0.5928987,0.31704938,9.634513854980469,3.8477888107299805,-22.400325775146484,-84.90330505371094,-224.8560333251953, -24.730331420898438
350,455762760,0.70368594,0.11579162,-0.629616,0.30822432,18.16118049621582,-11.919992446899414,-43.96900177001953,-55.30610275268555,-324.6676025390625, 13.4723482131958
351,455779427,0.6647629,0.16955313,-0.6474517,0.33188623,25.686025619506836,7.481715202331543,13.343716621398926,356.40960693359375,-349.40411376953125, -21.771825790405273
352,455796094,0.63053715,0.1969334,-0.670286,0.3381668,8.29380989074707,-1.6036278009414673,7.147670745849609,141.3262481689453,-311.33074951171875, 11.34123706817627
353,455812761,0.5950476,0.22272076,-0.68891853,0.34886283,19.687667846679688,-0.8856372833251953,-1.722769856452942,166.26390075683594,-289.3306579589844, 35.02448272705078
354,455829428,0.5645389,0.24373282,-0.704186,0.35498193,14.99738883972168,5.634459495544434,-0.16983497142791748,125.46546936035156,-247.51214599609375, 21.776992797851562
355,455846095,0.536851,0.26130527,-0.71800506,0.35774213,18.698471069335938,3.284573554992676,-1.040354609489441,94.62519836425781,-225.4886474609375, 16.092449188232422
356,455862762,0.51409394,0.2772578,-0.7281734,0.3586074,13.170308113098145,2.6620168685913086,-2.920397996902466,79.43604278564453,-187.12213134765625, -1.587680697441101
357,455879429,0.49663666,0.28714353,-0.73721933,0.35694334,9.901603698730469,-4.233305931091309,-4.509307384490967,37.976741790771484,-146.49720764160156, 4.650303840637207
358,455896096,0.48308364,0.294149,-0.7444354,0.3548557,12.42624568939209,-4.0590057373046875,-4.929636478424072,22.763320922851562,-114.2374038696289, 4.586090564727783
359,455912763,0.47498125,0.30204818,-0.74762636,0.3524409,11.925433158874512,-3.2095894813537598,-6.803925037384033,22.840009689331055,-75.82579040527344, -22.526586532592773
360,455929430,0.47217345,0.31050932,-0.74665844,0.3509096,12.205448150634766,-3.9707729816436768,-7.502884864807129,28.287866592407227,-34.55995559692383, -44.00185012817383
361,455946097,0.47303262,0.31793883,-0.7434169,0.3499806,14.381465911865234,-4.37604284286499,-7.336493968963623,25.67806625366211,-4.580358028411865, -50.4602165222168
362,455962764,0.4754188,0.3215881,-0.7414138,0.34765476,19.66314125061035,-1.3180999755859375,-4.051029682159424,-0.08774952590465546,5.234088897705078, -36.65147399902344
363,455979431,0.48101798,0.31454203,-0.74590105,0.33662537,21.395296096801758,-1.148041844367981,-0.7141527533531189,-102.042236328125,6.682722568511963, -3.881312608718872
364,455996098,0.48838907,0.29908,-0.7563746,0.3161089,20.74716567993164,2.4250898361206055,1.6656078100204468,-196.24537658691406,-5.1270318031311035, 16.79277229309082
365,456012765,0.49750856,0.28385943,-0.76606894,0.29162934,19.170692443847656,4.231195449829102,2.826915740966797,-217.9576873779297,-2.1671080589294434, -3.114091396331787
366,456029432,0.51133573,0.26586342,-0.77565205,0.25732586,17.128795623779297,2.520913600921631,11.579939842224121,-288.20574951171875,9.321901321411133, -31.69994354248047
367,456046099,0.5276316,0.24157463,-0.7856483,0.21448414,7.838672637939453,-0.7190306186676025,0.2334282398223877,-361.2085266113281,16.433019638061523, -31.73293685913086
368,456062766,0.52789664,0.22956821,-0.7989988,0.17385302,7.758938789367676,-1.5992406606674194,2.3663125038146973,-282.9661560058594,-96.84737396240234, -60.84591293334961
369,456079433,0.5217015,0.22305295,-0.81213045,0.13608438,7.011714458465576,-4.949811935424805,6.190621376037598,-236.83995056152344,-133.63922119140625, -73.25532531738281
370,456096100,0.51108915,0.21840422,-0.8256506,0.09689534,9.13379955291748,-7.6801228523254395,3.499945878982544,-231.683349609375,-163.70130920410156, -84.08903503417969
371,456112767,0.49341023,0.21826802,-0.83968663,0.061902415,11.75894546508789,-9.403958320617676,1.0646439790725708,-181.7616729736328,-202.39434814453125, -89.52861785888672
372,456129434,0.47085235,0.2244888,-0.8524721,0.034558006,13.079644203186035,-4.95945405960083,5.497564315795898,-108.2151870727539,-217.5878143310547, -100.13847351074219
373,456146101,0.44856623,0.23109098,-0.86333007,0.0068196915,11.144851684570312,-6.982149600982666,10.54532241821289,-109.27022552490234,-210.52789306640625, -106.73332977294922
374,456162768,0.42762053,0.23998481,-0.87136304,-0.0165693,10.606826782226562,-7.514185428619385,9.86417293548584,-78.40921020507812,-187.14356994628906, -111.51268005371094
375,456179435,0.40985394,0.24915113,-0.87664545,-0.037900537,13.214533805847168,-8.731515884399414,9.057961463928223,-70.8595199584961,-156.6654052734375, -111.31787109375
376,456196102,0.39564848,0.25929847,-0.8794105,-0.053518105,16.42202377319336,-10.81714153289795,7.4690775871276855,-40.44569778442383,-118.15673828125, -104.55915069580078
377,456212769,0.383373,0.27258322,-0.8806005,-0.057152413,18.39047622680664,-10.138988494873047,5.92190408706665,36.481815338134766,-79.79527282714844, -93.08493041992188
378,456229436,0.3738664,0.28578907,-0.8808203,-0.05200395,17.92498016357422,-6.922694206237793,5.911503791809082,83.83001708984375,-44.168907165527344, -70.22691345214844
379,456246103,0.3698491,0.29556686,-0.8796678,-0.045128044,14.974618911743164,-3.99615478515625,5.043489456176758,74.1728515625,-5.350752353668213, -45.78369140625
380,456262770,0.37280738,0.30160463,-0.87683785,-0.034710433,12.420683860778809,-4.792366981506348,1.8417617082595825,71.37806701660156,47.04560089111328, -15.415617942810059
381,456279437,0.3829618,0.3042478,-0.87207824,-0.015912544,11.128426551818848,-3.737938165664673,-0.18300648033618927,97.79605865478516,111.8843994140625, 24.241071701049805
382,456296104,0.4015601,0.30260345,-0.86435026,0.008924144,10.065435409545898,-3.055563449859619,0.07677532732486725,104.70938873291016,182.4737548828125, 60.57536315917969
383,456312771,0.4277568,0.29640687,-0.8530995,0.037260193,9.801297187805176,-2.712907552719116,-0.1710536777973175,97.33317565917969,244.92848205566406, 89.5082778930664
384,456329438,0.45967367,0.28689525,-0.8374335,0.07138985,11.349117279052734,-1.864540934562683,-1.90598726272583,111.0396499633789,304.1715087890625, 115.55110931396484
385,456346105,0.49559653,0.27527547,-0.8163985,0.11000454,12.07196044921875,0.41749051213264465,-1.4971121549606323,124.94393920898438,354.1605529785156, 129.3297882080078
386,456362772,0.53444797,0.26036397,-0.78980297,0.150955,13.213729858398438,2.1822636127471924,-2.250704050064087,125.5178451538086,396.53961181640625, 143.06491088867188
387,456379439,0.57524127,0.24180187,-0.75746846,0.19201791,13.794177055358887,5.623188495635986,-2.8948662281036377,115.22109985351562,432.2564392089844, 151.0511016845703
388,456396106,0.616099,0.21984813,-0.7203144,0.23073,16.274839401245117,5.705830097198486,-5.910821914672852,95.84899139404297,452.3017272949219, 151.36839294433594
389,456412773,0.6542599,0.20031436,-0.67743367,0.27000338,18.69669532775879,4.588213920593262,-8.20695972442627,122.1158218383789,460.30322265625, 137.42892456054688
390,456429440,0.6860961,0.18790588,-0.63039464,0.31075105,20.8330020904541,1.6324316263198853,-14.661189079284668,177.52056884765625,438.4179382324219, 116.93099212646484
391,456446107,0.71092105,0.17944072,-0.58564806,0.34555545,24.045841217041016,2.3235127925872803,-19.706085205078125,174.523193359375,381.14874267578125, 89.76038360595703
392,456462774,0.73145324,0.16096507,-0.5561883,0.3601685,18.44573974609375,6.200239658355713,-23.1561336517334,13.124217987060547,288.0727233886719, 60.41802978515625
393,456479441,0.74689215,0.13544871,-0.54450476,0.3568198,14.51140308380127,1.8584601879119873,-31.743799209594727,-129.27230834960938,176.90426635742188, 29.376388549804688
394,456496108,0.7546082,0.11600071,-0.5440995,0.34794572,7.13381814956665,2.8389456272125244,-31.7982234954834,-139.17735290527344,70.2654800415039, 7.78621768951416
395,456512775,0.7545752,0.10045333,-0.55711704,0.3318828,6.723744869232178,5.288910388946533,-33.414100646972656,-171.7036590576172,-43.22823715209961, -14.806890487670898
396,456529442,0.74589294,0.0950869,-0.57880306,0.31557795,5.791173934936523,4.017840385437012,-28.479412078857422,-133.54464721679688,-144.54107666015625, -29.263208389282227
397,456546109,0.7254247,0.0922271,-0.6128682,0.29940978,16.96632194519043,-6.064597129821777,-47.54922103881836,-139.2607879638672,-260.17572021484375, -4.820176601409912
398,456562776,0.6888698,0.1338804,-0.6408812,0.31113642,27.691123962402344,-4.283512592315674,-10.307881355285645,223.2384033203125,-371.5677795410156, -24.051807403564453
399,456579443,0.6585123,0.1644998,-0.6641142,0.31345478,11.9869966506958,3.119295597076416,28.075092315673828,134.004638671875,-306.48895263671875, -37.721649169921875
400,456596110,0.6240201,0.18763378,-0.69036883,0.31429824,24.010759353637695,0.4212411940097809,-5.491078853607178,91.46755981445312,-324.8198547363281, 2.09427547454834
401,456612777,0.5931822,0.21444784,-0.70615363,0.32170486,3.880633592605591,10.330538749694824,-7.2773027420043945,156.35487365722656,-261.9908752441406, -8.646125793457031
402,456629444,0.5637912,0.235467,-0.72188723,0.324921,12.618919372558594,-5.225770473480225,-1.823689579963684,110.3880615234375,-248.08724975585938, -0.8621810078620911
403,456646111,0.5351299,0.2553675,-0.73379415,0.3316169,15.104482650756836,2.345963716506958,-2.251096248626709,130.67730712890625,-221.52146911621094, 10.282602310180664
404,456662778,0.5120391,0.2674764,-0.74615943,0.33093604,13.756926536560059,0.04859933629631996,-2.050973415374756,53.95102310180664,-190.30670166015625, 10.547416687011719
405,456679445,0.49463058,0.27666324,-0.75476396,0.33034775,13.112634658813477,-0.7949648499488831,-5.879919052124023,42.233482360839844,-141.12533569335938, 6.010998725891113
406,456696112,0.48305407,0.2834629,-0.76059526,0.3283331,11.34571647644043,-3.113044261932373,-5.454202651977539,21.914857864379883,-98.73278045654297, -4.9788408279418945
407,456712779,0.47674537,0.28771248,-0.7640474,0.32583308,11.184713363647461,-2.822852849960327,-7.266271591186523,5.997704029083252,-58.48747634887695, -9.796594619750977
408,456729446,0.47483376,0.28975275,-0.76601154,0.3221843,12.267887115478516,-4.340096950531006,-7.718797206878662,-12.65272331237793,-27.840232849121094, -14.75355052947998
409,456746113,0.47615904,0.2917406,-0.7657952,0.31893277,16.017301559448242,-1.9930375814437866,-8.08059310913086,-12.365614891052246,-2.7711093425750732, -24.701725006103516
410,456762780,0.47998637,0.29149756,-0.7669441,0.31054652,18.76895523071289,-2.75083589553833,-3.3190877437591553,-54.71992111206055,0.5134075284004211, -32.49760818481445
411,456779447,0.4857404,0.2884989,-0.7688787,0.2994167,21.368749618530273,-0.7177509665489197,-2.229541778564453,-83.84368133544922,8.416306495666504, -29.540035247802734
412,456796114,0.49465892,0.2819604,-0.7715774,0.28368893,20.881860733032227,1.819834589958191,1.7536190748214722,-127.84253692626953,20.69825553894043, -31.145143508911133
413,456812781,0.5067466,0.27140376,-0.77580696,0.26013783,17.884109497070312,4.000730991363525,5.6094889640808105,-192.17138671875,24.88786506652832, -39.60267639160156
414,456829448,0.52971417,0.24384217,-0.7834766,0.21472898,14.715653419494629,1.4908368587493896,9.749262809753418,-394.6679382324219,60.481327056884766, -38.047176361083984
415,456846115,0.5386656,0.2297488,-0.7915887,0.17447668,6.570308685302734,-2.2850582599639893,-3.604971170425415,-294.898193359375,-28.043792724609375, -70.35493469238281
416,456862782,0.5349518,0.22550665,-0.8021192,0.13992192,8.773079872131348,-8.266410827636719,0.6572510004043579,-210.25941467285156,-108.77250671386719, -83.86881256103516
417,456879449,0.5241415,0.22387344,-0.8147272,0.10665871,7.315423965454102,-8.257436752319336,4.050848007202148,-184.5948028564453,-156.10797119140625, -83.5117416381836
418,456896116,0.5076545,0.22252765,-0.829411,0.06961316,11.553955078125,-7.512199401855469,1.3982728719711304,-197.59535217285156,-201.5025634765625, -91.46195983886719
419,456912783,0.4857421,0.22544889,-0.8438424,0.034023058,14.720247268676758,-7.616746425628662,4.844554424285889,-166.0295867919922,-231.43968200683594, -108.5615234375
420,456929450,0.46100783,0.23310208,-0.8562315,0.0017087365,13.914149284362793,-8.804317474365234,9.487627029418945,-126.39903259277344,-237.10154724121094, -127.6417007446289
421,456946117,0.4347351,0.245347,-0.8662023,-0.022452338,12.53398323059082,-9.664525985717773,11.17060375213623,-61.38311004638672,-225.5742645263672, -132.7351531982422
422,456962784,0.41073096,0.25838068,-0.8733733,-0.04193763,15.190277099609375,-9.425224304199219,11.731804847717285,-35.4766845703125,-195.78123474121094, -127.87066650390625
423,456979451,0.39006317,0.27423933,-0.87746304,-0.051981065,17.683589935302734,-9.398733139038086,9.402623176574707,22.353174209594727,-149.56607055664062, -122.71992492675781
424,456996118,0.37177208,0.2919062,-0.8797801,-0.05062901,18.841697692871094,-9.088048934936523,7.867541313171387,90.80181121826172,-108.46281433105469, -105.58982849121094
425,457012785,0.35641503,0.30937827,-0.8807269,-0.039670568,17.304170608520508,-6.155396461486816,8.518397331237793,142.0129852294922,-68.12511444091797, -81.60086059570312
426,457029452,0.3478832,0.32305175,-0.87963957,-0.029139409,15.27440071105957,-3.962205410003662,6.288593769073486,115.01869201660156,-23.868791580200195, -62.10237503051758
427,457046119,0.34683192,0.33185068,-0.87709373,-0.017013753,13.194071769714355,-5.217920780181885,3.147165536880493,96.0868911743164,27.3421573638916, -30.539812088012695
428,457062786,0.35390046,0.3386533,-0.8718079,0.0044231657,10.523198127746582,-2.3771848678588867,2.945672035217285,128.6138153076172,103.80088806152344, -1.5883066654205322
429,457079453,0.3719237,0.33947417,-0.8635464,0.026792362,9.37926197052002,-2.153104305267334,0.6543112993240356,94.22592163085938,179.03761291503906, 29.291717529296875
430,457096120,0.3983621,0.33479095,-0.8522367,0.053997267,9.107160568237305,-3.6916141510009766,-0.31072184443473816,89.77772521972656,249.1219940185547, 65.68836975097656
431,457112787,0.4305126,0.3264616,-0.8369306,0.08734354,9.841768264770508,-2.0917463302612305,-0.7006869316101074,104.10115814208984,309.0850524902344, 92.56725311279297
432,457129454,0.46591657,0.31531653,-0.8169952,0.12655427,10.673423767089844,-1.7746787071228027,-2.171785354614258,124.99478912353516,356.43585205078125, 113.80445861816406
433,457146121,0.5041596,0.30172288,-0.7909757,0.17071578,12.436192512512207,1.3062021732330322,-2.4940619468688965,144.11953735351562,404.8431396484375, 127.77863311767578
434,457162788,0.5455188,0.28239062,-0.75968146,0.21342205,12.936457633972168,2.377309560775757,-3.747129201889038,116.04489135742188,443.88336181640625, 139.3679962158203
435,457179455,0.5870515,0.26006275,-0.72276646,0.25563017,14.637005805969238,4.312194347381592,-4.59083366394043,110.14974975585938,469.3954162597656, 141.9990692138672
436,457196122,0.6281646,0.23453262,-0.68126464,0.29373848,19.22547149658203,3.9716835021972656,-7.685060501098633,85.68218231201172,484.19610595703125, 133.9220733642578
437,457212789,0.6637961,0.2122079,-0.6368419,0.3298107,20.98150634765625,3.698540210723877,-14.312762260437012,104.82870483398438,461.39544677734375, 116.49471282958984
438,457229456,0.69216317,0.19538626,-0.5945485,0.35950863,25.39832305908203,3.6476681232452393,-20.301420211791992,107.68498992919922,398.1072082519531, 82.86436462402344
439,457246123,0.71608794,0.17281978,-0.5632521,0.37429732,23.68102264404297,6.143986701965332,-21.787967681884766,-1.822175145149231,321.8583068847656, 61.17634582519531
440,457262790,0.73526806,0.13648407,-0.55384547,0.36607185,14.064929962158203,5.273085594177246,-30.491695404052734,-209.36143493652344,203.94068908691406, 39.50939178466797
441,457279457,0.7439168,0.11478097,-0.55234385,0.3582313,10.657447814941406,-0.23828083276748657,-34.80785369873047,-143.81063842773438,87.59156799316406, 19.732938766479492
442,457296124,0.7428462,0.11168957,-0.5579646,0.35267642,5.73086404800415,4.616135120391846,-33.2266845703125,-49.700347900390625,-29.54609489440918, -9.651571273803711
443,457312791,0.7330417,0.11556859,-0.5753305,0.3439317,8.734127044677734,4.608700752258301,-32.20212936401367,-48.02706527709961,-142.18504333496094, -22.424673080444336
444,457329458,0.71008927,0.118014835,-0.60951173,0.33217674,16.288188934326172,-11.516244888305664,-60.32658767700195,-96.40343475341797,-277.8136291503906, 12.586946487426758
445,457346125,0.6741411,0.16831368,-0.62847507,0.3496048,32.03744125366211,2.852529287338257,5.574626445770264,305.2040100097656,-343.3335266113281, -28.27973175048828
446,457362792,0.64480644,0.18848556,-0.6554882,0.34501186,5.839759349822998,2.4534196853637695,18.730098724365234,43.247581481933594,-305.01959228515625, -6.743852138519287
447,457379459,0.61030746,0.211857,-0.68133056,0.34413677,25.077014923095703,7.0203166007995605,-4.518940448760986,83.60569763183594,-326.0719299316406, 6.01173734664917
448,457396126,0.57954997,0.2368534,-0.6973294,0.34893286,5.856509685516357,6.34639835357666,-6.631075859069824,134.9595184326172,-262.78839111328125, -0.9709815382957458
449,457412793,0.5502597,0.25416744,-0.71538985,0.34760725,10.268653869628906,-8.922212600708008,0.9478127956390381,67.63785552978516,-255.476318359375, 11.293253898620605
450,457429460,0.5238856,0.2669594,-0.72859704,0.35131627,14.097735404968262,1.2266970872879028,-3.044254779815674,81.75348663330078,-203.19410705566406, 37.0360107421875
451,457446127,0.5038529,0.2743846,-0.7410235,0.34889773,13.711186408996582,0.6803537607192993,-2.959503650665283,21.981292724609375,-166.92303466796875, 25.085098266601562
452,457462794,0.4885725,0.2802422,-0.7497614,0.34730253,13.997116088867188,1.1723577976226807,-5.765789985656738,20.615724563598633,-124.64871215820312, 17.567495346069336
453,457479461,0.47883835,0.2844918,-0.75602204,0.34381527,11.926680564880371,-2.054351806640625,-5.906857967376709,0.7084471583366394,-87.56456756591797, 1.4937665462493896
454,457496128,0.4731055,0.2863402,-0.7609872,0.33923277,11.595200538635254,-3.718127489089966,-7.087774276733398,-17.665481567382812,-58.98291778564453, -1.625403642654419
455,457512795,0.47111878,0.28713396,-0.7643943,0.33362076,13.644285202026367,-3.1096906661987305,-8.478940963745117,-30.237510681152344,-33.89090347290039, -11.267779350280762
456,457529462,0.4725928,0.28635305,-0.7681797,0.32335442,17.056224822998047,-2.448824167251587,-3.0910303592681885,-67.50602722167969,-22.51055908203125, -25.25242805480957
457,457546129,0.47626463,0.2834701,-0.7722841,0.31047404,19.971561431884766,-1.8583347797393799,-4.8765082359313965,-93.2046890258789,-12.461780548095703, -26.879810333251953
458,457562796,0.48201078,0.27849132,-0.77706254,0.29373813,20.853328704833984,0.23556192219257355,-0.4340520203113556,-126.04552459716797,-6.740512371063232, -31.457653045654297
459,457579463,0.4901275,0.2711486,-0.7810224,0.27614743,18.861295700073242,1.7895485162734985,2.3020803928375244,-141.34698486328125,11.69446086883545, -27.972381591796875
460,457596130,0.500845,0.26322305,-0.7849265,0.25250393,15.520137786865234,4.054356098175049,4.449741840362549,-180.5892791748047,15.579849243164062, -50.23652267456055
461,457612797,0.5152843,0.2503576,-0.78997135,0.21851404,12.206896781921387,1.460202693939209,8.807680130004883,-262.20379638671875,21.492752075195312, -63.55986785888672
462,457629464,0.52724147,0.2380673,-0.7946529,0.1840309,8.696410179138184,-6.067636489868164,-2.0618505477905273,-258.05584716796875,7.461389064788818, -65.3026123046875
463,457646131,0.5237662,0.2364159,-0.803902,0.15335675,8.039881706237793,-11.359707832336426,1.2896301746368408,-179.21392822265625,-100.68407440185547, -82.65380096435547
464,457662798,0.51074946,0.2424546,-0.81461823,0.12941465,7.5109028816223145,-9.160001754760742,4.204627513885498,-100.41609191894531,-155.91770935058594, -88.54761505126953
465,457679465,0.49289685,0.24896179,-0.827478,0.10174033,11.413248062133789,-5.623044967651367,3.7362749576568604,-113.6001205444336,-197.24591064453125, -96.47362518310547
466,457696132,0.47339675,0.25244617,-0.8414723,0.06396073,15.069721221923828,-4.726150989532471,6.863955020904541,-179.39828491210938,-225.75096130371094, -110.48506927490234
467,457712799,0.45280054,0.25742468,-0.8533288,0.023118297,13.923440933227539,-7.37375545501709,11.801501274108887,-189.44842529296875,-231.22219848632812, -132.39198303222656
468,457729466,0.4308876,0.26649705,-0.8620937,-0.010473416,13.957202911376953,-9.483453750610352,11.950847625732422,-131.36585998535156,-217.2531280517578, -139.14886474609375
469,457746133,0.4092069,0.27825174,-0.8683097,-0.034119908,18.31485939025879,-10.809043884277344,10.5306396484375,-65.12229919433594,-190.0240478515625, -130.28292846679688
470,457762800,0.38846654,0.2943063,-0.8721518,-0.042767935,20.92357063293457,-11.829730987548828,9.599295616149902,34.11544418334961,-148.16461181640625, -118.13399505615234
471,457779467,0.36967957,0.31227383,-0.87427825,-0.038205378,20.552093505859375,-10.319533348083496,9.229485511779785,113.9087905883789,-104.74755096435547, -97.2540054321289
472,457796134,0.35537016,0.32722974,-0.87512904,-0.027968723,17.855560302734375,-7.039211750030518,8.515732765197754,130.3458709716797,-63.366615295410156, -66.30506896972656
473,457812801,0.34992075,0.33677408,-0.8739496,-0.018736763,14.137166976928711,-5.536461353302002,6.622788429260254,90.7068862915039,-8.537918090820312, -39.05900573730469
474,457829468,0.35352212,0.3429795,-0.8702662,-0.0049074623,11.57683277130127,-3.5890307426452637,3.1735987663269043,88.98993682861328,61.983577728271484, -12.564017295837402
475,457846135,0.3667877,0.34481576,-0.8639214,0.014457029,10.314635276794434,-2.707186460494995,0.9225425124168396,88.59358978271484,139.1310577392578, 21.08884620666504
476,457862802,0.38960898,0.34232095,-0.8540784,0.039641455,9.675086975097656,-2.4181883335113525,-0.07989969849586487,89.9184341430664,218.93426513671875, 52.25944137573242
477,457879469,0.41994962,0.33499733,-0.84062153,0.06909775,9.418694496154785,-3.404015302658081,-1.3572050333023071,85.33609008789062,284.1683044433594, 81.51380157470703
478,457896136,0.45471814,0.32478678,-0.8224974,0.106032625,10.555989265441895,-2.700443983078003,-2.501816749572754,112.22864532470703,341.9019775390625, 106.94557189941406
479,457912803,0.49278212,0.31098968,-0.7991792,0.14752649,11.225188255310059,-1.8814473152160645,-2.590794324874878,123.21846008300781,389.6604309082031, 127.48433685302734
480,457929470,0.5329945,0.29318193,-0.76987606,0.1930085,12.985828399658203,-0.34680747985839844,-4.01248836517334,133.02035522460938,434.45086669921875, 148.07276916503906
481,457946137,0.5734973,0.27325746,-0.7333793,0.24204609,15.211685180664062,3.319418430328369,-5.304078102111816,153.09706115722656,472.4593811035156, 157.4337921142578
482,457962804,0.61376464,0.24998383,-0.69080573,0.2891174,18.528339385986328,4.326455116271973,-7.920485019683838,140.61131286621094,497.2200622558594, 155.5677032470703
483,457979471,0.6505428,0.22718021,-0.6432187,0.33384582,21.979822158813477,2.2357711791992188,-12.850525856018066,147.49627685546875,496.91888427734375, 141.80035400390625
484,457996138,0.6813516,0.20993137,-0.59271765,0.37466615,24.050201416015625,4.343235969543457,-17.355018615722656,171.02182006835938,464.7632751464844, 108.88597869873047
485,458012805,0.7063436,0.19466192,-0.548685,0.40265465,24.511690139770508,4.157221794128418,-22.067750930786133,119.72166442871094,387.14581298828125, 65.04600524902344
486,458029472,0.72398967,0.1836238,-0.5160243,0.4193332,17.84066390991211,-1.7079540491104126,-27.510194778442383,76.03644561767578,277.4598693847656, 29.800128936767578
487,458046139,0.7335999,0.1787012,-0.49735674,0.42723948,9.901761054992676,-0.9572956562042236,-30.26848030090332,45.2398567199707,150.8065643310547, 5.311559200286865
488,458062806,0.7352083,0.17710224,-0.4952839,0.4275483,9.071282386779785,1.8265241384506226,-34.13888168334961,-2.756340503692627,20.90532684326172, -0.40655097365379333
489,458079473,0.7274555,0.18312065,-0.5061642,0.42552707,6.763208389282227,-3.5125885009765625,-29.7178897857666,1.2524230480194092,-101.3848876953125, 5.2487382888793945
490,458096140,0.7115293,0.1973707,-0.52425945,0.4241733,6.823027610778809,-3.866009473800659,-24.514774322509766,34.04053497314453,-188.9298553466797, 12.9431791305542
491,458112807,0.6905303,0.21084984,-0.5498039,0.42003083,12.454042434692383,0.8070213198661804,-18.886417388916016,5.458666801452637,-245.0146026611328, 26.960233688354492
492,458129474,0.6684174,0.2217182,-0.58080876,0.40831414,23.893102645874023,4.525949478149414,7.397153854370117,-49.643470764160156,-278.4454345703125, 12.030449867248535
493,458146141,0.64473796,0.23334807,-0.6142776,0.3905443,22.628854751586914,0.3030149042606354,-2.8781776428222656,-74.8255386352539,-307.4576721191406, -10.614977836608887
494,458162808,0.608925,0.26459536,-0.6374682,0.39093983,22.995132446289062,-6.082971572875977,-11.540077209472656,136.06253051757812,-336.6792297363281, 3.142801284790039
495,458179475,0.57903093,0.28708917,-0.6580335,0.38638702,4.771307468414307,1.205426573753357,-5.222836017608643,74.04930114746094,-285.0476379394531, 0.01058768481016159
496,458196142,0.553157,0.3045332,-0.6726115,0.38583797,9.883692741394043,-3.848334550857544,-3.6220314502716064,80.05368041992188,-221.6382293701172, 16.25172233581543
497,458212809,0.5319525,0.31465444,-0.68573153,0.38443673,13.237850189208984,-1.6116282939910889,-2.6291935443878174,42.34257507324219,-176.83604431152344, 31.362613677978516
498,458229476,0.51350456,0.32251498,-0.69594705,0.38464898,14.6110258102417,2.5206286907196045,-4.290904998779297,43.41120529174805,-143.7642059326172, 34.31855392456055
499,458246143,0.4987552,0.32606357,-0.70604736,0.38265258,14.03467082977295,0.48324647545814514,-4.344388008117676,9.751473426818848,-119.16255187988281, 37.1334114074707
500,458262810,0.48567638,0.3269936,-0.71641666,0.37939554,11.021519660949707,0.41055768728256226,-5.46445369720459,-9.775243759155273,-107.92877197265625, 41.739688873291016
501,458279477,0.47316292,0.32565373,-0.72860366,0.37309974,10.217883110046387,-2.0595102310180664,-6.936695575714111,-38.30057144165039,-112.13495635986328, 45.3967399597168
502,458296144,0.46411768,0.32460067,-0.7383493,0.366155,11.092183113098145,-4.5080671310424805,-5.752158164978027,-42.092308044433594,-89.00407409667969, 27.478679656982422
503,458312811,0.46301934,0.32215795,-0.7429737,0.3603019,15.503835678100586,-3.790917158126831,-7.751573085784912,-45.84648132324219,-26.39295768737793, 6.570484638214111
504,458329478,0.46855158,0.31835103,-0.7461268,0.34986693,21.458881378173828,-2.0008997917175293,-3.5081913471221924,-84.64801788330078,5.3854899406433105, -20.710880279541016
505,458346145,0.47872108,0.31083187,-0.7493601,0.33566236,22.671463012695312,-2.831242322921753,0.04014050215482712,-126.31661987304688,29.53113555908203, -24.72951889038086
506,458362812,0.49034512,0.3002831,-0.75330913,0.31924483,20.90479850769043,2.2629032135009766,-0.2368505448102951,-152.50885009765625,36.8298454284668, -18.169004440307617
507,458379479,0.5102815,0.27959415,-0.7599918,0.289573,19.878490447998047,5.95927095413208,10.278433799743652,-278.5799560546875,65.4705581665039, -22.832965850830078
508,458396146,0.5336928,0.25512254,-0.76696604,0.24869229,7.332434177398682,4.39849328994751,3.2059590816497803,-357.79913330078125,68.39253234863281, -48.63335037231445
509,458412813,0.54312104,0.23169865,-0.7829085,0.19593374,8.749279022216797,-4.02877950668335,-4.898013114929199,-407.48028564453125,-61.05657958984375, -58.032928466796875
510,458429480,0.54187715,0.21842736,-0.7976489,0.14971581,6.196178436279297,-7.1208271980285645,2.834479570388794,-315.66680908203125,-117.31706237792969, -75.80677795410156
511,458446147,0.5340434,0.20788437,-0.8132124,0.10132768,7.795294284820557,-8.773847579956055,0.9679254293441772,-308.4439392089844,-162.70172119140625, -90.90739440917969
512,458462814,0.52011734,0.20035952,-0.8285344,0.053524215,11.974533081054688,-7.616238594055176,1.7620595693588257,-285.279052734375,-197.22833251953125, -101.83024597167969
513,458479481,0.5001846,0.19759524,-0.8430156,0.009815378,14.448549270629883,-10.048768043518066,4.1058549880981445,-236.4141082763672,-224.6415557861328, -113.33324432373047
514,458496148,0.47651857,0.20265613,-0.8550578,-0.0271462,13.404026985168457,-11.361104965209961,9.605413436889648,-165.22628784179688,-229.356201171875, -138.65396118164062
515,458512815,0.4512554,0.2150738,-0.8643454,-0.054948825,11.472831726074219,-10.817024230957031,12.230240821838379,-85.63805389404297,-215.71961975097656, -156.1396942138672
516,458529482,0.42742705,0.2300938,-0.8708917,-0.07688191,16.578577041625977,-12.527782440185547,9.608264923095703,-45.910606384277344,-189.17149353027344, -156.99142456054688
517,458546149,0.40454707,0.25023183,-0.8757207,-0.08269906,20.45169448852539,-14.861903190612793,6.855248928070068,63.14551544189453,-150.40631103515625, -142.58335876464844
518,458562816,0.3820654,0.27491164,-0.8794355,-0.071014255,20.26953125,-11.272632598876953,8.292516708374023,179.7185516357422,-112.4262466430664, -123.01439666748047
519,458579483,0.36397773,0.29687646,-0.88104314,-0.056104798,17.531309127807617,-6.64421272277832,8.618692398071289,182.66627502441406,-75.7543716430664, -99.99537658691406
520,458596150,0.35407445,0.31156203,-0.8805753,-0.046344932,14.378647804260254,-5.429715156555176,6.3657660484313965,115.68894958496094,-34.4746208190918, -69.85212707519531
521,458612817,0.35263395,0.3220678,-0.8778776,-0.035394907,12.98261547088623,-4.941436290740967,3.5389132499694824,93.85154724121094,23.281221389770508, -43.72679901123047
522,458629484,0.35938638,0.32989562,-0.87274534,-0.018059194,11.078166961669922,-3.9013586044311523,0.6688045263290405,107.13426971435547,92.0294418334961, -15.46976089477539
523,458646151,0.37526345,0.33373475,-0.8647326,0.0060079396,10.021800994873047,-3.414691209793091,0.11397184431552887,116.59651947021484,168.633056640625, 19.707956314086914
524,458662818,0.3992435,0.3335713,-0.85331196,0.034550413,9.518259048461914,-3.078535318374634,-0.4964609444141388,114.40188598632812,236.0320281982422, 46.91157150268555
525,458679485,0.42856133,0.32968608,-0.83836526,0.06918201,10.220929145812988,-3.894148349761963,-2.33831787109375,128.49378967285156,291.90771484375, 76.11884307861328
526,458696152,0.4619334,0.32332373,-0.81847286,0.11036999,11.284201622009277,-0.5118041038513184,-2.31494140625,152.12948608398438,345.9589538574219, 96.5908432006836
527,458712819,0.49821672,0.31369317,-0.7933829,0.15466212,11.581039428710938,-0.4101805090904236,-3.5107014179229736,156.7087860107422,388.30731201171875, 111.09463500976562
528,458729486,0.5353144,0.30218482,-0.76155865,0.20530832,12.875545501708984,-0.34093427658081055,-4.197792053222656,190.38717651367188,431.6500244140625, 127.7492904663086
529,458746153,0.572297,0.287843,-0.723315,0.25775585,14.853432655334473,1.1970775127410889,-5.436614036560059,198.75106811523438,462.53680419921875, 136.06317138671875
530,458762820,0.608667,0.27047485,-0.67909384,0.30854383,18.69532012939453,1.3238332271575928,-7.5875749588012695,190.4527587890625,485.20294189453125, 133.86764526367188
531,458779487,0.64276534,0.25130442,-0.6302482,0.35564908,21.976036071777344,-0.22573694586753845,-10.424140930175781,179.8091583251953,491.02105712890625, 123.11876678466797
532,458796154,0.6717382,0.23667426,-0.57776904,0.39866805,23.120162963867188,1.5664103031158447,-13.562145233154297,199.90943908691406,466.7921142578125, 91.6275863647461
533,458812821,0.69685674,0.22187786,-0.53114945,0.42783353,23.422897338867188,3.1692585945129395,-15.796457290649414,134.1912078857422,402.3573913574219, 48.372276306152344
534,458829488,0.7174041,0.20393124,-0.4978765,0.44256368,20.917152404785156,-2.8919076919555664,-21.556804656982422,34.20115661621094,309.0440673828125, 24.62611198425293
535,458846155,0.73080134,0.19023682,-0.47738338,0.44927102,13.9642915725708,-1.797874927520752,-27.73775863647461,-1.0294908285140991,197.55209350585938, 10.223443984985352
536,458862822,0.73487025,0.18132713,-0.47545063,0.44836712,7.706939697265625,-1.3878649473190308,-35.73863983154297,-46.9720344543457,49.21907043457031, 9.43740463256836
537,458879489,0.72810423,0.18474421,-0.48640695,0.44625366,5.294119358062744,-1.260164499282837,-33.11754608154297,-14.7285795211792,-90.50519561767578, 12.574811935424805
538,458896156,0.71355265,0.19487146,-0.5075302,0.44190586,7.064690589904785,0.4534575343132019,-27.625566482543945,-9.78658390045166,-190.60621643066406, 15.79813003540039
539,458912823,0.6938676,0.2082468,-0.5345898,0.43519518,11.142753601074219,3.874695301055908,-22.061279296875,-13.139039039611816,-250.47598266601562, 16.466787338256836
540,458929490,0.6728875,0.21628492,-0.5685189,0.42098662,23.757205963134766,0.9362182021141052,4.958060264587402,-84.76134490966797,-282.61865234375, 14.102265357971191
541,458946157,0.6509152,0.22813801,-0.60273784,0.40121028,23.10658073425293,2.1019303798675537,6.063572883605957,-88.21365356445312,-307.2138671875, -23.243898391723633
542,458962824,0.61875343,0.2504163,-0.6325742,0.3927925,25.645679473876953,-10.372734069824219,-20.686203002929688,33.65052795410156,-340.8476867675781, 5.640193462371826
543,458979491,0.587664,0.2782131,-0.6530966,0.3882183,4.263894081115723,2.948955774307251,-5.607652187347412,97.21663665771484,-304.62615966796875, -21.081823348999023
544,458996158,0.56160533,0.29601142,-0.66889566,0.38672403,11.568828582763672,-5.525901794433594,-5.090733528137207,73.71002197265625,-230.30520629882812, 13.767949104309082
545,459012825,0.538959,0.3105285,-0.68125063,0.3859962,13.118739128112793,-1.1084318161010742,-0.6138249635696411,66.77096557617188,-191.013427734375, 15.635204315185547
546,459029492,0.51883864,0.32283023,-0.6901805,0.3876057,13.42984390258789,2.641780376434326,-3.956120491027832,73.19465637207031,-155.6639404296875, 20.611061096191406
547,459046159,0.50279486,0.32924727,-0.69940823,0.38680962,13.680800437927246,0.42612147331237793,-4.479602336883545,30.9501895904541,-127.05952453613281, 29.755474090576172
548,459062826,0.48873475,0.3345886,-0.70737326,0.3857615,11.235760688781738,-0.8951146602630615,-4.814499855041504,24.909011840820312,-110.89375305175781, 25.91777801513672
549,459079493,0.47750401,0.3368772,-0.71550566,0.38282558,10.69470500946045,-2.2240357398986816,-5.681309223175049,-1.4842933416366577,-93.96385955810547, 27.292001724243164
550,459096160,0.47150588,0.337534,-0.72049105,0.38032314,12.179484367370605,-3.2067983150482178,-6.745827674865723,-8.545090675354004,-52.60639953613281, 15.669525146484375
551,459112827,0.47138777,0.33708426,-0.7220724,0.37786135,13.10344123840332,-3.223397970199585,-6.999671459197998,-16.677717208862305,-9.465325355529785, -1.996486783027649
552,459129494,0.47562814,0.33571142,-0.72140473,0.37503472,17.648523330688477,-3.431328773498535,-5.152857780456543,-25.75321388244629,21.00843048095703, -15.12279224395752
553,459146161,0.4830511,0.32618788,-0.72675735,0.3634379,23.170135498046875,-1.5720630884170532,-0.6833584308624268,-118.80077362060547,17.847509384155273, 2.344519853591919
554,459162828,0.49697512,0.3051633,-0.7375503,0.34045646,25.887691497802734,0.43918266892433167,5.830547332763672,-242.1304473876953,35.38393020629883, 18.042308807373047
555,459179495,0.5279759,0.26745176,-0.74757814,0.30139342,18.55441665649414,2.7203192710876465,5.320874214172363,-415.01068115234375,129.82315063476562, 6.259862899780273
556,459196162,0.5453123,0.24506374,-0.7595808,0.25615504,8.20044994354248,7.145029067993164,1.2986024618148804,-370.0289306640625,9.079981803894043, -62.89192581176758
557,459212829,0.5515595,0.22773801,-0.7747954,0.2088298,8.723455429077148,-6.131519794464111,-7.056436538696289,-348.8703308105469,-73.42877960205078, -72.11670684814453
558,459229496,0.54518163,0.2223581,-0.78946424,0.17343645,7.15044641494751,-9.66080379486084,-0.19004762172698975,-219.37437438964844,-137.08084106445312, -73.25733947753906
559,459246163,0.5328223,0.21779296,-0.8068909,0.1326421,9.304990768432617,-5.177928924560547,-2.130697250366211,-239.9317626953125,-189.19253540039062, -86.66547393798828
560,459262830,0.5167251,0.21265444,-0.82524425,0.082129054,14.429193496704102,-3.6683011054992676,2.5094528198242188,-291.29791259765625,-227.4435272216797, -114.37352752685547
561,459279497,0.49586654,0.21065263,-0.8419047,0.03063514,14.720749855041504,-7.269787311553955,4.830191612243652,-277.86871337890625,-251.77186584472656, -135.49961853027344
562,459296164,0.46908563,0.21801251,-0.85577744,-0.008628684,13.420083999633789,-10.727668762207031,7.710677623748779,-165.96803283691406,-260.8909606933594, -150.8651580810547
563,459312831,0.43866068,0.23213738,-0.86743987,-0.03517245,13.114787101745605,-10.896112442016602,9.310052871704102,-64.06177520751953,-255.8560791015625, -153.2565155029297
564,459329498,0.40667254,0.25129366,-0.8769735,-0.048851307,13.157255172729492,-10.781336784362793,10.606954574584961,29.741588592529297,-237.1459503173828, -148.3214874267578
565,459346165,0.37682432,0.27250123,-0.883624,-0.05436229,15.7866849899292,-9.014684677124023,10.577104568481445,79.96973419189453,-201.53456115722656, -142.17100524902344
566,459362832,0.35071862,0.29364333,-0.8876529,-0.053316202,19.298233032226562,-11.123188018798828,7.593097686767578,111.57599639892578,-159.91481018066406, -128.3359375
567,459379499,0.3258495,0.31679848,-0.89001054,-0.03663729,19.20209503173828,-8.160249710083008,7.5881829261779785,208.6511993408203,-116.24089813232422, -105.8739013671875
568,459396166,0.30781165,0.33523327,-0.8901807,-0.021188414,17.183870315551758,-1.9244544506072998,9.268912315368652,175.02357482910156,-73.589599609375, -82.76197052001953
569,459412833,0.3011353,0.34622085,-0.8883667,-0.015918415,13.488851547241211,-3.176145076751709,5.598170280456543,70.47115325927734,-24.55801010131836, -61.611934661865234
570,459429500,0.3038232,0.35418478,-0.8844306,-0.0052087754,10.822430610656738,-3.0873546600341797,2.948756217956543,74.89542388916016,49.538185119628906, -35.89927291870117
571,459446167,0.31711954,0.3590544,-0.87771803,0.01123532,9.822218894958496,-1.011013150215149,2.2018120288848877,77.35015869140625,133.63760375976562, -11.477764129638672
572,459462834,0.3407465,0.3596968,-0.8680334,0.032066293,9.335244178771973,-1.661651849746704,1.2114592790603638,69.33119201660156,213.59226989746094, 15.473158836364746
573,459479501,0.37279567,0.3560696,-0.85487646,0.058515903,9.648934364318848,-2.939253568649292,0.5537615418434143,72.78470611572266,286.8464660644531, 43.67978286743164
574,459496168,0.40990078,0.3492937,-0.8374449,0.09306759,11.269302368164062,-2.5759670734405518,-0.2723674774169922,101.65166473388672,348.66961669921875, 70.46434783935547
575,459512835,0.45019752,0.33894706,-0.8151469,0.1340626,12.632274627685547,-1.681143045425415,-1.078879475593567,124.1224365234375,398.58758544921875, 95.46142578125
576,459529502,0.49273157,0.3251394,-0.7867993,0.1801305,14.242788314819336,0.5661686658859253,-1.580349326133728,142.2027587890625,444.9599304199219, 114.41283416748047
577,459546169,0.53639144,0.30710614,-0.7518112,0.22967355,15.483968734741211,0.31825020909309387,-3.176143169403076,152.40982055664062,486.6661071777344, 132.83802795410156
578,459562836,0.5793592,0.28496802,-0.7102869,0.2804083,17.293777465820312,3.3277814388275146,-4.678140640258789,155.2538604736328,516.3176879882812, 145.76206970214844
579,459579503,0.6222205,0.25436422,-0.66617805,0.32302853,21.653249740600586,5.268527507781982,-4.289402484893799,87.0851821899414,526.5840454101562, 149.94554138183594
580,459596170,0.6628914,0.21064243,-0.6269586,0.35089576,26.714454650878906,5.178526878356934,-18.46068572998047,-43.714500427246094,498.96575927734375, 160.35995483398438
581,459612837,0.6912851,0.18121876,-0.58903235,0.37726083,27.4931697845459,5.021914005279541,-25.805179595947266,29.6863956451416,403.4985656738281, 123.33690643310547
582,459629504,0.71185255,0.1562376,-0.56081384,0.39286584,19.420608520507812,5.055909156799316,-23.416818618774414,-8.101449012756348,300.90594482421875, 86.67445373535156
583,459646171,0.7251891,0.13739254,-0.54371405,0.39949885,14.726211547851562,2.0150582790374756,-30.322574615478516,-34.82499694824219,192.59744262695312, 50.68037414550781
584,459662838,0.73071223,0.13229254,-0.53483737,0.4031222,8.162944793701172,4.322740077972412,-29.870346069335938,7.413515567779541,82.0764389038086, 13.635454177856445
585,459679505,0.7285696,0.13085328,-0.5402974,0.40017822,4.8768086433410645,1.156463623046875,-29.299428939819336,-30.974498748779297,-33.98514175415039, 1.5830366611480713
586,459696172,0.7206879,0.13610004,-0.5538009,0.39419588,5.563223838806152,0.2562880516052246,-22.591096878051758,-25.608165740966797,-116.48139190673828, -15.386638641357422
587,459712839,0.7089194,0.14408042,-0.57388616,0.3838347,6.458495140075684,-0.12232869863510132,-18.11505889892578,-42.836761474609375,-175.22291564941406, -30.77149772644043
588,459729506,0.69298035,0.15577938,-0.59842765,0.3706689,7.956000804901123,-3.728156328201294,-21.78021812438965,-43.33590316772461,-225.857177734375, -43.69248962402344
589,459746173,0.6733448,0.16548316,-0.6274976,0.35421622,24.211149215698242,-4.199763774871826,2.222289562225342,-73.88247680664062,-260.9134216308594, -36.90764236450195
590,459762840,0.6413023,0.18816727,-0.65460455,0.35329524,26.859386444091797,-19.75362205505371,-4.183568000793457,72.23846435546875,-319.3568115234375, 6.963095188140869
591,459779507,0.6038234,0.2295804,-0.6709036,0.3641134,16.02079963684082,14.985033988952637,-7.076392650604248,240.98562622070312,-326.4828796386719, -26.626567840576172
592,459796174,0.5748937,0.2511238,-0.68960756,0.3617675,8.02617073059082,0.3666296601295471,-8.384664535522461,78.35009002685547,-267.9128112792969, -7.118483543395996
593,459812841,0.55076605,0.26733476,-0.702189,0.36348253,13.105493545532227,0.4960404634475708,-2.734281539916992,83.49195861816406,-200.5800323486328, 11.64417552947998
594,459829508,0.5300334,0.27774212,-0.7142799,0.36294395,13.984365463256836,-0.060756925493478775,-2.900266170501709,45.6156120300293,-171.97547912597656, 21.708982467651367
595,459846175,0.51355684,0.28388172,-0.7236919,0.36323652,12.339262962341309,0.2545177936553955,-5.455558776855469,32.72074890136719,-129.09446716308594, 29.939096450805664
596,459862842,0.4998163,0.2874943,-0.73178023,0.36335757,12.872725486755371,-0.7485587000846863,-5.488803386688232,20.954612731933594,-104.83991241455078, 32.47980880737305
597,459879509,0.48428154,0.2953332,-0.7377878,0.36594954,10.787151336669922,-2.4580800533294678,-6.891585826873779,56.67357635498047,-112.40482330322266, 20.0584716796875
598,459896176,0.4710025,0.30418298,-0.74248195,0.3665379,12.318835258483887,-2.0276119709014893,-6.644109725952148,48.604347229003906,-103.19171142578125, -0.12417605519294739
599,459912843,0.4679013,0.30857226,-0.7436986,0.36436778,14.79863166809082,-3.6972122192382812,-6.2673869132995605,7.567807674407959,-34.49887466430664, -19.225488662719727
600,459929510,0.47133428,0.309448,-0.7442095,0.35810357,21.656360626220703,-2.589365243911743,-3.3306221961975098,-36.77785110473633,1.2902183532714844, -32.29405212402344
601,459946177,0.48059818,0.30290264,-0.7476362,0.3439702,23.132896423339844,-2.539585590362549,-0.7895902395248413,-120.71685791015625,23.151161193847656, -27.922412872314453
602,459962844,0.49260026,0.29160845,-0.7524032,0.32588202,21.575450897216797,2.2482595443725586,2.002490520477295,-165.65830993652344,35.70347213745117, -20.194076538085938
603,459979511,0.5173685,0.26343814,-0.76076263,0.29012135,22.788259506225586,5.851588726043701,13.350245475769043,-348.0361328125,91.86836242675781, -14.020350456237793
604,459996178,0.53848183,0.2396628,-0.7692178,0.24678545,3.489967107772827,7.114720821380615,-4.518953323364258,-365.656494140625,49.649635314941406, -56.358150482177734
605,460012845,0.5454244,0.22663629,-0.780714,0.20404395,10.240193367004395,-5.2813544273376465,-7.381485462188721,-304.40130615234375,-53.87400436401367, -81.84251403808594
606,460029512,0.54038,0.22608306,-0.7914794,0.17446055,6.835805416107178,-10.787477493286133,-0.2502050995826721,-167.26644897460938,-112.46131134033203, -83.79074096679688
607,460046179,0.5291832,0.22633545,-0.80577236,0.13952884,9.252646446228027,-5.656895637512207,-2.6358962059020996,-188.17071533203125,-168.39410400390625, -95.30218505859375
608,460062846,0.5139002,0.22553991,-0.8221753,0.095216475,14.28394889831543,-2.9659390449523926,1.4089832305908203,-239.7265625,-212.37400817871094, -116.50997924804688
609,460079513,0.49546385,0.2250609,-0.83767235,0.04656473,14.617506980895996,-6.187635898590088,5.175556659698486,-257.7440490722656,-234.059326171875, -133.03268432617188
610,460096180,0.47214198,0.2320392,-0.8504199,0.005082071,13.876470565795898,-9.890575408935547,7.83351469039917,-182.62037658691406,-244.2421875, -154.34661865234375
611,460112847,0.4447305,0.246216,-0.8608089,-0.024509978,13.784645080566406,-11.263127326965332,9.717734336853027,-83.22348022460938,-241.9244842529297, -161.55250549316406
612,460129514,0.41560796,0.26419598,-0.86920714,-0.04415191,13.715641975402832,-10.451180458068848,11.7197847366333,-10.245434761047363,-228.64825439453125, -157.40615844726562
613,460146181,0.38830024,0.2838113,-0.87493145,-0.056293514,16.95642852783203,-9.661194801330566,11.677469253540039,35.03666305541992,-196.23452758789062, -150.13555908203125
614,460162848,0.36386898,0.3045911,-0.8781798,-0.060199358,20.322725296020508,-10.2327241897583,9.800481796264648,81.02421569824219,-156.02711486816406, -138.9381103515625
615,460179515,0.34149444,0.32625514,-0.8798857,-0.052349046,20.763296127319336,-9.512407302856445,9.193825721740723,149.17149353027344,-115.02888488769531, -117.29753112792969
616,460196182,0.3241957,0.3446158,-0.8800484,-0.040644415,17.76531410217285,-4.305639266967773,9.506929397583008,152.67906188964844,-73.51331329345703, -89.90747833251953
617,460212849,0.31775248,0.35470012,-0.87853795,-0.037314706,14.187612533569336,-5.077996730804443,6.546189308166504,57.318702697753906,-26.484657287597656, -59.41712951660156
618,460229516,0.3194431,0.3618403,-0.87538975,-0.026849657,11.242591857910156,-6.023172855377197,2.8684520721435547,73.67535400390625,42.6909294128418, -27.957643508911133
619,460246183,0.3303317,0.36614963,-0.8699231,-0.007035067,9.525856971740723,-3.7286970615386963,1.38519287109375,100.33883666992188,125.75886535644531, 5.558674335479736
620,460262850,0.35219133,0.36560127,-0.86137086,0.018366905,8.374195098876953,-3.5850412845611572,0.8440028429031372,94.903076171875,212.15744018554688, 40.07793426513672
621,460279517,0.38281763,0.35966557,-0.84954935,0.04855342,8.723072052001953,-4.188328266143799,-0.5273484587669373,88.50434875488281,284.68988037109375, 74.2529525756836
622,460296184,0.41839823,0.3500529,-0.8335403,0.08727236,9.844654083251953,-4.716911315917969,-1.5844025611877441,117.74195861816406,347.0194091796875, 106.18457794189453
623,460312851,0.45647967,0.3375447,-0.8121884,0.13431442,11.413647651672363,-2.9070146083831787,-1.5468401908874512,154.2379150390625,398.5714416503906, 132.3631134033203
624,460329518,0.49771538,0.32112992,-0.78430015,0.18446809,13.652043342590332,0.37911754846572876,-1.5476689338684082,158.01734924316406,447.6270751953125, 145.8535614013672
625,460346185,0.5418153,0.29818028,-0.7501524,0.23408565,15.925460815429688,0.9861668944358826,-3.146824598312378,134.38006591796875,491.71148681640625, 161.79965209960938
626,460362852,0.58540493,0.27042386,-0.70986515,0.28330815,18.931392669677734,2.330390453338623,-4.604087829589844,125.39220428466797,519.0007934570312, 173.34523010253906
627,460379519,0.62627834,0.24086234,-0.66359144,0.33076775,23.30229949951172,2.6121816635131836,-7.166064739227295,126.28050231933594,530.189697265625, 169.2176055908203
628,460396186,0.6618701,0.21635301,-0.61122465,0.37619662,26.377796173095703,2.2433764934539795,-12.571088790893555,161.55596923828125,517.5675048828125, 139.36595153808594
629,460412853,0.6916799,0.19592543,-0.5601724,0.4115814,27.971681594848633,4.323142051696777,-15.720829010009766,142.97842407226562,461.8641052246094, 93.3651123046875
630,460429520,0.7146699,0.17235862,-0.52310544,0.43116155,26.120716094970703,1.6777551174163818,-22.030370712280273,36.830692291259766,356.7666015625, 68.52435302734375
631,460446187,0.72859883,0.15882175,-0.49740756,0.4432892,15.07824993133545,0.939332127571106,-30.886951446533203,36.58961486816406,230.0079345703125, 36.342506408691406
632,460462854,0.73439187,0.15408508,-0.48644248,0.44754905,7.411667346954346,6.349660396575928,-35.709388732910156,17.947105407714844,93.35429382324219, 7.870848655700684
633,460479521,0.73138255,0.15584509,-0.4933852,0.44425544,5.150805473327637,-0.1521271914243698,-35.09295654296875,-20.08693504333496,-54.084381103515625, -5.72276496887207
634,460496188,0.7207959,0.16581756,-0.5117877,0.4370713,6.884088516235352,0.21152228116989136,-28.278621673583984,-18.67890167236328,-166.2974090576172, -17.633888244628906
635,460512855,0.70393926,0.17988619,-0.5377836,0.4276674,9.365769386291504,-4.634485721588135,-24.431142807006836,-21.690608978271484,-240.5479278564453, -15.48758602142334
636,460529522,0.68307394,0.1879607,-0.57113826,0.41458634,22.354915618896484,-2.776599407196045,-4.860378265380859,-80.84021759033203,-277.66400146484375, 9.7494535446167
637,460546189,0.6586075,0.20305717,-0.60398835,0.40025267,27.54292869567871,-4.551513195037842,8.881465911865234,-46.54953384399414,-311.0099182128906, -14.080032348632812
638,460562856,0.6228431,0.23058842,-0.63341105,0.39709735,26.07073402404785,-7.028307914733887,-15.886826515197754,81.40138244628906,-361.14031982421875, 11.124907493591309
639,460579523,0.58880216,0.2613578,-0.6549537,0.39501867,4.00510835647583,3.0168850421905518,-6.633098602294922,118.89840698242188,-326.7908630371094, -15.690431594848633
640,460596190,0.56172854,0.28029683,-0.67096,0.3945979,9.510997772216797,-3.8429179191589355,-6.628653049468994,81.07748413085938,-237.7715606689453, 15.37647533416748
641,460612857,0.53957534,0.29220563,-0.6848997,0.39292094,14.991997718811035,0.925289511680603,0.1935199499130249,44.253543853759766,-190.382080078125, 25.51392936706543
642,460629524,0.5195298,0.3032678,-0.69520754,0.39345136,14.343971252441406,2.791809558868408,-4.100335597991943,57.0871467590332,-160.3236541748047, 24.67636489868164
643,460646191,0.50332326,0.3093962,-0.70476013,0.3927503,14.19072151184082,0.5619447827339172,-4.994692325592041,27.682737350463867,-128.52001953125, 31.9110164642334
644,460662858,0.48758775,0.31621918,-0.71247476,0.39324743,10.989423751831055,-0.6713849306106567,-6.4531636238098145,39.88740539550781,-119.2265396118164, 27.503185272216797
645,460679525,0.4718824,0.32352513,-0.7195982,0.3934936,10.432845115661621,-2.1993346214294434,-6.082411766052246,41.83928680419922,-118.95064544677734, 22.89799690246582
646,460696192,0.46288896,0.32847825,-0.72352123,0.39287788,12.2670316696167,-4.259397029876709,-5.944972038269043,23.67046356201172,-70.9120864868164, 6.42746114730835
647,460712859,0.462416,0.32943448,-0.724429,0.39095667,13.137935638427734,-3.499415397644043,-6.973071098327637,-6.654107093811035,-11.09473705291748, -7.695699691772461
648,460729526,0.4676473,0.32735974,-0.72469306,0.38595536,18.3765869140625,-2.6248221397399902,-5.654806137084961,-42.828067779541016,20.532665252685547, -19.170448303222656
649,460746193,0.4790905,0.31893983,-0.72752994,0.3734299,22.637964248657227,-2.3752126693725586,0.3244571089744568,-121.55255126953125,43.08408737182617, -22.37594985961914
650,460762860,0.50373447,0.29214826,-0.7337162,0.35008806,25.15763282775879,1.4707932472229004,4.23627233505249,-273.8570251464844,121.44206237792969, 7.470855712890625
651,460779527,0.5305954,0.2629507,-0.74148786,0.31547007,14.269491195678711,7.805790424346924,2.1448631286621094,-347.4690856933594,110.09297180175781, -21.420454025268555
652,460796194,0.5486507,0.24078692,-0.754505,0.26781774,9.220118522644043,9.662334442138672,-0.36241960525512695,-383.74078369140625,7.048133850097656, -76.07273864746094
653,460812861,0.55520684,0.22355829,-0.7700968,0.22072203,8.563885688781738,-6.23291540145874,-7.917918682098389,-347.82452392578125,-70.62944030761719, -73.96367645263672
654,460829528,0.5502815,0.21618223,-0.78578943,0.18163364,6.492008209228516,-11.214212417602539,-0.7441465854644775,-250.27313232421875,-134.4579620361328, -78.03369140625
655,460846195,0.538083,0.21080564,-0.80442554,0.13757688,11.124641418457031,-8.458884239196777,-3.037588596343994,-262.6121826171875,-194.8717498779297, -94.328125
656,460862862,0.5213196,0.20576093,-0.8238643,0.084475964,16.21767807006836,-5.984240531921387,2.465578556060791,-305.7443542480469,-236.62359619140625, -124.28221893310547
657,460879529,0.5001951,0.2054538,-0.840589,0.031683322,15.863320350646973,-7.839440822601318,5.486206531524658,-279.3313903808594,-254.06512451171875, -151.4412384033203
658,460896196,0.47498435,0.2134823,-0.85359794,-0.0136349145,15.195359230041504,-9.491303443908691,8.538533210754395,-200.98513793945312,-256.31158447265625, -178.38473510742188
659,460912863,0.4470971,0.22671178,-0.8638808,-0.04915261,14.077735900878906,-12.465332984924316,9.683019638061523,-122.87413787841797,-248.40773010253906, -181.2959442138672
660,460929530,0.41818085,0.24471529,-0.8718799,-0.071168765,14.681997299194336,-13.201650619506836,10.484501838684082,-27.325298309326172,-225.02696228027344, -172.17446899414062
661,460946197,0.39120603,0.2673697,-0.8770295,-0.07931288,18.426637649536133,-10.864253044128418,9.79686450958252,64.40023803710938,-179.79244995117188, -164.1281280517578
662,460962864,0.3666227,0.29082003,-0.8804607,-0.07616119,19.928014755249023,-10.699982643127441,9.112516403198242,129.2027587890625,-139.80642700195312, -140.482177734375
663,460979531,0.34450737,0.3138262,-0.8826386,-0.06145768,18.180524826049805,-7.222114562988281,9.300628662109375,192.303466796875,-99.12347412109375, -109.92759704589844
664,460996198,0.32967806,0.3301426,-0.8830889,-0.049722996,14.680085182189941,-5.4540510177612305,8.188630104064941,141.8972930908203,-60.29159164428711, -77.0010986328125
665,461012865,0.32298684,0.34169763,-0.8818492,-0.035557326,11.280599594116211,-6.407793998718262,4.425478935241699,126.75868225097656,-3.3518776893615723, -43.61335372924805
666,461029532,0.32552707,0.34906885,-0.8786044,-0.015412431,9.263978958129883,-4.131612300872803,3.2835378646850586,131.46218872070312,69.96913146972656, -7.393235683441162
667,461046199,0.3391816,0.35110602,-0.8727102,0.00759195,7.918575763702393,-3.86496901512146,2.2133474349975586,109.78738403320312,149.26271057128906, 26.079193115234375
668,461062866,0.36315125,0.3473073,-0.8639816,0.032170188,8.094453811645508,-3.6578266620635986,0.6479712724685669,80.80716705322266,221.847412109375, 57.39591598510742
669,461079533,0.39412516,0.3384463,-0.85228235,0.061108444,9.068586349487305,-4.655044078826904,-1.0258289575576782,77.92727661132812,282.42041015625, 89.71150207519531
670,461096200,0.42915994,0.32771444,-0.83578193,0.09946691,10.562007904052734,-2.858530044555664,-0.7304685115814209,120.56255340576172,342.0010070800781, 113.31019592285156
671,461112867,0.46748114,0.31322354,-0.8144407,0.14155847,12.044273376464844,-1.9900240898132324,-1.1719505786895752,126.78156280517578,386.2171936035156, 132.75779724121094
672,461129534,0.5085022,0.29557663,-0.7868084,0.18706374,14.171783447265625,0.8570653796195984,-1.6411631107330322,136.04452514648438,432.0782470703125, 145.20538330078125
673,461146201,0.55349356,0.2690538,-0.7543078,0.22863692,16.057052612304688,2.261915683746338,-2.027038097381592,81.89802551269531,474.1092834472656, 164.46566772460938
674,461162868,0.5970785,0.23793158,-0.7168017,0.27033526,18.461017608642578,4.053698539733887,-4.594139575958252,75.61363983154297,493.4289245605469, 181.73638916015625
675,461179535,0.6372923,0.20694357,-0.674129,0.31077853,21.364253997802734,6.476358413696289,-8.358675956726074,85.13007354736328,495.8204345703125, 173.74374389648438
676,461196202,0.67174697,0.18308422,-0.62675834,0.34987178,23.029027938842773,1.7549195289611816,-14.8131685256958,128.54541015625,472.64471435546875, 140.4828338623047
677,461212869,0.69857216,0.16871785,-0.5796951,0.38403755,23.6524658203125,2.836735725402832,-18.150325775146484,160.06585693359375,409.4317932128906, 95.57723236083984
678,461229536,0.7172654,0.15566935,-0.5448433,0.40551603,22.81775665283203,2.0583393573760986,-25.86715316772461,93.0152587890625,300.31781005859375, 65.09748077392578
679,461246203,0.72753716,0.15246953,-0.5203372,0.42034772,14.238469123840332,3.9602017402648926,-31.953567504882812,97.0850830078125,183.5030059814453, 30.173973083496094
680,461262870,0.73085576,0.14907172,-0.514535,0.42294374,7.615901470184326,6.420623779296875,-34.32990264892578,5.763000965118408,53.223880767822266, 9.587567329406738
681,461279537,0.72512,0.15276928,-0.52479124,0.4188758,5.745066165924072,1.3104151487350464,-36.13161087036133,-19.36792755126953,-86.55072021484375, -6.0002875328063965
682,461296204,0.7092908,0.16423386,-0.549059,0.41044894,12.298205375671387,-0.9591244459152222,-46.6518669128418,-25.902599334716797,-219.39332580566406, -11.866504669189453
683,461312871,0.68794376,0.17427407,-0.58629537,0.39066565,35.14242935180664,1.2087537050247192,5.678444862365723,-105.80381774902344,-311.8017578125, -31.5629940032959
684,461329538,0.66052413,0.19360268,-0.6200239,0.37655833,16.408605575561523,-8.461591720581055,9.023581504821777,-22.180166244506836,-337.8380432128906, -29.977455139160156
685,461346205,0.6241557,0.22850953,-0.6437308,0.379241,19.4986572265625,2.2794201374053955,-17.746042251586914,158.039306640625,-348.5833435058594, -10.522075653076172
686,461362872,0.592441,0.25707826,-0.66350096,0.3777448,3.4586057662963867,0.3341866135597229,-7.941661834716797,115.52849578857422,-300.8351135253906, -18.748571395874023
687,461379539,0.5664976,0.27644014,-0.6777632,0.37854806,9.274016380310059,-6.651280403137207,-5.401761531829834,92.62010955810547,-223.95343017578125, 7.7746500968933105
688,461396206,0.54498047,0.28741887,-0.6909621,0.3780984,14.42976188659668,1.8690824508666992,-0.29371121525764465,48.54384231567383,-179.713623046875, 28.258996963500977
689,461412873,0.5241575,0.29905778,-0.70165724,0.3788145,15.17464542388916,3.1676666736602783,-2.542603015899658,61.6817741394043,-166.50320434570312, 22.710189819335938
690,461429540,0.5062471,0.3051126,-0.7135084,0.37619936,13.315733909606934,-0.013541885651648045,-4.111680507659912,16.55672264099121,-148.96690368652344, 32.44023132324219
691,461446207,0.4902345,0.30837348,-0.725479,0.37182808,10.566752433776855,0.16641704738140106,-5.39923620223999,-6.038054466247559,-136.56216430664062, 35.35514831542969
692,461462874,0.47368962,0.31080797,-0.7377686,0.36703447,9.575531005859375,-2.674708604812622,-6.559413433074951,-10.580289840698242,-139.0929718017578, 40.07374572753906
693,461479541,0.46094415,0.31476066,-0.7457868,0.3636736,11.319727897644043,-5.26145076751709,-5.273874759674072,4.307151794433594,-106.67479705810547, 18.27081298828125
694,461496208,0.4556047,0.31639826,-0.74999607,0.36030877,12.616474151611328,-4.656156539916992,-7.9667134284973145,-9.585990905761719,-50.86591339111328, 3.312079906463623
695,461512875,0.4566163,0.31709048,-0.75128835,0.3556984,17.795312881469727,-2.3161356449127197,-5.666619300842285,-25.577281951904297,-9.336323738098145, -17.811187744140625
696,461529542,0.46287093,0.31466675,-0.75268126,0.3467079,22.067399978637695,-1.9842251539230347,-3.469099760055542,-69.68318939208984,15.462189674377441, -28.020862579345703
697,461546209,0.47272322,0.30831227,-0.7549326,0.33399603,22.787099838256836,2.1428616046905518,-0.9851540923118591,-111.31524658203125,32.581764221191406, -26.158361434936523
