PacketCounter,SampleTimeFine,Quat_W,Quat_X,Quat_Y,Quat_Z,Acc_X,Acc_Y,Acc_Z,Gyr_X,Gyr_Y,Gyr_Z 
1,450331457,0.7940773,-0.19498044,-0.5667752,-0.10094486,0.23541532456874847,1.1683679819107056,0.12842927873134613,-0.2773951590061188,1.505600094795227, -0.44907236099243164
2,450348124,0.79406923,-0.19507402,-0.56678826,-0.10075505,9.230934143066406,-1.9332793951034546,2.7335281372070312,0.7829226851463318,0.4559893012046814, 1.5466423034667969
3,450364791,0.7939839,-0.19527495,-0.5668781,-0.10053198,9.221095085144043,-1.916415810585022,2.7665936946868896,1.1126219034194946,0.34269148111343384, 1.48223876953125
4,450381458,0.7940155,-0.19529499,-0.56687516,-0.10025943,9.215795516967773,-1.8777705430984497,2.7584900856018066,0.8612462282180786,0.3222397565841675, 1.479844093322754
5,450398125,0.794036,-0.1952697,-0.5668691,-0.10018036,9.201470375061035,-1.8809655904769897,2.7677500247955322,0.49968454241752625,0.15544986724853516, 1.4854917526245117
6,450414792,0.7940729,-0.19524594,-0.5668301,-0.10015464,9.223579406738281,-1.9257454872131348,2.7801170349121094,0.4607020914554596,0.07320750504732132, 1.5353469848632812
7,450431459,0.7941318,-0.1952546,-0.56676954,-0.100013785,9.227097511291504,-1.9232760667800903,2.757807493209839,0.3675999045372009,0.028026698157191277, 1.6852325201034546
8,450448126,0.7941554,-0.19537558,-0.5667057,-0.09995176,9.213040351867676,-1.9065585136413574,2.7454168796539307,0.2517920732498169,-0.04816468805074692, 1.6788934469223022
9,450464793,0.7941609,-0.19552445,-0.5666526,-0.09991793,9.22934627532959,-1.909889817237854,2.760753631591797,0.13557441532611847,-0.030632788315415382, 1.6369524002075195
10,450481460,0.7941516,-0.19571744,-0.5666043,-0.09988887,9.243953704833984,-1.9328231811523438,2.774698495864868,0.17472343146800995,-0.18383514881134033, 1.8529443740844727
11,450498127,0.79415816,-0.19588192,-0.5665591,-0.09977011,9.230533599853516,-1.951005220413208,2.734376907348633,0.018908575177192688,-0.1270774006843567, 1.9243396520614624
12,450514794,0.7941559,-0.19607104,-0.5665164,-0.09965911,9.227688789367676,-1.978676438331604,2.7248032093048096,0.2116057127714157,-0.12262078374624252, 1.923724889755249
13,450531461,0.79417175,-0.19622111,-0.5664614,-0.09954983,9.282744407653809,-2.0751287937164307,2.740074396133423,0.4066208004951477,0.1649777889251709, 1.5938206911087036
14,450548128,0.7942381,-0.19624415,-0.5664011,-0.099316716,9.27878189086914,-2.2337777614593506,2.6936190128326416,1.2987749576568604,0.4683218002319336, 1.3395503759384155
15,450564795,0.79434234,-0.19621214,-0.5663024,-0.099110104,9.334195137023926,-2.14011287689209,2.7529969215393066,2.0524160861968994,0.9797562956809998, 0.5558019876480103
16,450581462,0.79449606,-0.19620776,-0.56608784,-0.099111155,9.317096710205078,-2.1235203742980957,2.6768853664398193,1.4054265022277832,2.0124475955963135, -0.3503945469856262
17,450598129,0.7947122,-0.19608647,-0.56582165,-0.099138536,9.212000846862793,-2.1284797191619873,2.5975725650787354,2.2629780769348145,2.7433571815490723, -0.8315035700798035
18,450614796,0.794953,-0.1957808,-0.5656041,-0.09905426,9.146108627319336,-1.9639426469802856,2.6626229286193848,3.694101095199585,2.7572779655456543, -1.103920340538025
19,450631463,0.79520696,-0.19538459,-0.56539035,-0.0990187,9.25955867767334,-1.560137152671814,2.630479335784912,3.590061902999878,3.0013794898986816, -1.6528772115707397
20,450648130,0.79537255,-0.19534607,-0.56499493,-0.10001678,9.733949661254883,-0.8033227324485779,2.640629291534424,-2.6059906482696533,4.8464813232421875, -4.960502624511719
21,450664797,0.7950613,-0.19545664,-0.56498677,-0.10229583,10.520301818847656,-2.1563262939453125,3.4080772399902344,-9.11559009552002,2.7116501331329346, -10.67167854309082
22,450681464,0.79472345,-0.19590478,-0.56479096,-0.105106354,10.39703369140625,-2.5551178455352783,4.262435436248779,-13.415971755981445,3.7489030361175537, -12.237875938415527
23,450698131,0.7939279,-0.20092693,-0.56301737,-0.11098808,10.824386596679688,-2.771113395690918,3.394725799560547,-52.3145866394043,10.264813423156738, -10.085515975952148
24,450714798,0.79227495,-0.20460273,-0.5631658,-0.11525081,10.723196029663086,-2.942007064819336,0.6913442611694336,-39.35725784301758,-4.5468316078186035, -10.677599906921387
25,450731465,0.7900844,-0.20200513,-0.5671642,-0.11526248,11.153284072875977,-1.0253140926361084,-1.0093439817428589,14.626112937927246,-26.53511619567871, -18.10743522644043
26,450748132,0.78665566,-0.19895464,-0.5729424,-0.1154422,11.369510650634766,1.747702956199646,-0.7234990000724792,13.960567474365234,-36.9205436706543, -23.949600219726562
27,450764799,0.7804394,-0.20198488,-0.5793455,-0.120313466,9.432355880737305,-1.763608455657959,-1.8787710666656494,-38.07975769042969,-48.10715866088867, -24.846494674682617
28,450781466,0.77334344,-0.2040324,-0.5874876,-0.1231635,8.219537734985352,-3.095054864883423,-0.2616463303565979,-30.218246459960938,-59.80478286743164, -22.90406036376953
29,450798133,0.7661248,-0.20664883,-0.5955513,-0.125171,6.892815589904785,-3.0750656127929688,1.862146258354187,-27.22296905517578,-61.66835021972656, -16.693500518798828
30,450814800,0.75982904,-0.20976578,-0.6022726,-0.12619817,6.40886926651001,-3.681903600692749,4.000443935394287,-24.271705627441406,-54.10938262939453, -7.634754657745361
31,450831467,0.75562453,-0.21256022,-0.60655975,-0.1262352,5.983541488647461,-3.020590305328369,6.5371479988098145,-15.950243949890137,-36.49055099487305, 0.49309200048446655
32,450848134,0.75436,-0.21480364,-0.607402,-0.12594858,5.853862285614014,-2.1104884147644043,7.685573577880859,-10.850907325744629,-9.627836227416992, 6.585204124450684
33,450864801,0.75522923,-0.21582234,-0.60613483,-0.12510014,8.20284652709961,0.4869367778301239,1.9824590682983398,-1.3636977672576904,7.099722385406494, 9.03299617767334
34,450881468,0.7560743,-0.21405962,-0.60622966,-0.12253896,11.729740142822266,1.8724780082702637,-1.749552845954895,21.136089324951172,-0.36207452416419983, 5.375134468078613
35,450898135,0.75662917,-0.21009673,-0.6075846,-0.119217224,11.289959907531738,0.607617199420929,1.5630905628204346,36.371055603027344,-5.68229341506958, -0.184681236743927
36,450914802,0.7580324,-0.20464581,-0.6085259,-0.1149064,9.398248672485352,-0.7986744046211243,3.775991201400757,48.9794807434082,-0.048587702214717865, 1.0021885633468628
37,450931469,0.759569,-0.1997654,-0.6088879,-0.11137421,9.153459548950195,-1.1935255527496338,2.8038580417633057,40.619140625,3.6569323539733887, 0.12554778158664703
38,450948136,0.7605437,-0.19626558,-0.6091925,-0.10925949,9.33052921295166,-2.586284875869751,2.1729366779327393,28.269195556640625,1.8328949213027954, -1.548753261566162
39,450964803,0.7610159,-0.19494541,-0.6091806,-0.10839887,10.740214347839355,-4.588995456695557,4.264069557189941,8.963530540466309,1.6459683179855347, 0.265366792678833
40,450981470,0.76139826,-0.19484968,-0.60884714,-0.107757516,11.448562622070312,-5.409908771514893,3.6335248947143555,1.274571180343628,1.6835546493530273, 3.6245999336242676
41,450998137,0.7616265,-0.19393858,-0.60913205,-0.10616603,11.07761001586914,-1.983961820602417,2.0202078819274902,9.887242317199707,-3.2094004154205322, 3.1810662746429443
42,451014804,0.76143056,-0.19339937,-0.60970235,-0.10527784,9.214051246643066,-0.7915326952934265,2.184943914413452,4.589571475982666,-5.662430286407471, 0.39200881123542786
43,451031471,0.7612659,-0.19299354,-0.610145,-0.104646906,8.390063285827637,-0.3459198772907257,1.5660029649734497,2.7442409992218018,-4.6399712562561035, 0.0762426108121872
44,451048138,0.7611103,-0.19183536,-0.6108356,-0.103875235,8.424050331115723,-0.5625739693641663,0.8649391531944275,7.3746867179870605,-5.432890892028809, -2.353398323059082
45,451064805,0.76102114,-0.18977435,-0.61178577,-0.10271694,8.805850982666016,-0.15415649116039276,1.2376288175582886,14.124245643615723,-6.131353378295898, -4.160505771636963
46,451081472,0.76083606,-0.1882604,-0.6125818,-0.10212831,9.341919898986816,-1.3401463031768799,1.8415645360946655,8.511852264404297,-5.190851211547852, -4.406641483306885
47,451098139,0.76077235,-0.18694821,-0.6131785,-0.101430655,10.147294998168945,-2.0012807846069336,1.9469757080078125,7.862030982971191,-3.877200126647949, -2.6296823024749756
48,451114806,0.7605998,-0.18610696,-0.61374086,-0.10086845,10.449490547180176,-1.7096608877182007,1.8557300567626953,4.789966106414795,-4.2905497550964355, -1.4619089365005493
49,451131473,0.76025856,-0.18595177,-0.6142225,-0.10079551,9.990377426147461,-1.1597719192504883,1.961496353149414,0.7926939129829407,-4.680657386779785, -0.8084137439727783
50,451148140,0.7599308,-0.18617159,-0.6145401,-0.10092471,9.574821472167969,-0.8106058239936829,1.7309283018112183,-4.000448226928711,-3.443358898162842, -0.3237445652484894
51,451164807,0.75974387,-0.18635911,-0.6146974,-0.101028435,9.429594993591309,-0.9545454978942871,1.6451876163482666,-3.7607507705688477,-1.9627395868301392, 0.0848100483417511
52,451181474,0.75973636,-0.1863797,-0.614719,-0.100916445,9.519174575805664,-1.2747759819030762,1.700498342514038,-1.6275075674057007,-0.641162633895874, 0.9258028864860535
53,451198141,0.75974387,-0.18664189,-0.61463875,-0.10086213,9.754652976989746,-1.5455951690673828,1.9358640909194946,-1.4262433052062988,-0.389556348323822, 2.1198160648345947
54,451214808,0.75972074,-0.18741404,-0.6144414,-0.10080882,9.943046569824219,-1.714215636253357,2.0013012886047363,-4.2362895011901855,-0.2546926736831665, 4.3693413734436035
55,451231475,0.7596649,-0.18839207,-0.6142472,-0.10058879,9.83133316040039,-1.6074392795562744,1.790840744972229,-4.639011383056641,-0.7715186476707458, 6.038303375244141
56,451248142,0.75964886,-0.18933992,-0.6140453,-0.10016331,9.582204818725586,-1.3898181915283203,1.6623677015304565,-3.553391218185425,-0.7831340432167053, 6.998229503631592
57,451264809,0.7596925,-0.1903002,-0.6137694,-0.099702515,9.527811050415039,-1.2355231046676636,1.6390366554260254,-3.4580864906311035,-0.1577102243900299, 7.378463268280029
58,451281476,0.7598772,-0.19097652,-0.6134489,-0.09897045,9.543169021606445,-1.392586350440979,1.5974071025848389,-2.529062271118164,0.8673036694526672, 7.4537248611450195
59,451298143,0.76015323,-0.19148555,-0.61308116,-0.09814191,9.532564163208008,-1.604941725730896,1.5708072185516357,-1.0268772840499878,1.5098111629486084, 7.410913944244385
60,451314810,0.760511,-0.19178307,-0.61271214,-0.09708865,9.531622886657715,-1.697458028793335,1.613244652748108,1.0905953645706177,1.7624293565750122, 7.722505569458008
61,451331477,0.7608854,-0.19200423,-0.6123293,-0.09612873,9.526354789733887,-1.6127830743789673,1.7200356721878052,2.8940112590789795,1.8005154132843018, 7.23732328414917
62,451348144,0.7612612,-0.19190189,-0.61205316,-0.09511029,9.566630363464355,-1.6928969621658325,1.885928750038147,3.2281928062438965,1.707566738128662, 5.724791049957275
63,451364811,0.7615863,-0.19183595,-0.6117874,-0.094349414,9.623927116394043,-1.8483853340148926,1.8967374563217163,1.8145126104354858,1.769370198249817, 4.449995994567871
64,451381478,0.7618967,-0.19161992,-0.61156666,-0.09371034,9.644318580627441,-1.914084792137146,1.7367637157440186,2.2746572494506836,1.6976799964904785, 3.1087348461151123
65,451398145,0.7621905,-0.19118151,-0.61142,-0.093171865,9.579368591308594,-1.9787558317184448,1.7097303867340088,3.0118422508239746,1.5441449880599976, 1.492010235786438
66,451414812,0.7624762,-0.19067018,-0.6113036,-0.09264524,9.619345664978027,-1.9199711084365845,1.7577747106552124,3.443634033203125,1.4195774793624878, 1.0471560955047607
67,451431479,0.7627447,-0.190152,-0.61121327,-0.092093274,9.569003105163574,-1.6998891830444336,1.714639663696289,3.651494264602661,1.1871808767318726, 1.0836542844772339
68,451448146,0.763024,-0.18965276,-0.611109,-0.09149969,9.515374183654785,-1.5261385440826416,1.686998963356018,3.7681338787078857,1.2518142461776733, 1.4051060676574707
69,451464813,0.76330715,-0.18909906,-0.61102295,-0.09085472,9.522846221923828,-1.3365378379821777,1.8171559572219849,4.229022026062012,1.1731321811676025, 1.4270949363708496
70,451481480,0.7635791,-0.18865433,-0.610902,-0.09030603,9.556804656982422,-1.3275573253631592,1.8686246871948242,3.3146355152130127,1.3523058891296387, 1.4718787670135498
71,451498147,0.76380825,-0.1884591,-0.6107206,-0.09000163,9.636930465698242,-1.3500407934188843,1.8620244264602661,1.130999207496643,1.6073697805404663, 1.3710798025131226
72,451514814,0.7639944,-0.18839787,-0.61054695,-0.08972909,9.60187816619873,-1.4986478090286255,1.8613626956939697,0.20552271604537964,1.3536760807037354, 1.7556545734405518
73,451531481,0.76420116,-0.18833216,-0.610362,-0.08936415,9.54155445098877,-1.5143038034439087,1.7696160078048706,0.7904014587402344,1.3574538230895996, 2.2938923835754395
74,451548148,0.7643891,-0.1882386,-0.61021435,-0.08896184,9.52096176147461,-1.5019832849502563,1.8183213472366333,1.0832443237304688,1.0654306411743164, 2.322962999343872
75,451564815,0.76453364,-0.18823957,-0.61008763,-0.08858462,9.52676010131836,-1.5226750373840332,1.842301607131958,0.7591925263404846,0.6954553127288818, 2.6082630157470703
76,451581482,0.7646293,-0.18833731,-0.61000437,-0.08812407,9.566327095031738,-1.6922873258590698,1.8405365943908691,0.3287838101387024,0.14330945909023285, 3.3323721885681152
77,451598149,0.7647435,-0.18831597,-0.60996205,-0.08746954,9.563860893249512,-1.6418733596801758,1.7860664129257202,1.9593268632888794,-0.1940162181854248, 3.8323581218719482
78,451614816,0.76489717,-0.18818574,-0.6099259,-0.08665377,9.56549072265625,-1.6028673648834229,1.7525538206100464,3.2552783489227295,-0.1911732405424118, 4.238460540771484
79,451631483,0.7651104,-0.18799286,-0.60983604,-0.08581803,9.54806900024414,-1.519465684890747,1.7703287601470947,3.932708501815796,0.3259280025959015, 4.233670711517334
80,451648150,0.7653623,-0.18783174,-0.60967547,-0.085062854,9.56882381439209,-1.511170506477356,1.7685492038726807,3.3910129070281982,0.9661815166473389, 4.063282012939453
81,451664817,0.7656157,-0.1878407,-0.6094334,-0.08449685,9.576553344726562,-1.5400950908660889,1.762332797050476,1.7713810205459595,1.536153793334961, 3.9247817993164062
82,451681484,0.7658688,-0.18794023,-0.609156,-0.083980866,9.591211318969727,-1.6396533250808716,1.8033714294433594,0.9111014604568481,1.7742880582809448, 4.070326328277588
83,451698151,0.7660935,-0.18816383,-0.60886127,-0.08356666,9.560029029846191,-1.5733087062835693,1.7577821016311646,0.21239973604679108,1.7330386638641357, 4.14818811416626
84,451714818,0.76626337,-0.18846613,-0.6085958,-0.08325971,9.512170791625977,-1.5625745058059692,1.8375109434127808,-0.6974466443061829,1.4534885883331299, 3.85640811920166
85,451731485,0.7663946,-0.18885598,-0.6083441,-0.08300763,9.531243324279785,-1.6773009300231934,1.851334571838379,-1.3910257816314697,1.235857605934143, 3.91413950920105
86,451748152,0.7665133,-0.18924344,-0.6081084,-0.08275667,9.599430084228516,-1.7517746686935425,1.8293297290802002,-1.2956184148788452,1.0867661237716675, 3.892329692840576
87,451764819,0.76664907,-0.18945199,-0.6079316,-0.08231937,9.57594108581543,-1.820212960243225,1.7941827774047852,0.42205244302749634,0.7261775732040405, 4.046492576599121
88,451781486,0.7668105,-0.18953347,-0.60777754,-0.08176362,9.510370254516602,-1.7195864915847778,1.7902401685714722,1.5435043573379517,0.6591107249259949, 4.100330352783203
89,451798153,0.76698226,-0.18959358,-0.60761803,-0.081198946,9.510903358459473,-1.6324962377548218,1.8109636306762695,1.8573243618011475,0.7103362679481506, 4.1039299964904785
90,451814820,0.76715356,-0.18960412,-0.60746765,-0.08067839,9.539220809936523,-1.5723696947097778,1.8647129535675049,1.9586734771728516,0.7471031546592712, 3.666605234146118
91,451831487,0.76731384,-0.1897111,-0.6072789,-0.080321476,9.530083656311035,-1.6596564054489136,1.8084579706192017,0.8417677283287048,1.0444024801254272, 3.290008544921875
92,451848154,0.76748705,-0.18978682,-0.6070739,-0.08003662,9.543985366821289,-1.7724989652633667,1.7807804346084595,0.7155610918998718,1.3022838830947876, 2.818145990371704
93,451864821,0.76766205,-0.18981354,-0.6068718,-0.07982749,9.54495620727539,-1.7913106679916382,1.8047953844070435,0.8499382734298706,1.3925048112869263, 2.2498772144317627
94,451881488,0.767812,-0.1898096,-0.6067033,-0.07967545,9.531813621520996,-1.9275649785995483,1.7839961051940918,0.6912163496017456,1.22340989112854, 1.749520182609558
95,451898155,0.767955,-0.18970665,-0.6065761,-0.079511,9.54445743560791,-1.8401122093200684,1.8076940774917603,1.4330499172210693,0.9937151670455933, 1.364202857017517
96,451914822,0.76808995,-0.18958142,-0.60646313,-0.07936885,9.486631393432617,-1.8102142810821533,1.809727668762207,1.5595508813858032,0.9138418436050415, 1.1489791870117188
97,451931489,0.7682393,-0.18935913,-0.6063664,-0.07919109,9.535367012023926,-1.7655080556869507,1.8226031064987183,2.0815889835357666,0.9362658858299255, 0.8848356008529663
98,451948156,0.76840276,-0.18911767,-0.6062533,-0.079049185,9.561625480651855,-1.7425004243850708,1.8208905458450317,2.130931854248047,1.1279897689819336, 0.6660647392272949
99,451964823,0.7685628,-0.18878734,-0.6061708,-0.07891625,9.542498588562012,-1.6835769414901733,1.8749620914459229,2.4254138469696045,1.0505367517471313, 0.18275301158428192
100,451981490,0.76867,-0.18857934,-0.60608846,-0.07900005,9.55739688873291,-1.5799795389175415,1.8983302116394043,0.9571273326873779,1.017599105834961, -0.44048723578453064
101,451998157,0.7687379,-0.18845323,-0.6060123,-0.079225026,9.54870891571045,-1.664059042930603,1.8506931066513062,-0.08181976526975632,0.9549118876457214, -0.8499447107315063
102,452014824,0.76878786,-0.18838838,-0.60593545,-0.07948182,9.525918960571289,-1.6997852325439453,1.8394970893859863,-0.5774767398834229,0.9001135230064392, -0.7635914087295532
103,452031491,0.7688382,-0.1882554,-0.6058958,-0.07961275,9.48983097076416,-1.6954941749572754,1.8215519189834595,0.2923497259616852,0.5920311212539673, -0.4297042191028595
104,452048158,0.76886547,-0.18816806,-0.60587925,-0.07968185,9.523368835449219,-1.594051480293274,1.8606648445129395,0.33394476771354675,0.2672877013683319, 0.06075972318649292
105,452064825,0.7688955,-0.18815307,-0.60583746,-0.07974502,9.544690132141113,-1.5371648073196411,1.8448079824447632,0.04436760023236275,0.35310307145118713, 0.4589090943336487
106,452081492,0.7689835,-0.18814088,-0.60573167,-0.07972832,9.525096893310547,-1.5318173170089722,1.80403470993042,0.2909538447856903,0.8559700846672058, 1.0046260356903076
107,452098159,0.7691311,-0.18807097,-0.60558265,-0.07959998,9.520713806152344,-1.560606598854065,1.8015707731246948,1.272957682609558,1.1958633661270142, 1.4949684143066406
108,452114826,0.7693174,-0.18797527,-0.60540116,-0.0794075,9.526787757873535,-1.5883357524871826,1.8247570991516113,1.6570584774017334,1.4789090156555176, 1.7966604232788086
109,452131493,0.7694892,-0.18793997,-0.60522085,-0.079201095,9.552216529846191,-1.6008961200714111,1.9163960218429565,1.4101648330688477,1.3623971939086914, 2.134504795074463
110,452148160,0.7696226,-0.18805167,-0.6050255,-0.07913125,9.559854507446289,-1.6063580513000488,1.8843744993209839,0.02889752946794033,1.374716877937317, 2.0418636798858643
111,452164827,0.76976055,-0.18818353,-0.6048174,-0.07906657,9.551112174987793,-1.774985909461975,1.7899200916290283,-0.11217080801725388,1.4625937938690186, 2.1295998096466064
112,452181494,0.76993287,-0.18821973,-0.604608,-0.07890574,9.536829948425293,-1.8461261987686157,1.7827348709106445,0.97409588098526,1.5235649347305298, 2.291292905807495
113,452198161,0.7701077,-0.18815137,-0.6044338,-0.07869731,9.530287742614746,-1.6693642139434814,1.8895559310913086,1.7541050910949707,1.3543933629989624, 2.063263416290283
114,452214828,0.7702824,-0.18816388,-0.6042133,-0.078648634,9.541848182678223,-1.571361780166626,1.8979506492614746,0.6089867949485779,1.771316647529602, 1.6181144714355469
115,452231495,0.77047527,-0.1881692,-0.6039701,-0.07861485,9.558731079101562,-1.681732416152954,1.8567732572555542,0.6205124258995056,1.9877310991287231, 1.5714095830917358
116,452248162,0.77068126,-0.18807893,-0.6037461,-0.07853244,9.632551193237305,-1.6182265281677246,1.9003065824508667,1.252339482307434,1.9577386379241943, 1.4030060768127441
117,452264829,0.77083707,-0.1882403,-0.6034686,-0.07875037,9.687962532043457,-1.4333511590957642,1.9382519721984863,-1.255713701248169,2.2566516399383545, 0.9491745233535767
118,452281496,0.7710043,-0.18838555,-0.60319346,-0.07887313,9.516374588012695,-1.8705496788024902,1.8888038396835327,-0.7671003937721252,2.1810429096221924, 1.4182839393615723
119,452298163,0.7711451,-0.18839246,-0.6030198,-0.07880761,9.496198654174805,-1.7092959880828857,1.830593228340149,0.7202867269515991,1.3805054426193237, 1.6830170154571533
120,452314830,0.7712442,-0.18835181,-0.60291994,-0.07869843,9.386543273925781,-1.7117077112197876,1.905449628829956,1.1511180400848389,0.7922840714454651, 1.6089577674865723
121,452331497,0.7712636,-0.18835036,-0.6028863,-0.07877048,9.475515365600586,-1.70505690574646,1.9377464056015015,0.13247530162334442,0.32506999373435974, 0.6889368295669556
122,452348164,0.77123165,-0.1884312,-0.60288453,-0.078903556,9.494064331054688,-1.649017572402954,1.8918802738189697,-0.5411707162857056,-0.033603861927986145, 0.6585728526115417
123,452364831,0.77111787,-0.18868743,-0.60291725,-0.079153866,9.580279350280762,-1.580582857131958,1.9444706439971924,-2.043445348739624,-0.49403056502342224, 0.6864267587661743
124,452381498,0.7709879,-0.18892723,-0.60298944,-0.0792973,9.562357902526855,-1.6144821643829346,1.9527136087417603,-1.5033886432647705,-0.8998253345489502, 1.1446764469146729
125,452398165,0.7708233,-0.18924814,-0.60309035,-0.07936524,9.437178611755371,-1.5697789192199707,1.8933310508728027,-1.6641596555709839,-1.3348186016082764, 1.8361552953720093
126,452414832,0.77065486,-0.1895206,-0.6032289,-0.0792972,9.388586044311523,-1.5379558801651,1.8740503787994385,-0.8603817820549011,-1.6904637813568115, 2.314241886138916
127,452431499,0.77054274,-0.18965971,-0.6033494,-0.07913755,9.427009582519531,-1.5940555334091187,1.8334378004074097,0.3234308063983917,-1.4116312265396118, 2.325268030166626
128,452448166,0.7705309,-0.18958844,-0.6034314,-0.07879726,9.492588996887207,-1.8623769283294678,1.739464282989502,2.2243282794952393,-0.8916548490524292, 2.512996196746826
129,452464833,0.7705748,-0.18932644,-0.60352933,-0.07824755,9.5330171585083,-1.8662517070770264,1.743714451789856,4.23621940612793,-0.9096224308013916, 2.847933769226074
130,452481500,0.7705875,-0.18909605,-0.6036532,-0.07772062,9.516763687133789,-1.6487234830856323,1.846909523010254,3.945028066635132,-1.147666573524475, 2.8047122955322266
131,452498167,0.7705549,-0.18897773,-0.60377485,-0.07738704,9.49995231628418,-1.5629732608795166,1.8339004516601562,2.464216947555542,-1.121055006980896, 2.231064558029175
132,452514834,0.7705092,-0.18895057,-0.6038648,-0.07720437,9.53274917602539,-1.6716806888580322,1.8293168544769287,1.3661879301071167,-0.8624948859214783, 1.8715648651123047
133,452531501,0.7704983,-0.18869776,-0.6039936,-0.07692582,9.49484634399414,-1.7999275922775269,1.7755467891693115,3.027094602584839,-0.9208406805992126, 1.4219979047775269
134,452548168,0.7704439,-0.18847246,-0.6041555,-0.07675012,9.553994178771973,-1.842030644416809,1.8987878561019897,2.4070496559143066,-1.1447340250015259, 0.9254189133644104
135,452564835,0.7704,-0.18822794,-0.6043192,-0.076502986,9.567461967468262,-1.7641708850860596,1.84892737865448,2.845769166946411,-1.1944864988327026, 1.2321563959121704
136,452581502,0.7703453,-0.18797928,-0.6044924,-0.07629484,9.571136474609375,-1.6030868291854858,1.8573964834213257,2.69547438621521,-1.2299346923828125, 0.9954185485839844
137,452598169,0.77031213,-0.1876967,-0.6046501,-0.0760774,9.54798412322998,-1.6527175903320312,1.7957935333251953,2.9974474906921387,-1.0602760314941406, 0.963824987411499
138,452614836,0.7703223,-0.18737528,-0.6047709,-0.07580424,9.583307266235352,-1.6719191074371338,1.8228788375854492,3.4548397064208984,-0.7235459685325623, 1.1759495735168457
139,452631503,0.77032584,-0.1870896,-0.6048894,-0.07552809,9.571218490600586,-1.6239211559295654,1.839946985244751,3.2640891075134277,-0.7524242997169495, 1.3498342037200928
140,452648170,0.7702713,-0.18694866,-0.6050259,-0.0753402,9.541561126708984,-1.516160488128662,1.8607481718063354,2.092231035232544,-1.0502231121063232, 1.4501206874847412
141,452664837,0.77015966,-0.18699503,-0.60516083,-0.07528386,9.553380966186523,-1.4962513446807861,1.8821049928665161,0.41593095660209656,-1.1910032033920288, 1.5120774507522583
142,452681504,0.77001613,-0.18718466,-0.60528284,-0.0752975,9.558246612548828,-1.5224534273147583,1.8450212478637695,-0.5790903568267822,-1.2590818405151367, 1.7804731130599976
143,452698171,0.76987034,-0.18740393,-0.60539645,-0.0753307,9.559314727783203,-1.6306192874908447,1.8163925409317017,-0.8944467306137085,-1.195677638053894, 1.8149479627609253
144,452714838,0.7697505,-0.18757665,-0.6054972,-0.07531639,9.583033561706543,-1.7248810529708862,1.773585319519043,-0.4108405113220215,-1.0541291236877441, 1.9176932573318481
145,452731505,0.7696605,-0.18769619,-0.60558057,-0.075268805,9.578163146972656,-1.795633316040039,1.7724179029464722,0.038399841636419296,-0.8444251418113708, 1.9166432619094849
146,452748172,0.7696423,-0.18774214,-0.6056035,-0.075154774,9.576601028442383,-1.7739053964614868,1.7648653984069824,0.740008533000946,-0.25962314009666443, 2.0736873149871826
147,452764839,0.769665,-0.18774664,-0.60558146,-0.07508806,9.547881126403809,-1.7182897329330444,1.7257864475250244,0.8069472908973694,0.2373848855495453, 1.7367266416549683
148,452781506,0.7697058,-0.1877279,-0.60553783,-0.07506879,9.527649879455566,-1.723166584968567,1.741344928741455,0.7245768904685974,0.5147576332092285, 1.4287853240966797
149,452798173,0.7697781,-0.18767852,-0.605456,-0.07511078,9.538554191589355,-1.7565510272979736,1.7017011642456055,0.6420271396636963,0.9556290507316589, 1.047027826309204
150,452814840,0.76987666,-0.18757275,-0.60535204,-0.07520316,9.562110900878906,-1.7900339365005493,1.716159462928772,0.8192924857139587,1.2752113342285156, 0.6057722568511963
151,452831507,0.76999617,-0.18739131,-0.6052392,-0.07533981,9.555405616760254,-1.7782922983169556,1.7362287044525146,1.0101200342178345,1.5267921686172485, 0.07119689881801605
152,452848174,0.7701052,-0.18720318,-0.60513633,-0.07552009,9.566530227661133,-1.7401232719421387,1.8193557262420654,0.8893434405326843,1.494328260421753, -0.19568103551864624
153,452864841,0.77018607,-0.18703361,-0.60506076,-0.0757198,9.579584121704102,-1.6376128196716309,1.8861956596374512,0.7582831978797913,1.2397379875183105, -0.2511069178581238
154,452881508,0.7702252,-0.18694124,-0.6050098,-0.07595584,9.572062492370605,-1.56460702419281,1.8759067058563232,0.1115369126200676,0.9535928964614868, -0.17333395779132843
155,452898175,0.77027875,-0.18683788,-0.60495526,-0.07610252,9.519445419311523,-1.5885992050170898,1.7994595766067505,0.558388888835907,0.924522340297699, 0.2823992073535919
156,452914842,0.7703775,-0.18665278,-0.6048866,-0.07610377,9.520980834960938,-1.6181882619857788,1.7680352926254272,1.730515718460083,1.033210039138794, 0.784715473651886
157,452931509,0.77050173,-0.18639265,-0.60482734,-0.07595376,9.547341346740723,-1.5808626413345337,1.8376582860946655,2.7019031047821045,0.9612382650375366, 1.2666186094284058
158,452948176,0.77059954,-0.18622726,-0.604776,-0.075775675,9.553484916687012,-1.469917893409729,1.8833582401275635,2.2946481704711914,0.7274839282035828, 1.8001693487167358
159,452964843,0.7706501,-0.18623139,-0.60472,-0.075697646,9.5555419921875,-1.4082268476486206,1.909687876701355,0.9470360279083252,0.5911090970039368, 1.9826854467391968
160,452981510,0.770631,-0.18642837,-0.60468113,-0.07571838,9.524864196777344,-1.5895453691482544,1.8523178100585938,-0.552786111831665,0.23356862366199493, 2.2296559810638428
161,452998177,0.7706012,-0.1866307,-0.6046598,-0.07569306,9.537638664245605,-1.7024823427200317,1.8220692873001099,-0.41171133518218994,0.04062814265489578, 2.476229190826416
162,453014844,0.7705718,-0.18682024,-0.60463923,-0.075689614,9.554604530334473,-1.6937416791915894,1.8029242753982544,-0.39102908968925476,0.0698266252875328, 2.320568323135376
163,453031511,0.7705607,-0.18695599,-0.6046122,-0.07568311,9.572901725769043,-1.7192450761795044,1.7808940410614014,-0.11133841425180435,0.2180217206478119, 2.128818988800049
164,453048178,0.77055776,-0.18711272,-0.60456055,-0.075738154,9.556076049804688,-1.7234166860580444,1.826071858406067,-0.45394665002822876,0.4533767104148865, 1.9360957145690918
165,453064845,0.77060497,-0.18764484,-0.60428476,-0.07614146,9.625271797180176,-1.6985377073287964,1.9175379276275635,-3.881732225418091,2.0932810306549072, 1.9834152460098267
166,453081512,0.7707468,-0.18856783,-0.6037134,-0.07695368,9.543375015258789,-1.7268779277801514,1.772803783416748,-7.681263446807861,4.373170852661133, 1.8805041313171387
167,453098179,0.7708731,-0.18922053,-0.6032707,-0.077554375,9.511852264404297,-1.6535216569900513,1.7731199264526367,-5.333716869354248,3.5037343502044678, 1.7076820135116577
168,453114846,0.7712791,-0.19166203,-0.6016802,-0.07984439,10.20578670501709,-0.9003381133079529,3.148648738861084,-22.070707321166992,11.994551658630371, 1.8267982006072998
169,453131513,0.77314043,-0.19912507,-0.59577334,-0.0875047,10.148690223693848,-0.8528235554695129,2.4404587745666504,-71.41583251953125,45.150081634521484, 0.6729457974433899
170,453148180,0.77456206,-0.20690475,-0.5899788,-0.09575719,9.008611679077148,-2.1334726810455322,0.6005170345306396,-76.22185516357422,43.3574104309082, -1.5526838302612305
171,453164847,0.77444506,-0.2122657,-0.58740866,-0.10064533,9.184966087341309,-2.424626350402832,0.5574561357498169,-49.75303649902344,16.8104248046875, 0.9370688796043396
172,453181514,0.7735577,-0.21578822,-0.5868247,-0.10334781,9.580485343933105,-1.809645414352417,1.262331485748291,-31.035322189331055,1.3172590732574463, 1.648931860923767
173,453198181,0.77258646,-0.21813844,-0.5869181,-0.10513345,9.532715797424316,-1.5858041048049927,2.468228816986084,-20.792011260986328,-3.0969767570495605, 0.727190375328064
174,453214848,0.7716369,-0.2200381,-0.58711475,-0.1070329,9.398221015930176,-1.2343980073928833,2.429518699645996,-18.704912185668945,-3.0996525287628174, -1.8008438348770142
175,453231515,0.7706435,-0.22215243,-0.58708096,-0.10996843,9.498804092407227,-1.0034942626953125,2.325582265853882,-24.524778366088867,-0.6159612536430359, -6.131706714630127
176,453248182,0.76968557,-0.2242247,-0.58695877,-0.11308008,9.325942039489746,-2.273069143295288,2.2432878017425537,-25.259586334228516,0.32266318798065186, -7.0680341720581055
177,453264849,0.76924145,-0.22489475,-0.586992,-0.11458719,9.116025924682617,-3.02229642868042,1.9893995523452759,-10.449049949645996,0.17181645333766937, -4.097264766693115
178,453281516,0.76914203,-0.22461429,-0.5871858,-0.1148121,8.913782119750977,-3.009162664413452,2.0929877758026123,0.42622730135917664,-0.5217562913894653, -1.1952677965164185
179,453298183,0.76937,-0.223821,-0.5872498,-0.114506,9.085617065429688,-2.0751748085021973,2.2929677963256836,5.697922706604004,1.061652660369873, -0.06777120381593704
180,453314850,0.76973295,-0.22304723,-0.5871091,-0.11429779,9.44186019897461,-1.4371637105941772,2.0080111026763916,5.244668483734131,2.807363271713257, -0.10020970553159714
181,453331517,0.769939,-0.22242926,-0.5870217,-0.11456269,9.99715518951416,-0.9911535978317261,1.7449531555175781,2.3057773113250732,2.4981157779693604, -2.155193567276001
182,453348184,0.7701787,-0.22110312,-0.58734894,-0.11383976,9.698624610900879,-2.3253087997436523,1.8298696279525757,10.412162780761719,-0.48843440413475037, -0.3369480073451996
183,453364851,0.77058756,-0.21881256,-0.5880148,-0.11204815,9.32287883758545,-1.8613427877426147,1.9310940504074097,20.36538314819336,-2.4487571716308594, 1.0211350917816162
184,453381518,0.7709104,-0.21629687,-0.5889294,-0.10988716,9.244993209838867,-1.7618730068206787,1.823595643043518,23.11649513244629,-4.485650062561035, 1.623611330986023
185,453398185,0.7710285,-0.21328819,-0.59033066,-0.107391,9.415547370910645,-1.8496898412704468,1.7377793788909912,27.439943313598633,-8.064208030700684, 0.5891385674476624
186,453414852,0.7706899,-0.20985062,-0.59247184,-0.10477072,9.612805366516113,-2.3743486404418945,1.856535792350769,30.1746826171875,-13.69727611541748, -1.9045933485031128
187,453431519,0.7700947,-0.20624271,-0.5949975,-0.101960994,9.61236572265625,-2.5194265842437744,1.8661599159240723,31.783493041992188,-16.913925170898438, -2.363973379135132
188,453448186,0.76916873,-0.2031786,-0.5976345,-0.09965435,9.814294815063477,-2.241952896118164,1.7104034423828125,26.097396850585938,-18.431964874267578, -3.315281629562378
189,453464853,0.7681385,-0.20071805,-0.60007316,-0.09791705,9.671216011047363,-1.9846975803375244,1.7477318048477173,20.663631439208984,-17.481494903564453, -3.588041305541992
190,453481520,0.76711535,-0.19860119,-0.60228455,-0.09666976,9.546473503112793,-1.5887372493743896,1.863272786140442,16.73218536376953,-15.800006866455078, -4.446014881134033
191,453498187,0.7663118,-0.19691552,-0.6039816,-0.0959002,9.633811950683594,-1.281240463256836,2.0155529975891113,12.321609497070312,-11.784082412719727, -4.351346015930176
192,453514854,0.76576376,-0.19557393,-0.6051632,-0.095574774,9.871678352355957,-1.0694538354873657,2.070773124694824,8.380383491516113,-7.583974838256836, -4.432433605194092
193,453531521,0.7665701,-0.19764943,-0.60297036,-0.09865124,11.802614212036133,-0.0015485845506191254,3.7833752632141113,-24.177635192871094,18.135021209716797, -2.6637163162231445
194,453548188,0.7680983,-0.2020347,-0.5986069,-0.10429259,10.222148895263672,-0.9803569316864014,1.7679657936096191,-47.51594924926758,34.39753723144531, -3.0536985397338867
195,453564855,0.76882386,-0.20702296,-0.5948689,-0.1103751,9.882858276367188,-1.2955182790756226,0.9702129364013672,-53.2092399597168,27.974323272705078, -4.304461479187012
196,453581522,0.7677426,-0.21023414,-0.5944635,-0.11395702,9.79025936126709,-1.4322185516357422,0.15459385514259338,-33.60171890258789,0.7962189316749573, -4.43839168548584
197,453598189,0.76609147,-0.21116121,-0.59596497,-0.11550183,10.857470512390137,-0.07085885107517242,-1.3791254758834839,-12.553274154663086,-12.657632827758789, -6.211957931518555
198,453614856,0.7628088,-0.2137427,-0.59863544,-0.118627846,11.063211441040039,1.0600833892822266,-3.0167064666748047,-29.157285690307617,-24.339624404907227, -10.654274940490723
199,453631523,0.75792515,-0.21680297,-0.60299045,-0.12226519,10.160954475402832,0.21496650576591492,-3.0672061443328857,-34.73249816894531,-39.14482116699219, -14.987924575805664
200,453648190,0.7520821,-0.21865441,-0.6090417,-0.12502542,9.729269027709961,0.6236953735351562,-2.3458189964294434,-24.748477935791016,-52.01404571533203, -18.656658172607422
201,453664857,0.7457406,-0.21933468,-0.616202,-0.12672217,9.46474838256836,-0.058593522757291794,-1.2802016735076904,-14.003732681274414,-60.236968994140625, -20.042375564575195
202,453681524,0.739559,-0.21862926,-0.6237042,-0.12746404,9.278708457946777,-0.22873805463314056,0.05597318708896637,-2.285442590713501,-61.417991638183594, -21.324630737304688
203,453698191,0.7338529,-0.21682468,-0.63109916,-0.1271258,9.070327758789062,-1.3714146614074707,0.6728531122207642,8.575284957885742,-59.44300842285156, -19.918354034423828
204,453714858,0.7291629,-0.21322037,-0.63806933,-0.12540475,8.938432693481445,-1.6253266334533691,2.227665662765503,24.817934036254883,-53.36561584472656, -19.250598907470703
205,453731525,0.7255351,-0.20922357,-0.64387673,-0.123479165,8.6845121383667,-2.3695428371429443,3.386610984802246,28.240001678466797,-42.90938949584961, -17.368099212646484
206,453748192,0.7231197,-0.2050711,-0.64830977,-0.121401615,8.323025703430176,-2.973663568496704,4.53414249420166,30.258657455444336,-30.910974502563477, -14.376409530639648
207,453764859,0.7220949,-0.20168486,-0.6507814,-0.119941905,8.472972869873047,-3.112460136413574,5.031386375427246,24.000654220581055,-14.932917594909668, -10.222456932067871
208,453781526,0.72259164,-0.19902202,-0.6512,-0.11912173,8.419620513916016,-3.381239891052246,4.117828845977783,17.93941879272461,2.126772403717041, -6.177457809448242
209,453798193,0.72405577,-0.19661856,-0.6504875,-0.11811186,8.68006706237793,-3.1756908893585205,3.5973806381225586,17.877775192260742,11.421303749084473, -1.864466667175293
210,453814860,0.7256561,-0.19547422,-0.6491234,-0.11769468,9.462645530700684,-2.0208370685577393,1.6025943756103516,8.597750663757324,14.89915943145752, 1.6917396783828735
211,453831527,0.72652394,-0.1956227,-0.6480281,-0.11812862,11.023505210876465,-0.8553695678710938,-0.6919097900390625,-2.423499822616577,10.339228630065918, 2.211484432220459
212,453848194,0.72672945,-0.19591255,-0.6476726,-0.118333004,10.783967971801758,-1.3128036260604858,-0.011928793042898178,-2.3902413845062256,3.3460757732391357, 2.475435495376587
213,453864861,0.7266415,-0.19628315,-0.6476346,-0.11846754,10.178003311157227,-1.5025362968444824,0.9483569860458374,-2.6144933700561523,0.33429059386253357, 2.5135343074798584
214,453881528,0.7264832,-0.19682057,-0.6476897,-0.11824423,9.655073165893555,-1.8693959712982178,1.4381811618804932,-1.8733516931533813,-1.073056936264038, 4.844290256500244
215,453898195,0.7262535,-0.19785652,-0.6476685,-0.11804322,9.965728759765625,-1.37636137008667,1.8186372518539429,-4.622503757476807,-1.4225679636001587, 6.959861755371094
216,453914862,0.7260658,-0.19850425,-0.6477702,-0.117551036,10.541796684265137,-0.8223121166229248,2.1875648498535156,-1.236555814743042,-1.9851897954940796, 6.541837692260742
217,453931529,0.7256022,-0.19946297,-0.6479643,-0.117721826,10.568775177001953,0.35386595129966736,1.7976109981536865,-6.0547661781311035,-3.090736150741577, 4.2906975746154785
218,453948196,0.72504485,-0.20074886,-0.64804447,-0.11852626,9.93719482421875,0.007420080713927746,0.8789783120155334,-10.7445068359375,-2.386579751968384, 2.7484424114227295
219,453964863,0.724466,-0.20171861,-0.6482783,-0.11913927,9.284510612487793,-0.3255749046802521,0.6117743253707886,-8.225276947021484,-3.2625975608825684, 2.1229794025421143
220,453981530,0.7241599,-0.20208877,-0.64851266,-0.119097754,8.882906913757324,-1.1942248344421387,0.6275017857551575,-1.9455149173736572,-2.463365316390991, 2.9700546264648438
221,453998197,0.72402775,-0.2021426,-0.6487341,-0.118602246,8.891472816467285,-1.5226629972457886,0.4406079947948456,1.886099934577942,-1.9946528673171997, 3.970947742462158
222,454014864,0.723882,-0.20240064,-0.64892256,-0.118018836,9.192594528198242,-1.8853180408477783,0.4333122968673706,1.2195168733596802,-2.169344663619995, 5.329446315765381
223,454031531,0.7235351,-0.20288567,-0.6492708,-0.1173958,9.460467338562012,-2.0335514545440674,0.46592745184898376,0.12183322012424469,-4.090246200561523, 6.114385604858398
224,454048198,0.7225419,-0.203519,-0.6502025,-0.117259815,9.395669937133789,-1.2655682563781738,1.1036376953125,-3.214459180831909,-9.310117721557617, 2.9745638370513916
225,454064865,0.7213799,-0.20460026,-0.65094244,-0.11842221,9.106585502624512,-0.3679845631122589,2.015676259994507,-11.636486053466797,-7.6804351806640625, -1.3460508584976196
226,454081532,0.71992433,-0.2066806,-0.65132743,-0.12151003,9.219033241271973,0.707329511642456,1.629719853401184,-25.922870635986328,-5.410773277282715, -6.127943992614746
227,454098199,0.71821225,-0.20924337,-0.6514483,-0.12650515,9.266942024230957,-0.7409530878067017,-0.3260919451713562,-37.451045989990234,-3.001697063446045, -13.160428047180176
228,454114866,0.7168144,-0.2095338,-0.65211713,-0.13044584,9.416581153869629,-2.824664831161499,-0.4333716630935669,-20.573932647705078,-3.8047125339508057, -18.630741119384766
229,454131533,0.71556306,-0.20796843,-0.6531954,-0.13436699,10.330375671386719,-3.0999717712402344,-0.2950659692287445,-10.750310897827148,-3.4866034984588623, -27.397592544555664
230,454148200,0.7136797,-0.20565051,-0.6550645,-0.13877968,10.959914207458496,-2.865283966064453,0.20366011559963226,-9.417478561401367,-8.779232025146484, -35.003936767578125
231,454164867,0.71096957,-0.20413806,-0.65727574,-0.14435612,10.741559982299805,-0.6257574558258057,0.8359402418136597,-19.44654083251953,-13.289793968200684, -38.44108963012695
232,454181534,0.7077878,-0.203507,-0.65960103,-0.15015939,9.912169456481934,0.5239299535751343,0.8834877014160156,-25.331823348999023,-16.55299186706543, -36.17741394042969
233,454198201,0.7045541,-0.20363033,-0.66161734,-0.1562073,10.12717342376709,-0.06656821072101593,0.8639554977416992,-30.50865936279297,-15.747455596923828, -33.506202697753906
234,454214868,0.701549,-0.20323518,-0.6636807,-0.16140833,10.214394569396973,-1.3186811208724976,0.25675877928733826,-23.776687622070312,-15.590190887451172, -31.55258560180664
235,454231535,0.6983189,-0.20220673,-0.6662474,-0.16606556,9.885660171508789,-0.7970813512802124,1.4247430562973022,-17.992313385009766,-19.10146713256836, -32.8060188293457
236,454248202,0.69503057,-0.20174924,-0.6685608,-0.17104532,9.773344039916992,2.097322702407837,1.229750633239746,-22.58259391784668,-18.411102294921875, -31.467594146728516
237,454264869,0.69172686,-0.2022495,-0.67046124,-0.17632663,9.352705001831055,0.38096150755882263,0.44872498512268066,-29.0568790435791,-17.265623092651367, -27.837644577026367
238,454281536,0.68876004,-0.20278662,-0.67205995,-0.18117036,10.410977363586426,0.4805808961391449,-0.00640946626663208,-27.11102867126465,-14.948474884033203, -24.730735778808594
239,454298203,0.68582404,-0.2040386,-0.6735347,-0.18537778,10.001914978027344,-0.07642988860607147,-0.5168158411979675,-27.665164947509766,-15.994195938110352, -18.172414779663086
240,454314870,0.6834278,-0.20543928,-0.6746877,-0.18846147,10.531245231628418,0.48619529604911804,-0.22753818333148956,-22.811298370361328,-13.719813346862793, -11.044840812683105
241,454331537,0.6817396,-0.20707616,-0.67527634,-0.19066297,10.225428581237793,1.2964528799057007,-0.10256282240152359,-19.557750701904297,-9.326881408691406, -4.064537525177002
242,454348204,0.68096256,-0.2090553,-0.67503864,-0.19211705,10.54195499420166,0.89082932472229,-0.6191292405128479,-17.478023529052734,-2.7329933643341064, 3.4579806327819824
243,454364871,0.6809574,-0.2106842,-0.67443454,-0.19247672,10.321402549743652,0.8758186101913452,-0.3945856988430023,-10.133273124694824,1.4799089431762695, 8.542293548583984
244,454381538,0.681424,-0.21094866,-0.67432475,-0.19091427,10.161608695983887,0.20101919770240784,0.3146170973777771,6.5046491622924805,0.3937762975692749, 11.161438941955566
245,454398205,0.6824191,-0.20948976,-0.6747551,-0.1874134,11.108936309814453,-0.5932844877243042,-0.27361804246902466,25.040098190307617,-0.24489648640155792, 12.172142028808594
246,454414872,0.683369,-0.20747456,-0.67575175,-0.18254033,11.874516487121582,-2.249105215072632,-0.7329937219619751,34.682212829589844,-4.350429058074951, 15.130786895751953
247,454431539,0.68411565,-0.20399767,-0.6777938,-0.17597252,11.964829444885254,-2.035086154937744,1.1081191301345825,50.45078659057617,-10.747760772705078, 14.461030006408691
248,454448206,0.684046,-0.1995183,-0.68081516,-0.1696011,11.343950271606445,-0.7041606903076172,2.1609373092651367,54.292572021484375,-17.709604263305664, 6.423591613769531
249,454464873,0.68205047,-0.19476998,-0.685653,-0.16356085,10.657198905944824,-0.978566586971283,2.3996686935424805,53.482967376708984,-34.584651947021484, -1.1496424674987793
250,454481540,0.67798585,-0.18966189,-0.69247496,-0.15761337,9.874441146850586,0.719508945941925,4.276922225952148,54.19593811035156,-53.2127799987793, -8.294472694396973
251,454498207,0.6725861,-0.1828097,-0.7010361,-0.15085469,10.762479782104492,4.614686012268066,6.4684295654296875,66.33565521240234,-67.02342224121094, -16.485979080200195
252,454514874,0.6654002,-0.18188645,-0.70810425,-0.15082614,14.419807434082031,6.362205505371094,8.582113265991211,2.693995475769043,-66.69597625732422, -18.792827606201172
253,454531541,0.65592706,-0.1822468,-0.7164593,-0.15242007,12.589746475219727,0.4832444489002228,8.248446464538574,-12.579797744750977,-83.41090393066406, -23.665233612060547
254,454548208,0.64553964,-0.1784685,-0.7270586,-0.15104115,10.237650871276855,1.231309413909912,6.444729804992676,21.96318817138672,-97.80264282226562, -34.39219665527344
255,454564875,0.63472146,-0.16974169,-0.7401546,-0.14313567,8.459813117980957,0.642427921295166,3.2415146827697754,78.66597747802734,-114.19013977050781, -33.606258392333984
256,454581542,0.6245941,-0.15815213,-0.7534389,-0.13114952,7.863966464996338,3.696769952774048,1.173340916633606,112.97479248046875,-113.56753540039062, -29.850000381469727
257,454598209,0.6176113,-0.14709912,-0.7631543,-0.120473124,8.759653091430664,4.227849006652832,2.0787832736968994,104.15498352050781,-81.03675079345703, -25.793771743774414
258,454614876,0.61516726,-0.1401822,-0.76663464,-0.11912012,7.870758533477783,4.19101095199585,6.658386707305908,37.15360641479492,-24.832590103149414, -33.42885971069336
259,454631543,0.61586565,-0.14049082,-0.7632995,-0.13544764,7.338805675506592,3.110576629638672,8.967975616455078,-89.11090087890625,31.35877227783203, -60.84919357299805
260,454648210,0.6219571,-0.14402662,-0.7531955,-0.15850027,6.8733015060424805,-1.268902063369751,8.102269172668457,-139.15065002441406,91.3684310913086, -60.80841827392578
261,454664877,0.63442117,-0.14707781,-0.73723173,-0.17990986,7.9734344482421875,-4.945724964141846,5.960633277893066,-128.67584228515625,147.9283905029297, -43.72781753540039
262,454681544,0.65238035,-0.14987256,-0.7165505,-0.19619745,9.41943073272705,-7.03616189956665,2.070481300354004,-101.94032287597656,191.207763671875, -11.444053649902344
263,454698211,0.6746602,-0.15219568,-0.6923871,-0.20559756,11.602228164672852,-7.9095845222473145,-0.6224707365036011,-66.22593688964844,221.5532684326172, 26.152990341186523
264,454714878,0.6992105,-0.15541218,-0.6653019,-0.21053551,13.88801383972168,-7.8113694190979,-2.8121376037597656,-50.9708137512207,240.02635192871094, 56.96675109863281
265,454731545,0.72458035,-0.1582988,-0.63655657,-0.21147239,14.89118480682373,-7.242672920227051,-2.9521639347076416,-32.67049789428711,248.1275177001953, 77.26956176757812
266,454748212,0.7501757,-0.16102566,-0.60543615,-0.21155262,15.963677406311035,-5.2796125411987305,-4.449308395385742,-31.354270935058594,260.4693908691406, 83.41471862792969
267,454764879,0.7734515,-0.16139787,-0.5759382,-0.20980713,16.303152084350586,-3.6752631664276123,-6.618290901184082,-11.799394607543945,244.15585327148438, 77.62425994873047
268,454781546,0.7943368,-0.16365081,-0.54625,-0.2094247,14.884765625,-0.17618310451507568,-10.050216674804688,-30.0893497467041,234.94239807128906, 74.44121551513672
269,454798213,0.8104079,-0.16353422,-0.5241386,-0.20438834,13.837844848632812,2.534963369369507,-14.294034957885742,5.85446834564209,174.21420288085938, 75.50887298583984
270,454814880,0.81981134,-0.16268569,-0.5127648,-0.19625226,13.338030815124512,6.367894649505615,-14.789799690246582,28.697805404663086,88.62207794189453, 68.82084655761719
271,454831547,0.8253813,-0.14923921,-0.51531345,-0.17585671,8.382179260253906,1.2574959993362427,-21.81963539123535,157.38804626464844,0.6630870699882507, 73.02637481689453
272,454848214,0.8259778,-0.12813553,-0.5270912,-0.15335213,8.110189437866211,6.38539457321167,-18.514310836791992,214.46255493164062,-61.35282897949219, 42.39567947387695
273,454864881,0.8176342,-0.108896606,-0.5473881,-0.14135887,8.596991539001465,18.61054801940918,-17.290205001831055,166.83364868164062,-134.07015991210938, -27.33935546875
274,454881548,0.7991085,-0.1129054,-0.5711022,-0.1500678,7.247928619384766,16.119115829467773,-15.52245807647705,-46.35207748413086,-197.9622039794922, -68.05683898925781
275,454898215,0.7747645,-0.12290382,-0.5971777,-0.16737266,10.490178108215332,25.464679718017578,-25.12325096130371,-115.30294036865234,-232.721923828125, -98.95574951171875
276,454914882,0.74141973,-0.14474265,-0.6236505,-0.20101409,23.188528060913086,14.635125160217285,-12.000177383422852,-252.93775939941406,-270.83319091796875, -146.95648193359375
277,454931549,0.711894,-0.15416704,-0.6491868,-0.21908022,17.689268112182617,-13.821493148803711,13.409383773803711,-120.29444122314453,-247.5428924560547, -113.76521301269531
278,454948216,0.68164235,-0.15003893,-0.67681664,-0.23403272,25.456499099731445,-4.540717124938965,0.9056522250175476,-37.50873947143555,-244.4619598388672, -162.81163024902344
279,454964883,0.65343195,-0.14688422,-0.7006708,-0.24599199,4.500941753387451,-2.2178800106048584,-5.416856288909912,-32.073909759521484,-221.95628356933594, -137.28335571289062
280,454981550,0.6285066,-0.15311989,-0.71497285,-0.26523146,14.113569259643555,3.247152328491211,-2.8476977348327637,-122.19823455810547,-171.63746643066406, -109.57221221923828
281,454998217,0.6075157,-0.15166277,-0.7299651,-0.27399674,12.263667106628418,0.10669448971748352,-0.9930816888809204,-32.038761138916016,-152.29434204101562, -95.57144165039062
282,455014884,0.59047467,-0.14573924,-0.74407667,-0.27649555,10.492850303649902,0.6569552421569824,-8.208330154418945,20.540224075317383,-126.97049713134766, -83.54969787597656
283,455031551,0.57707703,-0.1401917,-0.7553866,-0.27698302,10.922133445739746,3.1430349349975586,-5.971286296844482,27.57215118408203,-99.47673034667969, -63.837974548339844
284,455048218,0.5675413,-0.13634649,-0.76325536,-0.2770344,15.99410629272461,4.699696063995361,-3.820648431777954,20.22579002380371,-69.31912994384766, -42.63283920288086
285,455064885,0.5622245,-0.13265972,-0.7687581,-0.27443764,14.069278717041016,5.95176362991333,-5.913919448852539,32.960205078125,-40.744285583496094, -21.258485794067383
286,455081552,0.5609875,-0.12924138,-0.7719689,-0.2695437,14.86715316772461,5.374266147613525,-7.017313480377197,43.465126037597656,-12.848383903503418, -1.178525686264038
287,455098219,0.56397706,-0.1277673,-0.77225125,-0.26312283,19.488142013549805,4.620322227478027,-5.289550304412842,42.399620056152344,16.02054214477539, 25.418071746826172
288,455114886,0.5722561,-0.13160552,-0.7659865,-0.2616635,25.531494140625,1.9497358798980713,-2.115896463394165,-11.723875999450684,64.22661590576172, 49.62164306640625
289,455131553,0.57940847,-0.13726923,-0.7592077,-0.26276702,21.66339683532715,-6.905041694641113,-3.253384590148926,-34.32383728027344,59.16463088989258, 47.41162109375
290,455148220,0.58145857,-0.13406304,-0.76234126,-0.25053748,15.902423858642578,-9.983956336975098,-2.622896432876587,83.66850280761719,-3.60060977935791, 35.175743103027344
291,455164887,0.5777698,-0.12606803,-0.7716126,-0.23431407,10.825435638427734,1.1221147775650024,-3.2354319095611572,128.98916625976562,-53.70281982421875, 9.906683921813965
292,455181554,0.5627604,-0.11880162,-0.78623927,-0.22586541,12.509781837463379,16.32050323486328,-8.908171653747559,83.65885162353516,-129.4769744873047, -40.14878463745117
293,455198221,0.5342854,-0.11581056,-0.80465144,-0.23165293,17.50750732421875,14.855377197265625,-8.950241088867188,-14.910161018371582,-211.79763793945312, -95.71773529052734
294,455214888,0.49683073,-0.108650714,-0.82690907,-0.23995017,16.731279373168945,5.684688568115234,-2.1368932723999023,-14.45611572265625,-266.9591064453125, -145.02662658691406
295,455231555,0.45460442,-0.09402159,-0.8525114,-0.24024794,19.528162002563477,2.405409336090088,4.394859790802002,58.53366470336914,-299.4061279296875, -170.54623413085938
296,455248222,0.40855995,-0.07761537,-0.87897146,-0.2333746,19.176965713500977,1.9343498945236206,10.49087142944336,105.14916229248047,-326.6639404296875, -165.6024169921875
297,455264889,0.36066172,-0.06649082,-0.90133774,-0.23041806,17.568851470947266,-0.29978787899017334,14.485121726989746,59.20362091064453,-333.400634765625, -145.65957641601562
298,455281556,0.31405967,-0.057457827,-0.9200985,-0.22690098,16.2381649017334,-5.260005950927734,15.555862426757812,52.54618835449219,-320.71820068359375, -127.82547760009766
299,455298223,0.2703326,-0.047932804,-0.9360778,-0.2199575,15.461246490478516,-5.375790596008301,16.696704864501953,72.17225646972656,-297.8208312988281, -118.27433013916016
300,455314890,0.23050603,-0.039971218,-0.9485103,-0.21353583,14.865274429321289,-5.818271160125732,16.450326919555664,61.91151428222656,-269.0054016113281, -102.40351867675781
301,455331557,0.19615552,-0.035848368,-0.9571422,-0.2100398,17.20646858215332,-4.850762844085693,15.338817596435547,32.72569274902344,-232.7444610595703, -73.18779754638672
302,455348224,0.16824941,-0.034778293,-0.9623934,-0.21043207,17.32693862915039,-4.278256893157959,13.658512115478516,-0.21985077857971191,-189.89649963378906, -48.4765625
303,455364891,0.14803505,-0.03605415,-0.9654384,-0.21145867,15.267298698425293,-3.1233069896698,11.240371704101562,-8.442586898803711,-140.32394409179688, -22.303043365478516
304,455381558,0.1363133,-0.0393951,-0.9673584,-0.20996301,12.76567554473877,-1.8417719602584839,7.829510688781738,6.6977667808532715,-86.96971893310547, 6.375038146972656
305,455398225,0.13479815,-0.04582777,-0.9677615,-0.2077665,10.356667518615723,-0.6233698725700378,4.867795944213867,9.040891647338867,-22.72284507751465, 42.582374572753906
306,455414892,0.14514259,-0.05612983,-0.96597064,-0.20660058,8.065940856933594,0.8790158629417419,1.7996746301651,-0.8192766308784485,52.75759506225586, 84.91472625732422
307,455431559,0.16662088,-0.07033011,-0.9613219,-0.2077294,7.057048320770264,2.493114471435547,-0.007295235991477966,-19.75029182434082,124.79515075683594, 125.40462493896484
308,455448226,0.19795746,-0.08708588,-0.9528243,-0.21296728,7.078272819519043,4.910683631896973,-0.5090398788452148,-50.6021728515625,192.70529174804688, 153.53916931152344
309,455464893,0.23737131,-0.10572765,-0.93933046,-0.22390838,8.10264778137207,5.737054824829102,-1.1623122692108154,-93.01123046875,253.1542510986328, 172.9896240234375
310,455481560,0.28384832,-0.12513919,-0.9207415,-0.23665522,8.987165451049805,4.753635883331299,-1.608152151107788,-108.6338119506836,307.33563232421875, 189.63629150390625
311,455498227,0.33601663,-0.14367056,-0.8969077,-0.24901506,10.334081649780273,5.667773246765137,-1.405861496925354,-108.1212387084961,354.85235595703125, 198.63230895996094
312,455514894,0.39306813,-0.16103081,-0.86691713,-0.26080906,11.9391450881958,4.096009731292725,-2.052755355834961,-107.6479263305664,400.8099670410156, 207.23495483398438
313,455531561,0.45544297,-0.17316908,-0.83280826,-0.26270625,13.247722625732422,0.2328510284423828,-2.7502517700195312,-36.009151458740234,442.2578430175781, 217.04248046875
314,455548228,0.521416,-0.17719348,-0.7945306,-0.25583053,15.60534381866455,2.1825203895568848,-2.8052854537963867,36.390201568603516,480.3353576660156, 209.5714874267578
315,455564895,0.5862357,-0.17952913,-0.7498945,-0.24850662,18.63002586364746,-1.4887675046920776,-4.847109317779541,32.27104949951172,499.4425048828125, 207.78775024414062
316,455581562,0.6493195,-0.17703709,-0.701299,-0.23499309,23.06538200378418,-2.093796730041504,-5.789246082305908,74.73979949951172,507.2951354980469, 209.8167266845703
317,455598229,0.70451236,-0.16990536,-0.65293837,-0.22015041,26.544437408447266,5.467133522033691,-7.645566463470459,92.62307739257812,474.2203063964844, 180.33578491210938
318,455614896,0.74981606,-0.16983633,-0.60210025,-0.21542276,34.0350456237793,12.564946174621582,-19.793601989746094,-2.400561571121216,443.1965637207031, 151.10865783691406
319,455631563,0.7855832,-0.16537938,-0.56047523,-0.20341158,26.951656341552734,6.323014259338379,-22.735530853271484,52.85863494873047,354.693359375, 145.86605834960938
320,455648230,0.80951357,-0.15034598,-0.53475267,-0.19006182,13.53430461883545,17.246280670166016,-26.454578399658203,123.90773010253906,236.95571899414062, 77.81393432617188
321,455664897,0.81928146,-0.1418211,-0.5244587,-0.1833246,8.460870742797852,18.547725677490234,-33.24599838256836,68.77775573730469,97.8449935913086, 30.758913040161133
322,455681564,0.8178165,-0.13078061,-0.53174144,-0.17698582,3.107440710067749,12.14333438873291,-37.13150405883789,92.62406158447266,-37.55669021606445, -11.604990005493164
323,455698231,0.80662584,-0.112419575,-0.55464303,-0.17055151,9.6529541015625,15.507335662841797,-33.3417854309082,144.3780975341797,-151.63931274414062, -63.62192153930664
324,455714898,0.7843677,-0.086000696,-0.58889467,-0.17485653,21.38299560546875,46.81538391113281,-36.59153366088867,152.81979370117188,-238.69027709960938, -175.61004638671875
325,455731565,0.7455388,-0.12926786,-0.6107628,-0.23330408,31.12731170654297,-4.763028144836426,26.43637466430664,-467.7308044433594,-290.6446838378906, -197.52957153320312
326,455748232,0.7116435,-0.11894868,-0.6467767,-0.24717376,15.165186882019043,-17.105871200561523,1.7215220928192139,21.891489028930664,-296.4175720214844, -198.643798828125
327,455764899,0.674213,-0.118925825,-0.67790717,-0.26783505,8.481184005737305,-2.0403811931610107,-18.161361694335938,-69.85520935058594,-300.35711669921875, -188.41578674316406
328,455781566,0.6437953,-0.12216796,-0.70142895,-0.28035697,3.5481724739074707,7.037432670593262,-3.11494517326355,-55.33345031738281,-244.91693115234375, -116.34886169433594
329,455798233,0.62156427,-0.12220058,-0.7148524,-0.29616043,21.92375373840332,-2.654911518096924,-1.9789059162139893,-69.51395416259766,-151.86419677734375, -122.03617858886719
330,455814900,0.6019532,-0.11654667,-0.7308007,-0.3,18.607585906982422,-3.4396278858184814,-7.892199993133545,20.950624465942383,-148.365478515625, -95.7826156616211
331,455831567,0.5864975,-0.110772274,-0.7435858,-0.30138108,13.252203941345215,1.7330392599105835,-4.95811653137207,30.589597702026367,-116.15250396728516, -75.2522201538086
332,455848234,0.57547534,-0.10656689,-0.7524693,-0.30209544,13.17972183227539,5.6187543869018555,-4.694701671600342,22.963685989379883,-81.57305145263672, -52.45038986206055
333,455864901,0.56794465,-0.10419886,-0.7590666,-0.30066523,11.467721939086914,7.505398273468018,-3.8766491413116455,24.612834930419922,-59.91253662109375, -25.55950355529785
334,455881568,0.5637738,-0.10215911,-0.7644242,-0.2955982,12.426115989685059,7.199428558349609,-3.5505571365356445,42.18089294433594,-40.881858825683594, -1.8198683261871338
335,455898235,0.5626943,-0.09947596,-0.7690365,-0.28646576,14.906777381896973,7.043256759643555,-5.364540100097656,66.72664642333984,-23.350637435913086, 17.342138290405273
336,455914902,0.5632212,-0.09564368,-0.7736438,-0.27406123,19.73482894897461,4.520719051361084,-2.2033891677856445,89.58615112304688,-14.856499671936035, 27.05803871154785
337,455931569,0.56587136,-0.091939114,-0.77555686,-0.26428905,21.55455780029297,1.3284623622894287,-1.0140118598937988,71.4327621459961,8.280400276184082, 23.25054359436035
338,455948236,0.5677454,-0.086213775,-0.7794366,-0.2504216,22.206634521484375,-3.888519048690796,-1.2766478061676025,104.23550415039062,-2.5193543434143066, 25.668201446533203
339,455964903,0.568702,-0.07983865,-0.7858041,-0.22959983,19.61577033996582,-6.450184345245361,4.37180757522583,147.7911834716797,-20.239498138427734, 46.1611213684082
340,455981570,0.57344234,-0.080214284,-0.7858292,-0.2172606,15.92989730834961,-1.552039623260498,12.067376136779785,67.63417053222656,18.880939483642578, 58.807533264160156
341,455998237,0.57291085,-0.087470025,-0.78458315,-0.22034404,2.7112066745758057,-0.7219133377075195,1.5991344451904297,-47.58427047729492,-6.520615100860596, 27.956632614135742
342,456014904,0.556242,-0.08485672,-0.79885465,-0.21266297,7.833639621734619,9.537088394165039,-1.3791353702545166,63.175315856933594,-146.26751708984375, -16.66054344177246
343,456031571,0.53174233,-0.08534921,-0.8148794,-0.21433046,7.997061729431152,5.428228378295898,3.332441806793213,-2.0306074619293213,-195.1052703857422, -47.77260971069336
344,456048238,0.50268817,-0.080906294,-0.83385277,-0.21318704,12.317968368530273,4.64182186126709,3.133726119995117,33.46933364868164,-225.85302734375, -73.57316589355469
345,456064905,0.47148508,-0.07538653,-0.8525149,-0.21269034,13.819519996643066,-1.2534420490264893,8.858529090881348,31.86086654663086,-235.22767639160156, -84.9583740234375
346,456081572,0.43883416,-0.067269675,-0.8727088,-0.20317218,12.802098274230957,-3.684302806854248,10.721898078918457,94.68353271484375,-249.67431640625, -73.88420867919922
347,456098239,0.4065586,-0.057834536,-0.8923466,-0.1873048,12.595158576965332,-2.781217098236084,11.542634963989258,136.18055725097656,-246.9481201171875, -61.89624786376953
348,456114906,0.37526208,-0.048735272,-0.9103658,-0.16744384,11.683792114257812,-3.792146682739258,12.007475852966309,158.06834411621094,-238.53640747070312, -46.791046142578125
349,456131573,0.34617752,-0.04077066,-0.92614883,-0.14404014,13.02849006652832,-2.786961317062378,11.187232971191406,175.48963928222656,-221.50048828125, -27.267518997192383
350,456148240,0.32036608,-0.03639705,-0.93838197,-0.12441944,15.665922164916992,-0.41742992401123047,10.046204566955566,140.23780822753906,-194.77069091796875, -9.173632621765137
351,456164907,0.29901138,-0.036178816,-0.9468833,-0.11267373,16.702251434326172,1.4330552816390991,6.896090507507324,78.19136810302734,-159.4458465576172, 5.030823230743408
352,456181574,0.28305966,-0.0391795,-0.95171,-0.112207465,16.383193969726562,4.021332740783691,5.0474419593811035,-3.3556551933288574,-116.46479797363281, 7.887712478637695
353,456198241,0.2735137,-0.045854796,-0.9526845,-0.1244186,14.475460052490234,4.1705708503723145,3.1947028636932373,-94.68486022949219,-66.52490997314453, 13.221131324768066
354,456214908,0.27141124,-0.054909684,-0.950368,-0.14185177,12.510725021362305,3.7605278491973877,1.1450986862182617,-133.81561279296875,-11.999573707580566, 26.365602493286133
355,456231575,0.27837434,-0.06532806,-0.9451288,-0.15802366,10.087307929992676,3.4098410606384277,1.177074909210205,-127.53289794921875,50.87565231323242, 47.54804992675781
356,456248242,0.29567003,-0.076732405,-0.9369374,-0.16982262,7.713038444519043,3.4168248176574707,0.36013662815093994,-99.5611343383789,120.64095306396484, 74.8628921508789
357,456264909,0.3237791,-0.08850769,-0.92500305,-0.1780534,7.037841796875,4.615045547485352,0.19031190872192383,-75.99026489257812,195.6266632080078, 99.11271667480469
358,456281576,0.36174873,-0.10106836,-0.9080676,-0.18530081,7.313863754272461,2.8332066535949707,0.06536146998405457,-71.600341796875,267.9718322753906, 121.43826293945312
359,456298243,0.4072499,-0.11267785,-0.8862219,-0.18990044,8.447691917419434,2.208817481994629,-0.2351040244102478,-53.72332000732422,326.6473388671875, 135.12399291992188
360,456314910,0.45789808,-0.12348201,-0.85865045,-0.1944254,9.337028503417969,1.3392428159713745,-1.4075167179107666,-54.50519561767578,375.10980224609375, 141.6121826171875
361,456331577,0.5124801,-0.13256963,-0.8251784,-0.19715516,9.855239868164062,-1.757056713104248,-2.8130009174346924,-43.05458450317383,417.76507568359375, 147.43203735351562
362,456348244,0.5695306,-0.13854118,-0.7859803,-0.19666314,11.466470718383789,-3.2963671684265137,-3.560638904571533,-19.309688568115234,453.3241271972656, 149.69052124023438
363,456364911,0.62668824,-0.14266703,-0.7408532,-0.19505067,14.838512420654297,-4.008732318878174,-6.1369757652282715,-13.955629348754883,478.6318359375, 149.90545654296875
364,456381578,0.6806669,-0.14365558,-0.69258666,-0.19073391,20.427635192871094,-0.7445756793022156,-7.384907245635986,6.007370471954346,477.5556335449219, 144.37948608398438
365,456398245,0.7270409,-0.14688309,-0.6430595,-0.19055621,24.239845275878906,9.596453666687012,-15.529526710510254,-33.3854866027832,448.3811340332031, 126.92117309570312
366,456414912,0.7636472,-0.15861443,-0.59424883,-0.19634876,28.839811325073242,13.90861988067627,-14.945648193359375,-111.27656555175781,396.53851318359375, 121.19425964355469
367,456431579,0.79162276,-0.16113967,-0.55698824,-0.19269598,22.83308219909668,9.144904136657715,-23.091053009033203,-18.131698608398438,302.7494201660156, 108.96817779541016
368,456448246,0.8107142,-0.14818263,-0.5366913,-0.18096144,12.054405212402344,12.550500869750977,-30.049480438232422,109.70307922363281,188.0579833984375, 63.12126922607422
369,456464913,0.81892586,-0.13069712,-0.5328973,-0.168224,5.271819114685059,13.501189231872559,-31.79470443725586,148.04893493652344,60.70030212402344, 21.69546890258789
370,456481580,0.8163339,-0.112940624,-0.54357177,-0.15929003,4.728641033172607,14.854990005493164,-30.894527435302734,142.6255645751953,-56.45267868041992, -26.169635772705078
371,456498247,0.8032008,-0.10175729,-0.56533706,-0.15782264,7.368720531463623,14.019716262817383,-25.956621170043945,81.75096893310547,-159.35687255859375, -63.62188720703125
372,456514914,0.7819185,-0.09029811,-0.59469247,-0.16367759,17.933595657348633,30.918325424194336,-31.471046447753906,57.31660461425781,-227.4382781982422, -119.24979400634766
373,456531581,0.7450056,-0.11745739,-0.6222093,-0.2098239,21.087398529052734,14.673624992370605,-1.016297698020935,-327.1402587890625,-299.9625549316406, -194.34580993652344
374,456548248,0.715795,-0.12056298,-0.6493061,-0.22694439,13.295260429382324,-30.191871643066406,18.258094787597656,-73.8861083984375,-253.4766845703125, -136.89239501953125
375,456564915,0.6830853,-0.11117385,-0.67978895,-0.24273837,29.476430892944336,7.8614068031311035,-3.151236057281494,-4.060577392578125,-267.5321960449219, -194.6249237060547
376,456581582,0.6530258,-0.11077574,-0.70421004,-0.2556841,7.833899974822998,-8.249907493591309,-7.38169527053833,-41.08039855957031,-243.83311462402344, -130.114501953125
377,456598249,0.62694657,-0.10572502,-0.7249115,-0.26507285,13.020208358764648,4.687785625457764,-0.8804783225059509,-6.493178367614746,-202.3699188232422, -126.88435363769531
378,456614916,0.6052637,-0.10366378,-0.7397936,-0.27498245,11.536587715148926,2.966637372970581,-2.277928590774536,-29.37656593322754,-160.45896911621094, -101.9697494506836
379,456631583,0.58834666,-0.100902826,-0.7514271,-0.2811123,9.499612808227539,6.698636054992676,-3.0434298515319824,-9.979609489440918,-124.08747863769531, -78.47262573242188
380,456648250,0.5757953,-0.10041547,-0.7588356,-0.28730652,10.818148612976074,7.81637716293335,-2.4939827919006348,-24.63394546508789,-88.80679321289062, -55.602943420410156
381,456664917,0.5658547,-0.102704704,-0.7643805,-0.2915179,14.343498229980469,4.456910610198975,-4.231911659240723,-27.141490936279297,-74.6828384399414, -26.809886932373047
382,456681584,0.5575522,-0.10599553,-0.7698691,-0.29189447,12.750837326049805,5.189305305480957,-6.51096773147583,-9.835197448730469,-70.58763885498047, -3.3157644271850586
383,456698251,0.5518874,-0.1105227,-0.773857,-0.29043168,14.509239196777344,5.986887454986572,-5.239112854003906,-5.926463603973389,-54.69822311401367, 16.660184860229492
384,456714918,0.5494545,-0.114967324,-0.7758936,-0.28787407,18.47791862487793,5.832272052764893,-5.247647285461426,-1.220555067062378,-30.775636672973633, 28.304412841796875
385,456731585,0.54832923,-0.116313845,-0.7783099,-0.2829137,22.46369743347168,1.102996587753296,-2.3118185997009277,25.092729568481445,-21.016708374023438, 23.125713348388672
386,456748252,0.54974693,-0.112170726,-0.7814656,-0.27296105,22.62594223022461,-1.26802396774292,-1.587629795074463,75.97881317138672,-3.54447603225708, 16.87761116027832
387,456764919,0.55179566,-0.105244264,-0.78636295,-0.25705788,20.725854873657227,-2.7378673553466797,2.493609666824341,122.22776794433594,-6.138817310333252, 24.19674301147461
388,456781586,0.5577755,-0.10876572,-0.7830099,-0.25288725,19.25820541381836,-3.786109209060669,10.984294891357422,7.421230316162109,36.38584899902344, 49.032493591308594
389,456798253,0.5552314,-0.11121908,-0.78565073,-0.24920145,5.143927097320557,-5.976688861846924,2.703946352005005,12.984399795532227,-30.361568450927734, 22.065702438354492
390,456814920,0.5401208,-0.09922908,-0.8032888,-0.23054342,6.957920074462891,5.6825056076049805,-2.3975768089294434,165.1029510498047,-142.24928283691406, -31.838958740234375
391,456831587,0.5161497,-0.08933846,-0.8221727,-0.22280116,9.657837867736816,4.398231029510498,3.7560997009277344,92.95118713378906,-191.70523071289062, -75.66512298583984
392,456848254,0.48738223,-0.07449431,-0.8439055,-0.21150129,13.506800651550293,3.5796782970428467,3.996913194656372,132.10841369628906,-223.5928497314453, -100.14881896972656
393,456864921,0.45475513,-0.0635966,-0.8638923,-0.20698696,15.54188060760498,0.9207853078842163,8.851221084594727,75.01094818115234,-242.45372009277344, -104.71575927734375
394,456881588,0.4205291,-0.053059466,-0.88305366,-0.20138647,14.3714017868042,-2.416910171508789,10.969351768493652,78.49697875976562,-250.44393920898438, -101.12000274658203
395,456898255,0.38693023,-0.041787464,-0.9013286,-0.19011979,13.352871894836426,-1.4768601655960083,12.346435546875,114.0584716796875,-245.2114715576172, -88.04280090332031
396,456914922,0.35502002,-0.03287353,-0.9172678,-0.17748222,12.926690101623535,-1.9446712732315063,13.210543632507324,113.7369384765625,-232.08660888671875, -66.92777252197266
397,456931589,0.3264762,-0.026884064,-0.9300557,-0.16639486,15.649600982666016,-0.33457034826278687,11.836776733398438,93.75120544433594,-206.4510498046875, -47.47169494628906
398,456948256,0.30265573,-0.024818292,-0.93925947,-0.15992256,16.678979873657227,0.9729760885238647,9.708051681518555,52.22050094604492,-171.9078826904297, -26.700885772705078
399,456964923,0.28421476,-0.025756031,-0.94533193,-0.15781702,16.042320251464844,0.40519821643829346,7.2980241775512695,15.26511287689209,-133.27964782714844, -9.971583366394043
400,456981590,0.27142036,-0.027302332,-0.9493249,-0.15610279,14.445625305175781,0.6005160212516785,4.958178520202637,10.288894653320312,-93.16873931884766, -0.31605765223503113
401,456998257,0.26590055,-0.030089417,-0.9508343,-0.15590324,12.414650917053223,3.1304330825805664,3.4693408012390137,-3.2055795192718506,-42.14875793457031, 13.207656860351562
402,457014924,0.26955143,-0.036120705,-0.94846165,-0.16265975,9.73246955871582,3.3432443141937256,1.4689966440200806,-56.855655670166016,22.83051109313965, 32.31340789794922
403,457031591,0.28297007,-0.04462055,-0.94258827,-0.17165226,7.9156599044799805,3.070972442626953,0.5879953503608704,-77.48904418945312,90.80265045166016, 56.04957580566406
404,457048258,0.30663723,-0.05491331,-0.9326412,-0.18204023,6.564515113830566,3.6231484413146973,0.8646756410598755,-91.68116760253906,163.47579956054688, 78.29900360107422
405,457064925,0.3394497,-0.06714202,-0.9179901,-0.19380435,6.880903720855713,2.6183931827545166,0.35445719957351685,-107.01844024658203,230.17535400390625, 101.0469741821289
406,457081592,0.3793427,-0.080061436,-0.8988144,-0.20450437,7.992062568664551,2.3492629528045654,-0.2726805806159973,-104.67672729492188,284.06317138671875, 119.43411254882812
407,457098259,0.4246127,-0.09375334,-0.8746582,-0.21421354,9.05478286743164,1.2647875547409058,-1.1493353843688965,-104.61481475830078,328.706787109375, 137.1207275390625
408,457114926,0.47449106,-0.107094295,-0.84546876,-0.22039,9.813579559326172,-0.7325212955474854,-2.2861223220825195,-86.79283142089844,369.4158935546875, 155.388671875
409,457131593,0.52890176,-0.11719345,-0.8120095,-0.2171855,10.6026611328125,-4.257675647735596,-3.3357608318328857,-24.799057006835938,407.7685852050781, 177.20033264160156
410,457148260,0.58577156,-0.122566596,-0.7738783,-0.20727216,12.798933982849121,-2.4705686569213867,-4.255440711975098,24.850526809692383,440.2158203125, 182.67393493652344
411,457164927,0.6407702,-0.12627521,-0.7316677,-0.19527034,15.610832214355469,-2.917391538619995,-6.970141887664795,35.259857177734375,447.335693359375, 183.01712036132812
412,457181594,0.69171673,-0.12609473,-0.6872738,-0.18243591,21.093730926513672,3.7470078468322754,-6.342532157897949,50.11606979370117,441.0879211425781, 163.56088256835938
413,457198261,0.7367725,-0.13291746,-0.63828814,-0.17913064,25.001649856567383,6.610570430755615,-14.829609870910645,-39.16608428955078,434.59503173828125, 147.94207763671875
414,457214928,0.77262366,-0.1374331,-0.59501904,-0.17354313,28.555925369262695,8.015302658081055,-23.140846252441406,-18.84366226196289,365.99017333984375, 132.82066345214844
415,457231595,0.79714763,-0.13772011,-0.563159,-0.16864464,19.24358367919922,17.68922996520996,-23.41063690185547,3.674259662628174,264.8048095703125, 87.55992889404297
416,457248262,0.8096985,-0.13686302,-0.5456994,-0.1669403,8.822243690490723,13.88081169128418,-30.938194274902344,2.89601731300354,143.986572265625, 38.18212890625
417,457264929,0.8109942,-0.13070701,-0.54565126,-0.16573766,5.947828769683838,19.385799407958984,-32.58066177368164,39.85789489746094,11.567521095275879, -13.73565673828125
418,457281596,0.8022862,-0.12397797,-0.5598443,-0.16595434,6.245779991149902,16.462995529174805,-32.012489318847656,44.918373107910156,-103.25704193115234, -47.90876770019531
419,457298263,0.7837731,-0.10202205,-0.58988434,-0.16531175,16.875673294067383,39.01601028442383,-43.25096893310547,141.9273223876953,-211.6424560546875, -126.44393157958984
420,457314930,0.7470553,-0.12550654,-0.6181726,-0.20980738,26.866437911987305,23.067527770996094,10.605981826782227,-301.1075134277344,-295.9546203613281, -204.73471069335938
421,457331597,0.7180916,-0.12436949,-0.64645904,-0.22575976,8.839759826660156,-31.692678451538086,13.774656295776367,-46.378562927246094,-252.04608154296875, -151.3023681640625
422,457348264,0.68286115,-0.118934065,-0.677508,-0.24604547,21.115922927856445,5.723204135894775,-11.074357986450195,-45.491519927978516,-283.32379150390625, -204.13253784179688
423,457364931,0.6500908,-0.12497178,-0.7024008,-0.26152852,4.95357084274292,-5.547732830047607,-10.194589614868164,-85.42259216308594,-266.22247314453125, -118.87108612060547
424,457381598,0.6227283,-0.12723565,-0.7212578,-0.27533236,17.34429359436035,3.0929360389709473,0.01643875241279602,-66.67898559570312,-207.72561645507812, -114.69376373291016
425,457398265,0.60064757,-0.12713358,-0.7353633,-0.28688037,15.001483917236328,-0.9162736535072327,-4.128983497619629,-49.71536636352539,-158.70396423339844, -102.60025024414062
426,457414932,0.5829988,-0.12281359,-0.74832785,-0.29160726,13.22976303100586,0.5639483332633972,-5.39354133605957,3.8013951778411865,-129.23541259765625, -86.03933715820312
427,457431599,0.5695544,-0.11822385,-0.75817573,-0.29461962,14.063017845153809,2.047041177749634,-5.863436222076416,10.987584114074707,-96.01996612548828, -69.51506042480469
428,457448266,0.5590209,-0.1141513,-0.7667743,-0.2941471,13.085433006286621,4.707502841949463,-5.705554485321045,26.947519302368164,-79.83736419677734, -46.280479431152344
429,457464933,0.5516462,-0.11042274,-0.7732568,-0.29251897,12.8543062210083,6.881793022155762,-4.383722305297852,29.913442611694336,-56.6566276550293, -31.984092712402344
430,457481600,0.54742813,-0.10743037,-0.777383,-0.29061514,14.725874900817871,7.615621566772461,-4.215512275695801,26.25479507446289,-32.63649368286133, -18.88653564453125
431,457498267,0.54406357,-0.103003755,-0.78288436,-0.28368506,17.978946685791016,3.5340514183044434,-1.592803955078125,61.91154861450195,-34.107810974121094, -6.947811126708984
432,457514934,0.5436294,-0.0975627,-0.78706515,-0.27473098,19.70998764038086,5.125763893127441,-2.6987144947052,76.11428833007812,-12.879833221435547, 1.7771422863006592
433,457531601,0.5448308,-0.09109922,-0.79153013,-0.2614201,20.005224227905273,0.5296820998191833,-1.8042088747024536,105.16331481933594,-6.107848644256592, 15.394865989685059
434,457548268,0.5473807,-0.084569685,-0.7965483,-0.24234961,19.496583938598633,-4.362277984619141,0.411148339509964,138.60128784179688,-4.362545013427734, 38.63069152832031
435,457564935,0.5554788,-0.08450606,-0.7957338,-0.22607507,20.81705665588379,-2.959556818008423,11.093069076538086,92.45157623291016,38.77948760986328, 76.07604217529297
436,457581602,0.5596955,-0.09120037,-0.79279286,-0.22339062,5.13804817199707,-1.8198206424713135,2.9484269618988037,-13.230573654174805,22.943378448486328, 56.27923583984375
437,457598269,0.5463834,-0.085152,-0.80649024,-0.20925517,6.3957085609436035,12.09798526763916,-3.7835521697998047,112.80670928955078,-124.28534698486328, -6.491812705993652
438,457614936,0.5239979,-0.084191576,-0.82092583,-0.21075816,8.508560180664062,3.0223186016082764,3.7338979244232178,2.7682831287384033,-175.53330993652344, -50.46011734008789
439,457631603,0.49737898,-0.07181369,-0.84132296,-0.19907993,12.078784942626953,1.3978396654129028,3.890683174133301,124.55255889892578,-212.0677947998047, -77.0140609741211
440,457648270,0.46725842,-0.057835102,-0.8619818,-0.18791616,15.093729972839355,-1.2679507732391357,8.353275299072266,125.71212005615234,-230.84567260742188, -92.98200988769531
441,457664937,0.43394488,-0.043293595,-0.8832306,-0.17239921,15.951345443725586,-0.12491142749786377,11.281461715698242,152.85916137695312,-252.7880401611328, -86.73831939697266
442,457681604,0.39927664,-0.032891266,-0.9020527,-0.16061535,15.123973846435547,-0.032137155532836914,12.87079906463623,114.5934829711914,-257.6820373535156, -73.65837860107422
443,457698271,0.36500695,-0.025708992,-0.91814446,-0.15205209,16.116844177246094,-0.21571487188339233,14.568110466003418,82.89376831054688,-250.6561737060547, -61.507328033447266
444,457714938,0.33384264,-0.022112928,-0.9308071,-0.1471678,18.586793899536133,0.17316880822181702,13.72486686706543,47.67499542236328,-225.66403198242188, -44.293094635009766
445,457731605,0.30726805,-0.021245927,-0.9400992,-0.1461118,19.2756404876709,1.418390154838562,12.516122817993164,14.238531112670898,-190.86038208007812, -30.511825561523438
446,457748272,0.28637704,-0.022048892,-0.9463312,-0.14818726,17.300106048583984,0.26627257466316223,9.799895286560059,-11.723909378051758,-149.00607299804688, -20.237396240234375
447,457764939,0.2717727,-0.022312645,-0.9507451,-0.1473968,14.67280101776123,1.201236605644226,7.294445037841797,7.119515419006348,-104.51675415039062, -11.480498313903809
448,457781606,0.26529694,-0.02461545,-0.95223224,-0.14921603,11.939672470092773,3.7398509979248047,4.799073696136475,-15.439241409301758,-47.6688346862793, 5.614757061004639
449,457798273,0.2691319,-0.030577667,-0.9497078,-0.15712507,9.089447975158691,2.9579594135284424,2.074084997177124,-64.31261444091797,24.366783142089844, 29.68523597717285
450,457814940,0.28377008,-0.039190035,-0.9436676,-0.16562104,6.59347677230835,2.4729223251342773,1.0325453281402588,-74.55217742919922,98.64457702636719, 58.28773498535156
451,457831607,0.3086099,-0.049765848,-0.9335645,-0.1753306,5.451884746551514,4.188289642333984,1.0227737426757812,-88.1236572265625,170.85391235351562, 81.36418914794922
452,457848274,0.34283698,-0.0627313,-0.91813827,-0.18854716,6.069371700286865,4.057188034057617,1.3013405799865723,-118.89412689208984,240.755859375, 102.41095733642578
453,457864941,0.38451445,-0.0769855,-0.8976247,-0.20122606,7.336453437805176,2.5261073112487793,0.5989353656768799,-121.89649200439453,297.91656494140625, 123.6878662109375
454,457881608,0.43225172,-0.09120929,-0.8719957,-0.21086286,8.850166320800781,2.071135997772217,-0.03781723976135254,-106.8962631225586,347.3103332519531, 142.6669464111328
455,457898275,0.48467448,-0.1049205,-0.84094226,-0.21656114,10.205717086791992,-0.23300229012966156,-1.4057965278625488,-86.67073822021484,389.83892822265625, 161.5398712158203
456,457914942,0.5411301,-0.11550471,-0.80484784,-0.21460874,11.725929260253906,-2.898491859436035,-2.979719638824463,-36.60129165649414,429.14599609375, 178.65272521972656
457,457931609,0.59912014,-0.12284966,-0.7634796,-0.2075142,14.471570014953613,-3.1069176197052,-4.855878829956055,-2.677631139755249,458.0137023925781, 186.35755920410156
458,457948276,0.6543758,-0.12604176,-0.71942353,-0.19579506,17.935840606689453,-0.4539194107055664,-8.687843322753906,32.542537689208984,456.7632141113281, 181.99598693847656
459,457964943,0.70392776,-0.12789081,-0.6731245,-0.18717164,22.319639205932617,7.677982330322266,-10.038866996765137,15.23288631439209,443.1534118652344, 155.69140625
460,457981610,0.74613506,-0.13544199,-0.6250298,-0.18513715,24.076923370361328,5.328738212585449,-13.338072776794434,-51.70957565307617,416.35540771484375, 142.37799072265625
461,457998277,0.7796053,-0.13622545,-0.58465177,-0.17843917,27.390615463256836,8.265841484069824,-24.99852180480957,4.708635330200195,343.52593994140625, 118.91641998291016
462,458014944,0.8014339,-0.13662297,-0.55564135,-0.1740707,19.377704620361328,16.4047794342041,-26.273990631103516,0.36363425850868225,238.62477111816406, 79.96292114257812
463,458031611,0.8118009,-0.13618669,-0.5409561,-0.17262399,8.247207641601562,16.4183349609375,-29.729066848754883,0.09605927765369415,119.87139129638672, 33.59903335571289
464,458048278,0.8108367,-0.13343015,-0.5420869,-0.17573315,6.443375110626221,18.64096450805664,-33.30331802368164,4.189385414123535,-3.277115821838379, -28.618268966674805
465,458064945,0.79990935,-0.12787664,-0.5578715,-0.18047754,7.833762168884277,18.762575149536133,-32.57790756225586,22.17411994934082,-116.96428680419922, -73.53453826904297
466,458081612,0.7781127,-0.10881658,-0.5897133,-0.18691747,19.452211380004883,45.422611236572266,-48.025390625,100.26852416992188,-228.52398681640625, -162.2101593017578
467,458098279,0.7395258,-0.14491537,-0.6124811,-0.23867995,26.773269653320312,3.885550022125244,28.279239654541016,-403.3446044921875,-284.9071350097656, -195.59007263183594
468,458114946,0.7106997,-0.12879832,-0.6450637,-0.2494194,9.023550987243652,-16.408037185668945,4.761727809906006,61.257789611816406,-248.9647674560547, -200.4658660888672
469,458131613,0.67490464,-0.13095713,-0.67340904,-0.2717984,21.552356719970703,-4.984132289886475,-16.50872230529785,-93.17100524902344,-280.2990417480469, -184.64410400390625
470,458148280,0.642279,-0.13407686,-0.69966865,-0.28278044,6.606651306152344,-3.4110710620880127,-6.067657947540283,-45.97616195678711,-267.876953125, -119.53597259521484
471,458164947,0.6175173,-0.13491085,-0.71568936,-0.2970866,17.2726993560791,3.136697769165039,0.6963174939155579,-64.5562744140625,-177.27935791015625, -120.49605560302734
472,458181614,0.5978752,-0.1323593,-0.7291351,-0.30559504,14.687542915344238,-0.358198881149292,-3.90057635307312,-22.138240814208984,-139.65892028808594, -99.69051361083984
473,458198281,0.5836678,-0.12787978,-0.73916435,-0.310829,11.434675216674805,3.4505627155303955,-6.585916519165039,-0.04972987622022629,-97.31234741210938, -81.40228271484375
474,458214948,0.57297486,-0.123439066,-0.74749005,-0.31260395,15.451744079589844,3.6046040058135986,-3.3415756225585938,16.80007553100586,-75.73543548583984, -58.3260612487793
475,458231615,0.56537074,-0.12052231,-0.753916,-0.31215572,13.19448184967041,6.086111068725586,-5.036375999450684,20.761146545410156,-57.560943603515625, -33.51005172729492
476,458248282,0.56057835,-0.1167533,-0.75975287,-0.30805218,13.733518600463867,6.36284875869751,-4.121316432952881,44.090354919433594,-41.901336669921875, -17.20433235168457
477,458264949,0.55771244,-0.11289748,-0.7653744,-0.30068773,18.54855728149414,4.003867149353027,-2.7159643173217773,62.561275482177734,-33.452144622802734, -0.8494217991828918
478,458281616,0.5568706,-0.106447056,-0.77119774,-0.28951412,20.291366577148438,3.141272783279419,-2.7080883979797363,94.55696868896484,-21.192546844482422, 4.085482597351074
479,458298283,0.55802333,-0.09884615,-0.77667665,-0.27497813,20.924030303955078,-0.6323586106300354,-1.3530369997024536,117.57405853271484,-9.497200965881348, 15.024447441101074
480,458314950,0.56149566,-0.09185472,-0.78159314,-0.25572953,20.545433044433594,-5.1356964111328125,-0.9673231244087219,140.9193115234375,0.6519502401351929, 41.04601287841797
481,458331617,0.57561606,-0.095602915,-0.77396375,-0.24598055,21.08226776123047,-6.378204822540283,5.064779281616211,33.052024841308594,93.38045501708984, 88.62849426269531
482,458348284,0.5765641,-0.091464855,-0.7799241,-0.2256694,2.3618109226226807,-5.5819597244262695,-1.0515216588974,134.81089782714844,-24.19650650024414, 57.149288177490234
483,458364951,0.5629818,-0.08273716,-0.79532653,-0.2089547,9.165594100952148,17.7193660736084,-1.0175753831863403,139.21670532226562,-130.18780517578125, -10.254029273986816
484,458381618,0.5416317,-0.08083702,-0.81062,-0.20735446,8.238457679748535,2.3472001552581787,3.3031423091888428,25.65830421447754,-173.47286987304688, -42.42111587524414
485,458398285,0.51575065,-0.07194135,-0.83011293,-0.19934545,13.407050132751465,4.490927696228027,6.6979780197143555,90.94817352294922,-208.03082275390625, -66.3438949584961
486,458414952,0.48592958,-0.059103344,-0.85190487,-0.18611154,15.90374755859375,-1.3400920629501343,8.635704040527344,136.04440307617188,-235.9690704345703, -76.86703491210938
487,458431619,0.4530975,-0.041155737,-0.87565136,-0.16199909,15.086969375610352,-0.8715940713882446,11.728765487670898,218.20338439941406,-258.17840576171875, -75.15312957763672
488,458448286,0.41887552,-0.024865542,-0.8972195,-0.13755794,15.153566360473633,3.4614460468292236,14.060758590698242,212.2494354248047,-261.83636474609375, -65.11761474609375
489,458464953,0.38423064,-0.012126218,-0.9154166,-0.119299196,13.395770072937012,2.958986759185791,15.312458992004395,160.69139099121094,-257.16131591796875, -60.861507415771484
490,458481620,0.35151175,-0.0027281428,-0.9297982,-0.109122194,14.518729209899902,2.866717576980591,14.203714370727539,98.08221435546875,-237.13925170898438, -59.3035888671875
491,458498287,0.3226081,0.0016306834,-0.94061387,-0.105674006,17.05598258972168,2.655900239944458,12.785140991210938,40.34235382080078,-207.89590454101562, -40.451576232910156
492,458514954,0.2984148,0.0005817015,-0.9479217,-0.11132374,16.802736282348633,3.0073423385620117,9.877645492553711,-33.03876876831055,-173.80303955078125, -22.3247013092041
493,458531621,0.28004977,-0.004362248,-0.9519929,-0.123542696,15.0215482711792,1.4750066995620728,6.764583110809326,-86.297119140625,-132.28753662109375, -6.0307841300964355
494,458548288,0.2690958,-0.010232622,-0.95363265,-0.13441618,12.466371536254883,1.4867743253707886,4.32126522064209,-81.0915298461914,-79.99736022949219, 8.931039810180664
495,458564955,0.26693127,-0.017812885,-0.95272976,-0.14400297,8.740548133850098,2.354966402053833,2.6985278129577637,-77.53499603271484,-19.384178161621094, 30.776906967163086
496,458581622,0.27526233,-0.02800013,-0.9485605,-0.1538829,6.581946849822998,3.6770145893096924,1.0464565753936768,-86.17719268798828,52.796504974365234, 58.07975769042969
497,458598289,0.29432723,-0.041076288,-0.9405775,-0.16431196,5.312065124511719,3.4035532474517822,0.254650741815567,-97.18282318115234,127.07592010498047, 87.96627044677734
498,458614956,0.32316276,-0.05577865,-0.9285775,-0.17377684,5.6725568771362305,3.410702705383301,0.5590479373931885,-96.0115737915039,196.31346130371094, 112.61941528320312
499,458631623,0.3597397,-0.07142293,-0.9120279,-0.18355167,6.76956844329834,3.799457311630249,0.33844807744026184,-102.54881286621094,254.8797607421875, 128.9664306640625
500,458648290,0.4020125,-0.08783006,-0.8904601,-0.19430098,8.024590492248535,3.838979721069336,-0.27701473236083984,-114.0738754272461,302.56939697265625, 141.02523803710938
501,458664957,0.44828328,-0.10486171,-0.8634309,-0.20623633,8.977560997009277,3.3965530395507812,-0.6840581893920898,-127.94910430908203,342.0716552734375, 150.25262451171875
502,458681624,0.49739513,-0.12216529,-0.83074105,-0.21804409,9.842876434326172,1.466753363609314,-1.5815366506576538,-134.0171356201172,375.9585266113281, 160.41650390625
503,458698291,0.55033123,-0.13718012,-0.7923378,-0.22476265,11.841444969177246,-0.7317439913749695,-3.028110980987549,-102.4786148071289,416.5653991699219, 175.33306884765625
504,458714958,0.6058959,-0.14846201,-0.74841815,-0.22520973,14.090475082397461,-1.389032244682312,-6.248866558074951,-60.249698638916016,451.68914794921875, 188.0433807373047
505,458731625,0.66072154,-0.15677284,-0.7001088,-0.22071932,17.699172973632812,-0.1812915802001953,-7.689283847808838,-30.05523681640625,465.8064880371094, 196.69927978515625
506,458748292,0.71143675,-0.1654767,-0.647849,-0.21625674,22.693883895874023,7.117582321166992,-6.535519599914551,-42.46530532836914,463.4587097167969, 196.5087890625
507,458764959,0.75484896,-0.1793136,-0.59335256,-0.21443525,26.275646209716797,7.714461803436279,-9.397775650024414,-91.05419921875,437.2696228027344, 198.19857788085938
508,458781626,0.78823084,-0.18514657,-0.5484814,-0.20876111,30.321979522705078,9.324312210083008,-15.706093788146973,-31.975845336914062,353.3959655761719, 158.86959838867188
509,458798293,0.80790323,-0.1939859,-0.51613,-0.20801935,19.543621063232422,15.705103874206543,-23.539203643798828,-66.43511962890625,235.89869689941406, 107.86421203613281
510,458814960,0.8143775,-0.20548068,-0.4994493,-0.21240866,9.289895057678223,16.73579216003418,-28.949756622314453,-94.66041564941406,105.26610565185547, 49.07929611206055
511,458831627,0.81107664,-0.2066362,-0.502407,-0.21689495,3.8665647506713867,20.55317497253418,-31.212841033935547,-22.306039810180664,-22.773345947265625, -28.90167236328125
512,458848294,0.79590034,-0.21084096,-0.51953024,-0.22842301,6.181270122528076,22.021028518676758,-26.852853775024414,-59.46969985961914,-137.10337829589844, -95.36590576171875
513,458864961,0.77035725,-0.21415187,-0.54766405,-0.24648122,14.203490257263184,22.97999382019043,-18.15254020690918,-75.73092651367188,-223.36814880371094, -166.4229736328125
514,458881628,0.739833,-0.22727054,-0.5705576,-0.2746988,26.87528419494629,-3.956416606903076,10.999539375305176,-182.25169372558594,-215.92868041992188, -183.8568572998047
515,458898295,0.7103692,-0.2193779,-0.60316885,-0.28885365,22.841615676879883,-8.12536907196045,-3.3187849521636963,-0.1077403649687767,-243.57168579101562, -207.93673706054688
516,458914962,0.67620397,-0.20830442,-0.63913816,-0.30142993,20.603879928588867,13.281943321228027,-11.008057594299316,21.518644332885742,-275.5349426269531, -227.92857360839844
517,458931629,0.6453761,-0.20820794,-0.6633004,-0.31649947,1.997485637664795,2.0098273754119873,-4.965555667877197,-60.231441497802734,-225.02432250976562, -167.30824279785156
518,458948296,0.62153435,-0.20213175,-0.68240136,-0.32736284,9.64628791809082,7.735622406005859,-2.978424072265625,-15.530043601989746,-163.68399047851562, -153.42733764648438
519,458964963,0.60231,-0.19415796,-0.69806737,-0.3350035,17.3270206451416,-1.1367114782333374,-0.9937361478805542,6.392679214477539,-127.5484848022461, -133.34034729003906
520,458981630,0.5850758,-0.18374988,-0.71345735,-0.33897048,13.631567001342773,0.8913810849189758,-5.638862609863281,36.11674499511719,-116.17742156982422, -124.90697479248047
521,458998297,0.5706164,-0.17175531,-0.72719973,-0.3407016,11.67202377319336,2.607391595840454,-4.166873455047607,53.09479904174805,-95.05377197265625, -115.18043518066406
522,459014964,0.55855244,-0.1598367,-0.7397974,-0.33936885,11.354113578796387,5.80312967300415,-3.361074686050415,68.24271392822266,-82.3823013305664, -95.84070587158203
523,459031631,0.55025196,-0.15031624,-0.74894327,-0.337212,11.650235176086426,7.403215408325195,-3.6532907485961914,59.30341720581055,-56.488075256347656, -67.90544128417969
524,459048298,0.54590315,-0.14314927,-0.7559113,-0.33180767,12.986708641052246,6.065268039703369,-3.398509979248047,66.16656494140625,-36.713645935058594, -32.08686065673828
525,459064965,0.5453955,-0.13798848,-0.76045924,-0.32435286,15.622980117797852,6.979922771453857,-4.867275238037109,67.5615463256836,-14.265183448791504, -2.8363471031188965
526,459081632,0.5468982,-0.13242753,-0.76531816,-0.3124955,21.03719139099121,2.440535068511963,-4.715205192565918,94.69100952148438,-8.19770336151123, 15.746969223022461
527,459098299,0.552422,-0.12291746,-0.77107036,-0.29184207,22.07738494873047,-4.683272361755371,-4.733075141906738,161.4030303955078,10.077132225036621, 35.793575286865234
528,459114966,0.5609554,-0.10909025,-0.77822834,-0.26036337,23.553306579589844,-8.766877174377441,-5.049556732177734,240.5462646484375,20.205371856689453, 58.741607666015625
529,459131633,0.58213335,-0.100996085,-0.7716938,-0.23539178,23.982728958129883,-11.11974811553955,0.903793454170227,168.50604248046875,135.2959747314453, 97.05614471435547
530,459148300,0.5878212,-0.087482266,-0.77896625,-0.20006236,0.37808799743652344,-7.423055171966553,-0.7458071708679199,256.73870849609375,-0.6645225286483765, 74.91802978515625
531,459164967,0.57631224,-0.08197425,-0.7925886,-0.18151465,12.44327163696289,29.510135650634766,-1.5883569717407227,132.8135528564453,-119.37107849121094, 22.404788970947266
532,459181634,0.5504595,-0.09217066,-0.8069702,-0.19312671,7.860396385192871,11.129213333129883,-3.1173484325408936,-100.72516632080078,-203.18917846679688, -29.64219093322754
533,459198301,0.51677185,-0.090174824,-0.8298574,-0.19013686,15.967549324035645,3.857942581176758,-2.905609130859375,32.86622619628906,-271.96246337890625, -57.73845291137695
534,459214968,0.4777895,-0.07531584,-0.85790575,-0.17332782,18.959144592285156,-0.8589157462120056,5.42191219329834,160.9778289794922,-312.3721923828125, -92.17813873291016
535,459231635,0.43336228,-0.05897501,-0.8857931,-0.15520918,20.869625091552734,4.094426155090332,9.379508972167969,170.6168670654297,-343.0429992675781, -103.08637237548828
536,459248302,0.38491035,-0.05052463,-0.90944904,-0.14897624,22.047122955322266,3.2641406059265137,13.321718215942383,68.62596130371094,-358.7063293457031, -93.05149841308594
537,459264969,0.33480498,-0.043984085,-0.9294583,-0.14858839,20.888456344604492,0.2821864187717438,14.992198944091797,22.81613540649414,-359.5244445800781, -97.07063293457031
538,459281636,0.28694016,-0.036446586,-0.9456633,-0.14851907,19.1690616607666,-1.0003929138183594,16.177597045898438,19.9588623046875,-335.5154724121094, -100.82234191894531
539,459298303,0.24373713,-0.029971462,-0.95828015,-0.14626339,21.371999740600586,1.0806435346603394,15.778056144714355,29.66472816467285,-299.9193115234375, -84.0333251953125
540,459314970,0.20585856,-0.026826903,-0.96677023,-0.14919063,19.977746963500977,3.420642137527466,14.056838035583496,-13.039589881896973,-260.37518310546875, -64.67664337158203
541,459331637,0.17587794,-0.025716593,-0.97188306,-0.15443163,16.27850341796875,0.42731866240501404,12.45284366607666,-33.20427703857422,-204.9024200439453, -45.82781982421875
542,459348304,0.15458338,-0.02451114,-0.97543746,-0.1550007,13.52963924407959,3.274315595626831,10.913276672363281,-1.9347556829452515,-145.82424926757812, -31.416845321655273
543,459364971,0.14478965,-0.024971347,-0.9758321,-0.1617531,8.989219665527344,4.196534156799316,7.983633995056152,-46.524932861328125,-66.16680908203125, -14.126980781555176
544,459381638,0.1482521,-0.028336445,-0.9732268,-0.1733437,5.080599784851074,2.4208593368530273,5.2015299797058105,-82.86151885986328,23.305883407592773, 15.726690292358398
545,459398305,0.16654226,-0.035168517,-0.9673373,-0.18784477,3.072751998901367,1.6943751573562622,3.01963472366333,-106.85516357421875,122.3029556274414, 54.234222412109375
546,459414972,0.19870341,-0.04598629,-0.9580521,-0.2013418,2.571364402770996,0.8328258395195007,2.288588285446167,-105.75059509277344,213.09539794921875, 100.63836669921875
547,459431639,0.24233103,-0.059301257,-0.94492733,-0.21182889,3.5221245288848877,3.179697036743164,2.1392369270324707,-91.0118179321289,289.5238952636719, 138.33946228027344
548,459448306,0.29614002,-0.074616425,-0.92569953,-0.22319084,6.536693572998047,3.1422173976898193,1.0365331172943115,-104.73703002929688,363.3749694824219, 167.27647399902344
549,459464973,0.35726082,-0.08968101,-0.9012462,-0.22820458,8.442154884338379,-1.8028818368911743,-1.6510703563690186,-68.03006744384766,417.73956298828125, 192.60804748535156
550,459481640,0.42311117,-0.100461066,-0.8729051,-0.22118184,11.260904312133789,-2.7391576766967773,-2.904461145401001,13.92971420288086,455.9290466308594, 205.54910278320312
551,459498307,0.49179596,-0.10781009,-0.8380277,-0.21029417,13.66528606414795,-1.7850956916809082,-5.216664791107178,39.097999572753906,494.5462341308594, 205.13511657714844
552,459514974,0.560277,-0.11476479,-0.7953733,-0.20074902,16.771129608154297,-3.7192602157592773,-8.037439346313477,21.222503662109375,521.2804565429688, 203.8929443359375
553,459531641,0.62661546,-0.12164338,-0.745762,-0.1907758,21.444507598876953,-3.4945156574249268,-10.090492248535156,12.449155807495117,536.195556640625, 207.7245635986328
554,459548308,0.6879167,-0.13087834,-0.6901386,-0.18262136,26.47035789489746,0.9528095722198486,-8.077786445617676,-19.274616241455078,534.7623901367188, 210.4150390625
555,459564975,0.7390816,-0.14213519,-0.63391936,-0.17805162,32.563331604003906,8.016621589660645,-14.742913246154785,-55.82319641113281,490.1172790527344, 190.83990478515625
556,459581642,0.77564305,-0.15220839,-0.58673954,-0.17591843,36.29533386230469,12.064247131347656,-21.79563331604004,-63.69999694824219,384.3200378417969, 146.56736755371094
557,459598309,0.7980944,-0.1686907,-0.54980654,-0.17972665,19.039968490600586,15.491785049438477,-25.294769287109375,-124.3321762084961,271.4056091308594, 112.98799896240234
558,459614976,0.8096151,-0.17731184,-0.52925444,-0.18158631,10.672209739685059,14.427164077758789,-28.54128646850586,-66.32841491699219,147.89614868164062, 61.53620910644531
559,459631643,0.8114054,-0.1803273,-0.5242614,-0.18507607,3.324315309524536,18.979475021362305,-27.921112060546875,-33.57830810546875,35.17323303222656, 1.0345759391784668
560,459648310,0.8042479,-0.18420689,-0.531678,-0.19123788,5.022540092468262,16.42666244506836,-24.067861557006836,-43.41204071044922,-63.83088302612305, -37.391502380371094
561,459664977,0.7890881,-0.18539631,-0.55056876,-0.19960532,6.9956440925598145,15.047908782958984,-21.344865798950195,-31.717453002929688,-149.98802185058594, -84.36128997802734
562,459681644,0.7669679,-0.17965482,-0.5792141,-0.2097512,12.117558479309082,19.523624420166016,-15.700602531433105,3.6075291633605957,-217.31668090820312, -142.14166259765625
563,459698311,0.7390598,-0.188726,-0.6017001,-0.23691846,29.560691833496094,0.9943228960037231,15.634352684020996,-158.4152374267578,-208.11862182617188, -173.48196411132812
564,459714978,0.7005448,-0.1941078,-0.6292296,-0.2750083,29.921430587768555,6.083309173583984,0.7182884216308594,-190.4147186279297,-257.6999816894531, -268.11090087890625
565,459731645,0.6623584,-0.19432452,-0.65974164,-0.2970867,9.023561477661133,-7.011191368103027,-17.297298431396484,-90.1190414428711,-282.2486267089844, -216.57029724121094
566,459748312,0.6351134,-0.1871778,-0.68337846,-0.3075542,3.578123092651367,10.467533111572266,-6.419665813446045,-3.4370501041412354,-201.56617736816406, -165.58499145507812
567,459764979,0.6143336,-0.17719817,-0.7015427,-0.31469536,12.825697898864746,-0.20724517107009888,0.5304601192474365,21.311588287353516,-145.53553771972656, -143.55856323242188
568,459781646,0.59629947,-0.16426441,-0.71863747,-0.3178119,14.287337303161621,4.703629493713379,-3.443298101425171,54.238922119140625,-126.32596588134766, -133.6075439453125
569,459798313,0.58064723,-0.15579338,-0.7321131,-0.32029328,11.872539520263672,3.1123456954956055,-4.900243282318115,33.85285186767578,-110.18881225585938, -99.66486358642578
570,459814980,0.567481,-0.1471832,-0.7443732,-0.3197046,12.500473976135254,5.8674397468566895,-4.256124496459961,49.82646179199219,-95.79918670654297, -81.35395812988281
571,459831647,0.5563349,-0.1396884,-0.75607955,-0.31515464,13.279254913330078,4.738543510437012,-4.223631381988525,66.57601928710938,-89.76060485839844, -55.19661331176758
572,459848314,0.5493003,-0.13382982,-0.7652041,-0.30793157,13.106563568115234,7.314382553100586,-4.881468772888184,72.57096099853516,-64.6242904663086, -25.102474212646484
573,459864981,0.5463772,-0.13138063,-0.7708185,-0.3000834,15.723729133605957,7.31393575668335,-4.7565388679504395,59.34905242919922,-37.52470016479492, 7.1238813400268555
574,459881648,0.5475413,-0.12952344,-0.7740101,-0.29039758,21.8168888092041,4.856149196624756,-2.9455440044403076,65.5804214477539,-9.64572525024414, 27.768951416015625
575,459898315,0.5527254,-0.12460618,-0.77592963,-0.27731082,24.308509826660156,0.9392701387405396,-2.7722527980804443,96.2624282836914,19.58685874938965, 33.38800811767578
576,459914982,0.56662405,-0.12761593,-0.7675064,-0.27126646,30.27547836303711,-2.267359972000122,6.153115272521973,16.308475494384766,96.26051330566406, 74.30169677734375
577,459931649,0.578001,-0.13703936,-0.75933164,-0.26561356,13.901803970336914,-16.352130889892578,-6.1464948654174805,-12.442195892333984,70.23121643066406, 101.58248138427734
578,459948316,0.5788445,-0.11936189,-0.774872,-0.22419925,5.866230487823486,-0.4847913980484009,-2.216036558151245,315.3247985839844,-63.22085189819336, 60.447879791259766
579,459964983,0.56472194,-0.10751525,-0.7914975,-0.20751244,11.095109939575195,22.689420700073242,-6.491428375244141,149.6783905029297,-135.9685516357422, -30.931720733642578
580,459981650,0.5394558,-0.09403785,-0.81361425,-0.19538745,13.639152526855469,9.491042137145996,-6.409299850463867,130.9313507080078,-212.24266052246094, -77.34062194824219
581,459998317,0.50564754,-0.0785113,-0.83869374,-0.18641184,16.322555541992188,6.189745903015137,1.1148464679718018,119.43373107910156,-266.2677307128906, -113.8626480102539
582,460014984,0.46607965,-0.057076044,-0.86541224,-0.17485394,19.571020126342773,2.829610824584961,6.821421146392822,153.96975708007812,-299.1307373046875, -147.2657012939453
583,460031651,0.42225295,-0.039116673,-0.8905699,-0.16449231,19.807138442993164,0.8642592430114746,11.319604873657227,132.24684143066406,-323.3436584472656, -134.97714233398438
584,460048318,0.37681946,-0.026220128,-0.9130268,-0.1539546,18.09251594543457,-1.8012462854385376,13.913227081298828,115.22586822509766,-331.2965393066406, -104.61786651611328
585,460064985,0.3314574,-0.015090644,-0.9328387,-0.14042954,15.699256896972656,-2.5962860584259033,15.87721061706543,126.695556640625,-326.5931701660156, -85.31768035888672
586,460081652,0.28728378,-0.005482617,-0.9494405,-0.12649491,13.869976043701172,-1.6857094764709473,16.870515823364258,122.93256378173828,-313.3388366699219, -73.22476196289062
587,460098319,0.24695662,0.0014340812,-0.9621686,-0.11507458,14.040984153747559,-0.4716373682022095,15.236359596252441,98.0195083618164,-282.9623718261719, -57.19780349731445
588,460114986,0.21218254,0.0051075774,-0.9713416,-0.106995754,15.506475448608398,1.8017923831939697,12.202845573425293,67.57821655273438,-242.9119873046875, -37.12204360961914
589,460131653,0.1848171,0.00440087,-0.97685266,-0.10762118,15.529006958007812,3.2580583095550537,9.974431991577148,0.1453518271446228,-191.73818969726562, -15.313397407531738
590,460148320,0.16595888,0.0016833382,-0.97925043,-0.116290905,13.821331024169922,2.6605944633483887,7.899968147277832,-58.9382438659668,-132.48876953125, -5.9171648025512695
591,460164987,0.15598522,-0.0015202892,-0.97956693,-0.12694594,11.182622909545898,2.1855640411376953,6.386410236358643,-74.58002471923828,-70.79785919189453, 2.0888512134552
592,460181654,0.15693437,-0.0059371246,-0.9776284,-0.13992599,7.372076988220215,3.240701198577881,4.507316589355469,-93.35737609863281,4.089613914489746, 17.254858016967773
593,460198321,0.1705162,-0.013622855,-0.9726639,-0.15704685,5.26544189453125,3.499685287475586,2.5251007080078125,-127.07787322998047,89.27723693847656, 46.989994049072266
594,460214988,0.19710246,-0.024678268,-0.9644328,-0.17438823,4.540210247039795,2.361710548400879,1.8723115921020508,-134.7837371826172,176.48387145996094, 83.59664154052734
595,460231655,0.23485053,-0.038542606,-0.95290923,-0.18794647,5.257809638977051,2.5999810695648193,1.5075366497039795,-115.53709411621094,250.9945068359375, 121.3082046508789
596,460248322,0.28220922,-0.05461067,-0.93674886,-0.1996925,7.682610988616943,2.6463844776153564,0.8472585678100586,-110.6529769897461,318.17742919921875, 152.3742218017578
597,460264989,0.336356,-0.07159138,-0.9155614,-0.20853448,10.16484260559082,0.9064878225326538,-0.3258401155471802,-98.0452880859375,369.34918212890625, 175.15463256835938
598,460281656,0.39575624,-0.08856656,-0.8886331,-0.21415955,12.236129760742188,0.06663274019956589,-1.8306834697723389,-83.41707611083984,414.1549072265625, 192.9844970703125
599,460298323,0.45941132,-0.10432806,-0.8560095,-0.21284959,13.266597747802734,-2.8345112800598145,-3.63551664352417,-43.53544616699219,453.2458801269531, 214.2640838623047
600,460314990,0.5264304,-0.11440105,-0.8180596,-0.20140018,15.302267074584961,-2.2807297706604004,-3.965404987335205,28.728120803833008,490.97515869140625, 221.64382934570312
601,460331657,0.5934596,-0.12095784,-0.77260596,-0.19040756,18.384729385375977,-1.3079427480697632,-5.8792524337768555,28.4495849609375,523.4710693359375, 206.19302368164062
602,460348324,0.6549515,-0.12263874,-0.72431356,-0.17711148,22.29952621459961,-1.0499355792999268,-8.984838485717773,52.21714401245117,510.0625915527344, 184.82952880859375
603,460364991,0.70689356,-0.12262723,-0.6756058,-0.16976772,26.456777572631836,11.146184921264648,-9.461088180541992,21.519044876098633,471.3916320800781, 138.28720092773438
604,460381658,0.7489939,-0.13861942,-0.62302244,-0.1778654,31.628976821899414,12.35654067993164,-17.847604751586914,-140.97103881835938,438.91217041015625, 129.4666748046875
605,460398325,0.7819837,-0.14914165,-0.5790497,-0.17595418,29.6737117767334,5.199852466583252,-26.406478881835938,-68.09803009033203,352.75811767578125, 138.29660034179688
606,460414992,0.80444473,-0.14238307,-0.5518962,-0.16735151,11.287450790405273,15.257024765014648,-26.68157386779785,60.90786361694336,234.68377685546875, 75.44036102294922
607,460431659,0.81386274,-0.1414979,-0.5384557,-0.16634676,8.296341896057129,16.625768661499023,-31.772594451904297,2.494502067565918,110.2841567993164, 27.363540649414062
608,460448326,0.81218797,-0.13552487,-0.5426786,-0.16578194,3.74633526802063,16.658447265625,-33.51947021484375,38.64687728881836,-23.04551887512207, -23.70551300048828
609,460464993,0.8010277,-0.12828234,-0.5604194,-0.16681822,7.32427978515625,15.380117416381836,-30.947093963623047,46.23883056640625,-130.67282104492188, -60.70169448852539
610,460481660,0.78102887,-0.1028009,-0.5924688,-0.16854247,18.44317626953125,45.81053924560547,-44.56352233886719,152.60113525390625,-221.7712860107422, -157.49896240234375
611,460498327,0.741436,-0.13660629,-0.61830735,-0.22205271,29.220544815063477,16.344547271728516,19.215784072875977,-398.32147216796875,-300.18701171875, -212.09788513183594
612,460514994,0.7123559,-0.1297604,-0.6473414,-0.23803456,11.696913719177246,-27.455944061279297,11.670340538024902,-16.260208129882812,-244.984375, -180.15342712402344
613,460531661,0.6738818,-0.12706968,-0.6800781,-0.2592882,24.0263614654541,-1.6217384338378906,-14.582852363586426,-62.445648193359375,-307.2395935058594, -206.49436950683594
614,460548328,0.6382719,-0.13321196,-0.70686924,-0.27422518,5.6565470695495605,-3.8616092205047607,-9.040998458862305,-82.05087280273438,-287.413330078125, -125.62155151367188
615,460564995,0.61140144,-0.13594717,-0.72356087,-0.29011455,14.540228843688965,6.894834995269775,-0.13934394717216492,-82.82328796386719,-193.23294067382812, -120.63731384277344
616,460581662,0.59150386,-0.13294412,-0.736652,-0.2996546,14.743013381958008,-1.7813278436660767,-6.468027114868164,-27.7244815826416,-137.9351043701172, -105.16382598876953
617,460598329,0.576715,-0.12524755,-0.7485077,-0.3024058,15.143543243408203,1.4091424942016602,-6.15246057510376,27.812917709350586,-103.56552124023438, -89.72880554199219
618,460614996,0.5654553,-0.11895846,-0.7578118,-0.30303603,14.66306209564209,3.107360363006592,-6.782381534576416,30.83483123779297,-80.03829193115234, -64.58302307128906
619,460631663,0.5580739,-0.115051076,-0.7640868,-0.30246973,13.879511833190918,7.156818389892578,-5.878156661987305,24.631038665771484,-53.99286651611328, -36.99403762817383
620,460648330,0.55447257,-0.11053685,-0.7691416,-0.29793122,15.39393424987793,6.500176906585693,-4.737500190734863,48.283634185791016,-31.332775115966797, -16.117080688476562
621,460664997,0.55327964,-0.10609375,-0.77360994,-0.2900924,21.1298885345459,4.196269512176514,-3.377941608428955,66.10902404785156,-19.02430534362793, 2.198086738586426
622,460681664,0.5543909,-0.09644694,-0.77994,-0.27393886,23.242219924926758,1.8487225770950317,-2.9397289752960205,135.540283203125,-9.567532539367676, 9.318554878234863
623,460698331,0.5579363,-0.086247444,-0.7857303,-0.2527774,23.658592224121094,-1.8035902976989746,1.1000769138336182,165.1057891845703,3.2269890308380127, 30.286319732666016
624,460714998,0.56646633,-0.08202617,-0.7862105,-0.23293957,25.29970932006836,-6.371822357177734,6.484153747558594,128.75863647460938,40.84532165527344, 69.19029235839844
625,460731665,0.57902926,-0.087372914,-0.7801881,-0.21999517,9.987607955932617,-13.57269287109375,0.30268070101737976,46.110748291015625,76.40254211425781, 104.03892517089844
626,460748332,0.57419693,-0.06957628,-0.79484004,-0.18353891,3.661681652069092,19.175046920776367,-5.24441385269165,285.1881103515625,-78.40534210205078, 34.605098724365234
627,460764999,0.5544121,-0.076269895,-0.8069368,-0.18884696,10.3772554397583,15.935227394104004,-1.5976622104644775,-50.055076599121094,-160.91766357421875, -13.943114280700684
628,460781666,0.5269129,-0.07052085,-0.8290105,-0.17358384,12.922521591186523,-0.3408649265766144,-4.3376994132995605,120.59986114501953,-236.44992065429688, -19.69762420654297
629,460798333,0.49552467,-0.055155642,-0.85440123,-0.14632776,13.4069185256958,-1.8540898561477661,4.148063659667969,225.92019653320312,-265.0466613769531, -37.36024475097656
630,460815000,0.46014053,-0.03353408,-0.87983596,-0.11417125,15.91969108581543,0.33025312423706055,7.2896223068237305,274.6318664550781,-284.3860778808594, -61.530818939208984
631,460831667,0.4212513,-0.018628094,-0.9017445,-0.09517037,16.362079620361328,6.250223159790039,12.538305282592773,170.2101593017578,-296.79296875, -64.49874877929688
632,460848334,0.3809361,-0.013493449,-0.9195324,-0.09573947,15.565957069396973,0.6797442436218262,13.64206314086914,17.799964904785156,-297.7584533691406, -61.01555633544922
633,460865001,0.33948863,-0.007967974,-0.9357047,-0.09560723,15.123819351196289,-2.9297213554382324,13.858055114746094,22.175004959106445,-300.69952392578125, -62.29755401611328
634,460881668,0.29887378,-0.0016035866,-0.9497852,-0.09262845,16.612163543701172,0.869989812374115,14.497809410095215,41.159324645996094,-290.25286865234375, -60.45668411254883
635,460898335,0.26237807,0.0012503085,-0.96039414,-0.09380448,19.521411895751953,3.036139726638794,12.86514949798584,4.7238383293151855,-258.5860595703125, -43.474937438964844
636,460915002,0.2310232,0.000015968457,-0.9678503,-0.09946934,20.141185760498047,4.004053115844727,10.683856964111328,-34.2740478515625,-221.81578063964844, -21.378446578979492
637,460931669,0.20644237,-0.0034693875,-0.9723945,-0.108714074,16.827768325805664,2.483962059020996,8.647351264953613,-63.565696716308594,-173.8302764892578, -7.563371658325195
638,460948336,0.19002883,-0.0066129253,-0.97522056,-0.113095075,13.024800300598145,2.7766635417938232,6.582266807556152,-31.585060119628906,-116.78645324707031, 3.0997769832611084
639,460965003,0.18405554,-0.010050157,-0.97595674,-0.11632274,9.427837371826172,4.3205413818359375,4.43689489364624,-25.329687118530273,-44.43782424926758, 14.71312427520752
640,460981670,0.18962635,-0.015910344,-0.9741715,-0.121567234,6.070038318634033,3.756558895111084,2.1700780391693115,-43.079559326171875,34.35155487060547, 37.77009582519531
641,460998337,0.20765209,-0.024714783,-0.9694476,-0.12822379,4.079621315002441,3.9362990856170654,0.8639371395111084,-57.423736572265625,119.27813720703125, 66.35986328125
642,461015004,0.23779072,-0.036457207,-0.9608683,-0.13732699,3.669741630554199,3.6644446849823,1.0481230020523071,-79.22847747802734,203.36865234375, 93.79415893554688
643,461031671,0.278295,-0.050393835,-0.94753027,-0.14899303,4.996428966522217,3.8416075706481934,1.0108072757720947,-101.61090087890625,278.2508850097656, 115.11378479003906
644,461048338,0.32730156,-0.0661048,-0.9284734,-0.1626072,6.8751373291015625,1.96364426612854,0.20007465779781342,-120.57931518554688,343.50244140625, 133.68869018554688
645,461065005,0.38333148,-0.08200633,-0.9035492,-0.1730056,8.70498275756836,-0.16403941810131073,-1.0961737632751465,-103.82403564453125,399.9206848144531, 152.72962951660156
646,461081672,0.44513372,-0.096319154,-0.8727745,-0.1756221,10.39476490020752,-2.206223249435425,-2.5604960918426514,-54.983558654785156,448.7509765625, 173.62692260742188
647,461098339,0.5109378,-0.10606313,-0.8360256,-0.1695708,13.222718238830566,-2.0899782180786133,-4.060762882232666,6.453018665313721,490.8809509277344, 181.62591552734375
648,461115006,0.57701457,-0.11333179,-0.79221517,-0.16311167,16.738309860229492,-2.002399206161499,-7.1018218994140625,9.399291038513184,519.8856201171875, 174.383544921875
649,461131673,0.6409596,-0.11847214,-0.7421193,-0.1561859,20.33382797241211,-1.375479817390442,-8.600848197937012,11.590826034545898,535.2886962890625, 167.21658325195312
650,461148340,0.6990979,-0.123653755,-0.6875786,-0.15234047,24.09756088256836,1.3899916410446167,-10.228407859802246,-13.931252479553223,527.7413940429688, 151.2628936767578
651,461165007,0.7445572,-0.12979661,-0.63674366,-0.15279113,28.15862464904785,8.709419250488281,-15.421431541442871,-45.8647346496582,452.5537109375, 118.70550537109375
652,461181674,0.7774851,-0.1414981,-0.5924458,-0.15653507,39.01145553588867,16.62565803527832,-27.224300384521484,-93.15290069580078,361.3989562988281, 107.24337768554688
653,461198341,0.80077946,-0.14972603,-0.55891603,-0.15474945,12.0108642578125,5.939479351043701,-23.692842483520508,-49.945899963378906,263.2730407714844, 101.93464660644531
654,461215008,0.81248933,-0.14756659,-0.5431911,-0.15175217,10.856213569641113,19.132444381713867,-32.49274444580078,18.818256378173828,130.8084716796875, 38.022666931152344
655,461231675,0.81299424,-0.14695698,-0.5419229,-0.15415466,4.453503131866455,16.076082229614258,-29.915847778320312,-6.407895565032959,12.482882499694824, -12.556679725646973
656,461248342,0.8026696,-0.14406398,-0.55634534,-0.15952139,4.289808750152588,17.06789207458496,-30.771333694458008,0.903161883354187,-109.80477142333984, -64.84346008300781
657,461265009,0.7844672,-0.13588437,-0.5822028,-0.16488415,11.749696731567383,22.60527992248535,-32.33845901489258,34.740516662597656,-196.9171905517578, -104.88495635986328
658,461281676,0.75107247,-0.13230968,-0.61815614,-0.1904398,25.938446044921875,42.89414596557617,-18.960697174072266,-73.83352661132812,-298.2693176269531, -221.87525939941406
659,461298343,0.71904814,-0.15490721,-0.6389778,-0.22512412,18.247859954833984,-27.70503044128418,26.54910659790039,-266.40533447265625,-240.08128356933594, -141.57308959960938
660,461315010,0.6840213,-0.14586297,-0.6725734,-0.24183469,24.5952091217041,-2.2167108058929443,-9.570775985717773,-14.242057800292969,-286.9490051269531, -210.28961181640625
661,461331677,0.6486705,-0.14837304,-0.700652,-0.25748563,8.548074722290039,-8.479044914245605,-11.263503074645996,-73.30541229248047,-282.6440124511719, -146.90390014648438
662,461348344,0.6183682,-0.15208834,-0.72149986,-0.2718969,10.644933700561523,8.7080717086792,-0.4742913246154785,-80.50434875488281,-229.33840942382812, -119.32272338867188
663,461365011,0.5971795,-0.15301302,-0.7329834,-0.28757426,13.515665054321289,-0.3820679485797882,-3.94539737701416,-82.81847381591797,-137.79759216308594, -111.58869171142578
664,461381678,0.58058834,-0.14402738,-0.7468833,-0.2904114,14.935506820678711,-1.970474123954773,-6.324775695800781,32.16072082519531,-118.46781921386719, -102.29218292236328
665,461398345,0.56857675,-0.13449784,-0.7577634,-0.29056114,13.978346824645996,1.1375091075897217,-7.446354389190674,46.5421142578125,-84.44644165039062, -82.3017578125
666,461415012,0.5595319,-0.12600718,-0.7665293,-0.28892753,13.915472984313965,5.403110980987549,-5.265570640563965,50.2130241394043,-64.41875457763672, -62.088314056396484
667,461431679,0.55365247,-0.11887467,-0.77260053,-0.28710014,13.868402481079102,5.691827774047852,-4.43419075012207,43.383827209472656,-40.23439407348633, -45.575531005859375
668,461448346,0.55096895,-0.11175677,-0.7769763,-0.2832874,15.61563491821289,5.9355692863464355,-5.5608062744140625,53.14344024658203,-18.467239379882812, -30.26495361328125
669,461465013,0.54961884,-0.10250526,-0.78283226,-0.27310356,18.236284255981445,4.669864654541016,-2.144801378250122,99.17073059082031,-17.69113540649414, -16.104833602905273
670,461481680,0.5507653,-0.0941384,-0.7876916,-0.25949478,19.22810935974121,4.8939290046691895,-2.9209108352661133,114.18568420410156,-4.604940414428711, 6.917227268218994
671,461498347,0.5545668,-0.08773469,-0.79164064,-0.24096383,20.225095748901367,-0.3749855160713196,-0.39389124512672424,133.54269409179688,6.498884201049805, 41.439247131347656
672,461515014,0.5715302,-0.092245854,-0.7818057,-0.23156816,25.80017852783203,-2.3711605072021484,5.744326591491699,27.318008422851562,118.05282592773438, 96.01297760009766
673,461531681,0.57899296,-0.09265314,-0.78123164,-0.2141486,5.07588529586792,-9.979714393615723,0.267612487077713,95.3595199584961,31.865036010742188, 84.32968139648438
674,461548348,0.5743472,-0.08290428,-0.7924861,-0.18766466,6.554740905761719,14.055047035217285,-0.7004621028900146,194.12977600097656,-71.12675476074219, 40.33445739746094
675,461565015,0.5559677,-0.088767715,-0.80340123,-0.19382142,10.116883277893066,15.129916191101074,0.21741455793380737,-53.487545013427734,-146.18824768066406, -20.899168014526367
676,461581682,0.5310921,-0.08476384,-0.82123363,-0.19060868,10.149101257324219,1.8624002933502197,-2.7248857021331787,41.46021270751953,-201.16650390625, -52.33622741699219
677,461598349,0.5012783,-0.07159152,-0.8438556,-0.17748943,14.746660232543945,0.24194753170013428,2.672492742538452,134.3216094970703,-240.36302185058594, -77.23535919189453
678,461615016,0.46731272,-0.050783724,-0.8691459,-0.1537053,17.412067413330078,-1.8766793012619019,7.103643417358398,223.8428955078125,-269.75128173828125, -91.25679016113281
679,461631683,0.4286391,-0.031211149,-0.8936631,-0.12907593,17.56145477294922,0.8230980634689331,11.813371658325195,222.53700256347656,-297.2192077636719, -85.97608947753906
680,461648350,0.38753253,-0.016991336,-0.9151582,-0.10961389,17.34929084777832,-0.893456757068634,13.363069534301758,171.9145050048828,-307.1376953125, -69.9074935913086
681,461665017,0.3458597,-0.0057435557,-0.93381256,-0.091335155,16.973905563354492,-1.2032594680786133,15.618565559387207,154.42295837402344,-305.4893798828125, -54.53821563720703
682,461681684,0.3063713,0.000049199443,-0.94880646,-0.076830514,19.705392837524414,1.1101751327514648,15.304352760314941,115.0754623413086,-286.2866516113281, -27.056671142578125
683,461698351,0.27201042,0.00007466861,-0.95966935,-0.07102845,20.430194854736328,3.7700231075286865,12.677824020385742,44.05143356323242,-247.44436645507812, -5.14707088470459
684,461715018,0.24466541,-0.0021944505,-0.9668181,-0.07346359,17.092628479003906,3.6975228786468506,11.554004669189453,-16.287534713745117,-195.58116149902344, -2.0980162620544434
685,461731685,0.22483681,-0.004051333,-0.97128767,-0.07766791,13.760185241699219,4.413163661956787,8.611272811889648,-28.48349380493164,-141.08255004882812, -4.088649272918701
686,461748352,0.21426773,-0.005839849,-0.9730817,-0.08466061,11.049683570861816,6.595152378082275,5.861891269683838,-48.06525421142578,-75.14556121826172, -3.933311700820923
687,461765019,0.2151246,-0.009460853,-0.9715524,-0.09857953,8.9924955368042,5.7442803382873535,4.171944618225098,-98.44712829589844,5.309919357299805, 4.812747001647949
688,461781686,0.22757529,-0.015242304,-0.9668103,-0.1151308,7.371755123138428,3.5984272956848145,2.1469874382019043,-120.5447769165039,86.16370391845703, 23.34538459777832
689,461798353,0.25148106,-0.022587677,-0.95885104,-0.12981564,5.944615364074707,3.051656484603882,1.5029561519622803,-111.87059020996094,165.8983612060547, 46.03577423095703
