PacketCounter,SampleTimeFine,Quat_W,Quat_X,Quat_Y,Quat_Z,Acc_X,Acc_Y,Acc_Z,Gyr_X,Gyr_Y,Gyr_Z 
1,2961619180,0.7314499,0.31944945,-0.4517555,0.39856023,-0.1865842491388321,-0.07699161767959595,-0.075555220246315,-0.06127722188830376,0.39337900280952454, -0.28659164905548096
2,2961635847,0.7319755,0.31974462,-0.45114315,0.3980517,15.452593803405762,1.7697283029556274,6.504131317138672,0.7450156807899475,3.5779595375061035, 2.1538164615631104
3,2961652514,0.73220134,0.31920698,-0.45132068,0.3978666,15.333830833435059,1.8755595684051514,6.515416622161865,-0.19538646936416626,3.637406587600708, 1.9820066690444946
4,2961669181,0.73254573,0.31886718,-0.45118383,0.39766026,15.414417266845703,1.871339201927185,6.492705345153809,0.5356448292732239,3.463932514190674, 2.062495231628418
5,2961685848,0.73281753,0.31857526,-0.4511463,0.3974361,15.499926567077637,1.738071322441101,6.657052993774414,0.12778815627098083,3.5029399394989014, 2.190596342086792
6,2961702515,0.7329766,0.31807894,-0.4509984,0.39770806,15.39784049987793,1.8875082731246948,6.471617698669434,0.7928090691566467,3.463022470474243, 2.3195180892944336
7,2961719182,0.73326033,0.31757373,-0.45102763,0.39755535,15.303438186645508,1.7489148378372192,6.531383514404297,-0.16668744385242462,3.45660662651062, 2.172872543334961
8,2961735849,0.7334045,0.3171474,-0.45095807,0.3977087,15.387900352478027,1.8177028894424438,6.503637790679932,0.6408745050430298,3.4548521041870117, 2.4231085777282715
9,2961752516,0.7335078,0.31681928,-0.4508851,0.39786252,15.241182327270508,1.871396780014038,6.450791358947754,0.800889790058136,3.3721487522125244, 2.300065040588379
10,2961769183,0.73372287,0.31640115,-0.45089138,0.39779162,15.341277122497559,1.5843294858932495,6.471475601196289,-0.00034577149199321866,3.321256637573242, 2.326024055480957
11,2961785850,0.7339141,0.31586704,-0.45097977,0.39776322,15.240575790405273,1.8211417198181152,6.496020317077637,0.5812482237815857,3.503516435623169, 2.397777557373047
12,2961802517,0.73395056,0.31555045,-0.4509191,0.39801595,15.280545234680176,1.7744249105453491,6.445609092712402,0.0931854173541069,3.2702748775482178, 2.326753854751587
13,2961819184,0.73399544,0.31524402,-0.45085466,0.39824882,15.439495086669922,1.7222565412521362,6.563336372375488,0.4406728744506836,3.4095046520233154, 2.455214023590088
14,2961835851,0.73405033,0.3149168,-0.45073164,0.39854592,15.215770721435547,1.7013037204742432,6.461858749389648,0.15044260025024414,3.800431728363037, 2.34059739112854
15,2961852518,0.73389703,0.31485042,-0.45048314,0.399161,15.237879753112793,1.7324178218841553,6.487730026245117,0.8444443941116333,3.4579131603240967, 2.3565285205841064
16,2961869185,0.73401856,0.3144767,-0.45040998,0.3993146,15.405349731445312,1.6816149950027466,6.569759368896484,0.32099756598472595,3.615175247192383, 2.2080771923065186
17,2961885852,0.7341138,0.31413862,-0.4502794,0.3995526,15.237491607666016,1.7401174306869507,6.538471221923828,0.19495746493339539,3.7643563747406006, 2.049419403076172
18,2961902519,0.73414576,0.31383687,-0.45014566,0.3998816,15.254476547241211,1.6338577270507812,6.433659553527832,0.02537578158080578,3.49756121635437, 2.3302369117736816
19,2961919186,0.7340488,0.3136813,-0.44994137,0.4004116,14.980435371398926,1.6953948736190796,6.3696465492248535,0.9653489589691162,3.480708360671997, 2.6200320720672607
20,2961935853,0.7340278,0.31344047,-0.44978556,0.40081334,15.239810943603516,1.748100996017456,6.454535484313965,0.13798201084136963,3.4654173851013184, 2.352071523666382
21,2961952520,0.73397493,0.31325042,-0.44960237,0.40126422,15.30868148803711,1.4767001867294312,6.454312801361084,0.7990841269493103,3.5218422412872314, 2.6353867053985596
22,2961969187,0.73391473,0.31301206,-0.44945955,0.40172005,15.054971694946289,1.682275414466858,6.423102378845215,0.5030014514923096,3.4914016723632812, 2.680490732192993
23,2961985854,0.7338679,0.3127757,-0.44933316,0.40213078,15.187124252319336,1.6745816469192505,6.454192161560059,0.15308070182800293,3.304044723510742, 2.4642810821533203
24,2962002521,0.73384565,0.31256205,-0.4491839,0.40250406,15.201703071594238,1.562855839729309,6.471688747406006,0.27468982338905334,3.3667068481445312, 2.1933376789093018
25,2962019188,0.73370034,0.3124753,-0.44896337,0.40308192,15.062889099121094,1.7235796451568604,6.457029342651367,0.9213592410087585,3.3079376220703125, 2.4851937294006348
26,2962035855,0.7335768,0.31233212,-0.44881725,0.40358022,15.037002563476562,1.5733076333999634,6.272530555725098,-0.0319262333214283,2.9313418865203857, 2.3983542919158936
27,2962052522,0.73344284,0.31223458,-0.44860122,0.4041388,15.106266021728516,1.626577377319336,6.562561511993408,0.4244600236415863,3.3208975791931152, 2.3473715782165527
28,2962069189,0.7334479,0.3119886,-0.44845158,0.40448558,15.112857818603516,1.5002397298812866,6.419063568115234,0.10017766803503036,3.441917657852173, 2.2053239345550537
29,2962085856,0.7332724,0.3119772,-0.44815627,0.4051394,15.084090232849121,1.6369646787643433,6.416325569152832,1.2012804746627808,3.4428529739379883, 2.353006601333618
30,2962102523,0.7332077,0.31179804,-0.4478978,0.40567997,15.138467788696289,1.5226850509643555,6.578598976135254,-0.14834879338741302,3.3652725219726562, 2.165778398513794
31,2962119190,0.7332201,0.3114666,-0.44765407,0.40618068,14.8778076171875,1.4542665481567383,6.334863185882568,-0.2907297611236572,3.4434547424316406, 2.6318395137786865
32,2962135857,0.7331264,0.31131807,-0.44729206,0.40686193,14.813528060913086,1.7503745555877686,6.289179801940918,0.6683570146560669,3.3181192874908447, 2.5292861461639404
33,2962152524,0.73311913,0.3110946,-0.44697478,0.40739423,14.981804847717285,1.5429974794387817,6.486335754394531,0.2911972105503082,3.279226303100586, 2.2234325408935547
34,2962169191,0.7331173,0.31088436,-0.44665188,0.40791196,15.063029289245605,1.5788673162460327,6.434552192687988,0.6947637796401978,3.273860454559326, 2.242295980453491
35,2962185858,0.7330793,0.3106803,-0.44634697,0.40846923,14.974203109741211,1.5337598323822021,6.526403903961182,1.0630102157592773,3.1534674167633057, 2.6450295448303223
36,2962202525,0.7331101,0.31035486,-0.44607678,0.40895596,15.05024242401123,1.5171946287155151,6.376489162445068,-0.13660535216331482,3.3630688190460205, 2.483849287033081
37,2962219192,0.73306763,0.31015497,-0.4457385,0.40955225,14.798477172851562,1.437882661819458,6.350074291229248,0.5915188789367676,3.3061704635620117, 2.444251537322998
38,2962235859,0.73303765,0.30992875,-0.44542557,0.4101173,14.708610534667969,1.3961176872253418,6.231814861297607,0.7393937706947327,3.270965576171875, 2.598414659500122
39,2962252526,0.73296773,0.30981848,-0.44506,0.41072202,14.724150657653809,1.6801625490188599,6.327116966247559,0.5711824297904968,3.0652318000793457, 1.9394258260726929
40,2962269193,0.7330082,0.30960375,-0.44475836,0.41113836,14.880438804626465,1.4553598165512085,6.439403057098389,0.3930973410606384,3.1058666706085205, 1.7473689317703247
41,2962285860,0.7329955,0.3094446,-0.4444345,0.4116306,14.880264282226562,1.565961480140686,6.376895427703857,0.3761545419692993,2.9913265705108643, 1.738980770111084
42,2962302527,0.73302126,0.30925533,-0.44411993,0.4120662,14.77299976348877,1.5825880765914917,6.267389297485352,0.4433366358280182,3.076796054840088, 1.6853861808776855
43,2962319194,0.7330195,0.30908236,-0.44379184,0.41255242,14.733076095581055,1.359928846359253,6.357853889465332,-0.04425873979926109,3.046278238296509, 1.564340353012085
44,2962335861,0.733076,0.30883697,-0.44349775,0.41295195,14.746970176696777,1.5297677516937256,6.306854724884033,-0.08270339667797089,3.1512391567230225, 1.6233649253845215
45,2962352528,0.7330869,0.30864295,-0.44318572,0.41341215,14.663419723510742,1.5303939580917358,6.259700775146484,0.5504873991012573,3.0919203758239746, 1.884063720703125
46,2962369195,0.7331302,0.308376,-0.44296646,0.41376948,14.855409622192383,1.5073870420455933,6.333730697631836,-0.49771881103515625,2.710636854171753, 1.6772284507751465
47,2962385862,0.73314273,0.30817056,-0.44263762,0.41425225,14.874061584472656,1.552111029624939,6.39727258682251,0.5687364935874939,3.2618865966796875, 1.9751814603805542
48,2962402529,0.7330985,0.30805153,-0.4422706,0.4148106,14.656120300292969,1.5567867755889893,6.382674217224121,1.0723590850830078,3.1602678298950195, 1.9930460453033447
49,2962419196,0.7331537,0.30785304,-0.44195238,0.41519916,14.721887588500977,1.6717679500579834,6.221053600311279,0.4280586242675781,3.141096353530884, 1.4883475303649902
50,2962435863,0.7331784,0.3076938,-0.44159463,0.4156543,14.639617919921875,1.3309088945388794,6.281850337982178,0.583719789981842,3.241037368774414, 1.5147030353546143
51,2962452530,0.7332788,0.3074552,-0.44130558,0.41596043,14.598913192749023,1.588019847869873,6.236044883728027,-0.2905632555484772,3.0684330463409424, 1.0845887660980225
52,2962469197,0.7333391,0.30728966,-0.4409592,0.41634354,14.719639778137207,1.5655120611190796,6.241995334625244,0.1755814403295517,3.156118392944336, 1.0662246942520142
53,2962485864,0.73345953,0.30707103,-0.44063646,0.4166342,14.770439147949219,1.5505139827728271,6.28485631942749,-0.04826712980866432,3.226719856262207, 0.882389485836029
54,2962502531,0.7334652,0.30697215,-0.44023833,0.4171177,14.65852165222168,1.472543716430664,6.298433780670166,1.055390477180481,3.2754483222961426, 1.4070913791656494
55,2962519198,0.73352104,0.30681014,-0.4398768,0.41752002,14.495095252990723,1.755332589149475,6.192449569702148,0.3937375843524933,3.263986349105835, 1.1733497381210327
56,2962535865,0.7335652,0.30667552,-0.4395143,0.41792297,14.568519592285156,1.5697791576385498,6.223604202270508,0.9175428748130798,3.19100284576416, 1.2990057468414307
57,2962552532,0.7336111,0.30646086,-0.43924785,0.41827968,14.633269309997559,1.438210129737854,6.280714511871338,-0.13751459121704102,2.824805736541748, 1.3952839374542236
58,2962569199,0.7336211,0.3063452,-0.43895668,0.41865265,14.38856315612793,1.8804433345794678,6.184797286987305,0.9427460432052612,2.6275110244750977, 1.4086921215057373
59,2962585866,0.7336942,0.3060835,-0.4387587,0.4189235,14.667346000671387,1.4356577396392822,6.251224040985107,-0.382935494184494,2.565950870513916, 1.4141860008239746
60,2962602533,0.7337207,0.3059322,-0.43846178,0.41929775,14.57386302947998,1.5795025825500488,6.365069389343262,0.873028039932251,2.824984550476074, 1.5264592170715332
61,2962619200,0.73375976,0.30575052,-0.4381592,0.41967806,14.371015548706055,1.741804838180542,6.153836250305176,0.09218651056289673,2.9309701919555664, 1.2952406406402588
62,2962635867,0.733771,0.3055835,-0.43787155,0.4200803,14.493659973144531,1.4140068292617798,6.132900714874268,0.42024677991867065,2.790382146835327, 1.5572969913482666
63,2962652534,0.7338019,0.305352,-0.4375956,0.42048204,14.352724075317383,1.4308887720108032,6.2161030769348145,0.20545868575572968,2.9926199913024902, 1.8017061948776245
64,2962669201,0.7338686,0.30509886,-0.43735883,0.42079565,14.34155559539795,1.734789252281189,6.1259589195251465,-0.13727127015590668,2.7979633808135986, 1.5039842128753662
65,2962685868,0.73389643,0.30488127,-0.4371045,0.42116895,14.519657135009766,1.4854943752288818,6.221245765686035,0.3833516538143158,2.79597806930542, 1.7914481163024902
66,2962702535,0.73389614,0.30465826,-0.43683952,0.42160544,14.391802787780762,1.3914591073989868,6.1775078773498535,0.7779281139373779,2.926436424255371, 2.252566337585449
67,2962719202,0.7339555,0.30440345,-0.43661773,0.4219157,14.247129440307617,1.7745275497436523,6.199177265167236,-0.10407720506191254,2.7083446979522705, 1.5815393924713135
68,2962735869,0.73390824,0.3042835,-0.43633354,0.42237836,14.395689964294434,1.442391037940979,6.018021106719971,1.283868670463562,2.61759877204895, 2.0550928115844727
69,2962752536,0.7339907,0.3040136,-0.43611148,0.4226585,14.351463317871094,1.528730869293213,6.290585517883301,-0.1743328720331192,2.776257038116455, 1.4799084663391113
70,2962769203,0.7340608,0.30378526,-0.4358715,0.42294827,14.363643646240234,1.49344003200531,6.095831871032715,0.27999162673950195,2.7405269145965576, 1.4701241254806519
71,2962785870,0.73413205,0.30356464,-0.43561384,0.42324847,14.311796188354492,1.599895715713501,6.051916599273682,0.34392091631889343,2.830043315887451, 1.4322429895401
72,2962802537,0.73422724,0.30334353,-0.435367,0.42349574,14.380313873291016,1.5037586688995361,6.206669807434082,0.22151781618595123,2.7510793209075928, 1.1800986528396606
73,2962819204,0.73428565,0.30315134,-0.43510285,0.42380363,14.390093803405762,1.5604047775268555,6.075742244720459,0.42512601613998413,2.7503111362457275, 1.347900390625
74,2962835871,0.7343615,0.3028764,-0.43487152,0.4241061,14.058448791503906,1.505510926246643,6.010612964630127,-0.2384798526763916,2.861790180206299, 1.5391247272491455
75,2962852538,0.73441875,0.3026475,-0.43462735,0.42442065,14.11044692993164,1.5878664255142212,5.880547523498535,0.4659782350063324,2.793583393096924, 1.6678285598754883
76,2962869205,0.7344696,0.30244645,-0.4343781,0.424731,14.323968887329102,1.5731148719787598,6.1531596183776855,0.44124922156333923,2.699098587036133, 1.4847619533538818
77,2962885872,0.73453116,0.30223176,-0.4341011,0.42506036,14.355255126953125,1.520463466644287,6.217409133911133,0.4590371549129486,2.9489243030548096, 1.519915223121643
78,2962902539,0.73459005,0.30198878,-0.43392655,0.42530954,14.192923545837402,1.624869465827942,5.912593364715576,-0.05089243873953819,2.3549535274505615, 1.5023833513259888
79,2962919206,0.73461205,0.3018163,-0.4337508,0.425573,14.295165061950684,1.5440484285354614,6.009304523468018,0.272922545671463,2.065990924835205, 1.395335078239441
80,2962935873,0.7346137,0.30167183,-0.4335444,0.4258827,14.152483940124512,1.546104907989502,5.976095676422119,0.3844146430492401,2.1534712314605713, 1.3933886289596558
81,2962952540,0.7346278,0.30150875,-0.43335503,0.4261667,13.967294692993164,1.6191561222076416,5.841179847717285,0.27693092823028564,2.119150161743164, 1.3883941173553467
82,2962969207,0.7346397,0.3012992,-0.4332318,0.42641944,14.247367858886719,1.6285760402679443,5.899209022521973,-0.011807454749941826,1.8726662397384644, 1.6289998292922974
83,2962985874,0.7346103,0.30115005,-0.43302536,0.42678514,14.204046249389648,1.6471586227416992,6.04228401184082,0.4250235855579376,2.188432455062866, 1.704032063484192
84,2963002541,0.7345518,0.30094403,-0.43288776,0.42717063,14.05580997467041,1.4344605207443237,5.839510917663574,0.3590836524963379,1.9880127906799316, 2.3561058044433594
85,2963019208,0.7344613,0.30079052,-0.4327382,0.4275858,14.2113037109375,1.643110752105713,6.066327095031738,0.9532854557037354,1.8762006759643555, 2.486832857131958
86,2963035875,0.7344166,0.30055067,-0.43260133,0.4279693,14.04710865020752,1.5310615301132202,6.068541049957275,0.10930860787630081,2.1241700649261475, 2.3876352310180664
87,2963052542,0.73432153,0.3003496,-0.43254977,0.42832568,14.009505271911621,1.4356881380081177,5.783527851104736,0.1632041186094284,1.3809471130371094, 2.5040385723114014
88,2963069209,0.7342178,0.30017796,-0.432469,0.42870504,13.977616310119629,1.575456142425537,5.913911819458008,0.5235428214073181,1.4721860885620117, 2.5172736644744873
89,2963085876,0.7341101,0.30003658,-0.4323773,0.42908072,13.90494155883789,1.5635387897491455,5.854916095733643,0.23405525088310242,1.3856022357940674, 2.162973165512085
90,2963102543,0.7340264,0.2998953,-0.4323237,0.4293768,14.079782485961914,1.5541478395462036,5.797905445098877,0.1722390204668045,1.1272469758987427, 1.9398994445800781
91,2963119210,0.7339168,0.29976106,-0.43226808,0.42971364,14.186681747436523,1.4279694557189941,5.98878288269043,0.12160269170999527,1.1041442155838013, 2.0616366863250732
92,2963135877,0.7337905,0.29966006,-0.43217158,0.43009675,13.8615140914917,1.4037258625030518,5.680112361907959,0.6462787985801697,1.2602665424346924, 2.1904940605163574
93,2963152544,0.73370785,0.2995676,-0.4320842,0.43038976,13.888601303100586,1.6285115480422974,5.792824745178223,0.5890216827392578,1.1537177562713623, 1.7415292263031006
94,2963169211,0.7336114,0.2995242,-0.43191865,0.43075043,13.860932350158691,1.4879660606384277,5.7972822189331055,0.9619682431221008,1.4757462739944458, 1.6493874788284302
95,2963185878,0.7335223,0.29941377,-0.4317852,0.43111253,13.65621280670166,1.3468519449234009,5.6444525718688965,0.45208340883255005,1.531236171722412, 1.8655329942703247
96,2963202545,0.73341304,0.29934868,-0.43166888,0.43145984,13.797361373901367,1.5952105522155762,5.670002460479736,0.7456817626953125,1.229121446609497, 1.8084806203842163
97,2963219212,0.7333139,0.2992638,-0.43156132,0.4317948,13.840648651123047,1.3789269924163818,5.656357765197754,0.4373560845851898,1.240608811378479, 1.7318092584609985
98,2963235879,0.7331926,0.29922038,-0.4314963,0.43209592,13.704973220825195,1.5739728212356567,5.670527935028076,0.38168683648109436,0.7640460729598999, 1.5473463535308838
99,2963252546,0.733105,0.29906714,-0.4314943,0.43235272,13.723493576049805,1.2587531805038452,5.626405715942383,-0.4459042549133301,0.7913363575935364, 1.7404532432556152
100,2963269213,0.7329984,0.2990683,-0.4313849,0.4326415,13.648786544799805,1.4726608991622925,5.506044864654541,0.919220507144928,0.8944274187088013, 1.344288945198059
101,2963285880,0.7329169,0.29903033,-0.43129113,0.4328994,13.687588691711426,1.30632483959198,5.639189720153809,0.3459187150001526,0.9339349865913391, 1.1684192419052124
102,2963302547,0.7328139,0.29908022,-0.43114495,0.4331847,13.567720413208008,1.4153448343276978,5.480848789215088,1.0610637664794922,0.930195689201355, 0.996955156326294
103,2963319214,0.7328001,0.29899314,-0.4310983,0.4333145,13.60311222076416,1.4046046733856201,5.516777038574219,-0.43590250611305237,0.7941536903381348, 0.627837598323822
104,2963335881,0.7327282,0.2990329,-0.43099895,0.43350747,13.68597412109375,1.3157360553741455,5.510571479797363,0.4149961769580841,0.6250971555709839, 0.5076244473457336
105,2963352548,0.7326889,0.2990635,-0.43086004,0.43369082,13.567591667175293,1.3868340253829956,5.4884467124938965,0.4161871373653412,0.9347034096717834, 0.31967848539352417
106,2963369215,0.7326742,0.29910833,-0.43070993,0.433834,13.392572402954102,1.377562165260315,5.322005748748779,0.472419798374176,0.9505576491355896, 0.041947197169065475
107,2963385882,0.73267657,0.29920176,-0.4305479,0.43392602,13.551429748535156,1.5406782627105713,5.482981204986572,0.3776528835296631,0.8029773831367493, -0.5304902195930481
108,2963402549,0.7326793,0.2993452,-0.43034315,0.4340257,13.617030143737793,1.3834596872329712,5.390222549438477,0.9758630990982056,0.9023802876472473, -0.6235284209251404
109,2963419216,0.73274285,0.29943052,-0.43021658,0.4339852,13.529711723327637,1.3752082586288452,5.425508499145508,-0.02817397005856037,0.5828746557235718, -1.14630925655365
110,2963435883,0.7328717,0.29950365,-0.43009445,0.43383822,13.653396606445312,1.5098519325256348,5.46447229385376,-0.73915696144104,0.5617954134941101, -1.9278168678283691
111,2963452550,0.7329725,0.29972506,-0.4298821,0.43372518,13.632160186767578,1.3362653255462646,5.424921035766602,0.30641114711761475,0.5559300780296326, -2.359992742538452
112,2963469217,0.73307693,0.30000034,-0.42966437,0.43357423,13.732489585876465,1.3179001808166504,5.413559913635254,0.6380956172943115,0.3712241053581238, -2.6490960121154785
113,2963485884,0.7331603,0.30040565,-0.42935765,0.43345657,13.625462532043457,1.3505984544754028,5.4030375480651855,1.8463488817214966,0.4540427029132843, -2.91139554977417
114,2963502551,0.7332393,0.300915,-0.42894888,0.43337423,13.65713882446289,1.4038666486740112,5.315732955932617,2.5932538509368896,0.7085049152374268, -3.338564157485962
115,2963519218,0.7333164,0.30153015,-0.42845654,0.43330336,13.8025541305542,1.3806614875793457,5.2857584953308105,3.2704153060913086,0.828116238117218, -3.833401918411255
116,2963535885,0.73340684,0.30228344,-0.4278328,0.4332418,13.463972091674805,1.504018783569336,5.357610702514648,4.692368507385254,1.170007586479187, -4.332363128662109
117,2963552552,0.7335466,0.30296972,-0.42729342,0.43305808,13.710593223571777,1.6194806098937988,5.150613784790039,3.636305570602417,0.838066816329956, -4.723123073577881
118,2963569219,0.7336524,0.3037894,-0.42668223,0.43290704,13.715570449829102,1.5511069297790527,5.460575103759766,4.80795955657959,0.7904016375541687, -4.932955741882324
119,2963585886,0.73371124,0.3046373,-0.42608228,0.43280247,13.499101638793945,1.504017949104309,5.2820658683776855,5.086498260498047,0.6072068810462952, -4.650870323181152
120,2963602553,0.7337462,0.30555704,-0.42558205,0.43258688,13.595789909362793,1.8226983547210693,5.358175754547119,4.992908000946045,-0.4000832140445709, -5.080342769622803
121,2963619220,0.73371726,0.30660325,-0.4250837,0.43238553,13.705384254455566,1.6790101528167725,5.418408393859863,5.621905326843262,-0.9593109488487244, -5.273629665374756
122,2963635887,0.73353034,0.30784655,-0.42461118,0.43228394,13.679647445678711,1.6594680547714233,5.393402099609375,7.0472002029418945,-1.9410715103149414, -4.8833818435668945
123,2963652554,0.7332994,0.30906397,-0.4243534,0.43205997,13.43675422668457,1.9398844242095947,5.18759822845459,6.280369281768799,-3.314347743988037, -4.702197551727295
124,2963669221,0.7330323,0.3101089,-0.4243704,0.43174773,13.5093412399292,1.9697908163070679,5.2328691482543945,4.597179889678955,-4.465229511260986, -3.8539953231811523
125,2963685888,0.7327266,0.31089258,-0.4246772,0.43140116,13.499855041503906,2.2836477756500244,5.225499153137207,2.393590211868286,-5.33866024017334, -2.533480405807495
126,2963702555,0.73240656,0.31141797,-0.42524296,0.43100828,13.542285919189453,2.1729917526245117,5.210509300231934,0.5935934782028198,-5.982114315032959, -1.2163087129592896
127,2963719222,0.7319885,0.31196114,-0.42582437,0.4307513,13.540693283081055,2.0003974437713623,5.03798246383667,1.0983431339263916,-6.124189376831055, -0.3303142189979553
128,2963735889,0.731492,0.31254128,-0.42637962,0.4306252,13.438389778137207,1.8066506385803223,4.754127502441406,1.6568281650543213,-6.07370662689209, 0.2663913071155548
129,2963752556,0.73098785,0.3131862,-0.42682427,0.43057206,13.178140640258789,1.8295711278915405,4.845039367675781,2.6157033443450928,-5.562041282653809, 0.26459839940071106
130,2963769223,0.73065394,0.31347546,-0.4274567,0.43030095,13.355548858642578,2.20395827293396,4.774208068847656,-0.5535673499107361,-5.402909755706787, 0.20337125658988953
131,2963785890,0.7303936,0.31357956,-0.42815354,0.4299741,13.534801483154297,1.9215586185455322,4.643392086029053,-2.2555058002471924,-5.104201793670654, 0.2651747167110443
132,2963802557,0.7300677,0.31384546,-0.4286839,0.42980522,13.5181245803833,1.6968684196472168,4.583998203277588,-0.2645151913166046,-4.583726406097412, 0.45773106813430786
133,2963819224,0.7297548,0.31419262,-0.4291095,0.42965817,13.095590591430664,1.9219908714294434,4.559586524963379,0.3784724771976471,-4.21615743637085, 0.0047063338570296764
134,2963835891,0.7294833,0.31449652,-0.4295411,0.42946547,13.015463829040527,1.849197268486023,4.487921714782715,0.25583887100219727,-4.057513236999512, -0.03622916713356972
135,2963852558,0.7291699,0.31474116,-0.43003955,0.42931956,13.394062042236328,2.0459368228912354,4.7061238288879395,-0.40170952677726746,-4.274336338043213, 0.44941961765289307
136,2963869225,0.72887194,0.31469718,-0.43066388,0.4292323,13.219639778137207,1.9122287034988403,4.470366954803467,-1.9448493719100952,-3.863868474960327, 1.8956154584884644
137,2963885892,0.72854793,0.31449756,-0.43128487,0.42930508,13.125825881958008,1.8885592222213745,4.180727481842041,-2.5713226795196533,-3.1496193408966064, 3.0406436920166016
138,2963902559,0.72826165,0.31422988,-0.43179247,0.42947647,13.038522720336914,1.869215965270996,4.269643306732178,-2.0205349922180176,-2.0115320682525635, 3.552180767059326
139,2963919226,0.72795516,0.31397355,-0.43221948,0.42975393,12.851905822753906,1.864957332611084,4.246295928955078,-1.4083398580551147,-1.4701818227767944, 3.9179301261901855
140,2963935893,0.7277312,0.31360102,-0.43264762,0.42997438,12.834702491760254,1.773078203201294,4.344498634338379,-2.7863929271698,-1.044844627380371, 3.5229949951171875
141,2963952560,0.72751594,0.31323206,-0.43301266,0.43023986,12.839113235473633,1.4854353666305542,4.355401039123535,-2.4766197204589844,-0.6124379634857178, 3.572939395904541
142,2963969227,0.7273575,0.31293023,-0.43336993,0.43036768,12.754989624023438,2.0307509899139404,4.4110636711120605,-2.670571804046631,-0.89493328332901, 2.486077308654785
143,2963985894,0.7271731,0.31271273,-0.4336982,0.43050697,12.901052474975586,1.5514183044433594,4.322565078735352,-1.8471364974975586,-1.0289390087127686, 2.4258365631103516
144,2964002561,0.7268333,0.31272227,-0.4339039,0.43086645,12.551894187927246,1.2810126543045044,4.405330657958984,0.0990891307592392,-1.11976158618927, 2.7815582752227783
145,2964019228,0.72647876,0.31274393,-0.4342378,0.4311118,12.515594482421875,1.9570989608764648,4.175373554229736,-0.7211766839027405,-2.0999596118927, 2.3954849243164062
146,2964035895,0.72620445,0.31268907,-0.4346139,0.43123475,12.610869407653809,1.5214399099349976,4.099205493927002,-1.5117640495300293,-2.0783040523529053, 2.0000252723693848
147,2964052562,0.7257988,0.3128433,-0.43485337,0.4315645,12.361368179321289,1.4137992858886719,4.076362133026123,0.55436772108078,-1.978043556213379, 2.3681440353393555
148,2964069229,0.7255116,0.31269363,-0.43537846,0.43162632,12.3125638961792,1.9736014604568481,4.171239376068115,-2.013888359069824,-2.643653392791748, 2.6121692657470703
149,2964085896,0.72517765,0.3124928,-0.43596712,0.43173894,12.358428001403809,1.8037821054458618,4.010046482086182,-3.167830228805542,-2.91522479057312, 2.845308780670166
150,2964102563,0.72489196,0.3121849,-0.43660665,0.4317951,12.30135440826416,1.645447015762329,4.053072929382324,-3.723139524459839,-2.7862396240234375, 3.050748109817505
151,2964119230,0.7245011,0.31201145,-0.4371409,0.43203577,11.994742393493652,1.661224365234375,3.785048007965088,-2.2571702003479004,-2.602724075317383, 3.515477180480957
152,2964135897,0.7240907,0.31174207,-0.4378045,0.43224636,11.908712387084961,2.003923177719116,3.9299330711364746,-3.9858615398406982,-3.1480190753936768, 3.6024587154388428
153,2964152564,0.72374445,0.3113021,-0.43856382,0.4323737,12.346209526062012,1.5053519010543823,3.8993141651153564,-4.874482154846191,-3.0539183616638184, 4.0288848876953125
154,2964169231,0.7232836,0.31113452,-0.43905258,0.43276897,12.045247077941895,1.5571409463882446,3.719630002975464,-1.8336390256881714,-2.3004050254821777, 4.221773624420166
155,2964185898,0.7227305,0.31120804,-0.43940815,0.43327883,11.783001899719238,1.4578777551651,3.568068742752075,-0.056514427065849304,-2.4124345779418945, 3.881828784942627
156,2964202565,0.7221121,0.31156582,-0.4395717,0.43388662,11.527435302734375,1.3486638069152832,3.6308538913726807,2.5239202976226807,-2.27805757522583, 3.3679614067077637
157,2964219232,0.7214776,0.31199905,-0.43978575,0.43441376,11.40861701965332,1.4529023170471191,3.6005539894104004,2.3391504287719727,-2.9906158447265625, 2.7985527515411377
158,2964235899,0.72085434,0.31253648,-0.4399912,0.43485385,11.541751861572266,1.2889751195907593,3.6556615829467773,3.3171205520629883,-3.3618338108062744, 2.3376777172088623
159,2964252566,0.7201559,0.31322545,-0.44015867,0.43534553,11.337520599365234,1.351691484451294,3.63257098197937,4.145883560180664,-3.7689735889434814, 2.110429048538208
160,2964269233,0.7194944,0.3138499,-0.44039115,0.43575442,11.389510154724121,1.2361955642700195,3.426192283630371,3.910208225250244,-3.9237759113311768, 2.2062206268310547
161,2964285900,0.7186651,0.31486025,-0.44027457,0.436511,11.324427604675293,1.2701940536499023,3.4161477088928223,7.852835178375244,-3.1374149322509766, 2.3096060752868652
162,2964302567,0.71764255,0.31600186,-0.44015658,0.43748638,10.912344932556152,1.605994462966919,3.36647629737854,9.611584663391113,-3.631101131439209, 3.5823535919189453
163,2964319234,0.7165747,0.31698257,-0.44034982,0.43833187,10.713810920715332,1.9984029531478882,3.518756151199341,7.983757972717285,-5.074608325958252, 4.428072929382324
164,2964335901,0.7154738,0.31780988,-0.44080204,0.43907624,10.616683959960938,1.893669843673706,3.5568432807922363,5.782254695892334,-6.240536689758301, 4.88041877746582
165,2964352568,0.71429896,0.31894052,-0.44105923,0.43991014,10.552383422851562,1.4779378175735474,3.4302732944488525,8.340003967285156,-6.223209857940674, 4.236246585845947
166,2964369235,0.7129202,0.32054472,-0.4410983,0.44094026,10.512022018432617,1.3568673133850098,3.2273318767547607,12.624451637268066,-6.759401798248291, 4.015427589416504
167,2964385902,0.71134657,0.32206324,-0.44158152,0.44189054,10.453001976013184,1.4397140741348267,3.3805010318756104,10.99789047241211,-9.44438362121582, 5.4347310066223145
168,2964402569,0.70986855,0.32357445,-0.44199106,0.442753,9.984979629516602,1.7670127153396606,3.355929374694824,10.816999435424805,-8.959328651428223, 4.626661777496338
169,2964419236,0.7087161,0.32466972,-0.44277295,0.44301617,9.857264518737793,1.753955364227295,2.876918315887451,5.139388561248779,-9.855873107910156, 2.828277111053467
170,2964435903,0.7073625,0.3259966,-0.44392422,0.4430529,9.992887496948242,1.2131199836730957,3.0410468578338623,4.850543022155762,-13.477912902832031, 2.4481594562530518
171,2964452570,0.70595384,0.32742655,-0.44541276,0.44275114,9.404306411743164,1.264935851097107,3.39860200881958,3.435133934020996,-16.353918075561523, 1.4234592914581299
172,2964469237,0.70482415,0.32860604,-0.44746247,0.4416089,9.276677131652832,1.3941236734390259,3.1511104106903076,-2.7476186752319336,-19.368896484375, -1.496462345123291
173,2964485904,0.70363253,0.32979867,-0.45038423,0.43964553,9.709166526794434,0.9316078424453735,3.007028579711914,-7.812392711639404,-25.689727783203125, -3.3792197704315186
174,2964502571,0.70238423,0.33123875,-0.45366234,0.43718204,9.831890106201172,0.4182667136192322,3.1908767223358154,-9.63140869140625,-29.506052017211914, -5.7880682945251465
175,2964519238,0.7007928,0.3335551,-0.45687476,0.43462175,9.572175979614258,0.8192710280418396,2.697564125061035,-4.837208271026611,-33.127010345458984, -8.152619361877441
176,2964535905,0.69915915,0.3362198,-0.46048933,0.43137255,9.087462425231934,1.3881278038024902,2.665332794189453,-5.792586803436279,-37.776031494140625, -11.273940086364746
177,2964552572,0.69757223,0.33867717,-0.46472698,0.42745724,9.179964065551758,0.9492744207382202,1.858046054840088,-11.074100494384766,-41.568809509277344, -12.58017635345459
178,2964569239,0.69554776,0.3421096,-0.46854186,0.42384312,9.197942733764648,1.3139978647232056,1.931062936782837,-3.237865447998047,-43.098052978515625, -13.961007118225098
179,2964585906,0.693295,0.34614387,-0.4720265,0.420378,8.963526725769043,1.4518893957138062,1.783703327178955,1.6575958728790283,-43.649261474609375, -15.263683319091797
180,2964602573,0.69068354,0.35106897,-0.4750975,0.4171203,8.547654151916504,1.7515355348587036,1.961022973060608,8.622159004211426,-44.920711517333984, -17.09011459350586
181,2964619240,0.6882496,0.3556996,-0.47853675,0.41327122,8.453802108764648,2.3055877685546875,1.919777512550354,3.6894845962524414,-46.68911361694336, -18.56138038635254
182,2964635907,0.68560845,0.36008498,-0.48229027,0.4094825,8.82841682434082,1.272070050239563,1.5077563524246216,2.3559987545013428,-48.020503997802734, -16.06256103515625
183,2964652574,0.68281347,0.36484602,-0.4855746,0.40604246,7.921403884887695,2.5696558952331543,1.2871536016464233,6.984304428100586,-46.51263427734375, -16.376928329467773
184,2964669241,0.68070805,0.3686709,-0.48883626,0.40219077,8.53882884979248,2.2396440505981445,-0.15536561608314514,-0.5683371424674988,-42.5369987487793, -17.14706039428711
185,2964685908,0.67821676,0.37318945,-0.49110687,0.39945698,8.929586410522461,1.152392029762268,-0.243721604347229,10.002148628234863,-38.264644622802734, -15.691181182861328
186,2964702575,0.6756902,0.3778768,-0.49272695,0.3973313,8.586533546447754,1.5918705463409424,-0.06781874597072601,14.66736888885498,-34.22821807861328, -15.00222396850586
187,2964719242,0.6733004,0.3823291,-0.49413487,0.39537555,8.379472732543945,1.479034662246704,0.5928387641906738,14.285715103149414,-31.685272216796875, -14.343170166015625
188,2964735909,0.6712714,0.38624188,-0.4955053,0.39330217,7.961506366729736,2.2930705547332764,1.1796655654907227,10.631587028503418,-29.115942001342773, -14.101628303527832
189,2964752576,0.6696548,0.38905177,-0.49743792,0.39084113,8.39635944366455,1.4857547283172607,0.1486840844154358,1.5315099954605103,-28.378385543823242, -11.735406875610352
190,2964769243,0.66757536,0.39196154,-0.49934143,0.3890597,8.00197696685791,1.2186716794967651,0.3862975835800171,5.575434684753418,-28.27298927307129, -7.781035423278809
191,2964785910,0.6652134,0.39472803,-0.50125265,0.3878492,7.887202262878418,1.6157710552215576,0.798736035823822,7.566492080688477,-27.359458923339844, -3.894664764404297
192,2964802577,0.6626626,0.3972341,-0.503442,0.3868199,7.650360107421875,1.833130955696106,1.0403140783309937,6.759653091430664,-28.103960037231445, -0.8947822451591492
193,2964819244,0.66034526,0.3992771,-0.50602096,0.38531122,6.5296101570129395,2.125159978866577,1.5349438190460205,1.3669734001159668,-29.15615463256836, -1.0004736185073853
194,2964835911,0.65874213,0.40052077,-0.50891125,0.3829511,6.2032318115234375,2.797719717025757,0.45605993270874023,-8.080665588378906,-28.346097946166992, -3.0964441299438477
195,2964852578,0.65765524,0.40167335,-0.511257,0.3804795,5.6742634773254395,1.9406182765960693,0.08709153532981873,-8.91459846496582,-24.152116775512695, -6.092533588409424
196,2964869245,0.65694046,0.40280083,-0.51299495,0.37817585,6.1409382820129395,1.5454550981521606,1.457570195198059,-7.827805995941162,-19.558748245239258, -7.8624982833862305
197,2964885912,0.6580249,0.4021952,-0.51441383,0.37499446,5.787888050079346,3.238818645477295,0.6605218648910522,-21.326990127563477,-9.504895210266113, -11.099288940429688
198,2964902579,0.6595591,0.4015536,-0.514856,0.37237087,6.464657306671143,-0.13982893526554108,-3.2187864780426025,-18.24989891052246,-1.8723170757293701, -12.257567405700684
199,2964919246,0.6610492,0.4011262,-0.5142393,0.3710387,9.427298545837402,0.820366621017456,-2.26982045173645,-9.883705139160156,5.890305042266846, -10.016814231872559
200,2964935913,0.66275287,0.39980912,-0.513721,0.37013808,7.703340530395508,1.6567602157592773,0.01960805244743824,-13.249897956848145,9.740845680236816, -5.2136616706848145
201,2964952580,0.66441107,0.3979985,-0.51335526,0.36962363,6.066497325897217,1.733271598815918,-0.2195139229297638,-14.400859832763672,11.209737777709961, -1.1731655597686768
202,2964969247,0.6660055,0.39549035,-0.5133925,0.36939457,6.6000471115112305,2.6849770545959473,0.15350928902626038,-17.433731079101562,11.706730842590332, 3.8689768314361572
203,2964985914,0.6668842,0.39245573,-0.5143121,0.36976635,6.357579231262207,2.900831937789917,1.032854437828064,-18.0246639251709,8.111512184143066, 12.732539176940918
204,2965002581,0.667524,0.38811028,-0.5164169,0.3702647,5.968783378601074,2.570986032485962,0.45634838938713074,-25.959293365478516,5.482401371002197, 21.798141479492188
205,2965019248,0.6682686,0.3824396,-0.51929736,0.370793,5.830031871795654,2.9149749279022217,0.12756218016147614,-34.19392395019531,5.7409796714782715, 28.480836868286133
206,2965035915,0.669026,0.37628442,-0.5220583,0.37184587,6.064303398132324,1.629607081413269,-0.4848870038986206,-34.28293991088867,8.952895164489746, 32.3231315612793
207,2965052582,0.67003965,0.36988556,-0.5242709,0.37332505,6.410242080688477,0.9148206114768982,-0.8922914862632751,-33.13689422607422,14.144597053527832, 33.095130920410156
208,2965069249,0.67124724,0.36391628,-0.52570134,0.37500718,7.053659915924072,-0.06362532824277878,-1.0991450548171997,-28.911579132080078,17.89996910095215, 29.984216690063477
209,2965085916,0.67049843,0.36173692,-0.525942,0.3781049,7.74609899520874,-2.269782304763794,2.651082992553711,1.6635940074920654,10.142276763916016, 24.843441009521484
210,2965102583,0.6663467,0.36430922,-0.52661866,0.38201278,4.5571160316467285,-0.006495341658592224,8.009654998779297,33.859928131103516,-14.570979118347168, 21.214731216430664
211,2965119250,0.6620623,0.36521855,-0.5310879,0.38240677,4.053404808044434,5.009692668914795,2.9874770641326904,3.9180185794830322,-37.10810852050781, 20.96006202697754
212,2965135917,0.6568393,0.36500552,-0.53693,0.38345706,7.5026984214782715,8.216628074645996,0.4010830819606781,-0.06528745591640472,-42.268131256103516, 34.10322189331055
213,2965152584,0.650242,0.36748627,-0.5402981,0.38757893,3.0481700897216797,7.443092346191406,-0.03602270781993866,33.37152862548828,-35.53553009033203, 35.679691314697266
214,2965169251,0.64213127,0.3780248,-0.538567,0.39333254,2.2918989658355713,12.938007354736328,1.4120668172836304,92.83938598632812,-35.68376159667969, 4.403457164764404
215,2965185918,0.6329992,0.39647415,-0.5299788,0.4015504,3.024380683898926,4.6848225593566895,1.5150482654571533,158.04251098632812,-24.18419647216797, -28.679656982421875
216,2965202585,0.62039894,0.42210674,-0.51297647,0.416877,1.0211113691329956,6.338134288787842,4.149810314178467,247.91903686523438,-0.627342700958252, -37.188053131103516
217,2965219252,0.6239686,0.43023178,-0.5026002,0.41588107,-2.293302297592163,16.270200729370117,7.611690044403076,47.94507598876953,30.682907104492188, -72.06138610839844
218,2965235919,0.646902,0.41592428,-0.5015645,0.39617917,-0.871629536151886,10.94384479522705,6.072819709777832,-195.30014038085938,66.18634033203125, -101.99586486816406
219,2965252586,0.68005854,0.38715088,-0.5021723,0.36804584,1.5779619216918945,0.42084822058677673,0.7370084524154663,-322.60394287109375,109.07006072998047, -112.52760314941406
220,2965269253,0.70615256,0.36606473,-0.49264792,0.35304865,6.194211483001709,-6.29604959487915,-5.117794036865234,-196.81460571289062,147.40098571777344, -86.86054992675781
221,2965285920,0.71943516,0.3630707,-0.4727544,0.3565054,10.878544807434082,-5.870621681213379,-16.622957229614258,10.969869613647461,157.07032775878906, -53.8938102722168
222,2965302587,0.7218127,0.3709831,-0.4563211,0.36486882,8.503108978271484,-8.650346755981445,-30.464365005493164,99.53514099121094,90.7530288696289, -30.056251525878906
223,2965319254,0.71632075,0.3805679,-0.45526555,0.3671324,4.6536126136779785,-7.889949321746826,-34.176326751708984,70.0775375366211,-28.820331573486328, -7.051934719085693
224,2965335921,0.7060799,0.3845484,-0.47730395,0.35461926,7.027684211730957,-9.433005332946777,-38.80329513549805,-49.78163146972656,-180.725341796875, 9.80433177947998
225,2965352588,0.6946552,0.3888075,-0.50349337,0.33582327,11.400164604187012,-7.932046890258789,6.207443714141846,-76.20575714111328,-220.66461181640625, -8.036134719848633
226,2965369255,0.6815972,0.39956975,-0.52243865,0.32066685,4.277743816375732,2.655364513397217,-4.022016525268555,-11.307188034057617,-197.25428771972656, -29.062868118286133
227,2965385922,0.669235,0.4064238,-0.54202276,0.30521405,3.435514450073242,-2.2355434894561768,-12.793328285217285,-34.05613327026367,-189.88165283203125, -16.055391311645508
228,2965402589,0.65731454,0.41547778,-0.5551131,0.2952381,5.1706013679504395,3.3284339904785156,-0.8377081155776978,8.789458274841309,-147.25347900390625, -18.18675422668457
229,2965419256,0.64476055,0.42579073,-0.5658934,0.28766474,9.780045509338379,-1.7966680526733398,1.3024697303771973,30.145309448242188,-135.00164794921875, -17.349899291992188
230,2965435923,0.6319586,0.43587887,-0.57575727,0.2813214,2.8609912395477295,2.092207431793213,0.4288751482963562,36.50149154663086,-128.02146911621094, -13.386361122131348
231,2965452590,0.6242435,0.4389944,-0.5864466,0.2714492,3.4259426593780518,0.13989539444446564,-6.557382583618164,-24.58670997619629,-108.68756866455078, -8.402948379516602
232,2965469257,0.6147002,0.4472208,-0.5914701,0.2688875,4.741072177886963,2.0625767707824707,-2.3037595748901367,42.875858306884766,-79.05268859863281, -11.339723587036133
233,2965485924,0.6057804,0.45512736,-0.59552014,0.2669175,6.998194694519043,2.5149128437042236,-0.12521272897720337,43.81279373168945,-70.01699829101562, -11.677332878112793
234,2965502591,0.59436125,0.46465766,-0.6001687,0.2657547,6.538674354553223,1.1798385381698608,3.1775453090667725,60.630340576171875,-83.32688903808594, -8.50861644744873
235,2965519258,0.5830331,0.4721077,-0.60718364,0.26175368,5.346425533294678,2.5146193504333496,1.177750587463379,35.859527587890625,-98.15594482421875, -4.174787998199463
236,2965535925,0.57300377,0.47550553,-0.61678076,0.25523084,4.436030864715576,-0.3879203796386719,-3.1958062648773193,0.27653172612190247,-104.14895629882812, 8.733695983886719
237,2965552592,0.56197655,0.47920987,-0.62622917,0.24975501,6.064452171325684,2.8887014389038086,0.05651445686817169,9.445435523986816,-104.88370513916016, 12.776908874511719
238,2965569259,0.5468898,0.48727444,-0.6350344,0.2453707,11.969869613647461,3.595008611679077,5.120314598083496,45.53009796142578,-123.90892028808594, 3.1320040225982666
239,2965585926,0.5237604,0.50290734,-0.6432963,0.24275368,14.57094669342041,5.8181304931640625,14.90967845916748,109.68429565429688,-164.27902221679688, -11.524625778198242
240,2965602593,0.4952166,0.5240829,-0.6496153,0.24103452,19.627534866333008,4.388124465942383,19.715316772460938,155.8290252685547,-188.3221435546875, -30.437122344970703
241,2965619260,0.45898595,0.548613,-0.65608627,0.24063794,22.485652923583984,1.1832807064056396,21.52540397644043,200.90325927734375,-225.23074340820312, -27.657960891723633
242,2965635927,0.41916275,0.57168883,-0.66508,0.2348265,19.463489532470703,5.289869785308838,21.679777145385742,181.48690795898438,-268.7762451171875, -22.841655731201172
243,2965652594,0.3816567,0.5923557,-0.6722526,0.22700074,13.794428825378418,1.2654025554656982,12.40142822265625,159.43624877929688,-258.1363830566406, -28.408164978027344
244,2965669261,0.34223273,0.6167131,-0.6692497,0.2337664,15.86960506439209,10.138397216796875,23.353696823120117,260.4110107421875,-187.22607421875, -45.56089782714844
245,2965685928,0.33454147,0.62376505,-0.67030156,0.22292411,9.787418365478516,8.190479278564453,29.88936424255371,-2.096752405166626,-98.47037506103516, -40.82384490966797
246,2965702595,0.34522888,0.624549,-0.6681038,0.21069646,3.616934299468994,8.189034461975098,27.89813995361328,-96.40699768066406,-3.480638027191162, -57.14883041381836
247,2965719262,0.37169743,0.61726636,-0.6629151,0.20338863,2.755847215652466,-1.8129029273986816,22.906232833862305,-156.1151123046875,108.4339828491211, -44.11161804199219
248,2965735929,0.40248692,0.60686606,-0.65156525,0.21255831,2.5865817070007324,-3.581087589263916,19.436052322387695,-98.72160339355469,217.94224548339844, -20.230539321899414
249,2965752596,0.43832865,0.58988863,-0.6365608,0.23385872,4.267017841339111,-2.553940534591675,13.273168563842773,-78.42314147949219,310.8663330078125, 19.99637794494629
250,2965769263,0.4787048,0.5647791,-0.6186371,0.26297253,7.27284049987793,-1.0841071605682373,6.22590446472168,-82.59735870361328,384.4017028808594, 59.914180755615234
251,2965785930,0.5222195,0.5314598,-0.59837884,0.29458496,11.263290405273438,2.950399398803711,0.9269225001335144,-107.18138885498047,430.2626037597656, 88.2487564086914
252,2965802597,0.5676215,0.4911614,-0.57609767,0.32353944,13.329972267150879,5.023139953613281,-5.227725982666016,-146.20355224609375,450.08184814453125, 96.18843078613281
253,2965819264,0.6131251,0.44897985,-0.5496899,0.34689462,12.492844581604004,8.099020004272461,-12.366964340209961,-167.09881591796875,452.3970947265625, 67.60675811767578
254,2965835931,0.6561737,0.40875506,-0.51925313,0.3643239,10.119346618652344,3.090005874633789,-23.180824279785156,-164.2353057861328,437.8724365234375, 28.723390579223633
255,2965852598,0.6848357,0.38623697,-0.48145825,0.38732302,6.63093900680542,0.546055257320404,-31.896038055419922,-5.675045490264893,391.9779357910156, 6.010324478149414
256,2965869265,0.6999638,0.3813815,-0.4412588,0.41217664,-1.5017971992492676,4.487447261810303,-35.2962760925293,125.8340072631836,317.5718078613281, -14.056830406188965
257,2965885932,0.7092911,0.37908566,-0.4105361,0.42972142,-3.143101453781128,-0.4156145453453064,-35.049964904785156,104.04627227783203,229.02464294433594, -15.582402229309082
258,2965902599,0.71437,0.37456197,-0.39835554,0.4366829,-4.738076210021973,-3.8854281902313232,-34.95347595214844,19.38819694519043,106.5373306274414, -0.0633172020316124
259,2965919266,0.7180095,0.36649728,-0.4076817,0.4288797,-7.134934902191162,-1.2150959968566895,-32.66878128051758,-99.43660736083984,-29.604103088378906, -3.2412822246551514
260,2965935933,0.7192792,0.3567844,-0.43376708,0.40888682,-4.1868696212768555,-2.0617475509643555,-27.997413635253906,-185.35174560546875,-144.21864318847656, -9.453502655029297
261,2965952600,0.71426004,0.35569572,-0.46492186,0.3836155,1.3267581462860107,14.037521362304688,-16.237695693969727,-157.34596252441406,-224.77500915527344, -31.021947860717773
262,2965969267,0.70246965,0.36785218,-0.48806852,0.364706,17.053462982177734,-5.524394989013672,7.656932353973389,-36.485042572021484,-226.68081665039062, -43.54436492919922
263,2965985934,0.6801824,0.391991,-0.51290464,0.34730968,21.454299926757812,-1.0781874656677246,-4.763444423675537,51.020023345947266,-296.2648010253906, -45.92472457885742
264,2966002601,0.66187835,0.40333164,-0.5458528,0.3182538,16.523435592651367,-19.500797271728516,-2.298525094985962,-80.05711364746094,-321.01190185546875, -43.078025817871094
265,2966019268,0.64075756,0.42214677,-0.56692666,0.29969344,2.6626994609832764,-5.8810248374938965,-14.942660331726074,27.27509117126465,-264.8410339355469, -50.722434997558594
266,2966035935,0.6263961,0.43534318,-0.58080304,0.28420436,-8.389335632324219,8.695738792419434,-9.042719841003418,9.614354133605957,-186.03009033203125, -50.24696350097656
267,2966052602,0.61813676,0.44518945,-0.5869052,0.27432823,-1.4630857706069946,9.01468276977539,-8.611054420471191,14.46346664428711,-104.77550506591797, -47.55756378173828
268,2966069269,0.6104331,0.45441404,-0.58865404,0.2727012,6.852099895477295,3.096555709838867,-2.957982063293457,51.58743667602539,-57.57682800292969, -24.121192932128906
269,2966085936,0.6075612,0.45393497,-0.5943322,0.26754767,7.527791976928711,-0.017686093226075172,-0.34459686279296875,-25.84417152404785,-47.48528289794922, 3.585885524749756
270,2966102603,0.6037147,0.45448822,-0.59860945,0.26577404,6.057826519012451,-1.6085246801376343,-1.7694041728973389,-2.0452358722686768,-37.18733596801758, 10.850371360778809
271,2966119270,0.59709424,0.45827827,-0.60175353,0.2671184,5.106485366821289,2.35190749168396,2.3345160484313965,35.00678634643555,-40.24445343017578, 11.889021873474121
272,2966135937,0.5918297,0.4586603,-0.6076162,0.26489782,6.466144561767578,0.9139536619186401,-0.807142972946167,-2.923130512237549,-51.049015045166016, 17.442522048950195
273,2966152604,0.58420795,0.46228322,-0.61205155,0.26530775,4.772535800933838,-1.227219581604004,0.7632001042366028,31.335546493530273,-52.87864685058594, 14.368073463439941
274,2966169271,0.57238173,0.4705841,-0.6159797,0.26739284,4.019426345825195,2.436933994293213,5.299810886383057,71.50928497314453,-71.95280456542969, 7.374184608459473
275,2966185938,0.5540296,0.48574302,-0.6197739,0.27015787,5.274156093597412,2.367241144180298,11.378080368041992,122.81732177734375,-109.79655456542969, -7.430891513824463
276,2966202605,0.5291781,0.50543123,-0.6260929,0.26929078,7.005777835845947,3.0833022594451904,15.95327377319336,141.71530151367188,-168.13600158691406, -20.07076644897461
277,2966219272,0.5011077,0.5259215,-0.6346436,0.26367635,11.065101623535156,-3.610971450805664,16.216737747192383,131.37327575683594,-208.6731414794922, -27.061859130859375
278,2966235939,0.46581233,0.5517158,-0.6393726,0.2642564,15.356164932250977,-5.135733604431152,18.539384841918945,209.83277893066406,-214.83921813964844, -29.738664627075195
279,2966252606,0.43226752,0.5709073,-0.64953816,0.255558,8.34347915649414,-1.294318437576294,18.967777252197266,131.3922576904297,-248.39501953125, -13.144465446472168
280,2966269273,0.40097898,0.58538586,-0.66201645,0.2413995,5.65183687210083,-5.846655368804932,3.814918041229248,80.12214660644531,-258.85772705078125, -3.2262041568756104
281,2966285940,0.36352593,0.6041458,-0.66885656,0.23555839,4.726158618927002,3.6180131435394287,16.469738006591797,163.89981079101562,-245.09634399414062, -12.337774276733398
282,2966302607,0.3517005,0.6077728,-0.67856705,0.2155588,0.34499412775039673,-1.504584550857544,29.85077476501465,-50.0838737487793,-169.00462341308594, -7.604475021362305
283,2966319274,0.34424612,0.61018896,-0.68126386,0.2122351,3.9106216430664062,3.5532732009887695,22.52155113220215,16.991607666015625,-60.65762710571289, 2.552616596221924
284,2966335941,0.35094544,0.60397255,-0.6833767,0.2122518,5.765584468841553,8.941075325012207,24.856855392456055,-46.207523345947266,33.26353454589844, 27.855527877807617
285,2966352608,0.3721872,0.58845544,-0.68461734,0.21562992,3.124262809753418,1.2769191265106201,22.494022369384766,-111.8104019165039,130.8110809326172, 54.94578170776367
286,2966369275,0.39606267,0.5738382,-0.6773885,0.23449732,3.699451446533203,2.6083247661590576,11.196748733520508,-34.66831970214844,225.9293212890625, 52.155982971191406
287,2966385942,0.4232029,0.5612725,-0.66042763,0.26402283,3.456922769546509,7.62890100479126,6.927540302276611,23.39153480529785,306.3575439453125, 28.04346466064453
288,2966402609,0.4560585,0.5468586,-0.63672596,0.29586557,6.559469223022461,9.680739402770996,2.243466377258301,18.763633728027344,364.3040466308594, 7.018566608428955
289,2966419276,0.49449116,0.5269052,-0.6106741,0.32392398,8.623374938964844,7.938893795013428,-3.9899518489837646,-31.37373924255371,393.2554626464844, -0.5355480313301086
290,2966435943,0.5346058,0.50298566,-0.58373386,0.3470692,8.77926254272461,3.759932279586792,-8.628824234008789,-69.6832504272461,394.59906005859375, -7.406044960021973
291,2966452610,0.5743049,0.47606274,-0.5579427,0.36364582,8.836016654968262,-0.048493653535842896,-13.382670402526855,-108.51421356201172,373.483642578125, -14.531941413879395
292,2966469277,0.6064096,0.4525431,-0.53250706,0.37935278,6.992987155914307,-0.9121553897857666,-14.58330249786377,-74.53141021728516,332.0154724121094, -10.9640531539917
293,2966485944,0.6319067,0.43234962,-0.50837386,0.3941115,4.6288981437683105,0.5902809500694275,-15.231706619262695,-47.05900192260742,291.24627685546875, -5.896162509918213
294,2966502611,0.6513242,0.41645345,-0.4845875,0.40929034,3.2908313274383545,-2.5369210243225098,-19.231197357177734,-9.876321792602539,258.5918884277344, -1.6135839223861694
295,2966519278,0.66439193,0.4071301,-0.46110514,0.42451218,-0.030836641788482666,-3.9310739040374756,-20.452022552490234,36.95146560668945,218.287841796875, -4.675240516662598
296,2966535945,0.67333466,0.4013892,-0.44258592,0.43545938,-3.6936028003692627,-1.1750293970108032,-20.979873657226562,36.76115798950195,160.6841583251953, -9.74245834350586
297,2966552612,0.6797375,0.39540818,-0.43454072,0.43907142,-5.851357460021973,1.253317952156067,-21.76261329650879,-11.10727596282959,85.4626235961914, -6.488852500915527
298,2966569279,0.6838096,0.39032006,-0.43554768,0.43629482,-6.9636549949646,-1.1400351524353027,-20.64876937866211,-47.11896514892578,16.62370491027832, -7.314681053161621
299,2966585946,0.6839849,0.3902606,-0.4403222,0.43125147,-8.814041137695312,-3.5924315452575684,-18.212467193603516,-31.1795711517334,-33.5006103515625, -11.219192504882812
300,2966602613,0.68227136,0.39130002,-0.45008567,0.4228632,-6.966612815856934,-2.775477886199951,-13.695815086364746,-45.89234161376953,-74.59578704833984, -11.321573257446289
301,2966619280,0.67876637,0.39316568,-0.46579453,0.4095517,-6.263284206390381,4.390552520751953,-19.71145248413086,-69.73607635498047,-123.49070739746094, -15.770678520202637
302,2966635947,0.6705888,0.39933556,-0.49234128,0.38528186,11.050910949707031,11.20565414428711,-15.399428367614746,-102.75538635253906,-230.47593688964844, -38.0350341796875
303,2966652614,0.6542349,0.41569853,-0.5204183,0.35824078,27.18622589111328,-6.142199993133545,3.696824550628662,-46.851890563964844,-299.5530700683594, -59.14413833618164
304,2966669281,0.6316051,0.43115163,-0.55125606,0.3336166,16.14390754699707,-25.22488021850586,-1.756641149520874,-31.036663055419922,-325.47998046875, -21.902740478515625
305,2966685948,0.6113606,0.44332725,-0.5772606,0.3105952,0.173826664686203,-0.4840300977230072,-9.690146446228027,-35.07472610473633,-283.2341003417969, -23.016372680664062
306,2966702615,0.5987361,0.4498733,-0.5957077,0.2902784,-8.726296424865723,10.122726440429688,-10.655396461486816,-55.1401252746582,-200.80581665039062, -28.539230346679688
307,2966719282,0.5884219,0.45802227,-0.60441226,0.2804662,0.5027196407318115,4.328209400177002,-6.829498767852783,6.748541831970215,-121.7840347290039, -26.239498138427734
308,2966735949,0.57608724,0.46819627,-0.60785955,0.28182033,5.462372779846191,3.2527356147766113,-2.4719042778015137,77.84800720214844,-77.64720153808594, -2.059272050857544
309,2966752616,0.5703243,0.46839163,-0.6154318,0.2767373,6.151044845581055,-1.341082215309143,-0.9710973501205444,-17.68882179260254,-68.04557800292969, 14.715910911560059
310,2966769283,0.5661396,0.46626323,-0.62321496,0.27145517,6.646242141723633,-3.031830072402954,-3.2087416648864746,-33.08494186401367,-58.59516143798828, 21.3804931640625
311,2966785950,0.55750024,0.46992812,-0.62762773,0.27284548,6.146115779876709,2.7174675464630127,1.1098859310150146,38.64865493774414,-54.094383239746094, 19.915449142456055
312,2966802617,0.5486537,0.47309044,-0.6330889,0.2726963,8.632394790649414,2.1576852798461914,3.8790905475616455,28.837684631347656,-63.255859375, 19.974693298339844
313,2966819284,0.5359456,0.47999814,-0.6381211,0.27416366,7.712850570678711,0.6205134987831116,2.5975587368011475,63.42985153198242,-80.50921630859375, 15.601152420043945
314,2966835951,0.5209658,0.48881686,-0.6434095,0.2750951,6.270591735839844,-0.11770051717758179,6.788578033447266,75.17615509033203,-97.03173828125, 10.317057609558105
315,2966852618,0.49929336,0.50311166,-0.6484954,0.2775584,6.711538314819336,2.0598325729370117,13.712251663208008,124.4982681274414,-131.46253967285156, 3.494021415710449
316,2966869285,0.4738364,0.5193529,-0.6553755,0.2761063,7.120410919189453,2.9839699268341064,16.749374389648438,123.47088623046875,-172.26853942871094, -5.193925857543945
317,2966885952,0.44417465,0.5368707,-0.6640082,0.27124193,9.371718406677246,0.39041247963905334,17.8204345703125,124.03731536865234,-212.10594177246094, -7.780425548553467
318,2966902619,0.41359672,0.55288124,-0.6731886,0.26472142,9.439746856689453,-1.9640541076660156,20.98430061340332,114.29805755615234,-221.84458923339844, -2.2390286922454834
319,2966919286,0.3854159,0.5648493,-0.6833564,0.25578126,4.49505615234375,-4.263929843902588,16.33965492248535,80.72174835205078,-216.0150146484375, 8.929091453552246
320,2966935953,0.35149553,0.57641417,-0.69556314,0.24574262,3.0320520401000977,-5.999203205108643,2.765042304992676,93.17679595947266,-252.36256408691406, 25.850252151489258
321,2966952620,0.3299702,0.58594644,-0.7054933,0.22375362,8.28846263885498,13.741108894348145,20.118499755859375,-14.279895782470703,-231.5153350830078, -23.402236938476562
322,2966969287,0.3370448,0.58195347,-0.7184171,0.17778645,2.0961804389953613,-5.939217567443848,22.53006362915039,-280.9291076660156,-175.90919494628906, -43.95457458496094
323,2966985954,0.3217215,0.5948027,-0.7153817,0.17588174,6.5516557693481445,0.5083956122398376,18.638179779052734,84.9634780883789,-94.16354370117188, -61.70979690551758
324,2967002621,0.3181446,0.6019127,-0.7107231,0.17708147,13.151618003845215,11.271604537963867,22.72792625427246,41.56492614746094,-13.529837608337402, -47.40871810913086
325,2967019288,0.3275012,0.5997881,-0.70758575,0.17977683,6.918040752410889,-2.742713212966919,15.978043556213379,-26.412206649780273,63.197349548339844, -8.267611503601074
326,2967035955,0.33659366,0.5984551,-0.69885427,0.20039713,6.139649391174316,-4.346970081329346,9.422407150268555,70.57038116455078,147.17880249023438, 5.459059715270996
327,2967052622,0.34829172,0.5971357,-0.6837126,0.23379223,4.68471622467041,-0.8217297792434692,8.21445369720459,130.05279541015625,226.9903564453125, 5.017220973968506
328,2967069289,0.3702062,0.59075135,-0.6659512,0.26546073,3.1052682399749756,5.9733805656433105,5.956226348876953,72.04926300048828,282.29742431640625, -2.370818853378296
329,2967085956,0.4063332,0.57365596,-0.65081847,0.28678864,3.3122098445892334,6.546802997589111,1.7732326984405518,-65.08232879638672,318.261474609375, 5.269820213317871
330,2967102623,0.4485809,0.5492116,-0.63566834,0.30506992,4.984641075134277,2.8800904750823975,-0.49882444739341736,-123.38520812988281,348.30975341796875, 17.60068130493164
331,2967119290,0.493082,0.5206489,-0.6183985,0.321525,4.56652307510376,0.29441574215888977,-4.533376216888428,-148.21534729003906,366.6075134277344, 17.190038681030273
332,2967135957,0.5340722,0.49354184,-0.5957631,0.34095454,5.671106338500977,-4.989894866943359,-10.812013626098633,-106.26133728027344,377.579345703125, 9.535191535949707
333,2967152624,0.5648889,0.4747176,-0.5658195,0.36795652,4.277221202850342,-0.2803714871406555,-13.491219520568848,6.798161506652832,369.4677429199219, 2.2911019325256348
334,2967169291,0.5903147,0.45846018,-0.5340018,0.3952027,3.7793073654174805,2.81112003326416,-16.661788940429688,39.993072509765625,350.6109924316406, 0.794976532459259
335,2967185958,0.61378825,0.4412714,-0.5061958,0.41510186,-1.5887161493301392,5.916389465332031,-22.027896881103516,4.379929065704346,307.11859130859375, -7.570956707000732
336,2967202625,0.63313526,0.426965,-0.48316664,0.42824134,-2.008464813232422,0.6159274578094482,-23.95348358154297,-8.244494438171387,244.5699005126953, -19.7075252532959
337,2967219292,0.6456133,0.41931322,-0.46475965,0.43744522,-5.821598052978516,-0.7767051458358765,-25.036476135253906,14.089076042175293,171.2072296142578, -25.154356002807617
338,2967235959,0.65381503,0.41399044,-0.45657364,0.43895146,-7.451142311096191,1.211098551750183,-21.627830505371094,-18.691593170166016,83.66581726074219, -24.461668014526367
339,2967252626,0.65961146,0.40779725,-0.46093318,0.4314566,-8.014555931091309,-4.502190589904785,-21.13292694091797,-81.98236846923828,-2.746352195739746, -19.172096252441406
340,2967269293,0.66219604,0.40296346,-0.47295102,0.41884872,-7.909413814544678,-8.568642616271973,-17.714027404785156,-105.7744369506836,-65.55443572998047, -15.724251747131348
341,2967285960,0.66314965,0.39720535,-0.4898996,0.40306196,-5.704584121704102,-7.184394359588623,-12.741291046142578,-129.98538208007812,-99.10494995117188, -8.957682609558105
342,2967302627,0.6572047,0.40181613,-0.50723684,0.38644105,-2.453230619430542,14.435452461242676,-32.57886505126953,-67.7294692993164,-154.92115783691406, -27.601409912109375
343,2967319294,0.64373165,0.42255008,-0.5255686,0.36171666,20.17376136779785,19.17136573791504,-11.218585014343262,-5.22866153717041,-250.1530303955078, -97.27452087402344
344,2967335961,0.6261199,0.43221405,-0.55930513,0.3291549,30.11261558532715,-35.54179382324219,0.5858854055404663,-108.99276733398438,-328.4094543457031, -36.4078254699707
345,2967352628,0.5965633,0.4570886,-0.5827547,0.30915916,15.220412254333496,-6.435166835784912,1.6556695699691772,63.83824157714844,-327.2940368652344, -45.40220260620117
346,2967369295,0.5804952,0.46602407,-0.6045596,0.28346917,-0.5962815284729004,-4.026371002197266,-10.997291564941406,-63.286170959472656,-250.6994171142578, -38.930118560791016
347,2967385962,0.564171,0.48021433,-0.61417514,0.27183515,-3.1219677925109863,4.546896457672119,-6.150130271911621,40.62614822387695,-168.11566162109375, -43.26573944091797
348,2967402629,0.55138916,0.49235532,-0.61872405,0.26596442,-1.7320352792739868,12.8973970413208,-5.133042812347412,54.75358200073242,-110.611328125, -35.46375274658203
349,2967419296,0.545273,0.49545994,-0.62449396,0.2592377,4.597524642944336,2.3729331493377686,-5.124812126159668,-7.9151692390441895,-73.2640151977539, -7.968509674072266
350,2967435963,0.5386414,0.49808717,-0.62825245,0.25898546,7.52485990524292,0.3988190293312073,-3.2240514755249023,23.455522537231445,-45.07899856567383, 12.4481782913208
351,2967452630,0.53212345,0.50025654,-0.6314208,0.26056847,11.009790420532227,1.2130661010742188,1.0656965970993042,30.383264541625977,-35.424560546875, 18.936643600463867
352,2967469297,0.52034956,0.5074794,-0.63264424,0.2673246,10.640555381774902,-2.194434404373169,4.430009841918945,92.95675659179688,-42.65816116333008, 18.5695743560791
353,2967485964,0.50453854,0.5179332,-0.6338363,0.2746594,8.635895729064941,-0.8971152901649475,9.919774055480957,121.23387908935547,-64.38160705566406, 13.716347694396973
354,2967502631,0.4852082,0.5296378,-0.63679266,0.2802716,6.176148414611816,0.3472689688205719,10.9879789352417,127.34495544433594,-94.82077026367188, 15.102673530578613
355,2967519298,0.46555874,0.539041,-0.64378595,0.27969545,2.607513904571533,0.1789083182811737,12.458884239196777,86.02505493164062,-128.25462341308594, 19.812891006469727
356,2967535965,0.44405577,0.5488575,-0.6515307,0.2776285,4.4493889808654785,-2.6350696086883545,11.70486831665039,86.23890686035156,-145.63143920898438, 19.556175231933594
357,2967552632,0.4177599,0.5619646,-0.65747726,0.27820218,5.781722068786621,1.1816480159759521,13.673404693603516,129.66622924804688,-158.36106872558594, 15.167372703552246
358,2967569299,0.38814765,0.5746565,-0.66744316,0.27135018,1.3338627815246582,5.466732025146484,18.353599548339844,100.08712005615234,-213.29176330566406, 17.629648208618164
359,2967585966,0.36344492,0.58181894,-0.6835198,0.2493898,0.7913068532943726,0.9430289268493652,9.743288040161133,-14.710225105285645,-256.96728515625, 17.825759887695312
360,2967602633,0.34447607,0.5897299,-0.6953258,0.2237789,9.88366413116455,1.704728364944458,14.413105010986328,-45.58356857299805,-235.44773864746094, -21.722665786743164
361,2967619300,0.33225963,0.59411496,-0.7054647,0.19735873,3.8493056297302246,-7.389594554901123,19.421127319335938,-82.54824829101562,-197.55320739746094, -23.946897506713867
362,2967635967,0.31234187,0.6050475,-0.70659006,0.19258942,5.116908073425293,-0.29672807455062866,16.20646858215332,81.07432556152344,-135.18399047851562, -32.791748046875
363,2967652634,0.29987442,0.61264026,-0.70502216,0.19414228,9.043593406677246,5.212286472320557,16.417226791381836,77.24595642089844,-62.84153366088867, -24.016122817993164
364,2967669301,0.2973982,0.61495703,-0.702354,0.20020255,8.571117401123047,3.536350965499878,15.634236335754395,47.755165100097656,13.454656600952148, -6.976295471191406
365,2967685968,0.3033983,0.6127352,-0.698701,0.2105286,4.4195637702941895,3.758561849594116,10.63212776184082,24.691558837890625,80.31111145019531, 7.92488431930542
366,2967702635,0.31640923,0.60784096,-0.692152,0.22658347,3.2519874572753906,1.1883984804153442,8.4171724319458,21.361690521240234,147.89169311523438, 10.469910621643066
367,2967719302,0.33203918,0.60257965,-0.6809883,0.2508038,1.9879090785980225,3.4982097148895264,6.544126987457275,55.67710876464844,205.04278564453125, 6.6866912841796875
368,2967735969,0.35386485,0.5940314,-0.667743,0.27572763,1.512407898902893,5.614677429199219,2.725822925567627,29.40915870666504,247.40792846679688, 4.511660099029541
369,2967752636,0.382824,0.5808593,-0.6533653,0.2986002,1.6948652267456055,5.180349826812744,-0.026721149682998657,-18.23468017578125,283.4192199707031, 2.7545011043548584
370,2967769303,0.41720405,0.56377727,-0.63729066,0.31930655,2.399303436279297,3.445448637008667,-0.7607280015945435,-56.45046615600586,311.7895812988281, -3.1822619438171387
371,2967785970,0.45688963,0.5421632,-0.6200398,0.33594894,3.1536812782287598,1.1349601745605469,-2.1050312519073486,-105.30866241455078,332.78369140625, -11.167776107788086
372,2967802637,0.49821812,0.517476,-0.6010092,0.35040724,3.8070199489593506,-2.1276121139526367,-5.428322792053223,-126.36336517333984,344.52484130859375, -15.423248291015625
373,2967819304,0.5368367,0.49211186,-0.57982755,0.36528432,4.822047710418701,-3.1531522274017334,-6.970721244812012,-112.19241333007812,344.07989501953125, -12.463945388793945
374,2967835971,0.5699649,0.46712753,-0.5569304,0.38309348,5.844825744628906,-4.810657501220703,-12.396596908569336,-76.25845336914062,337.78948974609375, 4.683501243591309
375,2967852638,0.59677875,0.44435766,-0.53241396,0.4036544,2.5576860904693604,-0.6273607015609741,-17.645299911499023,-32.53348159790039,323.4242248535156, 18.256643295288086
376,2967869305,0.6189425,0.42409524,-0.50934595,0.42145014,-0.7204847931861877,1.7398645877838135,-20.29065704345703,-22.24559783935547,285.6522521972656, 15.037293434143066
377,2967885972,0.6369632,0.40823767,-0.49029416,0.43270263,-2.002772808074951,3.2004177570343018,-23.658288955688477,-26.05886459350586,222.8478546142578, -4.474820613861084
378,2967902639,0.6499,0.39889368,-0.4776081,0.43635333,-6.781259059906006,2.706033706665039,-25.512706756591797,-27.937326431274414,137.8218994140625, -26.6469669342041
379,2967919306,0.65865093,0.39235505,-0.47579512,0.43110973,-8.700016021728516,0.26863160729408264,-24.90227508544922,-65.87030029296875,43.381595611572266, -33.131622314453125
380,2967935973,0.66156423,0.3890856,-0.48406556,0.42026886,-8.251538276672363,-2.349623680114746,-24.14679718017578,-83.6107177734375,-45.542701721191406, -24.60921287536621
381,2967952640,0.6551063,0.39416727,-0.5007578,0.40584424,-3.977726697921753,2.389418363571167,-32.29198455810547,-56.874053955078125,-148.19052124023438, -19.08461570739746
382,2967969307,0.6374348,0.41319832,-0.5201038,0.39043096,12.509495735168457,6.404522895812988,-5.15961217880249,25.430034637451172,-239.5481719970703, -32.977996826171875
383,2967985974,0.61974806,0.43260524,-0.5437207,0.3648738,20.960315704345703,5.992870330810547,8.354126930236816,-20.67667579650879,-288.1336364746094, -66.46969604492188
384,2968002641,0.6049582,0.43751177,-0.57968235,0.32646206,15.314480781555176,-20.32857894897461,-10.187814712524414,-170.13070678710938,-332.23828125, -37.40565490722656
385,2968019308,0.581049,0.45461378,-0.6026608,0.30415204,4.408021450042725,-9.302213668823242,-10.63100814819336,1.4747408628463745,-293.2686767578125, -38.15308380126953
386,2968035975,0.56113404,0.4693505,-0.6183414,0.28721577,-5.2202467918396,6.464194297790527,-7.774461269378662,17.02081871032715,-225.59872436523438, -38.29706573486328
387,2968052642,0.54886335,0.47745463,-0.63015556,0.27145985,-1.9949281215667725,6.636420726776123,-6.249465465545654,-20.62565040588379,-161.13304138183594, -32.873931884765625
388,2968069309,0.5379738,0.48509303,-0.63654834,0.26471755,3.6417274475097656,3.2629706859588623,-6.484084129333496,22.255691528320312,-104.16861724853516, -17.007848739624023
389,2968085976,0.52994406,0.48946762,-0.64151686,0.2608392,6.42158317565918,0.363395094871521,-2.2192656993865967,15.778005599975586,-70.87232971191406, -2.036311626434326
390,2968102643,0.5245862,0.48885584,-0.648385,0.25578588,8.151053428649902,1.132372260093689,-1.5981851816177368,-19.938018798828125,-61.16646194458008, 17.240928649902344
391,2968119310,0.5164672,0.49019313,-0.6544735,0.25423762,10.117629051208496,0.6463252305984497,1.4639840126037598,13.419833183288574,-62.496559143066406, 23.40537452697754
392,2968135977,0.50541776,0.49447143,-0.659289,0.25571284,9.71456241607666,2.361957550048828,3.20173978805542,49.6340446472168,-66.4111099243164, 21.662519454956055
393,2968152644,0.4932904,0.49912658,-0.66411275,0.2578599,8.732386589050293,0.4881782829761505,5.0051751136779785,57.71418380737305,-70.04415130615234, 24.177135467529297
394,2968169311,0.47985318,0.5049867,-0.66854876,0.26033068,6.458718299865723,-0.48721083998680115,3.738797664642334,68.52411651611328,-76.10911560058594, 20.687397003173828
395,2968185978,0.46202275,0.5141809,-0.67256284,0.26422018,5.621373176574707,-1.184557557106018,9.276802062988281,102.09689331054688,-96.2502212524414, 16.35040855407715
396,2968202645,0.4397105,0.52615076,-0.67690194,0.2676266,5.593737602233887,1.477695107460022,15.804067611694336,123.98236083984375,-125.20114135742188, 11.174095153808594
397,2968219312,0.41590005,0.5388892,-0.68217343,0.26695558,6.607224941253662,0.8940728306770325,15.830643653869629,111.10897827148438,-151.76522827148438, 1.396392583847046
398,2968235979,0.3898538,0.5532492,-0.68687826,0.2648169,6.052548885345459,-1.158144235610962,15.277888298034668,118.2486343383789,-169.63656616210938, -8.40092658996582
399,2968252646,0.36013168,0.56719553,-0.694739,0.25677317,2.3263888359069824,-0.9828678369522095,12.762049674987793,97.51774597167969,-217.70530700683594, -3.610142946243286
400,2968269313,0.3304076,0.58019686,-0.7032334,0.24426465,3.1433746814727783,-1.7073215246200562,5.3045454025268555,72.74851989746094,-235.38511657714844, -7.68632698059082
401,2968285980,0.3133135,0.5888674,-0.7112724,0.22172418,7.480771064758301,6.113988876342773,20.91733741760254,-35.24553298950195,-206.1607666015625, -32.60868453979492
402,2968302647,0.30355635,0.5942596,-0.71829337,0.19688469,2.8458688259124756,-6.236328125,22.96828842163086,-81.5540542602539,-172.9953155517578, -36.73917007446289
403,2968319314,0.29140666,0.6036473,-0.7172461,0.19039498,4.594623565673828,2.3564555644989014,18.08776092529297,38.0734748840332,-98.87510681152344, -48.0629997253418
404,2968335981,0.28780153,0.6087409,-0.7145347,0.18985537,8.529423713684082,4.480567455291748,16.358266830444336,25.6389102935791,-23.469451904296875, -32.993629455566406
405,2968352648,0.29191944,0.60832465,-0.7116161,0.19577242,7.710058689117432,1.779244303703308,15.069986343383789,14.536484718322754,48.675025939941406, -4.003493309020996
406,2968369315,0.30294257,0.60318315,-0.7082568,0.20680545,4.986161231994629,0.6933965682983398,7.636620044708252,1.847762942314148,110.74999237060547, 18.278091430664062
407,2968385982,0.31698248,0.5975385,-0.7006172,0.22716859,3.3877131938934326,-1.3755111694335938,5.0820817947387695,39.80643081665039,173.6593017578125, 18.16002655029297
408,2968402649,0.3339335,0.591711,-0.6882023,0.25444874,3.0333147048950195,2.3422129154205322,4.682504653930664,68.18940734863281,226.7955780029297, 9.98063850402832
409,2968419316,0.356407,0.5836702,-0.6728626,0.28206268,2.478710889816284,4.58248233795166,1.5874944925308228,47.34606170654297,264.885986328125, -0.21626481413841248
410,2968435983,0.3856833,0.57102585,-0.6565342,0.30682382,2.2006189823150635,3.98718523979187,-0.9354890584945679,-2.5080296993255615,296.35809326171875, -2.920701026916504
411,2968452650,0.41929048,0.55536526,-0.63784814,0.33002225,2.182321071624756,1.5523878335952759,-2.3506557941436768,-29.611770629882812,322.555419921875, -11.744481086730957
412,2968469317,0.45626327,0.5373748,-0.616543,0.35060942,2.0923824310302734,-0.5491198897361755,-4.732156753540039,-54.74060821533203,340.3837585449219, -26.686899185180664
413,2968485984,0.49415863,0.5175283,-0.59349763,0.36841887,3.145627021789551,-2.304777145385742,-7.518380165100098,-71.61033630371094,344.2225646972656, -36.252952575683594
414,2968502651,0.52987516,0.49528188,-0.5707143,0.38498524,3.99277400970459,-3.0372543334960938,-10.314518928527832,-77.80113983154297,336.4150695800781, -24.345626831054688
415,2968519318,0.5595462,0.47283795,-0.5482766,0.40339234,4.3344855308532715,-1.5765643119812012,-13.080999374389648,-51.66940689086914,318.61248779296875, 0.19595150649547577
416,2968535985,0.58411574,0.45115304,-0.52735907,0.42090663,2.340890645980835,1.182903528213501,-17.080951690673828,-39.799652099609375,288.9951171875, 12.921257972717285
417,2968552652,0.6034027,0.43319348,-0.50839067,0.43564638,1.557934045791626,-0.9716318845748901,-19.701406478881836,-24.22478675842285,243.21267700195312, 9.617298126220703
418,2968569319,0.6179167,0.41993052,-0.4938262,0.4449417,-1.5736751556396484,0.32530540227890015,-19.929420471191406,-22.807374954223633,178.6320037841797, -2.017871141433716
419,2968585986,0.6295814,0.40866175,-0.48970765,0.44363192,-6.790558815002441,0.16260236501693726,-20.55021858215332,-74.1398696899414,88.49365997314453, -14.959808349609375
420,2968602653,0.6380116,0.3983268,-0.49720186,0.4325127,-8.134249687194824,-3.1013681888580322,-19.95060157775879,-129.5306396484375,-2.4734907150268555, -18.028034210205078
421,2968619320,0.64088327,0.39162078,-0.51297235,0.41564542,-8.407587051391602,-4.282742977142334,-20.19086456298828,-142.68753051757812,-83.7756576538086, -16.45600700378418
422,2968635987,0.6335686,0.3961248,-0.5342274,0.39531934,-3.942274570465088,8.318479537963867,-33.29247283935547,-93.75335693359375,-184.70794677734375, -27.374723434448242
423,2968652654,0.6130766,0.4175087,-0.55540365,0.3759662,13.156391143798828,5.502069473266602,-9.834473609924316,19.315528869628906,-275.08148193359375, -49.245784759521484
424,2968669321,0.59079987,0.44002548,-0.57822007,0.3507058,17.901351928710938,1.1502803564071655,6.035615921020508,2.357935667037964,-308.5322265625, -69.03369140625
425,2968685988,0.56766504,0.4550688,-0.60587907,0.32183775,11.596929550170898,-17.87866973876953,-12.42751407623291,-51.3957633972168,-324.90899658203125, -37.245723724365234
426,2968702655,0.5478888,0.46616822,-0.6289466,0.29484123,-0.8033899068832397,-1.577363133430481,-8.324295043945312,-59.36289596557617,-278.1512756347656, -35.788787841796875
427,2968719322,0.53151846,0.47709888,-0.6435648,0.27511686,-0.6125919818878174,4.007601261138916,-7.427947044372559,-22.3724308013916,-207.7895965576172, -41.620025634765625
428,2968735989,0.5168964,0.48775256,-0.6521865,0.26375842,2.9337384700775146,2.927820920944214,-4.111529350280762,19.223127365112305,-150.08470153808594, -32.65764617919922
429,2968752656,0.5029499,0.49793038,-0.6575284,0.25838593,3.6264092922210693,4.344155311584473,-3.3647875785827637,48.06203842163086,-114.52911376953125, -21.43289566040039
430,2968769323,0.49527368,0.49938768,-0.66601795,0.24846756,7.0685930252075195,-0.9332652688026428,-2.9090256690979004,-29.671127319335938,-97.24068450927734, 2.0011866092681885
431,2968785990,0.48691756,0.5012066,-0.67296046,0.242544,9.691843032836914,1.0201090574264526,-1.2123799324035645,-5.148867130279541,-82.14517211914062, 9.74344253540039
432,2968802657,0.47633103,0.50531715,-0.6780528,0.24084881,11.769987106323242,0.6471567749977112,2.617154121398926,32.90193176269531,-75.76009368896484, 10.598492622375488
433,2968819324,0.46331623,0.5115435,-0.68225604,0.24122237,9.860678672790527,1.1762292385101318,2.927405834197998,59.43821334838867,-80.8598861694336, 8.36011028289795
434,2968835991,0.4491594,0.51723677,-0.6874001,0.24125348,9.89434814453125,-1.9434702396392822,6.539968490600586,58.643882751464844,-89.8775405883789, 14.917381286621094
435,2968852658,0.4325082,0.5249733,-0.691046,0.24453096,6.73328971862793,-0.4429370164871216,7.460357666015625,91.68769836425781,-89.3242416381836, 13.962789535522461
436,2968869325,0.41342524,0.53337985,-0.69509655,0.24784349,6.469878673553467,1.1632391214370728,10.487807273864746,101.98573303222656,-103.48200225830078, 16.364105224609375
437,2968885992,0.39178112,0.54366225,-0.6985126,0.25103638,5.640435218811035,0.6499245762825012,14.492650985717773,117.27985382080078,-118.01978302001953, 9.086411476135254
438,2968902659,0.36771908,0.5566906,-0.6998457,0.2551365,5.357906818389893,0.5251274704933167,16.7351131439209,141.7238006591797,-125.90979766845703, -5.273004055023193
439,2968919326,0.34272468,0.568723,-0.70350116,0.25333777,1.171864628791809,0.22365286946296692,15.612141609191895,110.3587875366211,-157.66334533691406, -4.849937438964844
440,2968935993,0.3163996,0.5791996,-0.711121,0.24233486,0.9470829963684082,-2.0066940784454346,5.8230414390563965,60.495880126953125,-207.14501953125, -1.1683870553970337
441,2968952660,0.29166478,0.5922423,-0.7154573,0.22869547,10.046452522277832,5.947630405426025,9.501330375671387,52.30302429199219,-207.1290740966797, -35.21303176879883
442,2968969327,0.28066698,0.59833276,-0.72297746,0.20131493,5.40354585647583,-3.896855115890503,23.180299758911133,-90.06375122070312,-191.3753662109375, -37.08794403076172
443,2968985994,0.26031175,0.6107426,-0.72240996,0.19327447,4.496051788330078,-3.4382524490356445,19.073261260986328,67.9607925415039,-152.03457641601562, -51.607383728027344
444,2969002661,0.24585006,0.6209525,-0.7196546,0.18992957,8.813753128051758,5.161676406860352,15.232462882995605,65.50066375732422,-96.6221694946289, -49.33061599731445
445,2969019328,0.23970905,0.62604976,-0.7171434,0.19054274,12.518430709838867,4.168740749359131,16.549009323120117,40.757625579833984,-32.723121643066406, -27.02897834777832
446,2969035995,0.24525465,0.6248894,-0.7158092,0.19230358,9.009262084960938,1.8991971015930176,14.345171928405762,-15.616581916809082,35.55568313598633, -4.45142126083374
447,2969052662,0.2602635,0.62010413,-0.7126368,0.19970635,5.961651802062988,-0.6050515174865723,8.733515739440918,-32.13848876953125,113.87993621826172, 2.4944348335266113
448,2969069329,0.27867314,0.6151041,-0.70449096,0.21835943,4.087146759033203,-0.14299514889717102,6.617027282714844,14.92053508758545,187.5406951904297, -2.213866710662842
449,2969085996,0.3018481,0.6086014,-0.6925182,0.24271575,3.630993604660034,2.035996675491333,4.559367656707764,25.257400512695312,244.2728729248047, -7.312867641448975
450,2969102663,0.33086708,0.59849644,-0.67844814,0.26839805,3.5157127380371094,2.9928743839263916,1.0202893018722534,3.1592648029327393,288.01373291015625, -5.852407932281494
451,2969119330,0.36493278,0.583354,-0.6632149,0.29439503,3.7698428630828857,0.3011859059333801,-1.0656912326812744,-25.457530975341797,324.893310546875, 4.352465629577637
452,2969135997,0.39998332,0.56575465,-0.64466584,0.3230188,3.793705940246582,-1.433229684829712,-2.603541374206543,-16.930511474609375,353.37188720703125, 6.860641956329346
453,2969152664,0.4368682,0.54574156,-0.6232203,0.35058385,3.044286012649536,-2.321549415588379,-5.004908084869385,-29.038108825683594,370.91705322265625, -0.7403121590614319
454,2969169331,0.47319737,0.5244712,-0.59941787,0.37644717,2.671779155731201,-2.1483755111694336,-7.955023288726807,-32.398738861083984,372.5408935546875, -8.05444049835205
455,2969185998,0.50951415,0.49945584,-0.5767523,0.39786437,2.5846781730651855,-1.046903371810913,-11.310628890991211,-65.86540222167969,362.8229064941406, -3.044158458709717
456,2969202665,0.54410666,0.46994257,-0.55777717,0.41471258,2.4004533290863037,-0.02848491072654724,-16.140642166137695,-103.97676086425781,340.13916015625, 16.0999813079834
457,2969219332,0.5737469,0.44070366,-0.5412481,0.42853868,0.09509199857711792,-0.12383860349655151,-21.149593353271484,-105.5634536743164,302.05072021484375, 25.71575927734375
458,2969235999,0.5959115,0.4181086,-0.52544904,0.44042957,0.3692552447319031,1.1245625019073486,-22.639978408813477,-66.08297729492188,246.65480041503906, 17.56297492980957
459,2969252666,0.6122837,0.4029573,-0.5129294,0.4468083,-4.2379150390625,2.398037910461426,-24.333160400390625,-48.8195915222168,174.6742706298828, -4.922947883605957
460,2969269333,0.622721,0.39354256,-0.5086969,0.44561246,-6.861318588256836,-1.4126930236816406,-24.053443908691406,-60.458587646484375,81.02989959716797, -15.77432918548584
461,2969286000,0.62781024,0.386141,-0.51611143,0.43632403,-7.41249418258667,-2.0065248012542725,-22.782854080200195,-101.38528442382812,-14.882184982299805, -9.566327095031738
462,2969302667,0.62590474,0.3847319,-0.53319854,0.4194331,-7.545504570007324,5.271913051605225,-30.68600082397461,-112.96995544433594,-118.98173522949219, -16.967376708984375
463,2969319334,0.61085993,0.39767274,-0.55804,0.39660805,11.952217102050781,7.202012062072754,-22.67694091796875,-60.67414093017578,-256.7807922363281, -36.48054122924805
464,2969336001,0.58548117,0.42868683,-0.5737873,0.379747,21.026016235351562,6.486523628234863,9.377608299255371,91.12136840820312,-290.5948486328125, -77.295654296875
465,2969352668,0.56169915,0.44715622,-0.60080695,0.35153413,15.077227592468262,-15.947331428527832,-8.139333724975586,-38.3469352722168,-330.8730773925781, -44.31550598144531
466,2969369335,0.53682756,0.46620098,-0.6219895,0.32802722,1.3627409934997559,-3.5166378021240234,-10.329952239990234,0.8034548759460449,-299.6279296875, -44.28924560546875
467,2969386002,0.5195302,0.47896907,-0.6378282,0.30635312,-5.663845062255859,4.975400924682617,-10.368390083312988,-26.81269645690918,-227.24403381347656, -44.95717239379883
468,2969402669,0.5078471,0.4880673,-0.6475398,0.29081637,0.10931995511054993,5.483328342437744,-7.050915718078613,-18.628664016723633,-152.54495239257812, -38.738765716552734
469,2969419336,0.49375033,0.49922335,-0.6510541,0.28829777,4.7805562019348145,5.287516117095947,-4.857508182525635,67.00727844238281,-102.01087951660156, -18.283912658691406
470,2969436003,0.486827,0.50085115,-0.6579679,0.28147098,7.898028373718262,0.39232689142227173,-2.6497364044189453,-15.955028533935547,-77.39678955078125, 7.287454128265381
471,2969452670,0.4812233,0.5001565,-0.6649788,0.2758094,9.877623558044434,-0.2792082726955414,-1.8770989179611206,-23.154539108276367,-63.411537170410156, 19.45991325378418
472,2969469337,0.47144672,0.5029093,-0.670135,0.2752079,11.866332054138184,2.8509786128997803,2.873518943786621,29.290607452392578,-65.69820404052734, 21.913402557373047
473,2969486004,0.45968163,0.50692344,-0.67503613,0.27576733,11.273969650268555,0.4857632517814636,4.033570289611816,46.158775329589844,-72.77989196777344, 22.73685646057129
474,2969502671,0.44582954,0.5121176,-0.6796,0.27769694,7.758816242218018,0.2126094400882721,3.9291958808898926,64.2142333984375,-79.25101470947266, 24.296525955200195
475,2969519338,0.42991665,0.5186701,-0.6836539,0.28066075,4.6839985847473145,-0.3080593943595886,5.106724262237549,81.48291778564453,-86.59343719482422, 23.188190460205078
476,2969536005,0.4109114,0.5271374,-0.68729967,0.28442475,4.357832431793213,-0.24381683766841888,9.34623908996582,102.75297546386719,-101.06912231445312, 20.990724563598633
477,2969552672,0.3884179,0.5375307,-0.6910563,0.28746054,3.6511335372924805,0.879804253578186,12.759998321533203,117.21285247802734,-124.68859100341797, 16.992013931274414
478,2969569339,0.36480188,0.5480513,-0.69671124,0.28487355,4.676914215087891,1.2887567281723022,16.6485595703125,91.26799774169922,-156.60989379882812, 10.59463882446289
479,2969586006,0.3411485,0.55898523,-0.702713,0.27811483,3.8025331497192383,-1.1478248834609985,15.743936538696289,71.81810760498047,-174.77906799316406, -0.45023828744888306
480,2969602673,0.31415632,0.5694719,-0.7124304,0.26353464,1.9058239459991455,-2.239358901977539,7.7520647048950195,38.70357131958008,-229.36509704589844, 3.998386859893799
481,2969619340,0.28552112,0.5811491,-0.72078574,0.2474095,6.197863578796387,1.337297797203064,5.571755886077881,42.58204650878906,-242.9155731201172, -7.583447456359863
482,2969636007,0.27190495,0.5881782,-0.72998774,0.21733023,5.432795524597168,3.954233169555664,21.85578727722168,-97.14049530029297,-218.25021362304688, -34.08792495727539
483,2969652674,0.25785682,0.59706974,-0.7340976,0.19523978,3.236614942550659,-6.080263137817383,18.155839920043945,-44.094417572021484,-181.96157836914062, -48.39580535888672
484,2969669341,0.24109028,0.6087793,-0.7313919,0.19060215,7.345488548278809,4.257421493530273,15.7216157913208,69.2334976196289,-116.12915802001953, -56.1447639465332
485,2969686008,0.23170003,0.61631083,-0.7278086,0.19175723,11.064986228942871,6.224242687225342,17.50863265991211,61.845340728759766,-48.29139709472656, -38.75041198730469
486,2969702675,0.23353262,0.61768115,-0.7252682,0.1947272,8.842680931091309,4.2269439697265625,15.670027732849121,12.345710754394531,21.472633361816406, -15.264856338500977
487,2969719342,0.24607569,0.61391944,-0.72253937,0.2012131,5.591348171234131,-0.6819132566452026,10.866735458374023,-23.50394058227539,96.56192016601562, 0.9024756550788879
488,2969736009,0.260837,0.60961187,-0.71480805,0.22223178,4.409173011779785,-1.9070210456848145,9.036437034606934,45.300601959228516,177.9391632080078, 4.013301849365234
489,2969752676,0.27966014,0.6043385,-0.70241946,0.2513408,3.476259231567383,3.7540643215179443,6.631441116333008,73.37413024902344,241.52830505371094, -2.4343295097351074
490,2969769343,0.30649808,0.59547055,-0.6880812,0.27931705,3.45155668258667,5.662978172302246,2.5891799926757812,31.078330993652344,285.447998046875, -9.047898292541504
491,2969786010,0.3413345,0.5813445,-0.67304313,0.304208,4.182846546173096,4.67003059387207,0.3089570701122284,-25.987966537475586,322.28094482421875, -8.747671127319336
492,2969802677,0.37987775,0.56367487,-0.65566486,0.32873607,6.1336541175842285,2.233954429626465,-0.7946338057518005,-45.932579040527344,350.9793701171875, -10.212019920349121
493,2969819344,0.42097497,0.54341805,-0.63491505,0.3526471,6.384307861328125,-0.041825275868177414,-4.337760925292969,-57.8125114440918,374.84918212890625, -18.989534378051758
494,2969836011,0.46129924,0.5226528,-0.61043227,0.3760446,5.960224628448486,-2.432398557662964,-7.03887414932251,-49.65455627441406,381.783447265625, -30.388792037963867
495,2969852678,0.4990291,0.5005664,-0.58504117,0.3976557,5.598840236663818,-3.0678396224975586,-9.915077209472656,-49.73979949951172,371.0480041503906, -27.18368148803711
496,2969869345,0.5329869,0.4758787,-0.56155,0.41728413,4.258130073547363,-0.9911181330680847,-15.366945266723633,-58.920318603515625,350.0199890136719, -6.801591873168945
497,2969886012,0.563355,0.44978487,-0.5415239,0.43252382,0.6144008636474609,0.5916739702224731,-20.59006690979004,-79.28559875488281,313.69024658203125, 4.0964250564575195
498,2969902679,0.58877265,0.4262455,-0.52543646,0.44224206,0.3916959762573242,-1.3177655935287476,-22.605337142944336,-86.42323303222656,256.0423583984375, 0.06392654031515121
499,2969919346,0.606838,0.41007933,-0.51333046,0.4472969,-3.745983600616455,-0.2037539929151535,-25.755578994750977,-64.01874542236328,178.03610229492188, -11.497228622436523
500,2969936013,0.6186066,0.3994616,-0.51070195,0.44377896,-7.675434589385986,-1.3842662572860718,-25.019392013549805,-82.56864929199219,75.87010192871094, -20.774169921875
501,2969952680,0.62486386,0.39198235,-0.51913613,0.4317324,-9.215399742126465,-3.2624948024749756,-23.99801254272461,-117.82476806640625,-22.772966384887695, -20.87666893005371
502,2969969347,0.6262429,0.3865961,-0.5365116,0.41293916,-8.768828392028809,-3.604499578475952,-20.61924171447754,-146.33116149902344,-102.31542205810547, -18.7646484375
503,2969986014,0.6211585,0.3878568,-0.55678284,0.39207426,-3.5908467769622803,5.843756675720215,-23.412033081054688,-116.40119171142578,-162.4561767578125, -26.148357391357422
504,2970002681,0.61020213,0.39923018,-0.57655144,0.36858818,10.486512184143066,14.690217971801758,-6.601912021636963,-66.32410430908203,-216.40237426757812, -61.315155029296875
505,2970019348,0.5897946,0.42554903,-0.5914218,0.34823993,22.893701553344727,7.366944313049316,0.03236323595046997,47.09513854980469,-262.5061950683594, -96.50079345703125
506,2970036015,0.57035065,0.4369913,-0.62059253,0.31401253,20.503681182861328,-25.445886611938477,-7.649144172668457,-106.774658203125,-321.7867126464844, -52.57340621948242
507,2970052682,0.5455367,0.4550447,-0.64171416,0.28901088,5.280049800872803,-5.664422512054443,-4.851872444152832,-7.904012203216553,-299.6008605957031, -57.92066192626953
508,2970069349,0.52708983,0.46754074,-0.65734154,0.26736513,-5.308497905731201,5.508579254150391,-8.901723861694336,-22.987323760986328,-229.30404663085938, -50.795616149902344
509,2970086016,0.5144765,0.4762502,-0.6675467,0.25076115,-3.6805174350738525,7.016449451446533,-6.795280456542969,-22.739709854125977,-159.88218688964844, -43.34065246582031
510,2970102683,0.5024185,0.48552132,-0.67145413,0.24697004,2.260685443878174,6.180922031402588,-7.463714599609375,47.09926986694336,-93.9301528930664, -21.96961212158203
511,2970119350,0.494848,0.4893237,-0.6754568,0.24381529,6.595864295959473,2.3208582401275635,-3.3209474086761475,16.024938583374023,-62.05424880981445, -1.7107096910476685
512,2970136017,0.4908172,0.4873752,-0.68164045,0.23860067,8.994632720947266,0.872073233127594,-1.4067223072052002,-28.63276481628418,-50.449283599853516, 19.406341552734375
513,2970152684,0.48182136,0.4912715,-0.68430614,0.2413004,12.673457145690918,-0.10770095139741898,1.9335613250732422,50.636146545410156,-45.12779235839844, 15.021917343139648
514,2970169351,0.46835923,0.5000874,-0.68535304,0.24666503,13.13028621673584,1.7010810375213623,6.984685897827148,97.28955841064453,-60.295536041259766, 2.4957334995269775
515,2970186018,0.44948885,0.5128918,-0.68631345,0.25273654,10.515148162841797,-2.0429883003234863,10.375516891479492,132.2808837890625,-90.34538269042969, -5.258493900299072
516,2970202685,0.42877033,0.5255974,-0.6896026,0.2536764,6.77611780166626,-3.243800640106201,11.19495964050293,110.269287109375,-124.74990844726562, -9.401922225952148
517,2970219352,0.4071037,0.537142,-0.69489855,0.25072175,5.373346328735352,-6.5926947593688965,10.508598327636719,88.32479858398438,-147.72146606445312, -6.6257123947143555
518,2970236019,0.38340908,0.5484189,-0.70084167,0.24709389,6.42665433883667,-6.152455806732178,10.406129837036133,90.70011901855469,-161.6966094970703, -1.5522793531417847
519,2970252686,0.3580237,0.55918276,-0.7068369,0.24395774,7.006985664367676,-3.1752817630767822,15.972159385681152,97.9613037109375,-167.70423889160156, 5.115017890930176
520,2970269353,0.3320674,0.56961054,-0.71333516,0.23754635,1.3249882459640503,-0.9435226917266846,16.16170883178711,82.5576400756836,-184.33790588378906, 1.5118979215621948
521,2970286020,0.3070427,0.5776897,-0.7235403,0.22020206,-0.041538894176483154,0.45841580629348755,3.9378769397735596,13.869561195373535,-227.66075134277344, 1.075629711151123
522,2970302687,0.28766763,0.5869468,-0.7292341,0.20238218,7.7800726890563965,2.0168864727020264,15.547460556030273,-1.616227388381958,-193.75416564941406, -32.226985931396484
523,2970319354,0.27270153,0.5956633,-0.7310526,0.19073859,1.3636151552200317,-8.59471607208252,24.17003059387207,15.957989692687988,-138.803955078125, -39.019622802734375
524,2970336021,0.25280234,0.6079972,-0.7262711,0.19738474,3.8250694274902344,3.2052505016326904,17.285490036010742,143.44537353515625,-81.56456756591797, -43.602813720703125
525,2970352688,0.24529019,0.6150278,-0.7211162,0.20387556,8.084734916687012,6.535220623016357,15.935938835144043,82.28746032714844,-12.899569511413574, -35.609710693359375
526,2970369355,0.24867679,0.61583364,-0.71665746,0.21286342,9.193684577941895,3.3282930850982666,16.077917098999023,37.281436920166016,58.796958923339844, -12.687514305114746
527,2970386022,0.2616617,0.6110366,-0.712385,0.22511135,6.733370304107666,1.7536462545394897,12.42752456665039,2.939450263977051,127.32098388671875, 7.32437801361084
528,2970402689,0.27871296,0.60419166,-0.7045438,0.2467581,5.23229455947876,-1.3198437690734863,7.209216594696045,33.766143798828125,196.02523803710938, 13.039043426513672
529,2970419356,0.29734313,0.5975426,-0.6908311,0.27799717,3.7818541526794434,3.4273719787597656,4.984492301940918,83.9938735961914,254.32908630371094, 3.43922758102417
530,2970436023,0.32053614,0.589286,-0.67296827,0.31162846,2.536708116531372,4.239228248596191,1.721167802810669,81.2994384765625,297.36199951171875, -9.632414817810059
531,2970452690,0.34744686,0.5789635,-0.6516712,0.34555283,1.3359850645065308,4.118370056152344,-0.8736391663551331,70.42561340332031,327.8293151855469, -21.11829948425293
532,2970469357,0.38007388,0.56470376,-0.62938195,0.37487584,1.462658166885376,3.849628448486328,-2.1497676372528076,19.991090774536133,347.0107727050781, -31.85059356689453
533,2970486024,0.41888297,0.54527587,-0.6084944,0.39616397,2.710009813308716,1.359442114830017,-4.54578971862793,-55.95065689086914,352.40069580078125, -40.8946533203125
534,2970502691,0.4622013,0.52031577,-0.59028935,0.40890107,4.334494590759277,-0.11565329134464264,-7.6921844482421875,-131.94956970214844,346.7699279785156, -44.657901763916016
535,2970519358,0.5045337,0.49027768,-0.5748947,0.41781536,6.0249199867248535,-2.847871780395508,-12.762737274169922,-168.03956604003906,334.724365234375, -23.497407913208008
536,2970536025,0.538582,0.46068922,-0.5596816,0.42947823,4.844092845916748,-1.4919131994247437,-18.042335510253906,-128.23483276367188,309.74652099609375, 8.48650074005127
537,2970552692,0.56456,0.43483624,-0.5456807,0.4409334,1.4842417240142822,2.5182149410247803,-23.27355194091797,-93.2492446899414,263.1225280761719, 20.90086555480957
538,2970569359,0.58194363,0.4184415,-0.5324768,0.45024085,-1.0997443199157715,2.1230289936065674,-24.894643783569336,-41.35773468017578,193.4718017578125, 5.542834758758545
539,2970586026,0.5925855,0.41123825,-0.5242336,0.45266417,-5.797203063964844,-0.625336766242981,-26.759328842163086,-25.79128646850586,101.51375579833984, -20.475692749023438
540,2970602693,0.5963842,0.40999678,-0.5254135,0.44740295,-8.549775123596191,-1.0255144834518433,-25.36495018005371,-39.2055549621582,-0.9606500864028931, -25.3607234954834
541,2970619360,0.59805405,0.4057314,-0.5413751,0.42968193,-8.32649040222168,-1.684658169746399,-21.11199378967285,-136.1199188232422,-94.32132720947266, -17.308265686035156
542,2970636027,0.5935441,0.4062644,-0.5636581,0.40613347,-5.362884044647217,3.1769752502441406,-25.33672332763672,-139.53469848632812,-173.16937255859375, -23.197275161743164
543,2970652694,0.5788683,0.4202881,-0.5836483,0.3842191,10.342031478881836,4.078369140625,-8.174006462097168,-43.38429641723633,-235.60418701171875, -46.66099166870117
544,2970669361,0.55335325,0.45022267,-0.5954462,0.3695183,20.195409774780273,4.7446980476379395,0.08194166421890259,101.8546142578125,-267.56488037109375, -76.77764129638672
545,2970686028,0.5333074,0.46412224,-0.6225048,0.33565095,17.645931243896484,-16.958072662353516,-7.590684413909912,-93.38935089111328,-322.0610046386719, -50.60709762573242
546,2970702695,0.5092938,0.48120463,-0.6427029,0.3098307,3.0963973999023438,-7.25506591796875,-5.7857818603515625,-18.77007293701172,-295.4839172363281, -47.91664123535156
547,2970719362,0.49176103,0.49274105,-0.6584226,0.28610718,-4.3186140060424805,6.086008548736572,-9.155732154846191,-40.89315414428711,-232.33230590820312, -44.848907470703125
548,2970736029,0.47814453,0.5027256,-0.6665447,0.27269626,-1.4023354053497314,5.487419128417969,-8.589847564697266,2.213143825531006,-150.69200134277344, -36.17737579345703
549,2970752696,0.46568078,0.51143986,-0.6698372,0.26997966,4.150082588195801,7.776867866516113,-5.088332176208496,52.121334075927734,-90.03291320800781, -13.921157836914062
550,2970769363,0.45902434,0.5127233,-0.67517626,0.26561004,8.797720909118652,1.006067156791687,-2.591334819793701,-3.444098711013794,-61.9024543762207, 11.587533950805664
551,2970786030,0.45322254,0.51172024,-0.68121004,0.26207763,11.96615982055664,-0.8918595910072327,-1.2128994464874268,-11.013830184936523,-53.18730163574219, 25.71636390686035
552,2970802697,0.44246757,0.5153172,-0.6846863,0.26433975,14.137188911437988,1.9173767566680908,4.39801025390625,52.52947998046875,-56.585262298583984, 22.054128646850586
553,2970819364,0.42742053,0.5227661,-0.6869153,0.2686534,12.57846736907959,-0.9964578151702881,7.287528038024902,91.44853973388672,-73.1852035522461, 13.48165512084961
554,2970836031,0.40826693,0.53255904,-0.6893377,0.2729702,9.587109565734863,-0.610259473323822,10.705092430114746,112.79656219482422,-97.97128295898438, 10.568283081054688
555,2970852698,0.38547242,0.54374695,-0.6923604,0.2763833,6.23052453994751,-0.6822209358215332,11.413117408752441,124.67591094970703,-123.38216400146484, 10.357718467712402
556,2970869365,0.35959074,0.5558344,-0.69535065,0.27969626,4.661949157714844,-1.346975564956665,12.633258819580078,138.2174530029297,-140.56173706054688, 11.488919258117676
557,2970886032,0.33147895,0.5685214,-0.6987215,0.28052333,4.262774467468262,0.9006459712982178,16.52520179748535,135.61550903320312,-163.2889862060547, 8.16180419921875
558,2970902699,0.3043191,0.58073115,-0.7022976,0.27734336,2.1531312465667725,0.02564525604248047,17.926593780517578,111.18568420410156,-174.46197509765625, 0.31036391854286194
559,2970919366,0.27569535,0.5915734,-0.7086779,0.26797175,-1.171298861503601,-2.502082109451294,10.723198890686035,78.92939758300781,-210.01434326171875, 7.965063571929932
560,2970936033,0.24797793,0.6025843,-0.7151347,0.25294587,5.1195573806762695,1.903366208076477,3.878957748413086,47.825096130371094,-229.26431274414062, -4.982966899871826
561,2970952700,0.23869646,0.60793173,-0.7241755,0.22138892,3.8474864959716797,2.4825057983398438,20.00185775756836,-123.97702026367188,-201.84005737304688, -26.642391204833984
562,2970969367,0.22393107,0.61584306,-0.7277381,0.20245892,0.9084542393684387,-9.502911567687988,19.23961639404297,-25.561853408813477,-171.73887634277344, -33.21693420410156
563,2970986034,0.20594898,0.62682253,-0.7245693,0.19919358,3.4931304454803467,4.574920654296875,15.628235816955566,80.3766098022461,-115.74320220947266, -48.658241271972656
564,2971002701,0.19540553,0.63517183,-0.7201977,0.19922076,7.984689235687256,4.184155464172363,13.473878860473633,62.76909637451172,-59.50596237182617, -46.12871551513672
565,2971019368,0.19000888,0.6390285,-0.7160501,0.20690973,9.772872924804688,3.5378293991088867,13.542049407958984,72.00516510009766,4.909710884094238, -19.53114128112793
566,2971036035,0.19458304,0.6368559,-0.71435153,0.21506721,6.994846343994141,3.8086097240448,9.07300090789795,19.221893310546875,61.015403747558594, 7.446996212005615
567,2971052702,0.20826535,0.63102424,-0.71217287,0.22637133,4.954546928405762,-1.3589236736297607,5.626434326171875,-9.335509300231934,125.33094024658203, 14.140190124511719
568,2971069369,0.22380869,0.62493485,-0.70555985,0.24809554,3.2964324951171875,1.9155672788619995,5.2382001876831055,40.093040466308594,186.29348754882812, 8.179266929626465
569,2971086036,0.24642564,0.61677843,-0.6968122,0.27076113,1.7747997045516968,5.979395389556885,2.2781991958618164,14.726975440979004,231.40740966796875, -1.509399175643921
570,2971102703,0.27835813,0.60428286,-0.6878447,0.29022205,1.0565731525421143,5.62647008895874,-0.4561820328235626,-47.024871826171875,270.9413757324219, -4.302069187164307
571,2971119370,0.3149671,0.58877087,-0.6763574,0.31094313,0.9940646886825562,1.7273942232131958,-1.7711094617843628,-61.21775817871094,309.2607116699219, -7.333886623382568
572,2971136037,0.3530911,0.57198846,-0.66042167,0.33466294,1.0822529792785645,-1.0787854194641113,-3.8218750953674316,-46.679168701171875,340.9596862792969, -16.182085037231445
573,2971152704,0.39048216,0.5554386,-0.63965666,0.3603486,1.7261278629302979,-2.6216702461242676,-6.520717144012451,-23.247947692871094,356.7669372558594, -29.830902099609375
574,2971169371,0.4266379,0.53814286,-0.61646634,0.38516492,2.6563544273376465,-3.8861024379730225,-9.842395782470703,-18.40144920349121,356.6451110839844, -35.17802047729492
575,2971186038,0.45980364,0.51869446,-0.5939247,0.40839934,3.265594959259033,-2.1178436279296875,-11.764796257019043,-22.131589889526367,342.2653503417969, -20.49494743347168
576,2971202705,0.49057838,0.49601555,-0.57493186,0.42749816,2.277150869369507,0.8697009682655334,-15.321500778198242,-50.7191162109375,316, -1.0896631479263306
577,2971219372,0.519018,0.47173774,-0.5613993,0.4392206,-0.22483623027801514,-0.32955512404441833,-18.910207748413086,-93.40911865234375,268.3992614746094, 5.819037914276123
578,2971236039,0.54091,0.4523673,-0.55089176,0.44642857,-1.2860069274902344,-1.8918765783309937,-20.942352294921875,-81.245361328125,203.4875030517578, 0.3023258447647095
579,2971252706,0.5570764,0.43918732,-0.545415,0.44643357,-6.113914489746094,-0.25975272059440613,-21.707353591918945,-83.15164947509766,122.37251281738281, -16.784761428833008
580,2971269373,0.568837,0.42918342,-0.5490878,0.43672502,-9.093563079833984,-1.2285325527191162,-21.5554141998291,-122.21817779541016,32.420963287353516, -24.7493839263916
581,2971286040,0.57476544,0.42184395,-0.56074977,0.42101312,-9.315946578979492,-7.107146263122559,-21.959835052490234,-141.26614379882812,-45.90010070800781, -17.189958572387695
582,2971302707,0.5708867,0.4228652,-0.57392406,0.4072892,-5.113972187042236,-3.0875754356384277,-21.639598846435547,-76.47900390625,-107.46770477294922, -8.920747756958008
583,2971319374,0.55273175,0.4459221,-0.5825857,0.39526573,3.554227352142334,26.461101531982422,-26.158761978149414,70.84627532958984,-202.2568817138672, -62.4270133972168
584,2971336041,0.53792673,0.46746102,-0.59983915,0.3637417,18.899377822875977,17.483001708984375,5.225454807281494,-46.85017776489258,-276.4844665527344, -112.52500915527344
585,2971352708,0.5189626,0.47582245,-0.62966645,0.32831582,22.79712677001953,-36.83834457397461,-12.272768020629883,-129.76187133789062,-320.1922912597656, -21.24416732788086
586,2971369375,0.4918795,0.4946464,-0.6485924,0.3044788,11.35922622680664,-8.190498352050781,0.7774215936660767,8.910964965820312,-301.9700012207031, -43.53630065917969
587,2971386042,0.47232574,0.50737906,-0.66339517,0.28174824,0.4276122450828552,2.62746262550354,-6.6639227867126465,-23.78369140625,-238.13455200195312, -42.63673400878906
588,2971402709,0.45463672,0.5188801,-0.67275935,0.26732758,-0.8199197053909302,5.606441497802734,-3.8951334953308105,14.12849235534668,-180.48619079589844, -32.515377044677734
589,2971419376,0.43958777,0.52763176,-0.67894167,0.2596259,-0.7530127763748169,9.390708923339844,-7.401354789733887,33.06752395629883,-129.2842559814453, -14.854092597961426
590,2971436043,0.43129733,0.52925444,-0.68566865,0.25245017,4.300000190734863,1.860267996788025,-5.897592544555664,-11.445192337036133,-84.63850402832031, 10.16367244720459
591,2971452710,0.42358539,0.5303415,-0.6899466,0.25156915,8.436943054199219,2.2565555572509766,-2.016859531402588,18.819568634033203,-50.82888412475586, 21.45836067199707
592,2971469377,0.41626316,0.5311319,-0.69336176,0.25273177,11.965999603271484,0.41421717405319214,0.2861822247505188,27.775440216064453,-38.69405746459961, 24.99410629272461
593,2971486044,0.4034961,0.5367616,-0.69399905,0.25969908,10.874441146850586,-0.9351590871810913,6.391418933868408,94.05125427246094,-44.21876907348633, 17.769102096557617
594,2971502711,0.38639182,0.54528743,-0.6942569,0.2671523,9.30952262878418,-0.04438260197639465,10.85625171661377,121.1263198852539,-67.68657684326172, 11.511627197265625
595,2971519378,0.36583495,0.55530477,-0.69581014,0.27138507,6.218191146850586,0.7446605563163757,12.112768173217773,120.32404327392578,-102.9538803100586, 6.954495906829834
596,2971536045,0.34354633,0.5651958,-0.69873273,0.27258447,3.727590799331665,-3.240734338760376,12.82040023803711,109.59444427490234,-126.52046203613281, 8.356772422790527
597,2971552712,0.31953567,0.57508475,-0.7026831,0.27094492,3.907431125640869,-3.338606834411621,11.84955883026123,100.69945526123047,-148.6929473876953, 8.77822208404541
598,2971569379,0.29557973,0.584572,-0.70655817,0.26773843,3.6906731128692627,-3.5642242431640625,13.827362060546875,92.13505554199219,-154.1100311279297, 6.793599605560303
599,2971586046,0.26848853,0.593811,-0.71243715,0.26026142,-0.13605958223342896,-1.580802083015442,13.23708724975586,79.7490234375,-190.5543670654297, 13.078006744384766
600,2971602713,0.24279873,0.60086715,-0.72172296,0.2431532,-0.6141531467437744,-1.508452296257019,4.861685752868652,16.681873321533203,-225.7028350830078, 17.37688636779785
601,2971619380,0.22677875,0.6079048,-0.7288247,0.21871902,7.430638790130615,3.8175301551818848,14.446551322937012,-56.046104431152344,-204.37118530273438, -19.97425651550293
602,2971636047,0.21926686,0.6116965,-0.7352117,0.19290738,0.697622537612915,-7.47470760345459,21.599258422851562,-102.42330169677734,-161.9501190185547, -21.56214714050293
603,2971652714,0.20110857,0.6198989,-0.73426646,0.19008785,3.172121524810791,0.5456315875053406,14.3323335647583,74.82686614990234,-114.23515319824219, -26.056869506835938
604,2971669381,0.1904217,0.6253748,-0.732688,0.1892472,8.366647720336914,8.151185989379883,14.425741195678711,50.05879211425781,-63.93436813354492, -21.96426773071289
605,2971686048,0.19005759,0.6264742,-0.73189175,0.18905766,8.420169830322266,3.6474769115448,15.085799217224121,2.397599220275879,-4.886674404144287, -8.958940505981445
606,2971702715,0.19435608,0.62478685,-0.7301641,0.19679375,6.35576057434082,-0.4109385907649994,10.72276496887207,19.84955406188965,57.13954162597656, 5.427074432373047
607,2971719382,0.2010659,0.6223696,-0.7248472,0.21639141,5.349730491638184,1.3128504753112793,7.541079521179199,72.91354370117188,125.7268295288086, 6.292158603668213
608,2971736049,0.21447434,0.61822116,-0.71658987,0.24145906,4.313511848449707,4.624340534210205,6.695923805236816,73.51668548583984,189.0006866455078, 0.02138330042362213
609,2971752716,0.23576996,0.6113186,-0.7067405,0.26687104,4.242167949676514,5.53842306137085,3.6648731231689453,40.33564758300781,236.13406372070312, -5.610060214996338
610,2971769383,0.26551706,0.6007561,-0.6960356,0.29004693,4.485195159912109,5.371608257293701,1.4646883010864258,-10.357552528381348,275.8613586425781, -10.413607597351074
611,2971786050,0.30053753,0.58717376,-0.6834967,0.31262836,5.218657970428467,2.557657480239868,-0.3789582848548889,-36.80553436279297,308.0140075683594, -15.025918006896973
612,2971802717,0.33881694,0.57091415,-0.6691341,0.33394575,5.0972466468811035,-0.41060277819633484,-2.371832847595215,-57.5322151184082,327.778076171875, -19.396438598632812
613,2971819384,0.37736538,0.55320525,-0.65279776,0.35413954,5.336721897125244,-2.223450183868408,-4.152737617492676,-62.64817428588867,332.6116943359375, -23.770301818847656
614,2971836051,0.416885,0.53178513,-0.6373183,0.37045515,5.412041664123535,-4.792863845825195,-6.678846836090088,-95.52898406982422,329.1697998046875, -16.401020050048828
615,2971852718,0.4520226,0.50857586,-0.62178713,0.38782364,4.000950813293457,-4.819814205169678,-10.65744686126709,-79.93708801269531,318.73870849609375, 5.2368903160095215
616,2971869385,0.48280105,0.484311,-0.60749364,0.40410078,-0.036377668380737305,-1.4571492671966553,-16.642181396484375,-75.97854614257812,295.61871337890625, 22.12596321105957
617,2971886052,0.5096952,0.4597432,-0.59735173,0.41475055,-2.456153392791748,0.8145559430122375,-20.15965461730957,-99.11174774169922,248.2976837158203, 29.237688064575195
618,2971902719,0.52956164,0.44037494,-0.5897519,0.4216955,-4.259280681610107,1.4080965518951416,-22.582719802856445,-81.13603210449219,184.6800079345703, 22.959989547729492
619,2971919386,0.5434895,0.42865002,-0.58511555,0.42251396,-7.995291233062744,2.763744592666626,-24.086605072021484,-68.75186157226562,109.8687744140625, -4.124901294708252
620,2971936053,0.55249447,0.42205918,-0.58605194,0.41612378,-9.40529727935791,-1.0570898056030273,-23.605072021484375,-80.24995422363281,33.891075134277344, -20.913105010986328
621,2971952720,0.55389386,0.4205039,-0.59155107,0.40797728,-8.410296440124512,-4.001413822174072,-22.82743263244629,-59.179786682128906,-32.82052993774414, -12.885899543762207
622,2971969387,0.5436911,0.43134862,-0.5985022,0.40016687,-6.920039653778076,8.572620391845703,-37.21017074584961,18.886329650878906,-118.63377380371094, -25.40262794494629
623,2971986054,0.51978904,0.46126428,-0.6041484,0.38994828,13.983537673950195,18.12748908996582,-17.92133331298828,124.4415512084961,-228.6216583251953, -78.91075897216797
624,2972002721,0.5039717,0.47748205,-0.625073,0.35680124,21.588930130004883,-0.7919001579284668,8.856439590454102,-86.49054718017578,-285.2572937011719, -76.6953125
625,2972019388,0.47596827,0.49882358,-0.6423748,0.33463982,18.705089569091797,-21.280555725097656,-6.818661212921143,27.420379638671875,-302.149658203125, -42.65283203125
626,2972036055,0.45493716,0.5125591,-0.65948045,0.30887043,-0.5354568958282471,-1.5299760103225708,-4.578820705413818,-36.99325180053711,-265.6072998046875, -38.18548583984375
627,2972052722,0.438575,0.52384615,-0.67094713,0.28821397,-1.9107383489608765,4.992363929748535,-6.32637357711792,-25.990896224975586,-203.50001525878906, -40.86934280395508
628,2972069389,0.4217309,0.5349816,-0.6767471,0.2791975,-1.366439700126648,8.564070701599121,-6.255497932434082,40.22153091430664,-146.2855987548828, -24.372806549072266
629,2972086056,0.4103712,0.54059666,-0.68165237,0.2733145,2.1841137409210205,6.149376392364502,-5.878861904144287,20.399038314819336,-95.94701385498047, -3.2112886905670166
630,2972102723,0.4033188,0.54129297,-0.68719906,0.26850218,7.48527193069458,1.3020399808883667,-3.9239914417266846,-5.607091426849365,-64.32665252685547, 17.296518325805664
631,2972119390,0.39584336,0.54166627,-0.6919434,0.2666834,12.313970565795898,-0.574158251285553,-0.04082599654793739,10.737723350524902,-52.496238708496094, 24.92051887512207
632,2972136057,0.38473752,0.54473364,-0.695058,0.26858285,13.367629051208496,-1.3299825191497803,4.629504203796387,52.3017692565918,-56.75433349609375, 22.729055404663086
633,2972152724,0.36851704,0.5514038,-0.6970967,0.27240643,11.987488746643066,-2.015285015106201,9.703864097595215,92.19910430908203,-78.27429962158203, 15.896785736083984
634,2972169391,0.34888119,0.5592924,-0.7003462,0.27384165,8.636533737182617,0.1997075080871582,12.02586841583252,94.53810119628906,-109.63311004638672, 14.868379592895508
635,2972186058,0.32652578,0.5675243,-0.7046682,0.27338618,5.8434247970581055,-1.402687430381775,14.265506744384766,94.73377227783203,-133.78651428222656, 17.884843826293945
636,2972202725,0.30134344,0.57631934,-0.7090622,0.2725418,5.7889885902404785,-1.343712568283081,12.627031326293945,105.01310729980469,-150.7699737548828, 19.821041107177734
637,2972219392,0.27608344,0.5839463,-0.7145621,0.26867405,4.6468706130981445,-0.9137513637542725,14.785728454589844,86.0754623413086,-163.70863342285156, 23.74458122253418
638,2972236059,0.25018498,0.5917799,-0.71929425,0.26423466,1.630712628364563,0.07629722356796265,17.254194259643555,87.62283325195312,-168.54409790039062, 19.731901168823242
639,2972252726,0.22325817,0.5986448,-0.7272622,0.25073928,-0.9189001321792603,0.24040456116199493,7.624890327453613,39.453025817871094,-214.72817993164062, 24.000547409057617
640,2972269393,0.199762,0.6071074,-0.7337652,0.23044376,6.770322322845459,4.8028411865234375,5.9413065910339355,-3.7059946060180664,-226.18997192382812, -6.367673397064209
641,2972286060,0.19505268,0.6113891,-0.7413057,0.19652916,2.088731527328491,-0.8284027576446533,23.19748306274414,-158.14625549316406,-183.33546447753906, -29.330127716064453
642,2972302727,0.1786741,0.6200016,-0.74123657,0.18504606,0.8429832458496094,-7.27899694442749,15.53888988494873,21.328914642333984,-144.5882110595703, -37.5903434753418
643,2972319394,0.16253915,0.6286342,-0.7378851,0.18418922,4.415510177612305,4.664386749267578,16.340850830078125,78.49905395507812,-94.26789093017578, -39.05567932128906
644,2972336061,0.15648998,0.6337781,-0.73433703,0.18597141,6.388412952423096,3.016479730606079,14.464617729187012,44.76301956176758,-27.385013580322266, -31.903165817260742
645,2972352728,0.1576091,0.634382,-0.73133487,0.19459827,7.426586627960205,2.6395132541656494,12.67879867553711,42.575130462646484,43.51008224487305, -8.315388679504395
646,2972369395,0.16879214,0.6302791,-0.72940344,0.2054951,5.267024040222168,2.7353293895721436,10.05433464050293,3.6057345867156982,108.82341003417969, 9.086557388305664
647,2972386062,0.18659708,0.6234121,-0.7256803,0.22344373,3.8421735763549805,-1.9461838006973267,5.267813682556152,9.62631607055664,178.37039184570312, 14.074131965637207
648,2972402729,0.20471059,0.6163843,-0.7170799,0.25290403,3.1302378177642822,2.3694710731506348,3.4139251708984375,72.96551513671875,235.69813537597656, 8.268434524536133
649,2972419396,0.22887029,0.6072573,-0.7062861,0.28287292,2.5355443954467773,5.251906871795654,1.0461069345474243,50.72097396850586,274.3883972167969, -0.37062782049179077
650,2972436063,0.25887275,0.59483343,-0.69408554,0.31209514,2.660933017730713,4.149951934814453,-1.2341216802597046,20.292076110839844,308.3228759765625, -2.620305299758911
651,2972452730,0.29235795,0.58061004,-0.67890495,0.34133148,2.351991891860962,4.039102077484131,-3.2900562286376953,9.321419715881348,334.2689514160156, -13.559466361999512
652,2972469397,0.3310179,0.56458414,-0.6619192,0.3654243,3.07169771194458,3.65169358253479,-4.851924419403076,-34.74934387207031,345.9028015136719, -34.747032165527344
653,2972486064,0.37363133,0.5461573,-0.64479107,0.38256553,3.3900976181030273,0.6406822204589844,-8.54092025756836,-86.86135864257812,343.4326477050781, -50.09075164794922
654,2972502731,0.41422024,0.5264033,-0.6273166,0.3972344,3.3281984329223633,-0.7514882683753967,-11.710257530212402,-92.74468231201172,329.8117980957031, -46.585044860839844
655,2972519398,0.44935927,0.5054394,-0.61036557,0.41238478,3.2853360176086426,-1.8591063022613525,-14.82040023803711,-75.85432434082031,310.2265930175781, -23.289655685424805
656,2972536065,0.47791678,0.48512635,-0.59515446,0.42666072,0.32835423946380615,0.9838452339172363,-17.93648910522461,-59.60939025878906,272.8171691894531, -4.114658832550049
657,2972552732,0.49983615,0.46864468,-0.58164763,0.4384313,-1.8304530382156372,-2.271649122238159,-19.677906036376953,-40.15792465209961,221.05995178222656, -2.8814165592193604
658,2972569399,0.5162178,0.45773125,-0.5716535,0.4440873,-4.939035892486572,-2.851213216781616,-20.78353500366211,-38.236324310302734,151.031982421875, -18.2563419342041
659,2972586066,0.52737224,0.45095,-0.56951016,0.4406597,-7.774379253387451,-5.549850940704346,-21.074392318725586,-66.7939682006836,62.13905334472656, -26.17908477783203
660,2972602733,0.53433526,0.4448395,-0.57802814,0.42718533,-8.441998481750488,-5.651882648468018,-19.80970573425293,-123.00318145751953,-25.390625, -19.637928009033203
661,2972619400,0.5365947,0.43974912,-0.594174,0.4069939,-6.003314018249512,-4.622179985046387,-19.93103790283203,-153.97337341308594,-94.99618530273438, -11.330667495727539
662,2972636067,0.5243158,0.45022935,-0.611077,0.38596815,0.030331730842590332,14.363476753234863,-38.94698715209961,-58.10542297363281,-202.6573486328125, -35.11463165283203
663,2972652734,0.50286067,0.4767961,-0.6215244,0.36538246,13.325072288513184,16.754106521606445,0.08808547258377075,47.211143493652344,-258.0697937011719, -96.34607696533203
664,2972669401,0.4838376,0.4920597,-0.6427248,0.33269092,17.919191360473633,-10.363821029663086,3.105585813522339,-78.61974334716797,-296.42413330078125, -60.262786865234375
665,2972686068,0.45789537,0.50728023,-0.6641753,0.3031002,14.254826545715332,-16.01457405090332,-10.180667877197266,-42.21725082397461,-317.6640930175781, -33.36056900024414
666,2972702735,0.4381465,0.51776767,-0.68152755,0.2747084,-0.9952840209007263,-4.56100606918335,-8.534676551818848,-64.824951171875,-262.3432922363281, -35.60399627685547
667,2972719402,0.4217906,0.52778274,-0.69163674,0.25529748,-0.2439180612564087,4.095613956451416,-6.516870975494385,-22.628000259399414,-191.5599365234375, -38.59627914428711
668,2972736069,0.40757743,0.53693885,-0.6963578,0.24629885,1.6122342348098755,5.046752452850342,-5.671948432922363,26.08889389038086,-126.37049865722656, -27.504446029663086
669,2972752736,0.39643472,0.5436591,-0.698788,0.24283673,4.248171329498291,3.901153326034546,-5.63222599029541,38.35382843017578,-80.67810821533203, -13.885812759399414
670,2972769403,0.38996744,0.54462266,-0.70327836,0.23814167,8.58581256866455,0.981700599193573,-2.245014190673828,-4.128959655761719,-58.87935256958008, 10.370718955993652
671,2972786070,0.3829129,0.54483515,-0.7074126,0.23685408,12.42597484588623,0.383586585521698,0.34946209192276,13.157511711120605,-47.009925842285156, 22.748937606811523
672,2972802737,0.3711901,0.5492421,-0.7087872,0.2411888,12.079825401306152,1.4633187055587769,4.143774032592773,73.57115936279297,-48.5977783203125, 14.341268539428711
673,2972819404,0.3548405,0.556924,-0.7091068,0.24716707,11.680745124816895,-2.3775882720947266,8.089412689208984,109.2226333618164,-68.14229583740234, 6.198616981506348
674,2972836071,0.3351774,0.56577766,-0.70991147,0.2521463,8.083621978759766,-2.2038722038269043,10.05893325805664,119.07811737060547,-91.8487548828125, 5.39103889465332
675,2972852738,0.3142591,0.573518,-0.71272874,0.2536455,5.069693565368652,-2.402841806411743,11.37695598602295,100.91862487792969,-114.73049926757812, 12.704127311706543
676,2972869405,0.29199967,0.5812607,-0.71613806,0.25301945,5.155985355377197,-3.2367260456085205,11.52298641204834,94.74851989746094,-131.42405700683594, 12.6941556930542
677,2972886072,0.26742452,0.5902968,-0.7182069,0.25340253,4.266003131866455,-1.7721744775772095,13.857701301574707,113.86019897460938,-138.7962646484375, 6.943708419799805
678,2972902739,0.24125636,0.60006684,-0.7205752,0.24997331,0.09131157398223877,0.9071246981620789,15.497258186340332,102.29737091064453,-164.42449951171875, 0.28029122948646545
679,2972919406,0.21724625,0.6077423,-0.72754043,0.23267694,-2.2679269313812256,0.8069583773612976,7.58726167678833,13.310089111328125,-215.3380126953125, 2.9552876949310303
680,2972936073,0.1951999,0.6167666,-0.7318337,0.21427912,4.938197135925293,1.9498218297958374,8.375044822692871,5.887688159942627,-208.3658447265625, -19.71921730041504
681,2972952740,0.18130878,0.6237261,-0.7346751,0.19582084,2.740405559539795,-7.117854595184326,23.072250366210938,-29.59017562866211,-162.86752319335938, -27.526281356811523
682,2972969407,0.15950821,0.63326305,-0.7318159,0.19488645,1.425968050956726,-3.298210859298706,16.509428024291992,103.5759048461914,-124.49708557128906, -32.6104621887207
683,2972986074,0.1429943,0.6411053,-0.7277895,0.19712713,5.310100078582764,3.6414706707000732,15.587885856628418,96.1622314453125,-80.79754638671875, -32.76754379272461
684,2973002741,0.13407646,0.64561605,-0.72410065,0.20219249,9.631498336791992,4.041673183441162,15.62319278717041,73.16938781738281,-26.51378631591797, -21.99603843688965
685,2973019408,0.13454619,0.64489186,-0.7227258,0.20899613,9.147316932678223,3.2264935970306396,11.655341148376465,32.19948959350586,32.60856628417969, 3.022698163986206
686,2973036075,0.14242415,0.6407902,-0.7217907,0.21936631,6.480575084686279,2.177194118499756,7.2869553565979,13.373008728027344,89.30321502685547, 14.508787155151367
687,2973052742,0.156178,0.63541454,-0.71863645,0.23541187,4.9012227058410645,0.49896717071533203,5.548543930053711,17.77785301208496,147.35101318359375, 7.811764240264893
688,2973069409,0.17261584,0.6295195,-0.7120917,0.2585237,3.496617078781128,2.7671430110931396,3.43361496925354,45.88900375366211,195.8454132080078, -1.1471387147903442
689,2973086076,0.1948582,0.62207526,-0.70389825,0.28209955,2.5141279697418213,4.594672679901123,1.2210036516189575,24.167524337768555,230.94091796875, -10.378152847290039
690,2973102743,0.2223641,0.6121646,-0.6945354,0.3056621,2.279414653778076,2.429537773132324,-0.6698477864265442,0.6208431720733643,262.7407531738281, -13.562824249267578
691,2973119410,0.25238004,0.60071146,-0.6828732,0.33035514,1.8175517320632935,0.6576387882232666,-1.699242353439331,-2.050994873046875,286.3275451660156, -19.371337890625
692,2973136077,0.2853422,0.5876828,-0.6692932,0.35391456,1.4214379787445068,-1.2719982862472534,-3.5626718997955322,-17.935335159301758,302.509033203125, -28.558780670166016
693,2973152744,0.31971684,0.5732226,-0.65415317,0.37587363,1.3657358884811401,-3.376650810241699,-5.405050277709961,-30.049184799194336,309.26776123046875, -34.92249298095703
694,2973169411,0.35598668,0.555666,-0.64014757,0.39334473,1.5229170322418213,-2.58898663520813,-6.62092399597168,-67.48908996582031,305.8451232910156, -31.434587478637695
695,2973186078,0.39328763,0.53245133,-0.6303456,0.40556762,2.1130127906799316,-1.9670524597167969,-9.98003101348877,-119.78224182128906,295.61590576171875, -6.2489094734191895
696,2973202745,0.42921868,0.5042642,-0.6255569,0.4125138,-0.29406148195266724,-0.2772423028945923,-14.935680389404297,-165.08485412597656,271.0368957519531, 23.065082550048828
