PacketCounter,SampleTimeFine,Quat_W,Quat_X,Quat_Y,Quat_Z,Acc_X,Acc_Y,Acc_Z,Gyr_X,Gyr_Y,Gyr_Z 
1,681202660,0.6958567,-0.0019637812,-0.7176769,-0.02682461,0.2884482443332672,-0.3597412705421448,0.025447849184274673,-0.36510780453681946,-0.00789414532482624, -1.6011484861373901
2,681219327,0.6958366,-0.002438334,-0.717696,-0.026796557,9.85909652709961,0.29489922523498535,-0.33680322766304016,0.8671115040779114,0.19092345237731934, 1.217237114906311
3,681235994,0.69565076,-0.00274396,-0.7178979,-0.026177937,9.86438274383545,0.2658654451370239,-0.29363545775413513,1.0481421947479248,0.058160047978162766, 1.4104081392288208
4,681252661,0.69563633,-0.0031531886,-0.7179341,-0.025510417,9.89707088470459,0.3290528357028961,-0.23552384972572327,0.928620457649231,0.21315529942512512, 1.5331954956054688
5,681269328,0.69580936,-0.0033873802,-0.7177795,-0.025109665,9.950703620910645,0.3308572471141815,-0.29312434792518616,0.6545132994651794,0.1398773491382599, 1.5012052059173584
6,681285995,0.69590825,-0.0035116351,-0.71769106,-0.024882289,9.980512619018555,0.332374632358551,-0.24289998412132263,0.6680752635002136,-0.02179640717804432, 1.1528724431991577
7,681302662,0.69603527,-0.0034583868,-0.7175761,-0.024650645,10.011322975158691,0.3767277002334595,-0.2550666928291321,0.9121258854866028,-0.10054265707731247, 0.8507707118988037
8,681319329,0.6961759,-0.003505639,-0.71743727,-0.024712516,9.98045825958252,0.36167973279953003,-0.3181858956813812,0.5501671433448792,0.1847763955593109, 0.5897643566131592
9,681335996,0.696255,-0.0034518833,-0.71736145,-0.024690727,9.859781265258789,0.3258879482746124,-0.39459243416786194,0.45847368240356445,0.17748959362506866, 0.6941105723381042
10,681352663,0.6962617,-0.0034338138,-0.71735835,-0.02459718,9.805365562438965,0.29504698514938354,-0.34060102701187134,0.5620002746582031,0.3148249089717865, 1.07097589969635
11,681369330,0.69626063,-0.0034927656,-0.7173631,-0.024481077,9.850863456726074,0.3292204737663269,-0.3266667425632477,0.8775486946105957,0.4339239299297333, 1.2929352521896362
12,681385997,0.6962534,-0.0035011687,-0.717376,-0.024305986,9.923063278198242,0.3428029716014862,-0.32512104511260986,1.0000287294387817,0.39085620641708374, 1.3293695449829102
13,681402664,0.69624835,-0.0034996858,-0.71738595,-0.024154307,9.96594524383545,0.3903486430644989,-0.3130209743976593,1.1921623945236206,0.417967289686203, 1.1947107315063477
14,681419331,0.6962453,-0.0035424335,-0.71739113,-0.024082124,9.930595397949219,0.3816815912723541,-0.26640331745147705,0.863564133644104,0.3969264030456543, 1.1834925413131714
15,681435998,0.6962614,-0.0035344635,-0.7173795,-0.023963403,9.91436767578125,0.3775176703929901,-0.2770288586616516,0.665526807308197,0.39432671666145325, 1.2566934823989868
16,681452665,0.6962884,-0.0035950565,-0.71735615,-0.02386937,9.934048652648926,0.37552937865257263,-0.2752179205417633,0.5217371582984924,0.4150730073451996, 1.5053800344467163
17,681469332,0.6963337,-0.0036615753,-0.7173155,-0.023764556,9.967578887939453,0.35879307985305786,-0.3101803958415985,0.5910963416099548,0.5211608409881592, 1.599724531173706
18,681485999,0.69636035,-0.0037020769,-0.71729314,-0.023647115,9.978772163391113,0.3967485725879669,-0.2774485945701599,0.9312969446182251,0.3630664050579071, 1.4943664073944092
19,681502666,0.6964184,-0.0037981805,-0.7172377,-0.023604788,9.955818176269531,0.3713899254798889,-0.3362168073654175,0.7870206832885742,0.6412075757980347, 1.4341769218444824
20,681519333,0.6964848,-0.003962489,-0.7171737,-0.023565508,9.856085777282715,0.3293371796607971,-0.3799728453159332,0.28770098090171814,0.7613437175750732, 1.747240424156189
21,681536000,0.6965479,-0.004116579,-0.7171153,-0.023451047,9.823643684387207,0.3171858787536621,-0.3382527530193329,0.38304436206817627,0.8090987801551819, 2.0015878677368164
22,681552667,0.6966076,-0.004279521,-0.71706086,-0.023307074,9.872352600097656,0.33993297815322876,-0.29514652490615845,0.33548152446746826,0.7946404218673706, 2.126577615737915
23,681569334,0.696665,-0.0044192285,-0.71700937,-0.023153745,9.922500610351562,0.315753310918808,-0.28190240263938904,0.5298947691917419,0.7494596242904663, 2.0292749404907227
24,681586001,0.6966917,-0.004545885,-0.71698713,-0.023014849,9.950821876525879,0.32548579573631287,-0.23715637624263763,0.5882788896560669,0.4282635450363159, 1.843813419342041
25,681602668,0.6967281,-0.004665311,-0.71695393,-0.022919832,9.960095405578613,0.32701796293258667,-0.23531262576580048,0.46869325637817383,0.4672205448150635, 1.5711150169372559
26,681619335,0.69674826,-0.004744345,-0.7169364,-0.022838904,9.899505615234375,0.33487799763679504,-0.27075251936912537,0.5532535314559937,0.26307445764541626, 1.2819092273712158
27,681636002,0.69674784,-0.004758975,-0.71694094,-0.02270601,9.87258529663086,0.2975336015224457,-0.2936553955078125,0.8591075539588928,0.042280163615942, 1.2061723470687866
28,681652669,0.69675875,-0.004760581,-0.7169362,-0.02252302,9.903585433959961,0.30499911308288574,-0.3028060495853424,0.9232032895088196,0.13986454904079437, 1.3570823669433594
29,681669336,0.6967904,-0.0048748376,-0.7169079,-0.0224182,9.948203086853027,0.3148987889289856,-0.32729414105415344,0.7020249366760254,0.3648977279663086, 1.4981061220169067
30,681686003,0.69682956,-0.0050324462,-0.7168705,-0.022362776,9.931986808776855,0.3509741723537445,-0.322405070066452,0.8402054905891418,0.47647950053215027, 1.4456896781921387
31,681702670,0.6968778,-0.0051367288,-0.7168249,-0.022298887,9.91847038269043,0.32772892713546753,-0.31829124689102173,0.7606395483016968,0.5724502801895142, 1.2438743114471436
32,681719337,0.69691473,-0.00520016,-0.7167916,-0.022198489,9.881654739379883,0.3081643581390381,-0.3301987051963806,1.0918117761611938,0.47174111008644104, 1.2118456363677979
33,681736004,0.6969569,-0.0052771936,-0.71675354,-0.022081653,9.900896072387695,0.33761462569236755,-0.30026400089263916,0.7420575022697449,0.5240166187286377, 1.3554048538208008
34,681752671,0.69699174,-0.0054121176,-0.7167205,-0.022024242,9.931681632995605,0.36012351512908936,-0.27860692143440247,0.3669210970401764,0.4605739712715149, 1.3513835668563843
35,681769338,0.6970268,-0.005539747,-0.71668625,-0.021999072,9.962634086608887,0.37446290254592896,-0.2713140547275543,0.27568870782852173,0.4596007168292999, 1.1714929342269897
36,681786005,0.69707024,-0.0056818803,-0.71664363,-0.021974053,9.939105987548828,0.37638166546821594,-0.2997071444988251,0.4294930100440979,0.5315980315208435, 1.2525954246520996
37,681802672,0.6971168,-0.005797222,-0.71660036,-0.021876374,9.935449600219727,0.35956186056137085,-0.29722797870635986,0.6557171940803528,0.5449550151824951, 1.4899356365203857
38,681819339,0.69718736,-0.00587282,-0.71653605,-0.021715552,9.932089805603027,0.3430929481983185,-0.30636975169181824,0.9362145662307739,0.7629702091217041, 1.6130683422088623
39,681836006,0.6972808,-0.0059981397,-0.7164485,-0.021573363,9.892648696899414,0.3561755418777466,-0.35721972584724426,0.7565416097640991,0.9876450300216675, 1.7688452005386353
40,681852673,0.6973695,-0.0061503584,-0.71636426,-0.021450404,9.844184875488281,0.340590238571167,-0.3287457227706909,0.6584450006484985,0.9680512547492981, 1.8098127841949463
41,681869340,0.697445,-0.006306291,-0.71629375,-0.02131084,9.89816665649414,0.3395889401435852,-0.29087963700294495,0.6533352136611938,0.8439577221870422, 1.9073587656021118
42,681886007,0.6975105,-0.006472261,-0.7162322,-0.021184584,9.931546211242676,0.33647629618644714,-0.25096073746681213,0.4045461416244507,0.745732843875885, 1.8948466777801514
43,681902674,0.69758475,-0.006624431,-0.716163,-0.02103199,9.959864616394043,0.3367503583431244,-0.25095322728157043,0.5275256037712097,0.8110069632530212, 1.9564582109451294
44,681919341,0.6976428,-0.006716092,-0.7161102,-0.020873884,9.95144271850586,0.35144251585006714,-0.3008878529071808,0.8118137121200562,0.6486223340034485, 1.6830167770385742
45,681936008,0.6977345,-0.0068948804,-0.7160238,-0.02071764,9.892683029174805,0.3015875518321991,-0.3310444951057434,0.3707886338233948,0.9654771089553833, 2.1144886016845703
46,681952675,0.69780374,-0.007071086,-0.7159591,-0.020553082,9.875216484069824,0.30763646960258484,-0.2568173110485077,0.5662519931793213,0.7644431591033936, 2.126769781112671
47,681969342,0.69786906,-0.007212906,-0.7158999,-0.02035282,9.929509162902832,0.3472101390361786,-0.24273967742919922,0.872733473777771,0.7139988541603088, 2.1248230934143066
48,681986009,0.6979191,-0.0073514227,-0.7158541,-0.020197771,9.914043426513672,0.3192610442638397,-0.29785826802253723,0.6227151155471802,0.5660086274147034, 1.895807147026062
49,682002676,0.6979579,-0.007516346,-0.7158181,-0.02007234,9.925521850585938,0.30463525652885437,-0.2909339666366577,0.6275687217712402,0.47031956911087036, 1.8747023344039917
50,682019343,0.69801927,-0.0076125716,-0.71576136,-0.019925307,9.929746627807617,0.31423965096473694,-0.2709804177284241,0.7973937392234802,0.6862474083900452, 1.6485294103622437
51,682036010,0.69806844,-0.007681061,-0.71571565,-0.019818673,9.95417308807373,0.2952113449573517,-0.3242780268192291,0.7805790305137634,0.5773422718048096, 1.3150392770767212
52,682052677,0.6981268,-0.0077657704,-0.7156608,-0.019708725,9.891549110412598,0.2857488989830017,-0.2919181287288666,0.6074885129928589,0.6708542704582214, 1.4121243953704834
53,682069344,0.6982121,-0.007896999,-0.71557933,-0.019593747,9.853558540344238,0.28259411454200745,-0.27122265100479126,0.6557427048683167,0.9309255480766296, 1.660183072090149
54,682086011,0.6982846,-0.008026353,-0.71551085,-0.01945296,9.889122009277344,0.29297783970832825,-0.2694937288761139,0.672480583190918,0.8012099862098694, 1.771764874458313
55,682102678,0.69833994,-0.008117689,-0.7154597,-0.019309316,9.91102409362793,0.3358052968978882,-0.2659027874469757,0.7542620301246643,0.6349068284034729, 1.596971035003662
56,682119345,0.698367,-0.0081948815,-0.7154357,-0.019187333,9.937740325927734,0.30297303199768066,-0.24063150584697723,0.8202019333839417,0.3688037097454071, 1.4226382970809937
57,682136012,0.6983873,-0.008274866,-0.71541786,-0.019079726,9.918105125427246,0.31486624479293823,-0.2611461579799652,0.6637082695960999,0.300135999917984, 1.3691076040267944
58,682152679,0.69838643,-0.008357887,-0.7154197,-0.01900754,9.90286922454834,0.2983298599720001,-0.29702070355415344,0.49123239517211914,0.100728340446949, 1.2133184671401978
59,682169346,0.69837815,-0.008380993,-0.7154305,-0.01889715,9.903767585754395,0.31064730882644653,-0.24152697622776031,0.8521409630775452,0.029512234032154083, 1.1043620109558105
60,682186013,0.6983863,-0.008431003,-0.71542466,-0.018788906,9.911772727966309,0.3203914165496826,-0.29259440302848816,0.9667064547538757,0.18623633682727814, 1.2265986204147339
61,682202680,0.6983966,-0.008487769,-0.71541655,-0.018688716,9.924827575683594,0.33837631344795227,-0.2767123281955719,0.8826327919960022,0.21061962842941284, 1.2266881465911865
62,682219347,0.6984067,-0.008551261,-0.7154094,-0.01856003,9.90234661102295,0.30715757608413696,-0.28425276279449463,0.8994860649108887,0.20123261213302612, 1.4061565399169922
63,682236014,0.69841355,-0.008610547,-0.7154047,-0.018456936,9.918216705322266,0.3391674757003784,-0.26887720823287964,0.8177943229675293,0.17761766910552979, 1.2644541263580322
64,682252681,0.6984234,-0.008621087,-0.7153984,-0.018323844,9.936053276062012,0.32169637084007263,-0.3046330511569977,1.1032990217208862,0.20289736986160278, 1.1791638135910034
65,682269348,0.69842565,-0.008675717,-0.7153974,-0.018247569,9.899820327758789,0.3169296383857727,-0.33738675713539124,0.7749571204185486,0.14439800381660461, 1.12318754196167
66,682286015,0.69844264,-0.008752334,-0.71538204,-0.018166013,9.882259368896484,0.2758719027042389,-0.28651124238967896,0.6643741726875305,0.29080018401145935, 1.2647229433059692
67,682302682,0.6984728,-0.008855312,-0.7153531,-0.018094458,9.891682624816895,0.3446016013622284,-0.27205929160118103,0.5420863628387451,0.4205669164657593, 1.3472087383270264
68,682319349,0.69851404,-0.008934426,-0.7153138,-0.018012946,9.970369338989258,0.34623831510543823,-0.27777501940727234,0.5813506245613098,0.5252331495285034, 1.2913089990615845
69,682336016,0.69857603,-0.0089468835,-0.71525604,-0.017901994,9.935556411743164,0.3533029854297638,-0.3247305154800415,1.0932972431182861,0.7236164212226868, 1.116143822669983
70,682352683,0.69862205,-0.009005326,-0.7152122,-0.01782658,9.881421089172363,0.3248732388019562,-0.2699624300003052,0.777185320854187,0.5814658999443054, 1.176410436630249
71,682369350,0.6986694,-0.009052378,-0.7151691,-0.017678466,9.876346588134766,0.30747365951538086,-0.21538181602954865,1.0793896913528442,0.5805054306983948, 1.4784353971481323
72,682386017,0.6987258,-0.009143855,-0.71511585,-0.017553538,9.922722816467285,0.3582969307899475,-0.24416016042232513,0.514488697052002,0.6605323553085327, 1.5969582796096802
73,682402684,0.69875586,-0.009231489,-0.71508795,-0.017443506,9.932894706726074,0.3657073974609375,-0.31954342126846313,0.7927834987640381,0.412550151348114, 1.5043044090270996
74,682419351,0.698786,-0.009324646,-0.71505976,-0.017344369,9.911481857299805,0.3429776132106781,-0.2771630585193634,0.6568697094917297,0.41922229528427124, 1.4913828372955322
75,682436018,0.69882166,-0.009427682,-0.7150259,-0.017246302,9.911468505859375,0.33210745453834534,-0.24157533049583435,0.5604379177093506,0.4729449152946472, 1.5453742742538452
76,682452685,0.69886684,-0.009562976,-0.7149817,-0.017172819,9.90619945526123,0.3411518335342407,-0.29775094985961914,0.3450351059436798,0.5660983324050903, 1.5937824249267578
77,682469352,0.6988986,-0.00965755,-0.71495175,-0.017074456,9.900712966918945,0.2912164628505707,-0.31947892904281616,0.6397860050201416,0.43817564845085144, 1.5197999477386475
78,682486019,0.69894314,-0.009697636,-0.7149114,-0.016922405,9.93255615234375,0.3104964792728424,-0.2867162525653839,1.2170833349227905,0.5596438646316528, 1.514600396156311
79,682502686,0.69899213,-0.009731423,-0.71486694,-0.016751684,9.929491996765137,0.3403630554676056,-0.2951728403568268,1.3493475914001465,0.6033775806427002, 1.5798105001449585
80,682519353,0.69903237,-0.009752612,-0.7148309,-0.016600067,9.952938079833984,0.34103265404701233,-0.2853982746601105,1.1718642711639404,0.5251820087432861, 1.4368788003921509
81,682536020,0.6990751,-0.00982902,-0.7147898,-0.016522998,9.908964157104492,0.34134942293167114,-0.2830100953578949,0.6008162498474121,0.5634345412254333, 1.3585935831069946
82,682552687,0.6990991,-0.009938505,-0.71476555,-0.01649049,9.859139442443848,0.30843690037727356,-0.2847383916378021,0.28592097759246826,0.39271312952041626, 1.311824917793274
83,682569354,0.69912153,-0.0100401845,-0.714744,-0.016414514,9.866300582885742,0.2882075905799866,-0.23849698901176453,0.5313290357589722,0.3727608025074005, 1.4885780811309814
84,682586021,0.69914186,-0.010139974,-0.7147254,-0.01629873,9.902226448059082,0.31560537219047546,-0.24222466349601746,0.823032021522522,0.3446124494075775, 1.673053503036499
85,682602688,0.69914067,-0.010209742,-0.71472824,-0.016179886,9.921866416931152,0.29580968618392944,-0.2633456289768219,0.942284882068634,0.137431338429451, 1.5448237657546997
86,682619355,0.699131,-0.010194304,-0.7147413,-0.016032934,10.028475761413574,0.33821219205856323,-0.2524339258670807,1.3371429443359375,0.05383148789405823, 1.268808126449585
87,682636022,0.6991493,-0.01022843,-0.71472365,-0.015994567,9.994585990905762,0.3746809661388397,-0.2894158363342285,0.6832122802734375,0.34119319915771484, 1.0029611587524414
88,682652689,0.6991769,-0.010322565,-0.71469504,-0.01600855,9.911428451538086,0.32549169659614563,-0.32612934708595276,0.13668856024742126,0.4400838017463684, 1.0613197088241577
89,682669356,0.69922024,-0.01040304,-0.71465176,-0.015996795,9.825180053710938,0.31278014183044434,-0.335488885641098,0.16821780800819397,0.5920055508613586, 1.1330610513687134
90,682686023,0.69927037,-0.010512071,-0.7146024,-0.015938886,9.816728591918945,0.2739114463329315,-0.29846814274787903,0.46084296703338623,0.6577790379524231, 1.500014305114746
91,682702690,0.69931763,-0.010510529,-0.7145594,-0.015785776,9.946866989135742,0.2846403419971466,-0.2774825990200043,1.469765543937683,0.6232146620750427, 1.4182074069976807
92,682719357,0.6993808,-0.010321249,-0.7145059,-0.015544156,10.226387023925781,0.36750829219818115,-0.22420097887516022,2.6969339847564697,0.7665944695472717, 0.9320269227027893
93,682736024,0.6994763,-0.009780459,-0.7144277,-0.015184023,10.430205345153809,0.41568005084991455,-0.2920614182949066,5.091300010681152,1.072307825088501, -0.20943507552146912
94,682752691,0.69968957,-0.009145431,-0.71423405,-0.0148550905,10.337916374206543,0.3970865309238434,-0.41876646876335144,5.434291839599609,2.2229583263397217, -0.7866813540458679
95,682769358,0.69999015,-0.008548866,-0.71395355,-0.014535126,9.923483848571777,0.6723753809928894,-0.5101956725120544,5.235818386077881,3.08121395111084, -0.612450897693634
96,682786025,0.7004808,-0.00838763,-0.71347815,-0.014334662,9.680920600891113,0.26761043071746826,-0.31204813718795776,2.558241367340088,4.939300537109375, 1.0173301696777344
97,682802692,0.70115435,-0.007967177,-0.712839,-0.013410418,9.66434097290039,0.6761677861213684,-0.45317867398262024,7.339622974395752,6.615781784057617, 3.263219118118286
98,682819359,0.70172155,-0.0077270614,-0.7123033,-0.012303064,9.754327774047852,0.6599928736686707,-0.9096117615699768,7.364927291870117,5.589095592498779, 5.052138805389404
99,682836026,0.70213634,-0.006898778,-0.71193385,-0.010363322,9.98935317993164,0.49411627650260925,-0.5035935640335083,14.339905738830566,4.1056365966796875, 6.200834274291992
100,682852693,0.7025013,-0.0056480276,-0.71161944,-0.0076207328,10.475958824157715,0.5300775766372681,0.24914544820785522,20.43581199645996,3.613964557647705, 8.022941589355469
101,682869360,0.70290595,-0.0043459856,-0.7112554,-0.00451624,10.623835563659668,0.8785465955734253,0.2162933051586151,22.53354263305664,4.00391960144043, 9.549017906188965
102,682886027,0.7034355,-0.003748084,-0.710746,-0.0021806967,10.382942199707031,1.264125943183899,-0.059406716376543045,15.338241577148438,5.287473201751709, 9.34044361114502
103,682902694,0.7039634,-0.004042165,-0.71022445,-0.0007725369,9.96784496307373,0.6614780426025391,-0.3532792627811432,6.551303386688232,5.340577602386475, 9.301467895507812
104,682919361,0.7044931,-0.0045069894,-0.70969653,0.00053820567,9.477635383605957,0.05922427028417587,-0.24859003722667694,5.25006103515625,5.397295951843262, 9.705327987670898
105,682936028,0.7050126,-0.0053802175,-0.7091724,0.001675742,9.04403305053711,-0.41096004843711853,-0.07958745956420898,2.427297830581665,5.342729091644287, 10.855250358581543
106,682952695,0.7055246,-0.0065434393,-0.70865005,0.0027310592,9.107428550720215,-0.53369140625,0.04306032136082649,0.6313214898109436,5.298612594604492, 11.832928657531738
107,682969362,0.70600563,-0.008041199,-0.7081526,0.0033818765,9.454829216003418,-0.3134825825691223,0.0857890173792839,-2.9512763023376465,5.037054061889648, 11.456472396850586
108,682986029,0.70641726,-0.009576232,-0.70772165,0.0036664056,9.891589164733887,-0.30969491600990295,0.19592536985874176,-4.934186935424805,4.381175994873047, 9.834532737731934
109,683002696,0.7066208,-0.0109984595,-0.70749825,0.0035496764,9.964042663574219,-0.25671106576919556,0.34788206219673157,-6.357829570770264,2.3609089851379395, 7.3082075119018555
110,683019363,0.7066358,-0.012256576,-0.7074639,0.0032386677,9.835036277770996,-0.4504052400588989,0.3228611350059509,-6.531496047973633,0.5022971630096436, 5.541981220245361
111,683036030,0.70626247,-0.012942783,-0.70782465,0.003214107,9.386441230773926,-0.5419264435768127,0.152865469455719,-2.3655381202697754,-3.372706413269043, 4.098845481872559
112,683052697,0.70566416,-0.013078644,-0.70841503,0.0039097248,9.181136131286621,-0.6759445071220398,0.02030797302722931,3.7547519207000732,-5.673905372619629, 4.866931915283203
113,683069364,0.70488966,-0.012915443,-0.7091804,0.0052087987,9.27961254119873,-0.43001410365104675,-0.5939387083053589,8.130865097045898,-7.449073314666748, 6.282459259033203
114,683086031,0.7038895,-0.012747135,-0.710165,0.0065502734,9.602025985717773,-0.0534382201731205,-0.5277360081672668,8.32011890411377,-9.577235221862793, 6.426634788513184
115,683102698,0.702689,-0.012731214,-0.71134615,0.007271526,9.65479564666748,0.25431370735168457,-0.013900945894420147,4.537312030792236,-11.414575576782227, 4.164928436279297
116,683119365,0.7013253,-0.012789257,-0.71268785,0.007435354,9.106115341186523,0.18864543735980988,0.29741230607032776,1.4579460620880127,-12.946036338806152, 1.8543797731399536
117,683136032,0.70016193,-0.012686368,-0.713824,0.008240163,8.475733757019043,0.19694162905216217,0.22111062705516815,5.306717872619629,-11.068023681640625, 4.187160491943359
118,683152699,0.6990174,-0.013710336,-0.7149247,0.00834076,9.119553565979004,0.8751064538955688,-0.032392531633377075,-3.4619295597076416,-10.71263313293457, 6.348629951477051
119,683169366,0.69759554,-0.015839897,-0.7162724,0.007978256,9.664392471313477,0.07974030077457428,0.3180149495601654,-11.164156913757324,-13.1700439453125, 9.622967720031738
120,683186033,0.69575477,-0.017750058,-0.7180127,0.008251739,9.819777488708496,0.0522259883582592,0.053123123943805695,-7.053378582000732,-17.24295997619629, 11.588621139526367
121,683202700,0.69332063,-0.0194649,-0.7203141,0.00869785,10.121533393859863,-0.47574305534362793,-0.7797510623931885,-5.529577255249023,-22.910537719726562, 11.43533706665039
122,683219367,0.69031584,-0.020133685,-0.7231674,0.009362416,10.11016845703125,-0.8514162302017212,-0.4087814688682556,0.35275834798812866,-28.42867088317871, 7.239739418029785
123,683236034,0.6868152,-0.019123547,-0.7265044,0.010527036,10.407116889953613,-1.1189404726028442,-0.8704916834831238,10.60532283782959,-33.36408996582031, 1.1909635066986084
124,683252701,0.6825596,-0.01782364,-0.7305329,0.010800081,9.880301475524902,-1.4547291994094849,-0.9209951758384705,7.347513675689697,-40.27909851074219, -4.56225061416626
125,683269368,0.6775654,-0.017880078,-0.735188,0.009172445,11.131073951721191,0.8453479409217834,1.8167338371276855,-8.871670722961426,-46.56795120239258, -6.764188766479492
126,683286035,0.67277646,-0.019327082,-0.73957014,0.005883368,13.632527351379395,2.7419581413269043,4.300863265991211,-23.886735916137695,-44.146629333496094, -7.360708713531494
127,683302702,0.6681844,-0.020493537,-0.74370986,0.0023115522,13.916060447692871,1.533660888671875,0.2561529278755188,-24.296493530273438,-42.37059783935547, -9.828855514526367
128,683319369,0.6634932,-0.02010089,-0.74791217,0.00028630492,13.477967262268066,1.2883349657058716,-0.5203610062599182,-9.504623413085938,-43.5144157409668, -10.544697761535645
129,683336036,0.6601049,-0.02079791,-0.75088316,-0.0019086748,13.27147388458252,1.4796985387802124,-1.0754246711730957,-15.316115379333496,-31.236309051513672, -5.420259952545166
130,683352703,0.6587278,-0.023146272,-0.75200945,-0.0048774923,14.22795581817627,0.46549007296562195,-3.682866096496582,-26.70193099975586,-12.428099632263184, 0.01852443814277649
131,683369370,0.6605866,-0.026146015,-0.75024396,-0.008702883,15.739336013793945,-2.289419174194336,-2.7169718742370605,-33.67547607421875,17.631492614746094, 0.11528974026441574
132,683386037,0.6664469,-0.029653061,-0.7448625,-0.012208925,15.801310539245605,-5.127788543701172,-2.45963716506958,-33.88938522338867,54.649314880371094, 4.919931888580322
133,683402704,0.67446756,-0.031777892,-0.73749125,-0.013802843,12.32612133026123,-3.922046661376953,-3.0419676303863525,-17.59510040283203,74.5981216430664, 6.843805313110352
134,683419371,0.6830095,-0.03902391,-0.7291135,-0.019200137,13.541521072387695,-2.516221761703491,-3.855163097381592,-60.39524459838867,82.37171936035156, 15.1472749710083
135,683436038,0.6908072,-0.05314928,-0.720667,-0.024490047,10.912348747253418,-12.910685539245605,-6.224602699279785,-92.53931427001953,78.22405242919922, 49.898319244384766
136,683452705,0.69475645,-0.05253707,-0.7172944,-0.0065155462,7.896511554718018,-18.32061767578125,-7.733382225036621,92.07769775390625,29.4329891204834, 84.02058410644531
137,683469372,0.6958121,-0.045864515,-0.7165326,0.017979935,6.747027397155762,-1.8461225032806396,-3.855933666229248,152.85867309570312,1.0145440101623535, 82.97796630859375
138,683486039,0.6949051,-0.050110422,-0.7166881,0.030891534,2.621570587158203,2.9980218410491943,-2.805321216583252,43.676944732666016,-7.9363603591918945, 81.17572784423828
139,683502706,0.693424,-0.06216061,-0.7170162,0.034452442,-0.6079521179199219,3.7708828449249268,-2.7402634620666504,-39.824527740478516,-6.560553550720215, 75.24874877929688
140,683519373,0.6921178,-0.07475462,-0.71699995,0.035998337,-0.39633142948150635,0.2679390013217926,-1.3196479082107544,-52.6714973449707,-2.8129377365112305, 68.72112274169922
141,683536040,0.692046,-0.07939076,-0.7161568,0.043464202,2.21195387840271,-0.528986930847168,-1.1545498371124268,15.251832962036133,2.273508071899414, 57.81455993652344
142,683552707,0.6918086,-0.08189395,-0.7156704,0.050100915,5.975743293762207,4.373383522033691,-1.7472795248031616,21.146434783935547,-0.3770860433578491, 43.217166900634766
143,683569374,0.6893162,-0.08940326,-0.71710396,0.051108982,6.616429328918457,4.594841003417969,-4.636929512023926,-32.253456115722656,-15.627727508544922, 41.13878631591797
144,683586041,0.683633,-0.09974598,-0.7212965,0.049275227,5.839529991149902,3.0772809982299805,-4.533710479736328,-62.551090240478516,-41.4251594543457, 41.47100067138672
145,683602708,0.6748159,-0.110029854,-0.7281,0.048862737,4.814296245574951,2.2253732681274414,-3.9921317100524902,-58.18236541748047,-69.9840316772461, 47.43452072143555
146,683619375,0.6617931,-0.11952126,-0.73842674,0.049705874,3.9536972045898438,1.8339165449142456,-3.720245599746704,-52.504608154296875,-108.39900970458984, 48.271366119384766
147,683636042,0.6464854,-0.12702855,-0.75037134,0.053509917,3.7295262813568115,-1.3589540719985962,1.7993239164352417,-30.78384017944336,-130.29742431640625, 51.30211639404297
148,683652709,0.6338592,-0.12605526,-0.76030296,0.06536142,1.422455906867981,3.118518352508545,7.385962963104248,51.50216293334961,-117.83606719970703, 44.035240173339844
149,683669376,0.6227089,-0.12277953,-0.7688933,0.077215604,3.535989284515381,4.1131086349487305,-6.596203804016113,63.371788024902344,-105.79676055908203, 32.68025207519531
150,683686043,0.60415053,-0.115817316,-0.78177327,0.10207507,19.746795654296875,-15.603710174560547,-5.082845211029053,139.59361267089844,-175.94175720214844, 69.42064666748047
151,683702710,0.591187,-0.10922577,-0.78955233,0.123186745,14.084138870239258,4.271359443664551,10.097895622253418,125.81651306152344,-121.43830871582031, 55.30962371826172
152,683719377,0.57762176,-0.114800505,-0.79732424,0.13209166,26.111337661743164,-4.470719814300537,3.5734612941741943,9.546534538269043,-106.03475189208984, 72.74372863769531
153,683736044,0.5671325,-0.11017712,-0.80345607,0.14380656,24.191795349121094,-1.8784443140029907,-2.016835927963257,69.2440414428711,-94.82223510742188, 26.775135040283203
154,683752711,0.5600855,-0.10310489,-0.807751,0.15235549,21.632097244262695,-2.9317312240600586,-4.619372844696045,65.75676727294922,-69.00419616699219, -0.6957911849021912
155,683769378,0.5576515,-0.09885264,-0.8098108,0.15316546,17.459951400756836,-5.615313529968262,-6.697116374969482,17.58598518371582,-26.50118637084961, -17.770662307739258
156,683786045,0.56047004,-0.096986726,-0.80889755,0.1488346,15.679396629333496,-5.567197322845459,-7.2192606925964355,-13.45785903930664,20.161331176757812, -27.631689071655273
157,683802712,0.5678593,-0.096323624,-0.8053707,0.14012766,16.23686981201172,-4.619594573974609,-5.740102767944336,-36.691532135009766,59.870582580566406, -40.70716857910156
158,683819379,0.5798046,-0.09560014,-0.7988733,0.12840888,15.899436950683594,-4.162827491760254,-2.6650800704956055,-47.270076751708984,98.6149673461914, -55.13762283325195
159,683836046,0.5953419,-0.096232794,-0.7892105,0.11599142,12.7577486038208,-3.863790512084961,-0.7157701253890991,-51.438270568847656,132.45375061035156, -51.48432159423828
160,683852713,0.6105967,-0.09483542,-0.7790379,0.10619775,6.493960380554199,-4.455713272094727,-2.0509424209594727,-28.776607513427734,129.45758056640625, -51.18589401245117
161,683869380,0.62190825,-0.090848885,-0.7711928,0.10118531,3.6965646743774414,-4.3719868659973145,-2.372260093688965,3.3602116107940674,93.57168579101562, -43.768978118896484
162,683886047,0.6291299,-0.08719751,-0.7660139,0.09907118,3.9374983310699463,-3.0606181621551514,-2.988455295562744,12.841193199157715,59.002445220947266, -28.617937088012695
163,683902714,0.6327143,-0.08486875,-0.76335394,0.09879745,4.413945198059082,-2.4957313537597656,-3.9245247840881348,12.911253929138184,28.88228416442871, -12.84647274017334
164,683919381,0.6346517,-0.083794355,-0.7617345,0.09978221,4.28941535949707,0.7770937085151672,-2.766964912414551,12.411592483520508,16.014562606811523, -0.3605761229991913
165,683936048,0.6373348,-0.085800335,-0.7597441,0.09608166,3.504359483718872,4.975132465362549,1.7668520212173462,-24.848915100097656,26.464157104492188, -4.865833759307861
166,683952715,0.6414386,-0.091620915,-0.7563813,0.08971967,1.37970769405365,1.1514921188354492,2.925153970718384,-53.71856689453125,43.831661224365234, 3.5998427867889404
167,683969382,0.64585865,-0.09479206,-0.7523379,0.08870715,1.702767014503479,0.8315065503120422,0.6451646685600281,-13.645272254943848,43.275447845458984, 13.717698097229004
168,683986049,0.6476834,-0.09614371,-0.7507358,0.08751365,0.6560661792755127,1.0132060050964355,-4.580392360687256,-9.700413703918457,17.961963653564453, 3.5522239208221436
169,684002716,0.6443875,-0.10191036,-0.7533181,0.08301251,0.7792726159095764,-1.2577606439590454,-9.667159080505371,-52.2714729309082,-22.011428833007812, 11.979552268981934
170,684019383,0.6336727,-0.10642868,-0.761023,0.08930943,5.472385883331299,-12.818096160888672,-10.069615364074707,1.2034791707992554,-90.87635040283203, 53.924922943115234
171,684036050,0.62276,-0.10329232,-0.7686274,0.10350363,11.627745628356934,-1.4203765392303467,3.5930864810943604,75.85090637207031,-101.4360122680664, 47.80034637451172
172,684052717,0.61135036,-0.107025675,-0.77627844,0.11040037,11.727188110351562,-1.9063142538070679,-2.751495838165283,7.446454048156738,-94.5279769897461, 53.26485061645508
173,684069384,0.6022015,-0.108422205,-0.7819723,0.11881707,13.035238265991211,-2.9659266471862793,-3.4741830825805664,28.577829360961914,-77.13035583496094, 46.984046936035156
174,684086051,0.5967718,-0.10579592,-0.7848811,0.12896638,18.30589485168457,-5.398383617401123,-2.908806085586548,59.634246826171875,-50.173030853271484, 31.619312286376953
175,684102718,0.5949114,-0.10607677,-0.78572696,0.1321414,22.321969985961914,-3.2790939807891846,-1.539262056350708,14.479798316955566,-14.907371520996094, 17.063844680786133
176,684119385,0.5954388,-0.10763653,-0.78558606,0.12931277,23.946435928344727,-1.9186760187149048,-1.8426103591918945,-20.565866470336914,7.303761959075928, -1.7865785360336304
177,684136052,0.59875923,-0.10811279,-0.7840948,0.12245199,23.14503288269043,-3.7167840003967285,-1.8101234436035156,-34.64725875854492,29.658733367919922, -25.27893829345703
178,684152719,0.60533446,-0.108521275,-0.78042,0.112862855,19.793048858642578,-3.1671831607818604,-0.06320765614509583,-44.862266540527344,57.89704132080078, -37.769554138183594
179,684169386,0.6148224,-0.111666635,-0.77449685,0.0983799,16.24767303466797,-2.3212525844573975,2.010043144226074,-78.67311096191406,88.3484115600586, -43.871089935302734
180,684186053,0.6269811,-0.11501535,-0.76591295,0.08392726,9.955889701843262,-3.2019753456115723,1.8148033618927002,-75.62922668457031,113.5667953491211, -42.3100471496582
181,684202720,0.6372571,-0.11231757,-0.7585354,0.07689145,2.421689748764038,-5.2094621658325195,-3.355706214904785,-12.790708541870117,88.85807800292969, -42.094444274902344
182,684219387,0.64376396,-0.10503617,-0.7540364,0.07723104,1.0681884288787842,-5.995090961456299,-7.30400276184082,41.29774856567383,48.64835739135742, -34.17726135253906
183,684236054,0.6472512,-0.097835556,-0.7516975,0.08028073,2.8925399780273438,-3.1188666820526123,-7.688680648803711,51.69320297241211,21.941728591918945, -22.03921890258789
184,684252721,0.64932907,-0.09456322,-0.7502025,0.081400655,3.4992573261260986,-1.9573240280151367,-4.817078590393066,22.88313865661621,14.787386894226074, -10.25411319732666
185,684269388,0.6517065,-0.09351474,-0.7483928,0.08026067,3.119194984436035,2.4866724014282227,-1.0483794212341309,1.702767252922058,20.692951202392578, -8.906075477600098
186,684286055,0.65409243,-0.098584935,-0.7464095,0.07291824,2.2755656242370605,2.0234837532043457,0.12717773020267487,-57.51215362548828,28.899917602539062, -4.939942836761475
187,684302722,0.6555877,-0.10374113,-0.74472237,0.06950799,0.9727436900138855,-2.349017858505249,-1.1936509609222412,-38.47313690185547,20.328157424926758, 13.55775260925293
188,684319389,0.6546677,-0.104521215,-0.7451492,0.072377436,0.2198096215724945,-2.3520588874816895,-2.2960758209228516,10.668317794799805,-8.084510803222656, 18.972314834594727
189,684336056,0.64952236,-0.10451679,-0.74921864,0.07660601,0.831678032875061,0.8802222013473511,-3.25287127494812,16.33409881591797,-47.36804962158203, 20.415124893188477
190,684352723,0.640515,-0.11215291,-0.7559628,0.075382695,2.647700309753418,-2.671259641647339,-1.5505824089050293,-49.99245071411133,-71.10710906982422, 35.58279800415039
191,684369390,0.62887466,-0.11386697,-0.76421595,0.08674948,7.8545241355896,-6.195539474487305,-10.060068130493164,38.74470901489258,-104.16746520996094, 60.325965881347656
192,684386057,0.6154875,-0.11212552,-0.7738583,0.098724194,12.454523086547852,-1.2652302980422974,-1.5294660329818726,54.79201889038086,-121.43534088134766, 44.50975036621094
193,684402724,0.6032912,-0.11259952,-0.7821297,0.107863136,10.127460479736328,-2.3155477046966553,-2.842169761657715,32.21944046020508,-105.6730728149414, 44.642032623291016
194,684419391,0.5942835,-0.11316277,-0.7877426,0.11611663,16.20659828186035,-2.9588382244110107,-1.7844310998916626,31.5697078704834,-76.73692321777344, 41.16106033325195
195,684436058,0.589277,-0.11126694,-0.79054546,0.12413791,19.05586814880371,-4.666586399078369,-4.168603897094727,45.72509765625,-45.50785446166992, 25.986797332763672
196,684452725,0.5884395,-0.11186934,-0.7907007,0.12655722,22.49032974243164,-4.693132400512695,-1.8834993839263916,10.612398147583008,-5.779820442199707, 15.420639038085938
197,684469392,0.5900291,-0.113505706,-0.78986454,0.122868076,24.350996017456055,-2.5618655681610107,-1.699286699295044,-24.086950302124023,16.76740074157715, -4.861318588256836
198,684486059,0.5950594,-0.11483083,-0.78708035,0.114990495,22.608949661254883,-3.015061855316162,-1.6804358959197998,-41.264190673828125,46.06205368041992, -24.631412506103516
199,684502726,0.6034493,-0.11593602,-0.7819265,0.10487586,19.412561416625977,-2.600367307662964,-0.215167835354805,-47.99021530151367,75.26258850097656, -35.52968215942383
200,684519393,0.6155043,-0.11939501,-0.773661,0.09136737,15.114007949829102,-1.8782055377960205,1.942970633506775,-70.91763305664062,111.9959487915039, -36.94721984863281
201,684536060,0.6281563,-0.12246454,-0.7643128,0.07904648,6.3339619636535645,-3.2565555572509766,-1.6004283428192139,-61.88981246948242,118.21149444580078, -33.36689758300781
202,684552727,0.6365141,-0.12033449,-0.75835836,0.07254191,1.7006022930145264,-6.57067346572876,-5.082919120788574,-14.383673667907715,73.26033020019531, -36.190486907958984
203,684569394,0.6413483,-0.11345535,-0.7552351,0.073623836,2.1763598918914795,-5.5454792976379395,-7.229743003845215,41.61411666870117,34.11020278930664, -28.66033172607422
204,684586061,0.64274216,-0.1064939,-0.75470364,0.07722806,2.8328044414520264,-4.097452163696289,-7.242847919464111,51.11186218261719,3.1807658672332764, -18.508853912353516
205,684602728,0.6409481,-0.10142914,-0.7565394,0.08090719,2.857241153717041,-0.371631383895874,-7.4636549949646,39.5792236328125,-22.50881576538086, -8.561659812927246
206,684619395,0.6378741,-0.098622985,-0.7593274,0.08253701,1.7178339958190918,1.1333436965942383,-2.250168561935425,17.627195358276367,-30.316675186157227, -5.795271396636963
207,684636062,0.6347946,-0.097141296,-0.7618613,0.08465711,0.825118899345398,-1.1250221729278564,-0.7634954452514648,14.557586669921875,-28.71397590637207, 3.506000518798828
208,684652729,0.6326271,-0.09219638,-0.7632331,0.09358456,0.7730889916419983,-2.5902929306030273,0.4656321704387665,66.62297821044922,-25.39138412475586, 15.252565383911133
209,684669396,0.6301865,-0.08510615,-0.7646696,0.1044149,0.9929457306861877,0.6438582539558411,-1.3589307069778442,85.7069091796875,-29.7088680267334, 12.26038646697998
210,684686063,0.6269426,-0.08428124,-0.7671271,0.10656375,1.799972653388977,4.416167259216309,1.2609169483184814,11.740436553955078,-28.714487075805664, 7.586208343505859
211,684702730,0.6215407,-0.095280215,-0.77097297,0.101042725,2.565962553024292,-9.565943717956543,-10.961825370788574,-81.91638946533203,-33.07717514038086, 37.89691925048828
212,684719397,0.61056465,-0.09675029,-0.77840215,0.10927265,12.93367862701416,-3.055565118789673,-7.1698222160339355,25.62027931213379,-93.07821655273438, 47.23703384399414
213,684736064,0.60191315,-0.0979507,-0.7842001,0.11461508,13.069365501403809,-1.514976143836975,1.2759456634521484,14.154878616333008,-71.8838882446289, 33.024566650390625
214,684752731,0.5957534,-0.09816289,-0.787662,0.122600056,16.89292335510254,-1.116020679473877,-0.022250637412071228,35.99989318847656,-51.57450866699219, 38.3397102355957
215,684769398,0.5923134,-0.09906424,-0.78940976,0.12721424,22.516098022460938,-2.8123891353607178,-0.9569870233535767,18.205232620239258,-27.19390869140625, 27.31493377685547
216,684786065,0.591602,-0.098810256,-0.7894765,0.1302717,21.595611572265625,-4.402154445648193,-0.4871715307235718,17.77495574951172,-5.752609729766846, 13.672295570373535
217,684802732,0.5927696,-0.10107953,-0.78893554,0.12644416,23.061750411987305,-4.003253936767578,-0.19905385375022888,-28.08936309814453,13.578268051147461, -1.7760419845581055
218,684819399,0.5969199,-0.103955306,-0.7867874,0.11766721,21.281635284423828,-3.6459410190582275,-0.8293532729148865,-53.99760437011719,39.95426940917969, -19.963422775268555
219,684836066,0.6045966,-0.10550799,-0.7822782,0.10663993,17.331735610961914,-3.5892491340637207,-1.1241258382797241,-56.367801666259766,68.99457550048828, -37.37662124633789
220,684852733,0.6160078,-0.10368446,-0.77495015,0.09610664,12.250459671020508,-3.648606777191162,-0.043929845094680786,-34.962886810302734,97.7837142944336, -54.10409927368164
221,684869400,0.62903494,-0.10139391,-0.7656824,0.0881199,6.836916923522949,-4.93792200088501,-1.8527626991271973,-17.06269645690918,112.34223175048828, -45.509124755859375
222,684886067,0.639362,-0.09773459,-0.75803727,0.08392676,3.313561201095581,-5.932034969329834,-5.0891313552856445,5.902102470397949,87.65729522705078, -35.959228515625
223,684902734,0.64535654,-0.09339316,-0.75356317,0.08327855,3.651155471801758,-4.44224214553833,-6.321070194244385,22.62236976623535,48.58458709716797, -23.809877395629883
224,684919401,0.6482944,-0.092442185,-0.7513534,0.08146934,3.0004169940948486,-2.0161712169647217,-6.046170711517334,-1.6723600625991821,25.66408920288086, -11.274625778198242
225,684936068,0.64954686,-0.093793005,-0.750343,0.0792304,2.8818469047546387,0.7893936038017273,-4.449702739715576,-15.853656768798828,13.43445110321045, -1.1875985860824585
226,684952735,0.65035164,-0.09638846,-0.7496783,0.07572805,1.5506665706634521,1.8907372951507568,-1.5087121725082397,-28.363649368286133,11.252226829528809, -0.3274594247341156
227,684969402,0.65046966,-0.09936177,-0.74942297,0.07336169,0.23213113844394684,-1.4218206405639648,-1.0619854927062988,-24.844343185424805,5.372565746307373, 6.880708694458008
228,684986069,0.64991266,-0.09689048,-0.7498649,0.076997705,0.8130658864974976,-0.8657073974609375,-2.390246629714966,29.62152671813965,-8.025971412658691, 5.457592487335205
229,685002736,0.6475862,-0.0935294,-0.7519824,0.080043174,0.7128475308418274,1.7495185136795044,-4.1741814613342285,28.50895118713379,-24.604103088378906, -1.996788740158081
230,685019403,0.6429232,-0.09502036,-0.7558723,0.07923558,1.6127439737319946,-0.04605460911989212,-0.4584346413612366,-15.432955741882324,-39.24762725830078, 6.151697635650635
231,685036070,0.6337618,-0.09671865,-0.76267976,0.08550548,5.274784564971924,-8.394163131713867,-11.428836822509766,15.92900562286377,-80.03418731689453, 39.05670928955078
232,685052737,0.62028253,-0.09375169,-0.7727487,0.09653969,12.327499389648438,1.6298580169677734,-0.6970651149749756,56.5410041809082,-122.33556365966797, 35.37372970581055
233,685069404,0.6097318,-0.09578647,-0.7799951,0.10324636,13.30251407623291,0.2603359818458557,0.6056756377220154,16.033700942993164,-88.71744537353516, 43.555824279785156
234,685086071,0.6004565,-0.097867616,-0.78592026,0.11046885,15.68907642364502,-0.34655866026878357,-0.536655068397522,20.41122055053711,-76.8241195678711, 46.08416748046875
235,685102738,0.59422684,-0.09840182,-0.78952384,0.11774467,18.62718963623047,-5.333894729614258,-1.734899878501892,30.927431106567383,-52.155967712402344, 37.358394622802734
236,685119405,0.59158105,-0.10026733,-0.7906214,0.12205102,20.639062881469727,-5.015570163726807,-1.1888984441757202,13.796721458435059,-19.53175163269043, 31.25210189819336
237,685136072,0.59144014,-0.10518979,-0.7905243,0.11918508,21.93132209777832,-6.08821439743042,-0.5366002917289734,-34.937591552734375,6.234478950500488, 17.482948303222656
238,685152739,0.59431607,-0.10866765,-0.78890103,0.11231723,21.50144386291504,-5.016172409057617,-1.777848243713379,-47.457157135009766,30.277204513549805, -7.966754913330078
239,685169406,0.6007017,-0.10979576,-0.78510743,0.103483625,18.48358154296875,-4.48883056640625,-1.8997743129730225,-44.274959564208984,57.62767791748047, -29.754947662353516
240,685186073,0.6104315,-0.10934426,-0.7790151,0.09248207,15.194238662719727,-3.3881824016571045,-1.1050183773040771,-45.34965515136719,85.53278350830078, -47.833099365234375
241,685202740,0.6229337,-0.10819454,-0.7705287,0.08082933,10.411297798156738,-3.410884380340576,0.19697493314743042,-42.359989166259766,110.3437271118164, -54.234413146972656
242,685219407,0.63626826,-0.10546473,-0.7606912,0.073409304,5.5339884757995605,-3.6312644481658936,-1.487541675567627,-11.871461868286133,116.39730072021484, -43.971168518066406
243,685236074,0.6464369,-0.10115361,-0.7529362,0.07052899,2.8119149208068848,-3.9667999744415283,-4.553927421569824,15.396778106689453,86.66163635253906, -32.39945602416992
244,685252741,0.6520306,-0.09558974,-0.74868566,0.07203266,3.645663022994995,-2.5697553157806396,-5.545219421386719,38.77766799926758,43.93511199951172, -19.768312454223633
245,685269408,0.654211,-0.09202392,-0.7470858,0.07350175,3.9214565753936768,0.18665137887001038,-5.871610164642334,26.114681243896484,15.72304630279541, -9.77306079864502
246,685286075,0.6539052,-0.091338314,-0.74737066,0.074179485,3.4806511402130127,-1.1248464584350586,-6.133047103881836,6.623348712921143,-3.333839178085327, 1.560806155204773
247,685302742,0.65332,-0.09000303,-0.74787486,0.07586634,2.0235681533813477,2.3781120777130127,-0.3825506865978241,14.494820594787598,-6.478724956512451, 2.736712694168091
248,685319409,0.65239626,-0.09042106,-0.7486143,0.07602558,0.6640012860298157,-0.4351177513599396,0.13583528995513916,-1.5495173931121826,-7.414762020111084, 5.0274858474731445
249,685336076,0.65024203,-0.090109356,-0.75030607,0.0781441,0.6114338040351868,-0.13100624084472656,-1.9516167640686035,10.545442581176758,-19.631418228149414, 10.083375930786133
250,685352743,0.64547443,-0.09071332,-0.7542418,0.07907804,0.6456425786018372,0.2721804976463318,-2.6497843265533447,-2.4563889503479004,-41.84495162963867, 9.508743286132812
251,685369410,0.63831383,-0.09279279,-0.75993466,0.080276206,1.7475749254226685,-2.372607707977295,-4.224196910858154,-10.038213729858398,-61.31785202026367, 18.53858757019043
252,685386077,0.62615806,-0.092294015,-0.7688591,0.09090431,5.976051330566406,-7.00167179107666,-10.928021430969238,45.63218688964844,-108.88502502441406, 47.04524230957031
253,685402744,0.61304444,-0.089422524,-0.7783061,0.102077514,13.41949462890625,0.24708348512649536,-0.5447925329208374,57.886878967285156,-117.6318588256836, 36.85398864746094
254,685419411,0.603315,-0.09132158,-0.78455305,0.1102184,11.124844551086426,-4.7266106605529785,0.7877880930900574,25.916316986083984,-80.92565155029297, 49.318809509277344
255,685436078,0.5964169,-0.09142476,-0.78837466,0.11997456,19.305709838867188,-4.668513298034668,-0.15304845571517944,45.65850830078125,-58.11948013305664, 45.62512969970703
256,685452745,0.59243196,-0.092279285,-0.7904991,0.12498104,22.620826721191406,-5.208244323730469,-1.246841311454773,20.026939392089844,-31.969858169555664, 28.918960571289062
257,685469412,0.5915484,-0.09392662,-0.79090214,0.12538823,24.354141235351562,-2.033235788345337,-0.8720678687095642,-4.791524887084961,-4.712574005126953, 12.99502944946289
258,685486079,0.5931244,-0.09650066,-0.790205,0.120281026,25.07621192932129,-1.4403544664382935,-1.3663870096206665,-36.02592849731445,17.24338150024414, -5.578286170959473
259,685502746,0.59840864,-0.098223366,-0.7872247,0.11196744,21.775354385375977,-3.255326986312866,-1.2639341354370117,-45.63493347167969,47.87887191772461, -24.58070945739746
260,685519413,0.6082058,-0.09903514,-0.7811226,0.10062411,17.33279037475586,-2.915942907333374,-0.643471360206604,-52.88906478881836,86.29150390625, -43.213687896728516
261,685536080,0.62166584,-0.10093471,-0.77181524,0.08743692,10.760897636413574,-3.213111162185669,-0.952879786491394,-62.7119026184082,121.2113265991211, -45.360382080078125
262,685552747,0.6349324,-0.10065801,-0.76211107,0.076912455,4.41349458694458,-4.380997657775879,-3.7110776901245117,-39.214317321777344,118.64116668701172, -45.16765594482422
263,685569414,0.6446674,-0.097355895,-0.7548219,0.07190192,3.3798346519470215,-5.7399773597717285,-5.714816093444824,-0.8749430775642395,84.28706359863281, -36.89180374145508
264,685586081,0.6512814,-0.092765786,-0.74982166,0.07067331,4.357412338256836,-3.523892641067505,-5.409496307373047,21.22486686706543,54.98808670043945, -27.003740310668945
265,685602748,0.6554131,-0.09213515,-0.7465597,0.06777701,3.580610990524292,-2.26294207572937,-5.262279510498047,-7.507689476013184,37.58360290527344, -14.070417404174805
266,685619415,0.65825766,-0.091682196,-0.7441424,0.06740484,3.0312674045562744,-1.780827522277832,-3.879206895828247,3.4645416736602783,25.841012954711914, -1.786067008972168
267,685636082,0.6610566,-0.091052935,-0.74175674,0.06716097,1.2264790534973145,0.8853607177734375,-0.7595197558403015,4.896909713745117,25.436330795288086, -2.1593220233917236
268,685652749,0.6638609,-0.09234646,-0.7392206,0.0656798,0.18804359436035156,-0.514180600643158,-0.18362517654895782,-10.074708938598633,27.829938888549805, 2.149686813354492
269,685669416,0.6659768,-0.093557775,-0.7371896,0.06537198,0.07034358382225037,-0.588257372379303,-1.3262821435928345,-4.408581256866455,21.244768142700195, 7.049158573150635
270,685686083,0.6654827,-0.095489405,-0.73748404,0.06428072,0.002128571504727006,-0.2786587178707123,-3.7769455909729004,-14.39465618133545,-1.7590049505233765, 6.7579874992370605
271,685702750,0.6610446,-0.09951273,-0.7409809,0.06375477,0.5588744878768921,-0.5364717841148376,-3.979515314102173,-25.06423568725586,-35.721290588378906, 19.57103157043457
272,685719417,0.6504279,-0.10741341,-0.74918956,0.06419592,3.684844493865967,-6.653487205505371,-8.292562484741211,-44.00057601928711,-87.44584655761719, 43.18056869506836
273,685736084,0.6346179,-0.10924357,-0.7614909,0.07387812,10.14629077911377,-2.8488833904266357,-5.812536716461182,25.179590225219727,-141.73033142089844, 52.27447509765625
274,685752751,0.6221871,-0.10802468,-0.7706892,0.08515917,14.200433731079102,1.1480858325958252,2.080651044845581,51.0390625,-113.10348510742188, 43.85769271850586
275,685769418,0.6115883,-0.10871406,-0.7776973,0.09658147,13.61086654663086,-3.2331202030181885,0.3068755865097046,46.28095626831055,-93.20511627197266, 55.281394958496094
276,685786085,0.60429794,-0.10853267,-0.782057,0.106918864,18.608922958374023,-5.749984264373779,-0.16189537942409515,48.35911560058594,-64.27645874023438, 45.84642791748047
277,685802752,0.60023975,-0.10812916,-0.78420305,0.11421833,19.822925567626953,-4.402614593505859,-1.4891579151153564,36.94058609008789,-35.762420654296875, 31.2899169921875
278,685819419,0.5991631,-0.10977029,-0.784734,0.11465905,23.24806785583496,-3.063014030456543,-0.12352427840232849,-5.017557144165039,-6.456889629364014, 12.931355476379395
279,685836086,0.6007926,-0.11105124,-0.7839209,0.110381275,24.206418991088867,-2.559683084487915,-0.7613053917884827,-25.926034927368164,16.73019027709961, -9.409844398498535
280,685852753,0.6057875,-0.11044076,-0.7810606,0.10377248,21.420255661010742,-3.743248224258423,-0.9619561433792114,-26.58350372314453,43.45634078979492, -30.04075050354004
281,685869420,0.61516416,-0.10802669,-0.77510434,0.095481336,17.13724708557129,-3.257061719894409,0.23953616619110107,-22.61747169494629,79.70330810546875, -47.408233642578125
282,685886087,0.62717646,-0.10472448,-0.76681316,0.08763777,9.798805236816406,-3.6806156635284424,-1.019751787185669,-13.0474853515625,102.55381774902344, -50.185829162597656
283,685902754,0.6387479,-0.09814338,-0.7585154,0.08380582,4.223260402679443,-4.916126251220703,-3.5151586532592773,21.88443946838379,95.36030578613281, -49.944175720214844
284,685919421,0.647109,-0.0907596,-0.75231045,0.08391643,3.4762141704559326,-4.7734055519104,-5.383719444274902,42.58002853393555,66.41402435302734, -36.5172233581543
285,685936088,0.652486,-0.085989326,-0.74816984,0.08432022,4.9694671630859375,-1.7506215572357178,-5.605068206787109,29.42215347290039,43.30303955078125, -21.405132293701172
286,685952755,0.65567666,-0.087387316,-0.7456761,0.08011749,4.168603420257568,-0.7411017417907715,-4.817874908447266,-24.154338836669922,31.141172409057617, -10.074584007263184
287,685969422,0.6578787,-0.0901995,-0.7439347,0.07497204,3.4514355659484863,2.1406776905059814,-2.893242359161377,-36.33417892456055,24.16748046875, -6.979969501495361
288,685986089,0.6598904,-0.09309287,-0.7423113,0.06965958,1.3538870811462402,0.8637067675590515,0.12283079326152802,-37.701053619384766,22.87905502319336, -7.198858261108398
289,686002756,0.66132367,-0.09387648,-0.7410938,0.06795862,-0.12499690055847168,-0.40885305404663086,1.3351118564605713,-10.264467239379883,14.743627548217773, -1.5319485664367676
290,686019423,0.6605839,-0.092595145,-0.7417217,0.07002996,0.054839689284563065,-0.5652197599411011,-2.097696304321289,16.063940048217773,-8.16599178314209, 4.895636558532715
291,686036090,0.65566653,-0.09084641,-0.74601656,0.07285463,0.30354562401771545,-0.1478627324104309,-5.0155439376831055,17.627527236938477,-46.75479507446289, 5.577374458312988
292,686052757,0.64688313,-0.09301291,-0.75329727,0.073716,2.3716182708740234,-0.9676553010940552,-2.55377459526062,-13.939433097839355,-76.69149780273438, 16.861427307128906
293,686069424,0.63355887,-0.09688633,-0.7633616,0.08059384,6.784751892089844,-9.354406356811523,-8.89556884765625,5.359424114227295,-115.51090240478516, 52.95228958129883
294,686086091,0.6190451,-0.094747484,-0.77409494,0.09264609,14.934662818908691,0.7788295745849609,-0.8554697036743164,57.596553802490234,-131.1958770751953, 43.864295959472656
295,686102758,0.6076982,-0.09820468,-0.7815925,0.1008574,11.634190559387207,-1.5366616249084473,-0.4963008761405945,17.495752334594727,-94.57992553710938, 57.522220611572266
296,686119425,0.59878093,-0.099745445,-0.78713554,0.10922445,17.34086799621582,-3.264465570449829,-1.3224263191223145,29.353076934814453,-74.87623596191406, 47.5448112487793
297,686136092,0.59335196,-0.100055955,-0.7902833,0.11564918,19.857852935791016,-7.148024082183838,-3.119856834411621,28.093284606933594,-45.8400993347168, 31.959959030151367
298,686152759,0.5920087,-0.100293025,-0.7908767,0.11824316,21.235910415649414,-5.666815280914307,-1.7003871202468872,12.384265899658203,-10.726705551147461, 14.405495643615723
299,686169426,0.59349734,-0.102284975,-0.79007894,0.11434191,23.475543975830078,-3.8612513542175293,-1.165738821029663,-27.042524337768555,16.092124938964844, -3.79498291015625
300,686186093,0.5985874,-0.10321112,-0.7871418,0.106997855,22.38663673400879,-4.918720245361328,-1.1336467266082764,-37.219993591308594,45.779693603515625, -24.843294143676758
301,686202760,0.6073465,-0.10254986,-0.7816947,0.097813845,18.18756675720215,-3.8012421131134033,-0.2233297973871231,-36.254127502441406,75.93370819091797, -41.860008239746094
302,686219427,0.6190471,-0.10073231,-0.7740021,0.086916976,12.787715911865234,-2.616267681121826,0.4554677903652191,-37.10878372192383,101.40013122558594, -55.57691955566406
303,686236094,0.632046,-0.09838051,-0.7647285,0.077651374,6.9148712158203125,-3.4797203540802,-0.1144251674413681,-24.354473114013672,113.4725341796875, -51.13816833496094
304,686252761,0.6438673,-0.0949652,-0.7557146,0.07288525,3.5339016914367676,-4.1010847091674805,-3.1752614974975586,2.848385810852051,102.517578125, -36.773170471191406
305,686269428,0.65106136,-0.09125847,-0.75011325,0.07156373,3.400386095046997,-2.9301235675811768,-6.0804901123046875,17.42696189880371,61.03636932373047, -23.075592041015625
306,686286095,0.6543269,-0.08897006,-0.7475753,0.071216576,3.5539488792419434,-0.8784911632537842,-6.834889888763428,12.099579811096191,27.34450340270996, -11.457191467285156
307,686302762,0.65565795,-0.090299875,-0.7463732,0.06989818,4.574969291687012,-0.2340581715106964,-5.168862342834473,-10.943153381347656,13.95957088470459, 2.889749526977539
308,686319429,0.65733165,-0.09103746,-0.7449131,0.06878957,2.8051578998565674,2.953221559524536,0.056231822818517685,-6.809848308563232,16.606426239013672, 0.8092533349990845
309,686336096,0.65980077,-0.0940981,-0.7426763,0.06511991,0.056685395538806915,0.5398452281951904,1.8509035110473633,-29.55449104309082,26.872270584106445, 1.3489325046539307
310,686352763,0.6619717,-0.09520056,-0.74067366,0.06428982,-0.8366925716400146,-0.44983533024787903,0.09351600706577301,-6.4889631271362305,21.50969123840332, 4.221985340118408
311,686369430,0.6614045,-0.09446791,-0.7412403,0.064675085,0.04289707913994789,0.8464248180389404,-3.967503070831299,5.117002487182617,-5.7341084480285645, -0.09289727360010147
312,686386097,0.6557959,-0.096659414,-0.74610806,0.06254356,1.2029809951782227,0.3386482000350952,-6.842734336853027,-26.143056869506836,-47.931495666503906, 2.827908515930176
313,686402764,0.64496136,-0.10241866,-0.7546488,0.06356539,3.081184148788452,-9.04450798034668,-7.021114349365234,-31.018461227416992,-91.6697998046875, 35.16008377075195
314,686419431,0.6289114,-0.099318996,-0.7670154,0.07933295,10.410846710205078,-3.8446710109710693,-6.258671283721924,79.47225952148438,-149.7657470703125, 53.892459869384766
315,686436098,0.6155767,-0.09564921,-0.776675,0.09323482,12.922557830810547,1.3380640745162964,-0.7495737671852112,75.48473358154297,-122.6432876586914, 43.1087760925293
316,686452765,0.60391545,-0.09604767,-0.78436714,0.10406366,12.296358108520508,-2.717444896697998,-1.5569630861282349,44.25300598144531,-100.815185546875, 52.16215896606445
317,686469432,0.5958036,-0.096936695,-0.78932405,0.11220124,19.004953384399414,-5.747252464294434,-1.1939042806625366,32.00947952270508,-68.23762512207031, 42.90134048461914
318,686486099,0.5914937,-0.09772332,-0.79168737,0.11754416,21.19331932067871,-4.942549228668213,-2.3535542488098145,21.75761604309082,-35.31888961791992, 29.683101654052734
319,686502766,0.59053266,-0.100414135,-0.79210687,0.117282026,22.46337890625,-3.469590663909912,-1.3345885276794434,-12.700562477111816,-3.9960479736328125, 15.900533676147461
320,686519433,0.59266263,-0.10330139,-0.79080206,0.112746954,23.09857177734375,-3.686155319213867,-1.714766263961792,-33.261619567871094,22.782697677612305, -1.5743064880371094
321,686536100,0.59827566,-0.104633175,-0.7873761,0.10562714,19.5456600189209,-4.744389533996582,-1.9681246280670166,-36.91169738769531,50.8433952331543, -21.64537239074707
322,686552767,0.6078351,-0.10360748,-0.78133965,0.09649078,15.435539245605469,-4.659658908843994,-2.4935812950134277,-33.43963623046875,82.5759048461914, -43.65341567993164
323,686569434,0.6203768,-0.100175746,-0.7730398,0.086643234,10.093753814697266,-4.111673355102539,-2.284446954727173,-23.604419708251953,106.91549682617188, -59.92500686645508
324,686586101,0.63452387,-0.096016794,-0.7628719,0.07865655,6.072385787963867,-4.427094459533691,-2.2475080490112305,-8.478827476501465,121.70867156982422, -55.55458450317383
325,686602768,0.6477267,-0.09262566,-0.75266224,0.07328261,3.81069278717041,-4.0654683113098145,-3.5314953327178955,1.2627278566360474,115.65471649169922, -39.67914962768555
326,686619435,0.6566692,-0.09084861,-0.74541074,0.069964156,3.9895544052124023,-2.826616048812866,-5.167097091674805,0.5358242392539978,80.01350402832031, -22.008054733276367
327,686636102,0.6614851,-0.0904073,-0.74139374,0.06781983,4.370009899139404,-1.0368213653564453,-5.604084014892578,-3.6230580806732178,44.308048248291016, -9.952810287475586
328,686652769,0.66332746,-0.091168575,-0.73967546,0.06756702,4.647110939025879,-2.258876323699951,-4.568218231201172,-2.31512188911438,18.223003387451172, 4.730216979980469
329,686669436,0.664459,-0.08872821,-0.7385774,0.07158899,2.595472812652588,1.935617446899414,1.0889077186584473,33.32359313964844,7.726456165313721, 7.843212127685547
330,686686103,0.6642523,-0.090767704,-0.73842794,0.072486944,-0.035280678421258926,0.14995799958705902,-0.825638473033905,-4.293435573577881,0.6660524606704712, 16.465490341186523
331,686702770,0.6616439,-0.09170438,-0.7404177,0.074829295,0.2632623016834259,0.163570836186409,-3.1478586196899414,5.520846366882324,-22.728801727294922, 17.321624755859375
332,686719437,0.6557716,-0.09401916,-0.7453583,0.07459886,0.8787949085235596,2.1052379608154297,-3.9571378231048584,-17.381650924682617,-50.35619354248047, 12.449265480041504
333,686736104,0.64687467,-0.10009901,-0.7526254,0.07133338,1.9518561363220215,-0.27010199427604675,-2.7921741008758545,-53.00087356567383,-72.36040496826172, 18.164913177490234
334,686752771,0.6355663,-0.103530504,-0.7612758,0.076132715,6.92332649230957,-7.449039936065674,-3.869718551635742,-1.7781420946121216,-97.78778076171875, 40.55352783203125
335,686769438,0.6216026,-0.10038279,-0.77168936,0.089605704,8.907723426818848,-1.9774000644683838,-6.374866485595703,69.566162109375,-128.94595336914062, 43.97507095336914
336,686786105,0.60985285,-0.10209718,-0.77971596,0.09848374,9.893404960632324,-1.3806357383728027,1.6881462335586548,27.475337982177734,-100.713623046875, 50.39598846435547
337,686802772,0.60119146,-0.10397152,-0.78486556,0.108373955,14.547335624694824,-4.5431389808654785,-0.5421485900878906,36.323272705078125,-72.81034851074219, 55.44766616821289
338,686819439,0.5950501,-0.10566776,-0.7884325,0.11456001,21.34337043762207,-5.491072654724121,-0.6523709297180176,20.023773193359375,-50.24785232543945, 38.41303253173828
339,686836106,0.59233505,-0.10593634,-0.78990984,0.11814945,22.91010856628418,-4.436694145202637,-1.7770565748214722,15.87793254852295,-22.50732421875, 18.90174102783203
340,686852773,0.592695,-0.10717186,-0.7896608,0.11688794,25.07315444946289,-2.5056254863739014,-0.6887897253036499,-10.791711807250977,5.411434650421143, 3.2387468814849854
341,686869440,0.59596986,-0.10941434,-0.7877641,0.110798575,24.27603530883789,-3.1506924629211426,-0.8971620798110962,-37.665863037109375,32.14045715332031, -11.942834854125977
342,686886107,0.60254884,-0.11187714,-0.78364915,0.101550914,19.592273712158203,-3.4631881713867188,-0.330452561378479,-51.54770278930664,61.50611877441406, -24.41297721862793
343,686902774,0.6125264,-0.11281342,-0.77717966,0.08986984,15.15498161315918,-2.814751386642456,0.3211647868156433,-54.13268280029297,90.24105834960938, -43.2137451171875
344,686919441,0.6245208,-0.113115616,-0.7688039,0.07822848,8.661863327026367,-4.09799861907959,0.3953952193260193,-48.54453659057617,108.50484466552734, -46.16864013671875
345,686936108,0.6362039,-0.10986668,-0.7602355,0.07222155,2.7372360229492188,-6.266129493713379,-3.8571362495422363,-3.7567086219787598,101.34102630615234, -40.471431732177734
346,686952775,0.6442497,-0.102802575,-0.7543807,0.072689354,2.580254554748535,-6.094740390777588,-7.7521796226501465,42.7341423034668,63.752357482910156, -32.494781494140625
347,686969442,0.6497465,-0.09551481,-0.75045747,0.07429741,3.163764238357544,-1.0842068195343018,-5.963893413543701,46.87035369873047,41.263790130615234, -28.8378963470459
348,686986109,0.6550748,-0.09458263,-0.7462842,0.070648365,4.0248308181762695,3.0346763134002686,-1.7435929775238037,-8.609920501708984,48.36048126220703, -19.290315628051758
349,687002776,0.6610291,-0.097273014,-0.74127,0.06401116,3.1401867866516113,3.131849527359009,0.05471433699131012,-39.39297103881836,59.08407211303711, -13.821060180664062
350,687019443,0.6670755,-0.10024858,-0.73589706,0.05844851,0.8954554200172424,-0.12044552713632584,0.7624971270561218,-34.97993469238281,60.56863784790039, -7.189365863800049
351,687036110,0.671624,-0.100778736,-0.73174,0.05763328,-0.11913932859897614,-0.791157066822052,-1.2013417482376099,-1.2916055917739868,43.13390350341797, 1.972171425819397
352,687052777,0.67192495,-0.098377496,-0.73160946,0.059887115,-0.20033375918865204,-0.3102816343307495,-7.156253337860107,23.15328025817871,-0.08363841474056244, 0.2604944407939911
353,687069444,0.6657538,-0.098539524,-0.73723257,0.05958246,0.17579248547554016,1.0086421966552734,-8.736109733581543,-8.233628273010254,-56.25045394897461, 0.08814069628715515
354,687086111,0.65372795,-0.103070624,-0.74742556,0.058063008,2.7695119380950928,-4.19297456741333,-3.594644069671631,-40.112701416015625,-104.02606201171875, 15.989063262939453
355,687102778,0.64032567,-0.09968328,-0.7580525,0.07350327,9.054058074951172,-8.914556503295898,-1.0115587711334229,81.5022201538086,-128.15525817871094, 51.659908294677734
356,687119445,0.6256612,-0.09357457,-0.76924247,0.089766495,14.969594955444336,-1.558119535446167,-2.3791143894195557,96.6013412475586,-139.16473388671875, 41.15223693847656
357,687136112,0.61327475,-0.09735229,-0.77778274,0.09731864,13.11676025390625,-2.1664180755615234,0.6843907237052917,11.138678550720215,-104.02531433105469, 56.29657745361328
358,687152779,0.60346085,-0.099460855,-0.7841446,0.10516679,17.135501861572266,-3.339085578918457,-0.8906385898590088,22.949384689331055,-82.49832153320312, 48.37217712402344
359,687169446,0.59682655,-0.100304455,-0.7882209,0.111557215,22.12027931213379,-4.381940841674805,-2.8683953285217285,24.10152244567871,-55.86661911010742, 34.81017303466797
360,687186113,0.59415865,-0.1004538,-0.78987765,0.11392064,21.616884231567383,-4.564638614654541,-3.102893352508545,9.711984634399414,-22.277667999267578, 13.201288223266602
361,687202780,0.59532183,-0.10236195,-0.78924406,0.110489026,21.405935287475586,-5.057962894439697,-2.4535117149353027,-24.57788848876953,13.201993942260742, -2.271596670150757
362,687219447,0.6006397,-0.103587694,-0.7860418,0.10315065,19.110597610473633,-5.581367015838623,-2.8642258644104004,-38.095462799072266,48.388282775878906, -23.282772064208984
363,687236114,0.6100077,-0.10242594,-0.7800893,0.09412943,15.459156036376953,-4.8504157066345215,-3.103992462158203,-32.56131362915039,81.08466339111328, -44.034263610839844
364,687252781,0.62257665,-0.09969274,-0.77165914,0.08367796,11.95711898803711,-4.120852470397949,-2.216454029083252,-29.782682418823242,108.60566711425781, -58.80304718017578
365,687269448,0.6373438,-0.09496824,-0.7611112,0.07405426,7.694546699523926,-3.6713829040527344,-1.8179562091827393,-13.764158248901367,127.53288269042969, -65.72357177734375
366,687286115,0.65257037,-0.08864469,-0.7494521,0.06793846,5.09811544418335,-2.9708993434906006,-2.2100989818573,7.860584735870361,132.48255920410156, -57.702667236328125
367,687302782,0.66464394,-0.085364416,-0.73950136,0.06402595,4.414768695831299,-2.1344542503356934,-4.408421039581299,8.482799530029297,107.75962829589844, -32.37267303466797
368,687319449,0.6719213,-0.085568026,-0.7331347,0.060939807,4.57783842086792,-0.5522750616073608,-6.815894603729248,-9.107160568237305,68.36131286621094, -10.778815269470215
369,687336116,0.6740061,-0.08807817,-0.7310253,0.059666988,4.202597618103027,-1.8089731931686401,-7.797341823577881,-15.406673431396484,22.566539764404297, 8.903083801269531
370,687352783,0.6722748,-0.08821626,-0.7322858,0.06342026,2.96982741355896,-0.40219759941101074,-4.159542083740234,17.209415435791016,-16.07375144958496, 19.76953887939453
371,687369450,0.6687707,-0.088102855,-0.7352515,0.06624929,-0.4358835816383362,1.1651185750961304,0.3608381450176239,11.938950538635254,-32.342655181884766, 13.967371940612793
372,687386117,0.6643135,-0.08744666,-0.7391069,0.06900572,-0.4140128791332245,1.172614574432373,-1.8626735210418701,13.09012222290039,-41.4672966003418, 10.800779342651367
373,687402784,0.658046,-0.08834312,-0.74460626,0.06879356,1.2444088459014893,2.2041172981262207,-3.0120062828063965,-10.925041198730469,-55.615997314453125, 5.018359661102295
374,687419451,0.65039086,-0.091030754,-0.75116193,0.06679169,1.2527258396148682,1.7895177602767944,-2.799976348876953,-29.47596549987793,-65.5114974975586, 6.153954029083252
375,687436118,0.6418638,-0.093122356,-0.7581029,0.06796641,2.1900794506073,-1.9703668355941772,-1.3222321271896362,-11.091757774353027,-73.9497299194336, 17.47814178466797
376,687452785,0.6307838,-0.092230685,-0.7665078,0.07791753,4.882514953613281,-4.876558303833008,-11.942079544067383,45.44205093383789,-100.70670318603516, 40.87453079223633
377,687469452,0.61628145,-0.09266835,-0.7774054,0.08515062,12.74943733215332,0.405232310295105,0.2843749523162842,21.98270606994629,-126.8875961303711, 36.22298812866211
378,687486119,0.60452664,-0.10099449,-0.7851015,0.089239046,10.046939849853516,-7.069188594818115,6.81021785736084,-29.712385177612305,-91.0660400390625, 66.6412353515625
379,687502786,0.59564507,-0.10270832,-0.7901005,0.10197669,16.6104679107666,-10.194656372070312,2.318455696105957,53.01446533203125,-75.63542175292969, 65.84101867675781
380,687519453,0.58925605,-0.10203759,-0.7936524,0.11172132,21.002723693847656,-6.476851940155029,-2.281804084777832,49.27947235107422,-55.90003967285156, 39.758792877197266
381,687536120,0.58575994,-0.100983486,-0.79569894,0.11640835,22.544353485107422,-3.719413995742798,-2.6438355445861816,26.387052536010742,-30.849382400512695, 16.00758934020996
382,687552787,0.58524585,-0.09865592,-0.7961642,0.11780019,25.658935546875,-0.3980553448200226,-2.5056869983673096,12.33411693572998,-5.832796573638916, -4.2284417152404785
383,687569454,0.5880165,-0.09710091,-0.79475594,0.11476495,23.269485473632812,-2.521836280822754,-3.314479351043701,-11.443015098571777,23.225278854370117, -18.99676513671875
384,687586121,0.59466213,-0.096462734,-0.7907436,0.10861279,19.533544540405273,-3.3322408199310303,-2.211519718170166,-28.20476722717285,57.76107406616211, -27.687448501586914
385,687602788,0.60440654,-0.09868028,-0.7844578,0.097883604,15.535028457641602,-2.5592198371887207,-1.5376949310302734,-61.223411560058594,88.9605484008789, -31.68684196472168
386,687619455,0.6172468,-0.10179753,-0.7755785,0.08439065,11.632620811462402,-2.0015499591827393,-0.4945632517337799,-75.75098419189453,118.6946029663086, -38.81804656982422
387,687636122,0.6320516,-0.10502502,-0.76435804,0.07237124,5.908718109130859,-3.265627384185791,-2.6470088958740234,-64.90921020507812,137.84725952148438, -31.765459060668945
388,687652789,0.643344,-0.104175344,-0.75562793,0.065440245,0.8228240609169006,-5.147057056427002,-5.7812910079956055,-19.639253616333008,101.98136901855469, -31.962932586669922
389,687669456,0.64957476,-0.09969243,-0.7509411,0.06482043,2.3219571113586426,-4.606323719024658,-7.119304656982422,23.827808380126953,51.76081848144531, -23.65064811706543
390,687686123,0.65127254,-0.09642571,-0.74986345,0.06520181,3.270756721496582,-2.296201705932617,-8.003973960876465,17.967992782592773,12.396515846252441, -13.34539794921875
391,687702790,0.648217,-0.0988892,-0.7525267,0.06115092,3.8351171016693115,1.9284765720367432,-8.122360229492188,-34.633182525634766,-23.3102970123291, -4.110952854156494
392,687719457,0.6429212,-0.10319665,-0.75685066,0.056389723,2.3654255867004395,0.5656173229217529,-3.465322494506836,-48.987060546875,-40.842384338378906, 2.1699070930480957
393,687736124,0.637596,-0.10250218,-0.76123816,0.059002247,0.4970025420188904,-2.757974624633789,-0.7554404735565186,12.563035011291504,-48.56696701049805, 8.575677871704102
394,687752791,0.6331828,-0.09499412,-0.7648509,0.071126245,0.056196197867393494,-1.3996763229370117,0.6366622447967529,92.17102813720703,-49.68650436401367, 14.853060722351074
395,687769458,0.6290329,-0.08550665,-0.7679989,0.08476123,0.3937881588935852,2.0288655757904053,-0.7537805438041687,109.47167205810547,-48.305084228515625, 11.094046592712402
396,687786125,0.6244975,-0.08322392,-0.77157366,0.08804042,0.43730628490448,3.1703591346740723,-0.37503582239151,22.83841896057129,-41.8228759765625, 4.404695987701416
397,687802792,0.6184481,-0.091519274,-0.776012,0.083376475,1.9451491832733154,-7.729400634765625,-8.986248016357422,-68.3438949584961,-42.195919036865234, 27.31540298461914
398,687819459,0.6049886,-0.093002774,-0.7855561,0.09078025,11.18740177154541,-7.931907653808594,-8.846067428588867,15.311561584472656,-114.33570098876953, 43.67121887207031
399,687836126,0.5948847,-0.093971275,-0.7922892,0.09777309,10.569558143615723,0.1414521336555481,4.3471784591674805,18.780025482177734,-84.3179931640625, 38.988807678222656
400,687852793,0.58603776,-0.09827774,-0.7974122,0.1050487,12.103360176086426,-4.960268974304199,1.7027764320373535,9.814401626586914,-69.19136047363281, 58.35426712036133
401,687869460,0.58020186,-0.095521055,-0.80021626,0.11787978,22.802692413330078,-3.96649169921875,-0.6496570706367493,72.89559936523438,-52.36296463012695, 41.29046630859375
402,687886127,0.5760975,-0.09374785,-0.80230457,0.1250231,24.8681583404541,-5.125788688659668,-0.7308660745620728,39.73966979980469,-35.63215637207031, 23.056974411010742
403,687902794,0.57538104,-0.094210036,-0.80263656,0.12583923,24.52646255493164,-1.5762786865234375,-1.7075687646865845,-0.4172181487083435,-4.1029372215271, 8.635035514831543
404,687919461,0.5773147,-0.09427793,-0.80177236,0.12239468,22.631881713867188,-1.5904662609100342,-4.218183994293213,-19.8482608795166,17.598670959472656, -11.724349975585938
405,687936128,0.583089,-0.09325306,-0.79856545,0.11663765,18.816509246826172,-3.92789626121521,-4.060260772705078,-23.98850440979004,48.60533142089844, -28.497770309448242
406,687952795,0.5925546,-0.09258183,-0.7928667,0.10802732,15.225947380065918,-4.456848621368408,-3.1589386463165283,-36.90567398071289,80.93207550048828, -39.327369689941406
407,687969462,0.6061464,-0.09147628,-0.784127,0.096767455,12.296977996826172,-3.2725658416748047,-1.8576929569244385,-44.665313720703125,117.07355499267578, -53.72368240356445
408,687986129,0.6220261,-0.092714354,-0.7728335,0.08494799,7.202084064483643,-4.286954402923584,-1.8191055059432983,-52.76084518432617,141.54505920410156, -43.768463134765625
409,688002796,0.6348424,-0.09177339,-0.76322144,0.07775442,1.4207512140274048,-5.980478286743164,-5.072737216949463,-20.70871353149414,113.61416625976562, -35.13402557373047
410,688019463,0.64339644,-0.08717816,-0.7566137,0.07731093,1.4977352619171143,-4.6266984939575195,-6.277685165405273,27.438766479492188,71.81796264648438, -24.735864639282227
411,688036130,0.6476981,-0.08530903,-0.75328004,0.076018,3.2358686923980713,-1.5890413522720337,-4.972777366638184,7.3286614418029785,37.18311309814453, -14.167604446411133
412,688052797,0.648073,-0.087180644,-0.753014,0.07328499,3.0610501766204834,-1.6331909894943237,-6.452171325683594,-20.60032844543457,6.062516689300537, -0.9726694226264954
413,688069464,0.64583105,-0.09081231,-0.75496197,0.06846761,2.3665030002593994,1.1345561742782593,-2.5314652919769287,-42.38886642456055,-15.016627311706543, -1.121908187866211
414,688086131,0.6429571,-0.09328131,-0.75739455,0.06525552,1.320059895515442,0.8469835519790649,-0.783952534198761,-30.789703369140625,-21.74900245666504, 0.15215939283370972
415,688102798,0.6398653,-0.09415596,-0.75987583,0.065542966,0.49294188618659973,-0.8251032829284668,1.2019541263580322,-5.640470027923584,-26.058216094970703, 7.406119346618652
416,688119465,0.63630795,-0.090452015,-0.76278687,0.07132242,1.4425958395004272,1.2083710432052612,-1.2950317859649658,43.27524185180664,-36.1224479675293, 7.480792045593262
417,688136132,0.63218033,-0.085622534,-0.76607984,0.078349225,2.4578230381011963,1.2603137493133545,-0.15200868248939514,54.19932556152344,-42.090396881103516, 7.098505020141602
418,688152799,0.6232167,-0.08563699,-0.77271634,0.084715635,4.8318376541137695,-5.329700469970703,-12.451979637145996,24.483383178710938,-79.00637817382812, 30.493478775024414
419,688169466,0.6105071,-0.084563136,-0.7819952,0.092811555,13.03967571258545,0.32403913140296936,-1.6297178268432617,33.436824798583984,-111.43726348876953, 32.903717041015625
420,688186133,0.6007328,-0.08715871,-0.78848654,0.09905972,9.989527702331543,-3.307168960571289,0.6611084342002869,12.905937194824219,-80.81230926513672, 44.43880844116211
421,688202800,0.5936735,-0.08868697,-0.7925713,0.107318304,16.050512313842773,-4.395204067230225,0.530551552772522,28.998085021972656,-57.60108947753906, 47.13645935058594
422,688219467,0.5896981,-0.08847301,-0.7946577,0.11378891,20.768632888793945,-6.770135879516602,-3.195446014404297,30.845497131347656,-33.16093063354492, 29.02605628967285
423,688236134,0.58934295,-0.08919091,-0.79453826,0.11588365,20.774085998535156,-4.843655586242676,-2.0617871284484863,7.370413780212402,-1.1651356220245361, 14.798807144165039
424,688252801,0.5919516,-0.09207184,-0.79278916,0.112257145,22.536632537841797,-3.0141963958740234,-1.7154252529144287,-29.67365837097168,26.8117618560791, 2.1246047019958496
425,688269468,0.59753746,-0.09431648,-0.78926677,0.10541203,22.205047607421875,-3.461394786834717,-1.720140814781189,-40.85945510864258,51.573448181152344, -15.692256927490234
426,688286135,0.6060607,-0.09578713,-0.78368145,0.09674131,18.83420181274414,-3.5622198581695557,-0.8715158104896545,-45.43014907836914,76.79166412353516, -27.857269287109375
427,688302802,0.61686224,-0.097995766,-0.776288,0.08517633,14.472766876220703,-2.392472505569458,-0.25652337074279785,-60.456607818603516,98.67951965332031, -36.49064254760742
428,688319469,0.6297139,-0.09900181,-0.76701057,0.073170155,9.235400199890137,-1.924337387084961,-0.1789172887802124,-55.32307434082031,117.13410949707031, -44.709346771240234
429,688336136,0.6434575,-0.09884442,-0.7562532,0.065371536,4.923036575317383,-3.376356363296509,-1.741611123085022,-26.825151443481445,124.75104522705078, -32.09954833984375
430,688352803,0.652424,-0.096352555,-0.74903905,0.06324294,1.8022358417510986,-4.8203535079956055,-5.9562177658081055,10.034724235534668,79.00853729248047, -19.712682723999023
431,688369470,0.6566038,-0.09170174,-0.7457768,0.065417565,3.2416374683380127,-2.390780210494995,-7.477132797241211,37.517337799072266,32.86381530761719, -12.185150146484375
432,688386137,0.65650284,-0.089018635,-0.7460003,0.06755261,4.28794002532959,-1.0698809623718262,-9.84482479095459,23.41541290283203,-3.6513917446136475, -2.5025577545166016
433,688402804,0.6534255,-0.08874667,-0.7487179,0.067682005,3.676928758621216,3.256650686264038,-5.355156421661377,-0.983850359916687,-27.611677169799805, 0.6874274611473083
434,688419471,0.6492645,-0.091805585,-0.7522239,0.06470397,0.819620668888092,1.3366351127624512,-2.4256179332733154,-32.954708099365234,-33.2005500793457, 3.969339609146118
435,688436138,0.6449567,-0.09301663,-0.7557249,0.06525906,-0.3384818434715271,-1.4057161808013916,-0.15175163745880127,-6.578912258148193,-36.9412727355957, 10.284890174865723
436,688452805,0.63995963,-0.08898432,-0.75977224,0.0726619,-0.014319105073809624,-2.7034010887145996,-2.034228801727295,51.595428466796875,-49.68134689331055, 13.328232765197754
437,688469472,0.63333,-0.08259371,-0.76535404,0.07940254,-0.3868595063686371,2.933746099472046,-4.006748199462891,56.525508880615234,-65.6591567993164, -2.0554349422454834
438,688486139,0.62495905,-0.08544228,-0.77224135,0.075955145,0.7731369733810425,-0.7771396040916443,0.4035854637622833,-38.369117736816406,-69.7148666381836, 2.354999542236328
439,688502806,0.6144179,-0.084503554,-0.7794293,0.08854355,6.101161479949951,-13.257221221923828,-9.387292861938477,60.65968322753906,-93.77506256103516, 52.260902404785156
440,688519473,0.6014904,-0.07895697,-0.78834164,0.10243403,13.964479446411133,0.11258316040039062,-0.18785688281059265,84.45987701416016,-117.22772979736328, 33.35750961303711
441,688536140,0.5915416,-0.084219344,-0.79452324,0.10825217,11.573127746582031,-3.0702598094940186,2.713469982147217,-1.243448257446289,-77.66645812988281, 58.213356018066406
442,688552807,0.58336663,-0.08712466,-0.7990764,0.116489716,21.433340072631836,-1.618356704711914,1.5541036128997803,23.66164779663086,-64.55862426757812, 54.86444854736328
443,688569474,0.5774372,-0.086947486,-0.8023054,0.123744085,25.021526336669922,-5.241238594055176,-2.0095462799072266,33.541900634765625,-49.03445053100586, 32.933311462402344
444,688586141,0.57528716,-0.08641771,-0.8033316,0.12741736,22.628334045410156,-3.289199113845825,-3.238125801086426,19.612110137939453,-17.774232864379883, 14.829383850097656
445,688602808,0.57661813,-0.08922807,-0.80262023,0.12389931,20.812149047851562,-3.6650848388671875,-4.147247314453125,-29.81974220275879,15.4757080078125, 2.9087750911712646
446,688619475,0.58213395,-0.091438726,-0.79950416,0.11641444,18.419803619384766,-5.7361979484558105,-4.278273582458496,-44.6777458190918,49.95724868774414, -18.184913635253906
447,688636142,0.59134626,-0.09285445,-0.79403126,0.105840676,15.793375968933105,-4.8935770988464355,-3.207707405090332,-54.46136474609375,81.0145034790039, -36.35922622680664
448,688652809,0.6035065,-0.094314076,-0.7863909,0.092055,13.497232437133789,-3.846526861190796,-1.7565388679504395,-68.90328979492188,107.98967742919922, -49.92937469482422
449,688669476,0.61832356,-0.094175175,-0.776318,0.07834249,9.467843055725098,-3.5930421352386475,-0.42349156737327576,-58.56251907348633,131.30970764160156, -58.43220138549805
450,688686143,0.6333657,-0.09281577,-0.7651209,0.06944929,4.442237854003906,-4.430758953094482,-2.001309871673584,-26.250009536743164,133.33055114746094, -44.030765533447266
451,688702810,0.6444172,-0.089155905,-0.75654715,0.06643945,1.8733141422271729,-4.475780487060547,-4.576229095458984,11.126335144042969,96.03016662597656, -30.38359832763672
452,688719477,0.65054286,-0.08475582,-0.7517339,0.067134224,3.2895493507385254,-3.0024192333221436,-4.929040431976318,30.426362991333008,50.96548843383789, -18.120386123657227
453,688736144,0.6525924,-0.08124359,-0.7501431,0.06934182,3.714437246322632,-1.7118210792541504,-5.959150314331055,30.384824752807617,15.098115921020508, -6.78314208984375
454,688752811,0.6513276,-0.0791244,-0.7511855,0.072334714,2.807551145553589,-1.231929898262024,-5.781121730804443,24.86833953857422,-13.458510398864746, 4.040574550628662
455,688769478,0.648847,-0.07625828,-0.75319535,0.076677084,1.902681827545166,2.5136852264404297,-1.6569929122924805,34.0584831237793,-25.089797973632812, 6.286056995391846
456,688786145,0.64576334,-0.07454504,-0.75560284,0.08060509,0.47746190428733826,1.2669627666473389,-0.31308168172836304,26.26659393310547,-29.14466667175293, 10.553293228149414
457,688802812,0.6419694,-0.0729933,-0.7585171,0.08484813,0.4115017354488373,2.581636667251587,-1.430564045906067,26.44123077392578,-35.13968276977539, 12.947450637817383
458,688819479,0.6366972,-0.074650586,-0.76275635,0.085128516,1.748703956604004,2.3367059230804443,-1.4070013761520386,-9.753395080566406,-44.84431838989258, 12.401237487792969
459,688836146,0.6295061,-0.080280945,-0.76826555,0.0839353,2.369497537612915,-3.551267385482788,-8.456371307373047,-36.926246643066406,-57.318031311035156, 27.335330963134766
460,688852813,0.6160959,-0.082313694,-0.7782302,0.089489035,8.010568618774414,-3.3297197818756104,-8.372864723205566,7.663712024688721,-115.01820373535156, 38.71145248413086
461,688869480,0.60380715,-0.08410718,-0.7866808,0.0973463,11.673888206481934,-1.2157343626022339,3.877957582473755,22.268634796142578,-103.88787078857422, 47.395790100097656
462,688886147,0.593444,-0.085972846,-0.79288167,0.10849788,11.245965957641602,-8.194260597229004,2.071650981903076,42.04777526855469,-86.01786041259766, 61.58563232421875
463,688902814,0.58530647,-0.084789015,-0.79714763,0.121586084,20.325319290161133,-6.955250263214111,0.235763818025589,67.85447692871094,-69.49990844726562, 52.25039291381836
464,688919481,0.5794974,-0.08595408,-0.8003647,0.12732354,20.821590423583984,-5.882343769073486,-2.0270354747772217,20.446455001831055,-46.39276123046875, 34.161773681640625
465,688936148,0.5768112,-0.08719197,-0.8019732,0.12855214,23.018930435180664,-2.0647470951080322,-2.5718612670898438,-1.3547356128692627,-20.15506362915039, 14.812119483947754
466,688952815,0.57676893,-0.086957864,-0.80227053,0.12703535,22.309396743774414,-2.3939597606658936,-3.399029493331909,-8.133877754211426,-0.047063350677490234, -5.592533588409424
467,688969482,0.58075464,-0.08532575,-0.8001375,0.123383574,19.870391845703125,-5.065765857696533,-3.475803852081299,-9.79006290435791,31.78671646118164, -23.77727699279785
468,688986149,0.5885893,-0.085472874,-0.7956191,0.115096845,16.711193084716797,-4.842884063720703,-2.387700319290161,-37.69498825073242,66.55266571044922, -34.469268798828125
469,689002816,0.60009503,-0.08569842,-0.78849113,0.104036406,13.585634231567383,-4.251357555389404,-1.5674699544906616,-49.33888244628906,98.92440795898438, -46.54806137084961
470,689019483,0.6148953,-0.084291905,-0.77842104,0.094125435,10.006206512451172,-3.2494125366210938,-0.2201835811138153,-31.475547790527344,126.84639739990234, -51.490840911865234
471,689036150,0.62940466,-0.08116346,-0.7677188,0.088715084,3.1058216094970703,-3.953195095062256,-3.7345130443573,0.2970932126045227,124.17359161376953, -41.15253448486328
472,689052817,0.63922757,-0.07535359,-0.76018167,0.08850945,2.2548983097076416,-3.3375487327575684,-6.117733955383301,35.734432220458984,81.08232879638672, -31.85321617126465
473,689069484,0.64552075,-0.072060175,-0.75523394,0.08793311,3.460887908935547,-0.8359859585762024,-6.453315734863281,19.049583435058594,53.12847137451172, -19.496179580688477
474,689086151,0.649309,-0.073998176,-0.75229865,0.083479464,4.21178674697876,0.8536369800567627,-5.569294452667236,-26.801183700561523,36.379974365234375, -9.001457214355469
475,689102818,0.6522459,-0.07941476,-0.75008667,0.07509192,3.7238197326660156,4.2109222412109375,-2.800032138824463,-63.630706787109375,32.843841552734375, -8.39948558807373
476,689119485,0.6554586,-0.08471683,-0.74755067,0.06606879,1.6794031858444214,1.8123277425765991,-0.4268651008605957,-66.14867401123047,36.05465316772461, -11.711518287658691
477,689136152,0.6580398,-0.08502216,-0.74542516,0.0640015,-0.8552424311637878,-1.8180409669876099,1.5890905857086182,-8.705458641052246,24.68195152282715, -5.934298038482666
478,689152819,0.65787804,-0.07803109,-0.74575305,0.070426956,-0.07238604128360748,0.5265964865684509,-3.464777946472168,65.30682373046875,-8.69791030883789, -5.180477619171143
479,689169486,0.65246683,-0.073593326,-0.75066,0.073352434,0.7742508053779602,2.1728715896606445,-5.191765308380127,30.898983001708984,-53.17305374145508, -7.848899841308594
480,689186153,0.64195734,-0.07961692,-0.7592116,0.07176233,3.7596423625946045,-6.83319616317749,-2.4761526584625244,-43.78054428100586,-88.197021484375, 26.632810592651367
481,689202820,0.6275103,-0.0787764,-0.7699978,0.084432006,9.73129940032959,-8.986557006835938,-3.0411040782928467,56.96798324584961,-129.67257690429688, 54.449546813964844
482,689219487,0.61457354,-0.07671144,-0.7792513,0.09582368,14.574162483215332,-1.6288353204727173,-0.31149983406066895,57.019012451171875,-115.0350570678711, 42.32170486450195
483,689236154,0.60305357,-0.07875574,-0.7870023,0.10368839,12.383810997009277,-1.700671672821045,-1.688727617263794,22.38324546813965,-96.54731750488281, 49.34040832519531
484,689252821,0.59459263,-0.08036597,-0.7923396,0.11044881,18.674043655395508,-3.628765344619751,-1.6120390892028809,21.508039474487305,-69.69880676269531, 41.58009338378906
485,689269488,0.5897891,-0.08066751,-0.79517853,0.115468316,21.95126724243164,-4.492176055908203,-3.2419965267181396,21.251243591308594,-39.633338928222656, 25.968713760375977
486,689286155,0.58859295,-0.0832708,-0.79593647,0.11449687,20.92132568359375,-3.4339816570281982,-2.235377788543701,-17.24732780456543,-6.354738712310791, 12.593369483947754
487,689302822,0.59070873,-0.08727549,-0.7947682,0.10858123,21.020193099975586,-4.126303672790527,-2.071641445159912,-46.63279724121094,23.451847076416016, -1.1943572759628296
488,689319489,0.59639657,-0.08929416,-0.79131246,0.100809455,18.096866607666016,-4.613630294799805,-2.71260142326355,-45.15443801879883,51.890872955322266, -20.78180503845215
489,689336156,0.60530543,-0.089861624,-0.78564745,0.09104079,14.974451065063477,-4.475586414337158,-1.9261411428451538,-46.367000579833984,78.6009292602539, -37.79607391357422
490,689352823,0.6170002,-0.08938891,-0.7778084,0.07958971,11.95988941192627,-4.150102138519287,-1.0092732906341553,-48.01723861694336,103.0368881225586, -50.84718704223633
491,689369490,0.63069034,-0.08791954,-0.7678962,0.06953715,7.2772603034973145,-4.221837997436523,0.007059544324874878,-33.73390579223633,121.01747131347656, -50.137027740478516
492,689386157,0.64358526,-0.08587843,-0.7578077,0.064424865,2.914095640182495,-4.236026287078857,-3.544954299926758,-5.357058525085449,114.25853729248047, -31.322858810424805
493,689402824,0.65049034,-0.082623184,-0.75229216,0.06397228,2.5126852989196777,-3.4148995876312256,-5.337609767913818,19.46358871459961,59.45043182373047, -17.214218139648438
494,689419491,0.6537896,-0.079844244,-0.7495787,0.06569513,3.940845489501953,-0.16393913328647614,-5.6685309410095215,25.32951545715332,27.311874389648438, -5.058622360229492
495,689436158,0.654475,-0.081000544,-0.7487655,0.066721514,4.196278095245361,-1.2549549341201782,-5.223580360412598,2.1557137966156006,7.471889019012451, 12.204197883605957
496,689452825,0.6547726,-0.078970164,-0.7481663,0.07269106,2.3229269981384277,0.5429626107215881,0.05815133824944496,41.183624267578125,0.4313145577907562, 18.140228271484375
497,689469492,0.65494806,-0.07753603,-0.7476771,0.07752639,0.2701737582683563,0.1313212662935257,0.16685280203819275,32.594390869140625,0.20269343256950378, 16.11063575744629
498,689486159,0.65423536,-0.075489685,-0.74787974,0.083387986,0.30522215366363525,1.1924880743026733,-2.2367982864379883,39.768131256103516,-8.356136322021484, 17.69085693359375
499,689502826,0.6514271,-0.076477304,-0.75008464,0.08465968,0.19789032638072968,2.7127554416656494,-3.691470146179199,0.31126558780670166,-23.992250442504883, 12.818852424621582
500,689519493,0.6452765,-0.08376217,-0.75506943,0.080451034,1.0665632486343384,-1.455937385559082,-7.402629852294922,-59.52574157714844,-47.08680725097656, 21.26359748840332
501,689536160,0.63246065,-0.088138044,-0.76463836,0.08691159,5.074704170227051,-10.128662109375,-10.127141952514648,2.120786190032959,-109.63789367675781, 54.551578521728516
502,689552827,0.61959714,-0.08497033,-0.7736816,0.101471186,13.115801811218262,-2.815849542617798,4.365025520324707,77.40570831298828,-116.82206726074219, 50.384422302246094
503,689569494,0.6088457,-0.08584093,-0.7804626,0.113209255,12.822943687438965,-4.556560516357422,2.203131914138794,48.18571853637695,-91.62796020507812, 59.65153121948242
504,689586161,0.5994998,-0.08609175,-0.78619516,0.12282286,19.881868362426758,-1.4553894996643066,-0.18016472458839417,40.867549896240234,-78.96776580810547, 46.96428298950195
505,689602828,0.5935217,-0.08427422,-0.7896929,0.1304423,20.66522789001465,-3.520970582962036,-4.155978679656982,42.41716766357422,-52.16596603393555, 26.11651611328125
506,689619495,0.59172696,-0.08287484,-0.7905896,0.1340126,23.244516372680664,-1.937894344329834,-2.8951268196105957,23.547805786132812,-16.155529022216797, 9.642142295837402
507,689636162,0.59350497,-0.08413973,-0.78958195,0.13127473,22.798959732055664,-3.0065953731536865,-2.6657254695892334,-17.569683074951172,16.951488494873047, -3.72629714012146
508,689652829,0.59927934,-0.08667383,-0.7862584,0.123084016,20.572975158691406,-4.129486560821533,-2.812143087387085,-48.00535583496094,52.3615608215332, -21.279956817626953
509,689669496,0.60851127,-0.08918041,-0.7806369,0.111207485,17.128402709960938,-4.906892776489258,-1.6838815212249756,-63.74148941040039,82.63670349121094, -38.15478515625
510,689686163,0.6211717,-0.08972272,-0.77236545,0.097709544,13.014118194580078,-4.446640491485596,-0.3274659812450409,-59.997100830078125,111.55830383300781, -56.49095916748047
511,689702830,0.6361892,-0.090789646,-0.7614789,0.08467908,8.098213195800781,-4.803420066833496,0.4336344003677368,-56.514122009277344,135.27024841308594, -51.684993743896484
512,689719497,0.6490671,-0.09033231,-0.75144666,0.07668185,2.4188027381896973,-5.542295455932617,-3.5380473136901855,-25.020835876464844,116.21143341064453, -36.99753952026367
513,689736164,0.6568154,-0.08905616,-0.74520576,0.073014565,3.2834877967834473,-4.207423210144043,-5.711602210998535,-4.033153533935547,69.68672180175781, -21.6138973236084
514,689752831,0.660327,-0.09085375,-0.74228007,0.06880724,4.5534162521362305,-1.5299012660980225,-6.207021713256836,-25.109312057495117,34.988433837890625, -8.223012924194336
515,689769498,0.6591609,-0.098434,-0.7430066,0.061309975,3.7300755977630615,0.09034879505634308,-8.45888614654541,-73.56672668457031,-0.46165212988853455, 6.346839427947998
516,689786165,0.6550963,-0.105905026,-0.7461683,0.05353696,2.5627222061157227,3.0206072330474854,-2.2591493129730225,-77.3979263305664,-26.07149887084961, 4.1252593994140625
517,689802832,0.6503908,-0.10814095,-0.7500505,0.052169207,0.6684445142745972,-1.0378265380859375,-0.9170612096786499,-21.719085693359375,-39.16535186767578, 5.881838798522949
518,689819499,0.646129,-0.10147062,-0.75390655,0.062016536,0.03655029833316803,-1.3818145990371704,0.4024035334587097,76.30449676513672,-48.28882598876953, 9.94594955444336
519,689836166,0.6419326,-0.09001831,-0.75760895,0.076473676,1.0549300909042358,3.2957847118377686,-0.553460955619812,121.54961395263672,-52.52560043334961, 5.691193103790283
520,689852833,0.6361813,-0.08583744,-0.7623875,0.08167434,0.7130206227302551,4.08189058303833,-1.5150490999221802,39.72560501098633,-55.81513595581055, 2.901102304458618
521,689869500,0.62885076,-0.09226191,-0.7680587,0.07823328,2.25887131690979,-3.0876176357269287,-4.15246057510376,-53.130096435546875,-56.97472381591797, 21.065805435180664
522,689886167,0.61309963,-0.095754005,-0.7795865,0.08476508,7.3810038566589355,-11.480722427368164,-13.525572776794434,3.114659547805786,-134.5090789794922, 49.589866638183594
523,689902834,0.59891075,-0.09376031,-0.78937715,0.09694732,11.374980926513672,-3.3794634342193604,3.8917970657348633,58.342323303222656,-125.52318572998047, 44.17839050292969
524,689919501,0.5870453,-0.093739994,-0.7966211,0.10947929,11.333483695983887,-4.507997989654541,1.3469547033309937,55.31361770629883,-101.41661071777344, 56.42097473144531
525,689936168,0.57753134,-0.09366254,-0.8018667,0.121221706,19.225685119628906,-1.3669726848602295,-0.7533864974975586,54.254371643066406,-80.06136322021484, 52.42174530029297
526,689952835,0.5707885,-0.09379524,-0.805536,0.12850992,20.67863655090332,-4.344672679901123,-4.9538774490356445,32.02599334716797,-55.555198669433594, 34.640625
527,689969502,0.5685506,-0.09366965,-0.80641633,0.13292512,21.451169967651367,-4.043920993804932,-3.0998647212982178,22.5104923248291,-18.060476303100586, 19.783676147460938
528,689986169,0.5693486,-0.09553717,-0.8059139,0.13121662,21.69707489013672,-3.5772500038146973,-2.807271718978882,-16.01433563232422,9.889005661010742, 5.051939010620117
529,690002836,0.57360727,-0.0969675,-0.8036758,0.12521033,19.82956314086914,-5.022677421569824,-4.243246078491211,-34.31331253051758,38.2347297668457, -16.121810913085938
530,690019503,0.58165896,-0.09751438,-0.7991858,0.11604233,17.097198486328125,-5.78134298324585,-3.445746898651123,-43.91874694824219,69.4045181274414, -35.199363708496094
531,690036170,0.592936,-0.09709646,-0.7924746,0.1048009,14.901710510253906,-4.975940227508545,-2.222869396209717,-47.522674560546875,96.58953094482422, -49.89470672607422
532,690052837,0.6064669,-0.09685688,-0.78389746,0.09122211,11.47684383392334,-3.4347639083862305,-1.047692894935608,-58.034664154052734,118.0975112915039, -58.88148880004883
533,690069504,0.6217445,-0.094637476,-0.77345866,0.07898934,7.3263421058654785,-2.8494205474853516,-0.25006523728370667,-40.245269775390625,133.1074676513672, -63.80641174316406
534,690086171,0.6370303,-0.092153914,-0.7618997,0.07217341,4.17730712890625,-3.8013226985931396,-1.4178493022918701,-9.13812255859375,134.1312255859375, -41.45466232299805
535,690102838,0.64698946,-0.08827086,-0.75406784,0.07067336,2.6438965797424316,-4.4085822105407715,-5.472597599029541,19.909244537353516,85.78907012939453, -25.290407180786133
536,690119505,0.6517669,-0.08250419,-0.7503743,0.07301727,3.4682865142822266,-1.1167417764663696,-5.911223411560059,43.527679443359375,37.24922180175781, -18.041034698486328
537,690136172,0.65368474,-0.079479925,-0.74890846,0.074265346,3.5453991889953613,0.6038676500320435,-4.537327766418457,22.63667869567871,14.619779586791992, -8.60485553741455
538,690152839,0.65495545,-0.07612964,-0.7479577,0.07613766,2.5562326908111572,3.815192461013794,-0.9558317065238953,26.74267578125,8.511246681213379, -7.413668632507324
539,690169506,0.65559787,-0.07375869,-0.7475696,0.07675181,1.2901805639266968,0.4937748908996582,-0.10228593647480011,15.254023551940918,3.9250411987304688, -7.956093788146973
540,690186173,0.65502095,-0.06626559,-0.74807394,0.08331913,-0.10492099821567535,-0.6391695737838745,-0.2614043653011322,67.84928131103516,-12.084492683410645, -7.251500129699707
541,690202840,0.65088075,-0.057940736,-0.75147057,0.09104496,0.4274537265300751,1.10948646068573,-4.706368923187256,74.27879333496094,-44.43666458129883, -5.604886054992676
542,690219507,0.6418342,-0.05155185,-0.7589399,0.09696138,1.1509017944335938,0.8260379433631897,-6.40261173248291,51.78803634643555,-86.02486419677734, -2.2538182735443115
543,690236174,0.628652,-0.049646497,-0.76928765,0.10260877,3.5328762531280518,-5.153921604156494,-2.494828939437866,27.317123413085938,-117.1681137084961, 21.667625427246094
544,690252841,0.61131036,-0.04427462,-0.78133595,0.11770132,8.648289680480957,-7.159215927124023,-4.8135085105896,89.66509246826172,-152.19158935546875, 46.42240524291992
545,690269508,0.5948875,-0.040414087,-0.7921242,0.13044181,13.51501178741455,-0.14555200934410095,0.49331432580947876,71.957763671875,-139.99554443359375, 44.19644546508789
546,690286175,0.58143204,-0.043925487,-0.8006857,0.13751402,12.785099983215332,-2.6234536170959473,-0.09557618200778961,13.676977157592773,-106.57999420166016, 59.142791748046875
547,690302842,0.57179725,-0.04555076,-0.8062423,0.14473002,20.137685775756836,-5.109036922454834,-3.4139771461486816,25.898109436035156,-75.39124298095703, 46.64488983154297
548,690319509,0.5666611,-0.04512407,-0.80881655,0.1505822,20.761444091796875,-5.674276828765869,-5.800798416137695,30.7513484954834,-40.38147735595703, 26.370758056640625
549,690336176,0.56633145,-0.047153767,-0.80882245,0.1511679,21.45811653137207,-3.983382225036621,-4.079434394836426,-3.9096670150756836,0.4989165663719177, 15.324470520019531
550,690352843,0.56963056,-0.051083054,-0.8072368,0.14587855,22.507780075073242,-3.088071823120117,-3.2848525047302246,-41.1330680847168,30.711898803710938, -0.21331733465194702
551,690369510,0.5765202,-0.056119755,-0.80372167,0.1360394,21.06020736694336,-4.58582067489624,-2.1034374237060547,-67.49063110351562,60.84860610961914, -14.768916130065918
552,690386177,0.5868568,-0.06009393,-0.797869,0.12406909,18.380508422851562,-4.382567405700684,-0.7244217395782471,-71.5601806640625,88.94502258300781, -31.3748779296875
553,690402844,0.5997667,-0.062376928,-0.7899654,0.11110208,13.859258651733398,-3.120591402053833,1.0339653491973877,-67.27900695800781,110.23155212402344, -46.02880859375
554,690419511,0.61421585,-0.06495587,-0.7800597,0.100133166,6.477990627288818,-4.268043041229248,-1.2014449834823608,-55.466949462890625,126.1722183227539, -36.47064971923828
555,690436178,0.62521285,-0.06446934,-0.7720797,0.094051376,1.438978672027588,-5.805838584899902,-4.879770278930664,-19.136919021606445,95.22095489501953, -30.771617889404297
556,690452845,0.6322221,-0.062059358,-0.76677036,0.09223494,2.84045672416687,-3.4079091548919678,-6.101476669311523,8.226359367370605,59.50511932373047, -21.285917282104492
557,690469512,0.6360093,-0.062361866,-0.7639555,0.089304596,4.43506383895874,-1.2312527894973755,-6.043527603149414,-12.419929504394531,33.94377899169922, -10.863808631896973
558,690486179,0.6374126,-0.06625705,-0.762951,0.08497806,4.46043586730957,-0.4685322642326355,-4.364081859588623,-37.626277923583984,16.37813377380371, 2.5976362228393555
559,690502846,0.6380967,-0.068869784,-0.7624438,0.08227518,2.3725392818450928,1.6844450235366821,-1.4527734518051147,-24.193286895751953,8.992812156677246, 3.2012298107147217
560,690519513,0.6380776,-0.07077905,-0.76240486,0.08115661,0.4759592115879059,-0.44309669733047485,-1.0413964986801147,-13.484698295593262,2.129434585571289, 6.678406715393066
561,690536180,0.6370147,-0.068628766,-0.7630131,0.08551822,0.08122462779283524,-0.8023697733879089,-1.1788434982299805,32.19682693481445,-11.107123374938965, 9.700723648071289
562,690552847,0.6347317,-0.06309166,-0.7646351,0.09202437,0.5370772480964661,2.7243573665618896,-1.9443016052246094,57.13181686401367,-24.94273567199707, 1.5488150119781494
563,690569514,0.63075817,-0.061900724,-0.76802033,0.09196416,0.7100366950035095,3.2424559593200684,-2.8873374462127686,1.8314892053604126,-35.9113883972168, -3.9326555728912354
564,690586181,0.62467915,-0.06474561,-0.77296525,0.090049736,2.2004542350769043,-3.534156322479248,-6.480137348175049,-27.347440719604492,-50.421146392822266, 10.036564826965332
565,690602848,0.60971314,-0.063782625,-0.78369707,0.100003205,5.299227714538574,-9.655264854431152,-15.141799926757812,44.20124053955078,-130.02735900878906, 43.71843719482422
566,690619515,0.59483695,-0.06004661,-0.7935758,0.11314175,12.05174446105957,1.05052649974823,3.2748172283172607,73.6629867553711,-129.1317138671875, 42.32854080200195
567,690636182,0.582478,-0.0609646,-0.8011421,0.123185,12.398630142211914,-3.65299654006958,1.3961154222488403,40.623355865478516,-101.12472534179688, 54.073055267333984
568,690652849,0.573538,-0.06130005,-0.80595255,0.13318093,19.00664520263672,-3.9998393058776855,-1.2777090072631836,46.152679443359375,-71.71553802490234, 49.00531005859375
569,690669516,0.5676148,-0.064820156,-0.8091017,0.13771784,22.511947631835938,-5.508184909820557,-1.5985174179077148,6.260409832000732,-43.31720733642578, 43.03606414794922
570,690686183,0.5652266,-0.067587726,-0.81022733,0.13958067,23.259180068969727,-2.824138879776001,-3.080876350402832,-2.3155996799468994,-15.31072998046875, 26.020217895507812
571,690702850,0.56622803,-0.0701882,-0.8097011,0.1372729,22.319326400756836,-3.037647247314453,-4.138526916503906,-21.75751304626465,11.718393325805664, 6.450592994689941
572,690719517,0.57175624,-0.072354086,-0.8066481,0.13106826,19.25529670715332,-5.172450065612793,-4.947073936462402,-37.22269821166992,48.19441604614258, -14.138803482055664
573,690736184,0.5818647,-0.07441812,-0.80067825,0.1216961,15.11572551727295,-5.172374725341797,-4.53857421875,-49.4621467590332,86.51982116699219, -29.83022689819336
574,690752851,0.59559417,-0.07679368,-0.7921222,0.109146304,11.887706756591797,-3.902473211288452,-3.772397518157959,-64.13771057128906,118.66881561279297, -42.5570068359375
575,690769518,0.6116384,-0.078259796,-0.78144544,0.0954837,8.792450904846191,-2.828265428543091,-2.7154717445373535,-63.66091537475586,139.8666229248047, -52.69021987915039
576,690786185,0.62910414,-0.07663186,-0.76888716,0.08466389,7.015498638153076,-3.4977610111236572,-0.4683481752872467,-32.75544357299805,151.7338409423828, -57.40217590332031
577,690802852,0.64488775,-0.07401775,-0.7565242,0.07945164,3.8535852432250977,-5.281222343444824,-2.6652238368988037,0.33108097314834595,138.42919921875, -37.49944305419922
578,690819519,0.6546145,-0.068916924,-0.748613,0.079430014,3.0515565872192383,-4.846030235290527,-5.3963704109191895,32.94169616699219,83.19037628173828, -26.404138565063477
579,690836186,0.6592841,-0.062086128,-0.74470913,0.08305552,3.414907932281494,-1.362572193145752,-5.873690128326416,54.71193313598633,36.54456329345703, -18.038053512573242
580,690852853,0.6607361,-0.057767227,-0.7433662,0.086588606,4.78062105178833,1.2245070934295654,-4.662181377410889,39.940773010253906,10.00866413116455, -4.8450164794921875
581,690869520,0.66174436,-0.055602025,-0.7422769,0.08959896,2.758862257003784,4.3966827392578125,0.04979293793439865,27.115081787109375,8.129974365234375, 3.979987621307373
582,690886187,0.66231024,-0.058073748,-0.7416563,0.088986926,0.528239905834198,1.4483346939086914,0.6480591297149658,-12.968955039978027,7.981906890869141, 11.313035011291504
583,690902854,0.66129065,-0.060429495,-0.7423741,0.08901565,0.11415760964155197,0.7008100152015686,-1.0430138111114502,-10.593988418579102,-6.54032564163208, 14.088006973266602
584,690919521,0.6569932,-0.06258082,-0.74609685,0.08822148,0.06541313230991364,1.6311790943145752,-2.9223480224609375,-17.048917770385742,-36.711639404296875, 10.062323570251465
585,690936188,0.648896,-0.068277545,-0.75311697,0.08418538,1.1716036796569824,0.1672206073999405,-3.1043190956115723,-53.28755569458008,-67.53453826904297, 14.495219230651855
586,690952855,0.63636994,-0.072939195,-0.7625036,0.09111238,5.734436988830566,-13.532312393188477,-6.089414119720459,4.5980987548828125,-106.74186706542969, 59.496192932128906
587,690969522,0.6215504,-0.066697516,-0.7725698,0.11118769,12.63268756866455,-2.871250867843628,-1.8105592727661133,119.55736541748047,-135.1109619140625, 60.831085205078125
588,690986189,0.60932875,-0.06790915,-0.7807269,0.120717,14.953822135925293,-1.208545446395874,2.715341567993164,34.36499786376953,-102.63526153564453, 54.21253204345703
589,691002856,0.5987014,-0.07089476,-0.787261,0.12942424,16.45061683654785,-3.6405396461486816,0.43250572681427,24.476411819458008,-85.4614486694336, 59.76573181152344
590,691019523,0.5917764,-0.072834015,-0.79135287,0.13511808,21.7072811126709,-4.52791690826416,-3.3284878730773926,16.409868240356445,-54.87480926513672, 39.60226821899414
591,691036190,0.5890825,-0.0727583,-0.79261744,0.1394475,20.79469108581543,-2.4893076419830322,-4.416788101196289,21.803621292114258,-21.53407859802246, 20.622026443481445
592,691052857,0.5904307,-0.07595578,-0.79180545,0.13662547,22.658634185791016,-3.0705225467681885,-1.9128105640411377,-26.28444480895996,15.567638397216797, 6.667962551116943
593,691069524,0.5953362,-0.080482006,-0.78919506,0.12754856,21.3221492767334,-3.6394917964935303,-1.7104740142822266,-62.21205520629883,46.709083557128906, -13.84193229675293
594,691086191,0.6030895,-0.08503911,-0.7848079,0.11457682,17.405942916870117,-3.7766525745391846,-1.0341871976852417,-80.42115020751953,71.59515380859375, -31.07937240600586
595,691102858,0.6135269,-0.08755912,-0.77846646,0.09954011,13.34347152709961,-3.6020872592926025,-0.26090478897094727,-80.26942443847656,93.81019592285156, -51.534786224365234
596,691119525,0.62563896,-0.08868192,-0.7703783,0.085022934,8.187448501586914,-4.813598155975342,0.8524994850158691,-69.34918212890625,108.82612609863281, -56.92900466918945
597,691136192,0.6373227,-0.088236116,-0.7617497,0.07597222,2.861612319946289,-8.252015113830566,-2.752431869506836,-33.48617935180664,104.57684326171875, -41.18949890136719
598,691152859,0.6450692,-0.08470762,-0.7559076,0.07289929,2.541325807571411,-7.669441223144531,-6.162667274475098,7.544012546539307,66.51693725585938, -30.854400634765625
599,691169526,0.64967173,-0.07856033,-0.7524873,0.074283615,3.7501296997070312,-3.026885986328125,-7.183166980743408,39.91411209106445,35.47343063354492, -24.67302131652832
600,691186193,0.6527771,-0.07560647,-0.7501113,0.07415412,3.0540354251861572,-0.08014041930437088,-4.475846767425537,16.29456329345703,25.61516571044922, -14.702620506286621
601,691202860,0.65667826,-0.07708654,-0.74692297,0.07026778,2.631775140762329,5.2496418952941895,0.11245498806238174,-22.05604362487793,37.60584259033203, -8.677156448364258
602,691219527,0.66088945,-0.08324933,-0.74319774,0.06286569,2.010065793991089,2.2980284690856934,2.438969135284424,-61.00338363647461,45.77362823486328, -0.28720104694366455
603,691236194,0.6637374,-0.0872213,-0.74038196,0.06066299,0.8708094954490662,-1.7719354629516602,-0.19916999340057373,-25.7699031829834,30.74090576171875, 12.2527494430542
604,691252861,0.6631025,-0.085513435,-0.7407185,0.06571671,1.5305465459823608,-2.0292856693267822,-3.634989023208618,33.645545959472656,-8.088966369628906, 16.004348754882812
605,691269528,0.658455,-0.08380954,-0.7445717,0.07089394,1.6197868585586548,1.721318006515503,-4.570559024810791,30.337718963623047,-44.599525451660156, 16.310726165771484
606,691286195,0.6479912,-0.09087187,-0.75283855,0.07130309,2.7566142082214355,-6.095771312713623,-7.0549116134643555,-39.3010368347168,-87.289794921875, 39.91130065917969
607,691302862,0.6318853,-0.09151022,-0.7648554,0.08569232,7.843253135681152,-8.54607105255127,-6.490079879760742,55.99212646484375,-144.9680938720703, 69.35292053222656
608,691319529,0.6163845,-0.08753179,-0.7759697,0.101388425,12.42898941040039,0.44391271471977234,2.2445974349975586,83.8214340209961,-141.35626220703125, 50.89414596557617
609,691336196,0.6024125,-0.090196855,-0.78522855,0.11126619,12.421722412109375,-3.524200201034546,0.7664985656738281,26.65325927734375,-117.2032470703125, 61.79854965209961
610,691352863,0.5917163,-0.087619744,-0.79171664,0.12401378,18.04644775390625,-2.276772975921631,-4.037135124206543,67.90948486328125,-93.84013366699219, 44.62001037597656
611,691369530,0.5847072,-0.0836281,-0.7955883,0.13477144,16.8933048248291,-4.571383953094482,-5.28527307510376,67.37242126464844,-63.15960693359375, 27.26685333251953
612,691386197,0.58222586,-0.08210023,-0.79668134,0.13989839,20.75823211669922,-2.6499946117401123,-3.7551379203796387,31.981142044067383,-21.73649024963379, 15.481800079345703
613,691402864,0.583625,-0.08515651,-0.79574245,0.13756569,22.712018966674805,-2.053314685821533,-2.6376001834869385,-23.042612075805664,16.23552131652832, 8.174951553344727
614,691419531,0.588247,-0.089089744,-0.79318136,0.12996869,21.971559524536133,-3.248239517211914,-2.514288902282715,-51.967220306396484,44.254127502441406, -10.188389778137207
615,691436198,0.5961207,-0.09228761,-0.78857523,0.11946674,18.667198181152344,-4.615642547607422,-1.5500414371490479,-61.09486770629883,71.36107635498047, -27.543851852416992
616,691452865,0.6071697,-0.09469572,-0.7817698,0.10589496,14.39699935913086,-4.552030563354492,-1.1010767221450806,-70.66676330566406,98.84346008300781, -45.61764144897461
617,691469532,0.6218589,-0.09671191,-0.77175266,0.09130337,9.917041778564453,-4.3511786460876465,-0.024503394961357117,-69.93789672851562,132.19944763183594, -52.523067474365234
618,691486199,0.6360848,-0.09670048,-0.76125693,0.080829956,3.1195647716522217,-6.361084461212158,-4.181936264038086,-39.24755096435547,127.7028579711914, -45.11853790283203
619,691502866,0.64546454,-0.0924478,-0.7542536,0.07700937,1.503638505935669,-7.05820369720459,-6.3296217918396,9.165077209472656,80.26861572265625, -37.930389404296875
620,691519533,0.65080136,-0.08845077,-0.7502719,0.07567098,3.453646659851074,-2.866032361984253,-6.019959926605225,16.92524528503418,44.472625732421875, -25.450435638427734
621,691536200,0.65248615,-0.08954615,-0.749108,0.071278244,4.011600971221924,1.5172194242477417,-8.259244918823242,-25.248748779296875,17.577852249145508, -12.681818008422852
622,691552867,0.65008307,-0.09925779,-0.75106657,0.058644608,3.351003408432007,4.1889872550964355,-5.127561092376709,-110.53618621826172,-8.083999633789062, -5.149284362792969
623,691569534,0.6451629,-0.10846562,-0.7546777,0.049617045,2.1339111328125,-1.0271040201187134,-2.219712495803833,-92.4503402709961,-31.015336990356445, 8.356264114379883
624,691586201,0.63974047,-0.105638646,-0.75919163,0.056576923,0.8753325343132019,-5.745603084564209,0.8186289072036743,43.370052337646484,-53.666202545166016, 16.300884246826172
625,691602868,0.63482857,-0.08836471,-0.7633243,0.0807497,1.3128504753112793,-1.1461894512176514,-1.2759244441986084,197.29933166503906,-67.46551513671875, 16.620460510253906
626,691619535,0.62873846,-0.07296948,-0.7679292,0.09822586,0.4499940574169159,6.795257568359375,-1.272939682006836,153.1133575439453,-70.61572265625, -2.4268672466278076
627,691636202,0.62255406,-0.07297084,-0.7731049,0.09700843,3.207791805267334,5.422479629516602,2.9840898513793945,-12.368966102600098,-53.83106994628906, -2.1465466022491455
628,691652869,0.6120555,-0.07786383,-0.7806293,0.0997165,4.764336585998535,-15.284438133239746,-16.385873794555664,-16.355390548706055,-85.52265930175781, 42.44240951538086
629,691669536,0.5972749,-0.072527304,-0.7905985,0.113826886,14.578028678894043,-2.6218793392181396,0.7102231979370117,83.69957733154297,-131.7261505126953, 37.06539535522461
630,691686203,0.5846672,-0.07165972,-0.79873455,0.12268935,9.611262321472168,-1.4560362100601196,3.4924678802490234,39.353240966796875,-106.31656646728516, 39.01960754394531
631,691702870,0.5734029,-0.070396364,-0.80492306,0.13547188,13.091753959655762,-3.65445613861084,0.09283772110939026,64.63776397705078,-93.40007019042969, 52.47629165649414
632,691719537,0.5651386,-0.06492389,-0.80877215,0.14930195,18.28831672668457,-5.230742931365967,-5.297124862670898,90.72439575195312,-72.05872344970703, 31.628454208374023
633,691736204,0.5612821,-0.06084089,-0.81015605,0.15782402,16.594409942626953,-5.249992370605469,-5.59194803237915,60.56953811645508,-34.26100158691406, 15.224453926086426
634,691752871,0.5620878,-0.059343908,-0.8095044,0.15886603,20.488765716552734,-5.271344184875488,-3.877532958984375,13.172871589660645,5.465991497039795, -3.4695632457733154
635,691769538,0.5671233,-0.05884613,-0.80690217,0.15432914,21.372041702270508,-4.101158618927002,-3.867715358734131,-17.812952041625977,39.861637115478516, -23.29564094543457
636,691786205,0.57596594,-0.058076624,-0.80212605,0.14657483,20.92435073852539,-3.917893171310425,-3.4406840801239014,-30.65321922302246,70.41510772705078, -40.50408935546875
637,691802872,0.58809876,-0.057023335,-0.7951168,0.13666557,17.977689743041992,-3.32680344581604,-2.257444381713867,-37.70402908325195,97.91552734375, -53.03038787841797
638,691819539,0.60321563,-0.056602634,-0.7858458,0.123989485,14.674314498901367,-2.57299542427063,-0.8564296960830688,-51.99094009399414,125.01302337646484, -62.66512680053711
639,691836206,0.6207342,-0.056947153,-0.7741459,0.11020086,10.043167114257812,-2.463052272796631,1.232295036315918,-58.08433151245117,149.1198272705078, -64.2264404296875
640,691852873,0.6378688,-0.058283634,-0.76137596,0.10016533,4.073428630828857,-3.9834189414978027,-2.257686138153076,-41.680335998535156,150.9016571044922, -42.18440246582031
641,691869540,0.6488917,-0.057012647,-0.75270694,0.09550727,1.6445595026016235,-4.99653959274292,-5.338971138000488,-7.487736701965332,97.00782775878906, -29.666555404663086
642,691886207,0.65456057,-0.05388632,-0.7480218,0.09544819,3.3836982250213623,-1.6118693351745605,-6.322370529174805,19.79707908630371,48.570777893066406, -16.814836502075195
643,691902874,0.6550664,-0.055239443,-0.74776596,0.09318218,3.734121322631836,-0.21548771858215332,-7.288115978240967,-16.566476821899414,5.90596866607666, -1.9604235887527466
644,691919541,0.65146804,-0.061937403,-0.7512366,0.086005166,3.8449456691741943,3.3028955459594727,-4.6273298263549805,-69.80560302734375,-26.629358291625977, 4.6176958084106445
645,691936208,0.64604634,-0.07038875,-0.7561656,0.07670227,2.4690239429473877,1.3690338134765625,-2.4906835556030273,-90.28065490722656,-40.59929656982422, 4.645106792449951
646,691952875,0.6400043,-0.07501735,-0.76120603,0.073025756,0.751687228679657,-1.404673457145691,-1.0097033977508545,-44.53825378417969,-49.017478942871094, 10.065316200256348
647,691969542,0.63343835,-0.07231111,-0.766329,0.07916455,0.4177243411540985,-1.78215491771698,-1.6922496557235718,38.62698745727539,-60.832733154296875, 15.094268798828125
648,691986209,0.62646484,-0.06350057,-0.77156353,0.090551294,-0.18545302748680115,1.2585877180099487,-1.2269864082336426,92.59588623046875,-69.38424682617188, 5.929729461669922
649,692002876,0.6192728,-0.057651877,-0.7770319,0.096948825,1.1086024045944214,2.3046045303344727,0.885506808757782,53.3168830871582,-67.54940032958984, 0.15354573726654053
650,692019543,0.60888165,-0.056533474,-0.7842306,0.10511746,3.42319917678833,-10.762476921081543,-13.592373847961426,40.269737243652344,-89.58279418945312, 34.412353515625
651,692036210,0.5931666,-0.053217933,-0.79446054,0.118970625,13.271125793457031,-5.448282718658447,0.2599639892578125,75.78130340576172,-134.65777587890625, 48.946163177490234
652,692052877,0.5816934,-0.05703679,-0.8015265,0.12623402,11.548223495483398,-4.509547710418701,4.631749629974365,14.811335563659668,-90.37372589111328, 58.691871643066406
653,692069544,0.57154185,-0.05964138,-0.8069361,0.13651785,17.38832664489746,-6.021768569946289,2.3105435371398926,38.01887893676758,-78.7286605834961, 63.626319885253906
654,692086211,0.5637326,-0.057682768,-0.81095636,0.14569943,23.99201202392578,-1.5802860260009766,-3.818122148513794,52.10959243774414,-64.18679809570312, 32.324588775634766
655,692102878,0.5585868,-0.055804204,-0.8137216,0.15074496,22.598981857299805,-2.1312098503112793,-3.5660417079925537,31.110105514526367,-42.809539794921875, 14.601242065429688
656,692119545,0.557069,-0.05602412,-0.81478506,0.15053518,23.453292846679688,-3.0669665336608887,-2.979037284851074,-3.1461246013641357,-11.83870792388916, 3.079845428466797
657,692136212,0.55954415,-0.0587211,-0.8141045,0.14386186,21.946842193603516,-4.025660037994385,-3.5459861755371094,-45.49659729003906,22.212982177734375, -11.220695495605469
658,692152879,0.5666093,-0.06208743,-0.810819,0.1329359,18.15345573425293,-5.080540180206299,-3.635509729385376,-67.49198913574219,60.27859878540039, -27.279909133911133
659,692169546,0.57867426,-0.06386088,-0.8040862,0.12043045,15.021275520324707,-4.427927494049072,-2.7081658840179443,-64.83802032470703,100.78413391113281, -45.39683151245117
660,692186213,0.59446335,-0.06531302,-0.79416627,0.107924365,10.312520980834961,-4.367223739624023,-0.8472514152526855,-59.22687911987305,133.7567901611328, -48.87560272216797
661,692202880,0.61101925,-0.066093005,-0.78266215,0.09862802,3.5932579040527344,-5.151869773864746,-4.250502109527588,-37.26601028442383,142.4241485595703, -39.33080291748047
662,692219547,0.622642,-0.06505194,-0.774187,0.09337995,3.1280951499938965,-5.022968769073486,-6.9870924949646,-12.089268684387207,100.09902954101562, -30.18225860595703
663,692236214,0.63069624,-0.06579537,-0.7681803,0.08827412,4.003157615661621,-2.2441117763519287,-5.918699741363525,-22.10810661315918,71.67145538330078, -18.919565200805664
664,692252881,0.63701123,-0.07065077,-0.7632634,0.081573665,4.203782558441162,0.14780130982398987,-3.5910587310791016,-49.82404327392578,61.029052734375, -3.551957845687866
665,692269548,0.64269257,-0.076485366,-0.7586748,0.07422203,2.334059953689575,2.7223362922668457,-0.7352481484413147,-58.08493423461914,57.17041778564453, -1.0408860445022583
666,692286215,0.6479077,-0.080076635,-0.7542523,0.07005104,0.34599393606185913,-1.103564739227295,-0.9297686815261841,-31.968338012695312,51.20032501220703, 1.5066288709640503
667,692302882,0.65190995,-0.077899195,-0.7507616,0.0728168,0.48695698380470276,-1.4382133483886719,-0.6912040114402771,28.512062072753906,34.182037353515625, 2.5662763118743896
668,692319549,0.65376204,-0.07226375,-0.7489923,0.07989896,0.9501312971115112,-0.14025133848190308,-1.9717378616333008,64.3687515258789,11.314549446105957, 4.198042869567871
669,692336216,0.65190715,-0.06930913,-0.7503908,0.08442179,0.9690681099891663,0.7019937634468079,-4.82873010635376,35.611263275146484,-19.26369285583496, 6.9561357498168945
670,692352883,0.6456737,-0.07163374,-0.7557009,0.08300894,1.0621428489685059,1.644650936126709,-3.9416322708129883,-23.004671096801758,-53.45514678955078, 8.267258644104004
671,692369550,0.63595396,-0.07935639,-0.7637585,0.077061445,2.1858670711517334,0.4892497956752777,-3.2274413108825684,-73.84181213378906,-78.41670989990234, 16.8342342376709
672,692386217,0.62240726,-0.08257277,-0.77360845,0.08556303,5.806562900543213,-12.349103927612305,-9.411210060119629,18.36159896850586,-116.53599548339844, 57.45661163330078
673,692402884,0.60465246,-0.076094955,-0.7863002,0.10167172,15.601995468139648,3.6086933612823486,-4.776121616363525,96.11323547363281,-161.01329040527344, 39.23592758178711
674,692419551,0.5902914,-0.07861831,-0.7961525,0.1073153,10.436871528625488,0.6881131529808044,1.2961710691452026,5.8842692375183105,-119.07127380371094, 43.56694793701172
675,692436218,0.57937634,-0.07991246,-0.80224836,0.11972821,12.634413719177246,-7.76707124710083,-0.2568363845348358,52.30180358886719,-89.49762725830078, 63.903141021728516
676,692452885,0.5730787,-0.08092996,-0.80496407,0.13063078,19.304780960083008,-8.879595756530762,-3.981109619140625,50.522560119628906,-50.0260124206543, 54.33903503417969
677,692469552,0.5697652,-0.08265605,-0.80649716,0.13452926,21.981210708618164,-6.765319347381592,-1.3407851457595825,11.647315979003906,-24.326677322387695, 28.626298904418945
678,692486219,0.56915057,-0.0840795,-0.80684566,0.13415958,26.071468353271484,-1.843775987625122,-1.493220567703247,-8.169251441955566,-2.6436288356781006, 8.394936561584473
679,692502886,0.5706365,-0.0858812,-0.80643475,0.12907985,24.28261947631836,-1.1707020998001099,-3.1698808670043945,-33.85835647583008,14.985139846801758, -9.379393577575684
680,692519553,0.57552344,-0.08812407,-0.80395496,0.12109243,20.06272315979004,-3.4386277198791504,-2.3872690200805664,-47.954097747802734,44.0450439453125, -20.053112030029297
681,692536220,0.5834414,-0.09185643,-0.7995161,0.10923648,15.259297370910645,-3.1529276371002197,-1.606058120727539,-71.50934600830078,72.02105712890625, -28.520959854125977
682,692552887,0.5947587,-0.09480392,-0.79261535,0.095054954,10.487918853759766,-3.375295877456665,-2.226041555404663,-77.66633605957031,101.56238555908203, -43.01322937011719
683,692569554,0.6092961,-0.0950271,-0.78275293,0.08382291,5.9091572761535645,-4.93752384185791,-2.304135799407959,-46.41431427001953,127.49702453613281, -45.996376037597656
684,692586221,0.6224109,-0.091525555,-0.77335876,0.07838485,0.311093807220459,-6.430977821350098,-7.135212421417236,-0.5956403017044067,111.88932037353516, -41.35086441040039
685,692602888,0.63091666,-0.08349813,-0.7671951,0.07990162,1.851966381072998,-5.51176643371582,-7.840335845947266,51.40369415283203,66.739990234375, -35.31513595581055
686,692619555,0.63624513,-0.07738324,-0.7632897,0.08119643,2.278350591659546,-2.078809976577759,-5.614453315734863,39.068538665771484,41.39061737060547, -25.813905715942383
687,692636222,0.6398465,-0.0773978,-0.7606065,0.077999696,3.4018404483795166,2.4722964763641357,-4.115781784057617,-12.799447059631348,32.816505432128906, -13.007320404052734
