Acc_X,Acc_Y,Acc_Z
4.797967910766602,0.1007058918476104,0.4793150722980499
4.472191333770752,-0.4701987206935882,0.3027108609676361
4.582602024078369,0.026733424514532,0.3830148875713348
4.552765369415283,-0.0962835997343063,0.273883581161499
4.117724895477295,-0.3124999701976776,0.4798272550106048
4.1704840660095215,-0.2916626036167145,0.222642719745636
4.394899368286133,-0.0777202844619751,0.724227249622345
4.158197402954102,-0.0777211412787437,0.6823523044586182
3.626129150390625,-0.4380658864974975,0.6699227094650269
3.4549691677093506,-0.8816270232200623,0.6318674087524414
3.459580183029175,-0.5495859980583191,0.8138703107833862
3.606305122375488,-0.4197620153427124,0.7666216492652893
3.4420313835144043,-0.2073611468076706,0.9041135907173156
3.300330400466919,-0.0683856308460235,0.7641344666481018
3.081747770309448,-0.3882179260253906,1.1109663248062134
2.9470365047454834,-0.7927632331848145,0.8936966061592102
2.781578063964844,-0.2035398781299591,0.8296633362770081
3.1335036754608154,0.1655176430940628,0.9673067331314088
3.00221848487854,-0.4984464347362518,1.1774317026138306
2.361024141311645,-0.2176838219165802,0.6433150172233582
2.022427082061768,0.0739484056830406,-0.2082649618387222
1.952536940574646,0.0522994920611381,-0.5855731964111328
1.955224871635437,-0.7175266146659851,-0.1560615003108978
2.0424861907958984,-0.5797494649887085,0.5994903445243835
2.7736096382141118,-1.11865234375,1.0016742944717407
3.617072343826294,-3.233349561691284,2.3111777305603027
5.721841335296631,-4.65756893157959,3.040708065032959
7.594854354858398,-5.014265060424805,4.489688873291016
8.162232398986816,-4.056304454803467,5.81781005859375
4.819436550140381,-1.9323230981826784,3.5571813583374023
2.623042106628418,-6.628250598907471,1.0530853271484375
0.9040857553482056,-8.009510040283203,-1.285088300704956
-1.564322590827942,-17.131324768066406,-4.092343807220459
-4.651828765869141,-5.968808650970459,3.098030805587769
-4.85085916519165,4.26385498046875,5.674429893493652
-3.745723009109497,10.902342796325684,4.411860942840576
-1.470845341682434,9.16555881500244,1.6362322568893433
2.126258611679077,3.297150135040283,-9.338180541992188
4.106658458709717,3.96016526222229,-16.372629165649414
4.139516353607178,2.330949306488037,-18.657094955444336
2.6273128986358643,2.396667003631592,-15.235650062561035
0.0560464262962341,0.8803781867027283,-12.932485580444336
-2.3656179904937744,3.3128933906555176,-5.462905883789063
-0.2707353830337524,0.4162634611129761,-24.786623001098636
14.54270362854004,-3.4087107181549072,-47.14225006103516
5.035309791564941,9.03734302520752,9.13698673248291
0.3939769268035888,0.6213634610176086,-0.4577775299549103
6.8670430183410645,-5.315698146820068,-0.1067371368408203
6.504528999328613,2.0292038917541504,0.9696354269981384
6.098869800567627,-0.6122797131538391,-1.0786662101745603
2.5992746353149414,0.9387025237083436,-2.048816680908203
1.8518658876419067,-1.9367475509643557,-2.7988359928131104
4.51894998550415,-1.990936279296875,-2.6547274589538574
6.082860946655273,-3.149047374725342,-1.9942193031311035
6.979979515075684,-3.1065454483032227,-0.2545204162597656
8.743721008300781,-2.8714253902435303,3.903180122375488
12.697891235351562,-1.456179141998291,5.812544345855713
12.990399360656738,0.9075565338134766,8.330803871154785
13.99026107788086,-1.1030025482177734,8.135682106018066
12.840289115905762,-2.5075104236602783,16.49396514892578
8.888057708740234,-3.528151512145996,20.208311080932617
5.338486671447754,-0.1508207023143768,13.43150234222412
5.218534469604492,-8.916007995605469,3.2482564449310303
7.8973283767700195,-5.347278118133545,18.150644302368164
0.4902538061141968,-1.7352797985076904,20.98934555053711
3.5743672847747803,-6.360870361328125,17.5958309173584
1.5897759199142456,-3.006955623626709,18.584604263305664
2.4921233654022217,2.6950740814208984,16.84867286682129
3.0941107273101807,3.01580810546875,14.530247688293455
4.742545127868652,3.2836296558380127,11.481945037841797
5.172781467437744,1.4108082056045532,8.67280101776123
4.906803607940674,-0.870479941368103,6.167097568511963
5.379424571990967,-2.3178844451904297,4.1597185134887695
6.460325241088867,-4.143932819366455,2.027137994766236
7.410178184509277,-4.161846160888672,1.437604904174805
8.446513175964355,-2.110583782196045,-1.4133702516555786
8.684127807617188,0.1543847471475601,-3.1829254627227783
8.635873794555664,0.300389289855957,-5.735589027404785
7.67098331451416,0.6348403692245483,-6.604062080383301
6.926933765411377,-0.8452892303466797,-9.246078491210938
7.823053359985352,-2.044228792190552,-16.86284065246582
5.6759934425354,-1.270682454109192,-20.468843460083008
2.959327459335327,-3.6152868270874015,-23.867935180664062
1.195976495742798,-2.987244844436645,-26.774768829345703
-1.642402172088623,-3.631635189056397,-29.86992645263672
-3.164902210235596,-1.698284149169922,-29.332311630249023
-2.3541719913482666,-0.4655169546604156,-26.87769317626953
-1.2769114971160889,2.8747668266296387,-23.55708885192871
-1.276716709136963,5.319218158721924,-16.003782272338867
-3.7235028743743896,4.686068058013916,-8.075212478637695
-4.865596771240234,2.1671664714813232,-11.611680030822754
10.468124389648438,-11.32365894317627,-50.52549743652344
8.444927215576172,5.641366958618164,17.24483299255371
10.289199829101562,-7.596191883087158,3.724745035171509
23.995555877685547,-10.412121772766112,21.98921585083008
13.403153419494627,11.001399993896484,1.3343613147735596
4.72355842590332,3.9105942249298096,0.2691645920276642
1.5264482498168943,-0.6471141576766968,-3.8496129512786874
-2.8882577419281006,-0.3942375481128692,-6.598703861236572
-3.0135440826416016,-1.376276612281799,-5.420838832855225
2.278596878051758,-2.360473871231079,-3.179409503936768
7.833406448364258,-1.2644751071929932,0.3021650314331054
9.292829513549805,0.3119899928569793,3.656005382537842
10.657310485839844,3.56885290145874,4.630244255065918
9.066364288330078,4.624659061431885,7.541521549224853
7.658957481384277,3.642704963684082,6.9096550941467285
8.563915252685547,2.033655166625977,8.685335159301758
6.663578510284424,-0.946840763092041,15.3394136428833
6.011836051940918,-1.0487785339355469,15.377861976623535
6.722414970397949,-9.085376739501951,18.7343807220459
3.148747205734253,-8.861368179321289,11.212589263916016
8.03371810913086,-11.07679843902588,2.1906301975250244
5.950561046600342,-0.4151702523231506,20.030900955200195
1.0382832288742063,1.704896092414856,21.856645584106445
4.678816318511963,-6.350768566131592,17.023189544677734
3.721952438354492,-0.1786295622587204,14.509003639221191
4.36605167388916,0.8177587389945984,12.976682662963867
2.086204290390014,2.602290630340576,13.515089988708496
2.922741651535034,1.467620015144348,10.424164772033691
3.8198821544647217,0.1456147730350494,5.900140285491943
3.9854676723480233,-1.7992005348205566,3.275123357772827
3.627097129821777,-4.2183990478515625,-0.086344227194786
3.1898913383483887,-3.3454763889312744,-0.744081437587738
2.89281702041626,-3.9411141872406006,-2.915444850921631
2.940882682800293,-1.346144437789917,-4.81984281539917
3.6051197052001953,0.9369016289711,-6.724793434143066
4.419434070587158,0.489679753780365,-9.098678588867188
5.103539943695068,1.7067474126815796,-10.769185066223145
5.420159339904785,0.1032140702009201,-12.949609756469728
4.501871109008789,-0.354724645614624,-17.123390197753906
1.991166949272156,-1.3209255933761597,-19.695985794067383
-0.2129993736743927,-1.5113972425460815,-19.927419662475582
-2.69404935836792,-2.892389297485352,-22.47909164428711
-2.826954126358032,-4.662440299987793,-21.30386734008789
-3.8215699195861816,0.5246307849884033,-18.374195098876957
-2.9462978839874268,0.4778674244880676,-17.12068748474121
-0.4115411043167114,0.9790698885917664,-15.283631324768066
3.139469623565674,-17.136140823364258,-47.28459930419922
19.78227424621582,1.9455620050430296,1.5542514324188232
-0.516671359539032,3.741241455078125,16.751399993896484
11.246213912963867,-5.303989887237549,-4.439688205718994
4.599182605743408,6.657257556915283,-2.738173007965088
4.741030693054199,4.216160297393799,-2.2913639545440674
3.9596314430236816,2.515411615371704,-2.8700692653656006
5.02835750579834,-1.791724443435669,-1.5246548652648926
6.397806167602539,-0.1713763028383255,-2.198153018951416
6.512651443481445,0.2536343932151794,-1.2494311332702637
6.95974588394165,0.7907305955886841,-1.3641780614852903
6.765130996704102,1.525152325630188,-0.5379550457000732
7.660534381866455,2.028059959411621,1.704609513282776
8.34621524810791,1.6941951513290403,3.623913526535034
7.633822917938232,1.460345983505249,6.724028587341309
6.220090389251709,0.0786902010440826,5.391197204589844
5.91914701461792,-0.2418013215065002,8.58011531829834
4.572140216827393,-1.8386902809143064,12.714651107788086
5.4216156005859375,-5.6926140785217285,15.505141258239746
2.29905366897583,-5.561628341674805,8.82275104522705
4.489022254943848,-7.876425743103027,3.460031747817993
9.521425247192385,-6.317665100097656,13.993151664733888
4.329559326171875,-1.252669334411621,17.42146873474121
5.967680931091309,-4.738988399505615,15.875816345214844
3.926001071929932,-6.43966817855835,15.983174324035645
4.932949542999268,-4.84404182434082,14.920239448547363
6.629174709320068,-5.811842918395996,11.815311431884766
7.481976985931396,-5.169403553009033,8.815052032470703
7.5771164894104,-0.9520857334136964,9.21280002593994
6.165229320526123,-0.7032656073570251,7.818053722381592
5.444806098937988,-2.1475157737731934,3.8154897689819336
4.956679344177246,-2.6448140144348145,2.5576090812683105
3.956454038619995,-2.8909285068511963,2.2388579845428467
3.394355773925781,-3.574721336364746,0.6826882362365723
2.545032501220703,-2.397127389907837,0.0130798444151878
2.047240972518921,-1.0097432136535645,-0.6361502408981323
1.6412583589553833,1.059680700302124,-1.0946372747421265
1.0153123140335083,2.3999617099761963,-2.893531322479248
0.3615789413452148,3.77649188041687,-3.403483629226685
0.8285276889801025,2.6013917922973637,-5.457293510437012
1.4405468702316284,1.8270798921585083,-7.793704032897949
1.463919997215271,0.2223968207836151,-12.950139999389648
0.5790905952453613,-2.577910900115967,-21.138751983642575
0.4840963780879974,-1.9029709100723269,-19.984699249267575
-0.8115333318710327,-1.5596868991851809,-23.0586051940918
-1.9397263526916504,-0.5844393372535706,-24.81647300720215
-3.008847236633301,-0.1740226447582245,-24.206098556518555
-3.8089776039123535,2.752073049545288,-20.317798614501957
-3.643887758255005,2.327310085296631,-15.549626350402832
8.40728759765625,-29.036022186279297,-76.85908508300781
27.692779541015625,22.6994743347168,23.178544998168945
3.835894107818604,-2.718947410583496,-2.727105140686035
7.276300430297852,-2.7109193801879883,3.406189203262329
5.364017486572266,5.970575332641602,-5.458694934844971
5.647215843200684,0.7459980845451355,-1.386215329170227
7.658443450927734,-1.12570059299469,-0.5405539274215698
5.699721336364746,0.9214927554130554,-3.016323566436768
4.326478004455566,1.7958488464355469,-3.9711194038391113
4.064113140106201,2.0235800743103027,-3.649363040924072
5.489949703216553,0.3739805817604065,-3.1884982585906982
5.771519184112549,0.8950385451316833,-0.4915244281291961
6.925536155700684,1.4125330448150637,1.4810800552368164
8.167905807495117,2.841783046722412,3.626719236373901
6.943806171417236,1.7460505962371826,5.709220886230469
5.404481410980225,1.5246144533157349,5.968984603881836
3.777705192565918,1.6303834915161133,8.81256103515625
3.3368351459503174,-3.0730488300323486,12.016461372375488
0.3953704833984375,-4.343102931976318,9.030881881713867
2.2848260402679443,-5.677764892578125,8.23656940460205
3.945188045501709,-4.356773376464844,4.953834533691406
8.130963325500488,-2.720797538757324,8.69974136352539
4.775764465332031,-4.057130813598633,14.732593536376951
5.010312080383301,-3.756342649459839,14.28414249420166
5.4465012550354,-4.543194770812988,13.870835304260254
6.312732219696045,-4.869267463684082,14.025456428527832
8.149831771850586,-5.556381702423096,12.039807319641112
10.428428649902344,-7.091682434082031,9.561969757080078
10.35611343383789,-6.269399642944336,9.225343704223633
8.690167427062988,-1.810568928718567,9.465536117553713
6.669735908508301,-1.2401165962219238,7.192187786102295
5.005659103393555,-3.122629880905152,3.865593910217285
4.196893215179443,-2.352392673492432,2.3812813758850098
3.4810264110565186,-2.3775558471679688,1.0140070915222168
3.0121304988861084,-1.8811177015304563,-0.4244592189788818
2.4851107597351074,-1.1535003185272217,-1.341407299041748
1.9461219310760496,0.5607621073722839,-1.5499980449676514
1.8285770416259768,0.6805420517921448,-2.4640893936157227
1.334439992904663,2.487035036087036,-3.248135089874268
0.133424699306488,2.526155471801758,-4.060587406158447
-0.8017147779464722,1.4624199867248535,-6.021583080291748
-1.6023439168930054,1.360754132270813,-8.510628700256348
-1.7804994583129885,0.2160747349262237,-11.850887298583984
-2.347834825515747,-0.5989388823509216,-14.935754776000977
-2.525604724884033,-0.7730308175086975,-17.424625396728516
-3.3928043842315674,-0.972711980342865,-18.42251205444336
-3.792288064956665,-4.122621536254883,-21.61645126342773
-3.725816965103149,-0.9512804746627808,-21.7695369720459
-3.656363487243652,2.2014520168304443,-17.533296585083008
0.2367238402366638,-5.88920783996582,-33.85220718383789
16.841699600219727,-16.40834617614746,-86.32152557373047
17.106273651123047,27.75619506835937,36.81410217285156
4.05226469039917,-4.530091285705566,-10.613810539245604
15.734007835388184,-7.338995933532715,12.242206573486328
12.111026763916016,5.275210380554199,1.784797191619873
4.038606643676758,3.6106715202331534,-2.835177183151245
-0.6951606869697571,1.106278419494629,-3.6643996238708496
-1.3471611738204956,-1.0476984977722168,-6.094097137451172
-1.672959804534912,-3.196894884109497,-4.073480606079102
2.3229262828826904,-2.5743637084960938,-4.379709243774414
6.56851053237915,-2.1520626544952397,-1.898000955581665
8.88182258605957,-0.4766477346420288,-1.367438554763794
10.472928047180176,1.220961570739746,-0.8309606313705444
11.813702583312988,3.724608659744263,2.7610249519348145
11.13857650756836,2.695988178253174,6.183391571044922
9.061885833740234,1.9318927526474,6.9199748039245605
5.452207088470459,-0.9767783880233764,7.791928768157959
4.968592643737793,-9.432876586914062,10.155305862426758
0.1070833876729011,-9.106203079223633,10.052169799804688
-0.3789958655834198,-3.9096410274505615,13.0040922164917
4.079897880554199,-5.872980117797852,5.400304317474365
8.829195022583008,-8.163671493530273,5.90681791305542
8.050558090209961,-5.791848659515381,11.670994758605955
5.581174850463867,-0.7023159265518188,18.41027069091797
5.385907173156738,-4.594303131103516,16.630945205688477
6.065153121948242,-4.148760795593262,15.626333236694336
6.170748710632324,-0.579500675201416,15.942093849182127
6.619275569915772,0.9732303619384766,13.406915664672852
6.98550271987915,0.938280463218689,11.563973426818848
5.577250480651856,1.0688505172729492,10.373486518859863
4.830227375030518,3.22186541557312,8.815984725952148
4.425779342651367,2.9589009284973145,6.86379861831665
4.191150665283203,0.9438149929046632,5.276168823242188
4.394432067871094,0.1696373075246811,4.358417510986328
4.7330756187438965,-2.0032999515533447,2.970024585723877
5.254144668579102,-2.8222744464874268,0.89455246925354
5.734354972839356,-1.63290274143219,-0.7028458118438721
5.847470283508301,-0.3285956382751465,-1.618261456489563
5.783538818359375,0.5042312741279602,-3.135662794113159
5.202282428741455,1.1927945613861084,-4.464687347412109
3.892965793609619,0.0955718979239463,-5.884734630584717
2.736512899398804,-1.8398313522338867,-8.506196975708008
2.128392457962036,-3.708881139755249,-13.945712089538574
1.0177161693572998,-4.8320746421813965,-17.713918685913086
-0.3899062275886535,-1.981529712677002,-19.169523239135746
-1.4369661808013916,-2.375991106033325,-22.283313751220703
-2.774112701416016,-1.8479647636413572,-24.03840446472168
-3.896576404571533,-2.653650522232056,-22.95013999938965
-4.143920421600342,-2.1331911087036133,-21.64041519165039
-4.19016170501709,1.1145873069763184,-17.99030876159668
-5.336799144744873,2.8340580463409424,-12.533583641052246
-3.916572332382202,-6.548370838165283,-26.10477828979492
23.604883193969727,-14.837743759155272,-50.55779266357422
4.221193313598633,13.677066802978516,28.746383666992188
23.87276268005371,-7.654029369354248,-1.2206846475601196
4.697261810302734,9.99624729156494,-4.016395568847656
6.017314910888672,5.798835754394531,-3.284452199935913
7.8957133293151855,-0.35260671377182,-1.929187536239624
8.048477172851562,-1.818811297416687,-0.1232306808233261
5.405929088592529,-0.1854582130908966,-1.960962414741516
5.799074172973633,1.091403245925903,-2.648088932037353
6.730813503265381,1.4712965488433838,-0.4907943308353424
8.329909324645996,2.7597880363464355,0.8245000839233398
8.507696151733398,5.029466152191162,3.89983344078064
7.253366470336914,3.5307188034057617,2.388992547988892
7.131045818328857,-1.7612850666046145,8.97990608215332
0.2269695997238159,-2.564074277877808,7.97761869430542
1.9731996059417725,-4.568976879119873,6.46144437789917
2.109747648239136,-3.9292314052581783,6.652153491973877
4.25532865524292,-2.7886998653411865,3.671003580093384
6.951494216918945,-3.6670360565185542,8.641937255859375
4.508793830871582,-5.152320861816406,11.948687553405762
4.752711296081543,-5.605827808380127,12.502553939819336
5.223985195159912,-4.798396110534668,13.10683250427246
6.0625505447387695,-4.680224418640137,13.240050315856934
7.093695640563965,-5.709415435791016,12.619650840759276
9.032965660095217,-4.233424186706543,11.18470573425293
10.404059410095217,-3.997530937194824,10.195794105529783
9.459100723266602,-3.226133108139038,8.858020782470703
7.543110370635986,-0.0875312983989715,8.525550842285156
5.164435386657715,-0.6781530976295471,6.766158103942871
3.8276000022888175,-1.52527916431427,4.437440872192383
3.0645856857299805,-1.7081114053726196,3.465636730194092
2.629812717437744,-1.331760287284851,3.16717267036438
2.390877246856689,-0.6731040477752686,2.3140571117401123
2.16794228553772,-0.3759305775165558,0.8435400128364563
1.568334460258484,0.4992527961730957,-0.0652879253029823
1.0128507614135742,2.98392391204834,-0.2405482530593872
0.8797149658203125,2.865302085876465,-1.310413479804993
-0.0549040958285331,4.153726100921631,-2.1687111854553223
-1.30042827129364,2.9863438606262207,-3.400708675384521
-2.1833741664886475,2.2388756275177,-6.739768028259277
-2.68713116645813,0.5174379944801331,-10.051824569702148
-2.492835998535156,-1.0726763010025024,-14.60019588470459
-2.29257869720459,-1.939204692840576,-17.78521728515625
-2.82915997505188,-1.3417834043502808,-19.53452682495117
-3.4987733364105225,-0.3091703653335571,-22.902774810791016
-3.979001522064209,0.109402984380722,-24.10201835632324
-3.760932445526123,-0.785968542098999,-23.15847396850586
-3.998934268951416,0.0135769397020339,-20.188350677490234
-2.3666417598724365,-14.681748390197754,-47.219120025634766
33.02555465698242,-5.6520185470581055,-39.8544921875
-0.2717384099960327,17.54697608947754,30.23577117919922
22.154172897338867,-11.261982917785645,-5.736135005950928
3.933938026428223,10.304669380187988,-2.39444637298584
4.3496809005737305,0.0728031024336814,-1.4577176570892334
4.514379501342773,-0.1422138959169387,-3.910711288452149
5.530640602111816,0.7899780869483948,-2.409982204437256
5.190959453582764,-0.93877774477005,-2.8487465381622314
6.383860111236572,0.2506010830402374,-3.067070245742798
6.787543773651123,-0.6579160094261169,-1.8196871280670168
7.807754993438721,0.0502982549369335,-0.288216233253479
8.834964752197266,1.0683345794677734,2.2281951904296875
9.553008079528809,0.579043447971344,4.9361252784729
5.847802639007568,-1.4082341194152832,6.946371078491211
5.2620930671691895,-3.676875114440918,8.476728439331055
1.4702837467193604,-2.7992238998413086,8.224061965942383
1.5252138376235962,-1.4611600637435913,10.04628562927246
2.16564416885376,-4.582842350006104,8.300819396972656
4.8326849937438965,-7.187772274017334,5.063894748687744
6.779967784881592,-7.659546375274658,11.320172309875488
3.078402042388916,-1.317065715789795,19.41226959228516
2.5596916675567627,-1.0844157934188845,19.771713256835938
2.7420482635498047,-2.373234748840332,17.172943115234375
3.8641514778137207,1.0959272384643557,15.937610626220703
3.978352308273315,2.1793482303619385,15.790042877197266
5.356314659118652,2.2830464839935303,12.803696632385254
6.113211154937744,1.538000226020813,10.779268264770508
5.835938453674316,1.924558162689209,9.117551803588867
5.31870174407959,2.295210123062134,6.726644515991211
4.810190200805664,0.7209519743919373,4.6023945808410645
4.833799839019775,-0.9603480696678162,2.5171916484832764
5.110815048217773,-1.6462862491607666,0.7057958245277405
5.285581588745117,-0.9569436311721802,-1.042984127998352
5.097200870513916,-0.3445299565792084,-2.7171998023986816
4.98724889755249,-0.3996466398239136,-4.24908971786499
4.885631561279297,-0.147611379623413,-5.2601165771484375
4.645626544952393,-0.5948885679244995,-5.861013412475586
3.916145086288452,-2.3209056854248047,-8.748128890991211
3.182767868041992,-4.326601505279541,-11.713882446289062
1.7196249961853027,-2.343020439147949,-12.295183181762695
0.0570581257343292,-0.642052412033081,-13.61086368560791
-1.8449221849441528,-0.0977447181940078,-14.738368034362791
-3.8994157314300537,-0.5776371359825134,-15.434885025024414
-5.097671031951904,-1.999311208724976,-15.18581771850586
-5.504512310028076,-2.721360921859741,-14.609000205993652
-4.80842399597168,-2.913336038589477,-16.95368003845215
-5.505012035369873,1.318204045295715,-12.277739524841309
-5.629923343658447,1.692540407180786,-9.928695678710938
-4.703538417816162,1.908475399017334,-8.915848731994629
-2.5601565837860107,-0.8563434481620789,-9.65176773071289
3.5396945476531982,-31.049983978271484,-79.26819610595703
28.959278106689453,9.897436141967772,19.226816177368164
-6.829277515411377,3.932835817337036,2.6867446899414062
12.92013931274414,-0.8900240659713745,-2.0164008140563965
4.93588399887085,4.455233573913574,-0.2328223437070846
10.113970756530762,4.699821949005127,-2.9915008544921875
8.36452865600586,0.7013784050941467,-0.9496170282363892
7.17789363861084,1.3355876207351685,-3.401155471801758
6.471978664398193,0.9483572840690612,-1.1847727298736572
7.020750045776367,1.3477953672409058,-2.6525521278381348
7.775975704193115,2.001636505126953,-2.246736764907837
7.846909046173096,3.642336845397949,1.6720383167266846
9.453445434570312,3.115198850631714,2.3588314056396484
6.862836837768555,2.4051103591918945,3.21189546585083
5.930137634277344,-2.2747905254364014,4.862403392791748
2.3828344345092773,-2.997775793075561,8.898426055908203
0.5485606789588928,-3.186190366744995,10.461743354797363
1.1469879150390625,-3.673823595046997,7.731790065765381
1.9941543340682983,-4.087596893310547,5.1990485191345215
4.564593315124512,-3.2193448543548584,3.461166381835937
7.163759708404541,-1.6233006715774536,12.46921157836914
6.019088745117188,-2.6476221084594727,13.155939102172852
7.657273292541504,-3.961348056793213,14.279032707214355
6.968883514404297,-3.3996095657348637,15.451172828674316
6.985257625579834,-3.7449350357055664,13.88746166229248
7.620833873748779,-3.6489815711975098,12.329216957092283
8.760584831237793,-3.2428221702575684,11.86357879638672
9.39617156982422,-2.9624037742614746,9.880382537841797
8.243412017822266,-2.012348175048828,7.572306156158447
6.355648517608643,-0.4368654489517212,7.287964344024658
4.474717617034912,-0.4538443386554718,5.551936149597168
3.572623014450073,-1.4827688932418823,3.996511936187744
2.991078615188598,-1.1664671897888184,4.329291820526123
2.525770664215088,-0.7213093042373657,3.6178267002105713
2.084782838821411,-1.1144124269485474,1.8238859176635744
1.253688097000122,-0.1692718714475631,1.0886032581329346
0.3873657286167145,1.355644702911377,0.0698437318205833
-0.131110206246376,2.7888777256011963,-1.1377912759780884
-0.8902998566627502,3.8577980995178223,-2.281007766723633
-1.690518140792847,3.520622491836548,-3.2515785694122314
-2.581238985061645,4.1697916984558105,-4.131790637969971
-2.7400095462799072,0.6109643578529358,-8.718794822692871
-2.9250354766845703,-3.741525650024414,-13.946009635925291
-1.9354485273361208,-4.179593086242676,-18.756425857543945
-0.7904098629951477,-2.0574593544006348,-21.987293243408203
-1.8284878730773928,-2.662925720214844,-25.51985740661621
-3.917103052139282,-3.5580708980560303,-27.07834815979004
-4.289022922515869,-2.232197999954224,-25.386314392089844
-5.322980880737305,0.3081496953964233,-19.914186477661133
-3.6076602935791016,-10.63323974609375,-34.67845916748047
29.824649810791016,-14.392491340637209,-50.4228630065918
0.9747525453567504,15.904967308044434,29.942628860473636
21.417041778564453,-7.743416786193848,-3.171103000640869
1.8603661060333248,11.564372062683104,-6.955695152282715
5.380685329437256,0.520806074142456,-2.093198776245117
7.954172611236572,-0.0164986867457628,-1.91087007522583
6.862534046173096,-1.3558653593063354,-2.76469349861145
4.881165504455566,0.0621296092867851,-2.336874723434448
6.106094837188721,0.6747574210166931,-3.487753868103028
7.511466979980469,0.1220773607492446,-1.9481467008590696
7.009177684783936,2.610513210296631,1.3682861328125
7.990346908569336,2.5393600463867188,1.049929141998291
7.854803085327148,3.218072891235352,3.350972414016724
6.850491523742676,0.6369373798370361,6.612305641174316
3.9543519020080566,-0.782813310623169,9.111257553100586
1.9995368719100952,-4.0658040046691895,9.55748176574707
-0.7598806619644165,-5.6354265213012695,6.233092308044434
-0.0475878566503524,-7.655259609222412,0.759344756603241
7.009464740753174,-6.810286998748779,1.9285968542099
6.499762058258057,-4.137397766113281,10.880446434020996
5.359158039093018,-3.755642890930176,15.474746704101562
4.842260360717773,-3.4248220920562744,16.33924674987793
4.915450096130371,-1.5854874849319458,15.908646583557127
5.941455841064453,-4.12432861328125,15.412261962890623
6.145378112792969,-5.738569259643555,14.256715774536133
7.08763599395752,-3.979111909866333,11.939311981201172
9.062868118286133,-3.700185775756836,9.863300323486328
8.899933815002441,-3.5690627098083496,9.019399642944336
6.475802421569824,0.1694697141647339,6.710434913635254
5.505710601806641,1.8253192901611328,6.627755641937256
3.779512405395508,0.717665433883667,4.756579399108887
3.227989196777344,-1.0080994367599487,2.0412659645080566
2.8472533226013184,-1.345354437828064,0.7751568555831909
2.40106201171875,-1.1166000366210938,-0.3449302911758423
2.5194034576416016,-1.0412384271621704,-2.350097417831421
1.9089915752410889,1.2977571487426758,-2.718562602996826
1.2910363674163818,2.821605443954468,-3.299424648284912
1.209264874458313,2.810725450515747,-4.306674480438232
0.4860740303993225,3.073239326477051,-5.126305103302002
-1.1407954692840576,0.9225608110427856,-6.175057411193848
-2.3213160037994385,-0.2279961109161377,-7.52325963973999
-2.2151923179626465,-1.111670970916748,-10.555499076843262
-2.156797409057617,-2.214819431304932,-15.392911911010742
-2.587305784225464,-0.1383656561374664,-17.765132904052734
-3.27132248878479,-1.9416069984436035,-18.88806533813477
-3.791804075241089,-0.7110252976417542,-19.384910583496094
-4.665925979614258,-0.6983197927474976,-19.314048767089844
-4.673189640045166,-0.4285072684288025,-18.624267578125
-4.577560424804688,0.4555412530899048,-14.960053443908691
-5.379297256469727,2.292701005935669,-10.27049446105957
-3.695387840270996,-21.95056533813477,-62.93626022338867
31.50482940673828,3.153404951095581,-4.272455215454102
-4.988738536834717,7.087989807128906,14.054306030273438
18.126480102539062,-3.576804876327514,-5.9418044090271
5.072604656219482,4.643965721130371,1.7360029220581057
10.734923362731934,4.119808197021484,-3.390366792678833
6.933841705322266,0.638222873210907,0.5994483232498169
4.81353759765625,0.2894799709320068,-2.365816354751587
3.1869490146636963,-0.3489372432231903,-3.1258528232574463
3.162956714630127,0.8217753171920776,-1.7908477783203125
4.156583786010742,0.0888133868575096,-3.0687475204467773
5.645008563995361,0.3406976163387298,-0.7659672498703003
7.532612800598144,0.7815840244293213,2.756231546401977
8.369673728942871,-0.3576908707618713,2.49715518951416
6.824799060821533,-1.4491970539093018,4.496138095855713
5.381716728210449,-1.425542235374451,8.264293670654297
3.735002040863037,-1.3427706956863403,8.944316864013672
3.0732946395874023,-1.669428825378418,11.826451301574709
2.2606258392333984,-2.6458628177642822,12.97696304321289
2.149387836456299,-6.086028575897217,6.665272235870361
5.967055320739746,-8.483168601989746,0.8239201903343201
9.145881652832031,-4.289984703063965,9.2056303024292
3.691059827804565,-2.6655590534210205,15.208611488342283
5.682771682739258,-4.958014488220215,14.107033729553224
4.929846286773682,-1.8181267976760864,14.686089515686035
4.931475639343262,-0.6578291058540344,14.894112586975098
5.506480693817139,-2.249037265777588,13.34279441833496
5.923604965209961,-2.695034980773926,10.159833908081056
6.659058094024658,-2.427864789962769,7.008427619934082
5.670042037963867,-2.189332962036133,7.407946109771728
4.275312423706055,2.1134684085845947,7.058722972869873
4.150783538818359,0.9452186822891236,4.802992343902588
3.986764669418335,-1.468822717666626,1.0211354494094849
3.795647382736206,-1.5953538417816162,1.0183615684509275
3.6077380180358887,-2.117918968200684,0.0873500183224678
3.0758614540100098,-1.875707507133484,-0.728195309638977
2.0101985931396484,-1.3536590337753296,-1.3055710792541504
1.273684859275818,1.432824730873108,-1.5707063674926758
0.641264796257019,2.342124938964844,-2.1402876377105717
0.1005111038684845,2.638179302215576,-3.3359453678131104
0.0074307918548583,1.2832539081573486,-4.770570278167725
0.024799108505249,0.5257900357246399,-6.144527912139893
-0.466909795999527,-0.6602182984352112,-8.365447998046875
-0.9891790747642516,-2.251281261444092,-12.159217834472656
-1.428746461868286,-2.0282680988311768,-14.348559379577637
-2.08521032333374,-1.303500771522522,-16.157272338867188
-2.447967529296875,-1.7706592082977295,-18.5533447265625
-3.4833359718322754,-1.2407069206237793,-19.243114471435547
-4.91539192199707,-1.5756614208221436,-19.26650047302246
-6.118504524230957,-0.3474842309951782,-16.84721565246582
-7.248471736907959,1.305601954460144,-12.082012176513672
-8.630590438842773,3.742515802383423,-6.591031074523926
-8.365472793579102,2.7584235668182373,-4.436987400054932
17.882911682128906,-38.32390594482422,-55.01293182373047
47.064483642578125,18.57767105102539,13.467733383178713
2.6546456813812256,8.993053436279297,-6.787415027618408
-3.799743175506592,2.460071086883545,-8.185752868652344
-4.582235813140869,-6.856997489929199,-3.36130428314209
4.190582752227783,0.5765450596809387,-5.224417686462402
4.828888893127441,-0.6551154255867004,-1.2422679662704468
6.000037670135498,-3.877242088317871,-1.9961603879928589
9.359420776367188,1.2868616580963137,-0.9001485705375671
11.016139030456545,2.539910078048706,-2.1471540927886963
9.508121490478516,3.689640998840332,0.2935158014297485
9.515201568603516,3.3148751258850098,2.631943464279175
9.174283981323242,3.2594990730285645,5.14040994644165
7.623167991638184,0.8476487398147583,6.649371147155762
5.240524291992188,-1.163394570350647,5.407810688018799
1.492864727973938,-1.7938686609268188,9.786401748657228
0.6885660290718079,-4.844605922698975,8.373281478881836
0.5869003534317017,-4.833289623260498,9.011542320251465
2.8067221641540527,-7.313380718231201,1.466539740562439
6.289321422576904,-7.440162181854248,3.052076816558838
4.050170421600342,-3.4363114833831787,11.58617877960205
2.6469602584838867,-2.5458524227142334,15.533963203430176
3.743874311447144,-2.737015008926392,14.98169994354248
4.686814308166504,-2.5103371143341064,13.683892250061035
5.199795722961426,-3.2090606689453125,12.973583221435549
5.697489261627197,-4.286335468292236,11.891085624694824
6.850402355194092,-3.3707082271575928,9.586474418640137
8.137299537658691,-2.7930006980896,8.99227237701416
7.512474536895752,-2.997267961502075,7.880130767822266
5.986234188079834,-1.0158393383026123,6.168655872344971
5.0970635414123535,1.0257352590560913,6.034947872161865
3.660480976104736,-0.4457604885101318,4.075188636779785
3.210101366043091,-2.581476211547852,1.5510175228118896
3.0448431968688965,-2.3143303394317627,0.8922264575958252
2.4963741302490234,-2.1587345600128174,0.4652785956859588
2.4386870861053467,-1.6829466819763184,-1.0729761123657229
2.248697280883789,-0.4944470822811126,-2.017994880676269
2.167867422103882,2.6925995349884038,-1.8945553302764893
2.437624216079712,2.948490858078003,-2.515247106552124
1.9548803567886357,3.875205993652344,-3.30415678024292
0.5814265012741089,3.1849894523620605,-4.502387046813965
-0.8646023869514465,1.468649983406067,-5.473656177520752
-1.2810510396957395,-0.6821538805961609,-8.937315940856934
-1.7088263034820557,-2.323839902877808,-13.603311538696287
-2.39444899559021,-0.3500216007232666,-15.75723361968994
-2.896862268447876,-0.2945354282855987,-18.23638916015625
-3.71285891532898,-0.746964156627655,-20.39563369750977
-5.234209537506104,-1.2369427680969238,-21.775924682617188
-5.417962551116943,-2.331411123275757,-21.365968704223636
-4.960988998413086,-0.5621951818466187,-18.739839553833008
-6.090108394622803,1.144924521446228,-14.138175964355469
-7.49022102355957,1.4951659440994265,-7.915683746337891
4.1303582191467285,-36.6303939819336,-77.10257720947266
32.24401092529297,17.7343807220459,22.4205265045166
23.259544372558597,9.41903305053711,10.861419677734377
5.629155158996582,4.957989692687988,-3.802225351333618
0.5654751062393188,0.6843847036361694,-3.411963939666748
7.152393817901611,0.2759237289428711,-0.4614262878894806
6.489563465118408,-4.067075252532959,0.5489966869354248
1.458937168121338,-0.2657214701175689,-3.4558446407318115
0.5196194648742676,1.4479684829711914,-4.865475654602051
3.0657525062561035,1.3537538051605225,-4.4418535232543945
5.126927852630615,1.1063047647476196,-2.1790459156036377
5.289180755615234,0.531199038028717,0.2846540212631225
8.044002532958984,0.1483820974826812,1.5901650190353394
8.936029434204102,0.517946183681488,5.188627243041992
8.001973152160645,-0.5694301724433899,5.653596878051758
6.790850639343262,-0.8663780093193054,8.713791847229004
4.468383312225342,-1.3720057010650637,11.041481018066406
3.4696316719055176,-3.9309258460998535,12.718669891357422
0.966404378414154,-3.838852643966675,11.293009757995604
1.4424296617507937,-8.831474304199219,2.9433624744415283
7.802746295928955,-10.375956535339355,-0.8826797604560852
4.459527015686035,-5.883683681488037,10.826654434204102
1.7654318809509275,-2.7621877193450928,14.956643104553224
2.903684616088867,-3.996361255645752,14.347474098205566
3.0918705463409424,-2.775522470474243,13.715301513671877
3.684751272201538,-1.890758037567139,13.327452659606934
4.366723537445068,-1.609649419784546,11.646207809448242
5.338949203491211,-1.7642607688903809,10.616878509521484
5.934464454650879,-1.4135898351669312,9.079388618469238
5.212233066558838,-1.4705166816711426,6.68975305557251
4.614261627197266,1.8888224363327024,6.887351036071777
4.639033317565918,1.342408537864685,5.239818572998047
4.669985771179199,-0.9345386028289796,2.6536459922790527
4.968385219573975,-1.3458521366119385,1.3495293855667114
4.876209735870361,-1.7264474630355835,0.3994019031524658
4.519402503967285,-1.399382472038269,-1.4086635112762451
3.814355850219727,-0.4649793207645416,-2.1455278396606445
3.444571018218994,2.028260469436645,-2.597486972808838
2.782618284225464,2.65254020690918,-3.2845330238342285
1.854254126548767,3.1473934650421143,-4.1100029945373535
1.5432647466659546,1.7672325372695925,-7.120706558227539
0.8024177551269531,0.5972214937210083,-7.922611236572266
-0.2139491140842437,-0.6109181642532349,-10.134660720825195
-1.8055212497711184,-1.9547994136810305,-14.074358940124512
-2.752525806427002,0.7024309039115906,-16.147397994995117
-3.885798931121826,0.1380755752325058,-15.216940879821776
-4.308475017547607,-0.8141202926635742,-16.905216217041016
-5.308468341827393,-0.558138370513916,-16.574140548706055
-5.976813793182373,-2.088535785675049,-16.419784545898438
-5.504886627197266,-1.1121611595153809,-15.619414329528809
-5.122406959533691,0.030815627425909,-13.927191734313965
-5.017448425292969,0.0892062559723854,-11.030266761779783
-1.5085394382476809,-16.03921127319336,-39.87275314331055
28.107789993286133,-12.868764877319336,-34.95832443237305
0.8617861866950989,21.51703643798828,26.22154998779297
19.700590133666992,-5.096518039703369,-4.868809700012207
3.495102405548096,5.34262752532959,-0.8050726652145386
6.945203304290772,3.433505058288574,-3.806274175643921
6.17634391784668,-2.279776096343994,0.7803012132644653
4.947984218597412,-2.4483461380004883,-1.147446870803833
3.794281244277954,-0.0059118047356605,-2.77197790145874
5.182728290557861,2.191679716110229,-3.376976490020752
6.372326850891113,2.251293420791626,-2.003029584884644
8.086968421936035,2.4362242221832275,-0.8562110066413879
10.163394927978516,4.508199691772461,1.4615050554275513
9.839543342590332,2.501533269882202,3.709287643432617
7.923027992248535,2.5895228385925293,3.653011083602905
6.313833236694336,0.6695560216903687,7.648471832275391
3.531679153442383,-0.5021145343780518,10.321040153503418
2.256667137145996,-2.3962552547454834,10.507437705993652
1.648626446723938,-3.643167734146118,13.737417221069336
-0.0456529855728149,-5.320251941680908,6.9253411293029785
3.7155373096466064,-8.901287078857422,-2.1056761741638184
11.034889221191406,-6.707896709442139,2.038670301437378
2.410106897354126,-2.997415065765381,13.5708646774292
2.570160388946533,-4.82807731628418,14.413458824157717
3.850614309310913,-5.757159233093262,12.9309663772583
3.4062209129333496,-3.334226369857788,11.420284271240234
4.528676986694336,-3.367006301879883,11.940081596374512
5.014366149902344,-3.692281723022461,11.545310020446776
6.5955810546875,-3.170055627822876,9.90586280822754
7.843637943267822,-4.248606204986572,7.544179916381836
7.04862642288208,-3.012549877166748,5.945918083190918
6.4626336097717285,1.0308468341827393,6.0009307861328125
4.947760581970215,0.2183351814746856,4.065623760223389
3.798428297042847,-2.555247068405152,1.6457675695419312
3.220220804214477,-2.4895176887512207,0.347949206829071
2.973875999450684,-2.1647047996521,-0.7362196445465088
2.510092496871948,-1.4439749717712402,-1.6534020900726318
1.6370171308517456,0.3003424108028412,-1.7917016744613647
1.1466376781463623,1.481699824333191,-2.2135581970214844
0.9327638149261476,2.9513497352600098,-2.752702236175537
0.0151533931493759,4.2665324211120605,-2.8658435344696045
-1.159314513206482,3.20505690574646,-4.231635570526123
-2.424567937850952,2.830355405807495,-5.502685546875
-3.5364303588867188,1.40370512008667,-6.998755931854248
-3.59517765045166,0.4285815954208374,-11.122796058654783
-3.3607048988342285,-0.049234639853239,-12.49594020843506
-3.304882526397705,-0.1516724377870559,-13.414189338684082
-3.2943830490112305,-1.2637505531311035,-16.249433517456055
-3.5906128883361816,-0.7533597946166992,-17.45871353149414
-3.842777729034424,-0.2889379858970642,-18.503175735473636
-3.747389078140259,-0.3671481609344482,-18.629945755004883
-3.233767032623291,-0.77145916223526,-17.25800323486328
-1.2937203645706177,-5.763416290283203,-20.259639739990234
10.39636516571045,-34.70356369018555,-84.98365020751953
27.78728675842285,28.099729537963867,40.65576553344727
18.60216522216797,0.3963292837142944,-1.0924468040466309
3.513500928878784,5.712562561035156,-2.7907097339630127
-0.7168357372283936,2.8880653381347656,-5.210270881652832
5.0926666259765625,-1.1509199142456057,-1.418415665626526
4.924933910369873,-4.421959400177002,-0.3667483925819397
2.873242855072021,-0.763986349105835,-3.845515251159668
3.844461441040039,1.252360701560974,-3.912466526031494
5.503275871276856,1.9937608242034912,-3.551610946655273
6.548586368560791,1.4476525783538818,-2.9572865962982178
6.516845703125,2.161628484725952,-1.1381347179412842
7.128666400909424,1.7861120700836182,0.1570570468902588
8.036871910095215,2.12660813331604,3.1027863025665283
6.948954582214356,1.5057876110076904,4.2958269119262695
6.525051116943359,1.0983624458312988,6.636923789978027
3.924928665161133,0.5523847937583923,9.241847038269045
3.1068480014801025,-1.1425679922103882,9.14818000793457
1.9346098899841309,-4.671834945678711,11.50770092010498
-0.166185051202774,-5.897980213165283,10.971186637878418
-0.0259989947080612,-9.054438591003418,5.392300605773926
5.9547529220581055,-4.578603267669678,2.2521088123321533
7.123022079467773,-3.3777763843536377,9.530583381652832
3.4526917934417725,-3.329286813735962,16.043529510498047
4.9193196296691895,-3.000316381454468,15.556133270263672
6.10952091217041,-3.719988822937012,13.317153930664062
6.342713356018066,-4.746481895446777,12.819662094116213
7.293649196624756,-4.288802146911621,11.510833740234377
8.406725883483887,-3.2807042598724365,10.598249435424805
8.315452575683594,-3.686622142791748,10.280773162841797
6.412067413330078,-2.684100389480591,8.076704978942871
5.339320182800293,-0.3453081548213959,6.379209995269775
4.373075485229492,-0.4941778779029846,5.314298152923584
3.5412073135375977,-0.283278077840805,4.619297504425049
3.485867977142334,-0.650485634803772,2.979418992996216
3.4105985164642334,-2.109058380126953,1.341348648071289
3.31088662147522,-1.2647700309753418,0.02822807431221
3.394398927688598,-1.1323736906051636,-1.955751657485962
3.589206457138061,0.5937110781669617,-3.600905418395996
3.2165653705596924,1.839860677719116,-3.615904092788696
2.859050989151001,2.5392932891845703,-5.028231143951416
2.231063842773437,3.7989227771759033,-6.80858325958252
1.2578662633895874,1.6895250082015991,-7.949142932891846
0.9199658632278442,0.0535423532128334,-11.039337158203123
-0.4463871717453003,-1.4351941347122192,-14.682894706726074
-1.5873956680297852,-0.2872713804244995,-18.49747085571289
-2.760715246200561,-0.2600585520267486,-19.493316650390625
-3.5627965927124023,-1.0569522380828855,-20.116044998168945
-3.9902520179748535,-1.2003049850463867,-21.11451911926269
-4.875849723815918,-0.8508308529853821,-19.530881881713867
-5.346731662750244,-0.7402370572090149,-17.997142791748047
-6.378798484802246,1.386476993560791,-13.12057113647461
-5.850406646728516,0.0429289788007736,-9.23825740814209
-0.819846510887146,-25.143861770629883,-78.8621826171875
30.43650245666504,17.714458465576172,11.669090270996094
1.469741940498352,3.1273672580718994,7.587474346160889
21.06587028503418,-5.303354263305664,7.591238021850586
9.62759494781494,8.91251277923584,-0.3054673373699188
6.551548004150391,4.122735023498535,-3.386795282363892
5.359865188598633,-1.897498369216919,-1.0581867694854736
4.906221866607666,-2.0431244373321533,-0.4154157042503357
3.540938377380371,-1.337645173072815,-2.994140625
2.65054988861084,0.3989076614379883,-2.812367677688598
3.938105821609497,0.991011083126068,-2.4801008701324463
6.043779850006104,0.6237292289733887,-1.222383737564087
7.454792022705078,1.2597405910491943,2.7724359035491943
8.5718355178833,1.0353046655654907,4.264556884765625
8.031607627868652,-0.1174206286668777,5.473889827728272
6.538738250732422,-0.7838236093521118,6.661814212799072
4.431212902069092,-0.2892759442329407,9.92570686340332
3.433809518814087,-1.6699897050857544,11.727214813232422
2.085225343704224,-2.9459147453308105,12.798961639404297
0.8611693978309631,-4.009634971618652,10.38659954071045
2.8461177349090576,-8.043990135192871,3.236321926116944
7.92301082611084,-8.924031257629395,1.0743787288665771
6.788150310516357,-5.229836940765381,7.503338813781738
3.485708236694336,-2.136003971099853,13.851537704467772
2.6974806785583496,-3.6625044345855713,15.158455848693848
3.96391224861145,-4.5648274421691895,12.18121337890625
4.994476318359375,-2.964661836624145,10.650684356689451
5.963016510009766,-2.532169342041016,10.85370635986328
6.927823066711426,-2.522502899169922,10.499600410461426
6.216487884521484,-1.8008334636688232,8.944366455078125
5.42819356918335,-1.5282341241836548,7.669541358947754
4.611506462097168,-2.0917415618896484,5.863938808441162
4.3056159019470215,-0.3898582756519317,4.443957805633545
4.949185848236084,0.1475004702806472,4.192609786987305
5.32683801651001,-2.4172468185424805,1.8260899782180784
5.208633899688721,-2.4811320304870605,-0.1950912624597549
5.260623455047607,-0.8391030430793762,-1.3273119926452637
4.650103092193604,0.5748094916343689,-2.268341064453125
3.762579917907715,2.860178709030152,-2.797002077102661
2.678110122680664,2.739945888519287,-3.695354461669922
1.3956215381622314,3.4262874126434326,-4.756587505340576
0.1811743676662445,3.278510808944702,-5.143489360809326
-1.0574324131011963,2.156045198440552,-6.301600933074951
-2.0280723571777344,0.8469300866127014,-7.868521690368652
-2.5669057369232178,0.5822403430938721,-11.912221908569336
-3.174095869064331,0.3698877096176147,-13.65707778930664
-3.4557044506073,-1.0433143377304075,-16.326580047607422
-4.030462265014648,-0.5107662081718445,-15.357901573181152
-4.226587295532227,-0.6152629852294922,-17.3707332611084
-5.162378787994385,-0.0594412758946418,-18.061508178710938
-5.360588073730469,-0.6953870058059692,-17.73309898376465
-5.49379825592041,-0.333325445652008,-15.58487606048584
-6.055600643157959,0.7634134292602539,-11.720907211303713
-2.3056797981262207,-12.421199798583984,-36.92068862915039
26.74460220336914,-22.02374649047852,-57.98081207275391
2.920271873474121,28.68305206298828,33.296688079833984
20.5626277923584,-8.916940689086914,-6.058568477630615
4.466753959655762,4.802503108978272,2.163912057876587
6.274850845336914,3.8755228519439697,-4.99229907989502
6.965968608856201,-0.5533312559127808,0.1782921850681305
7.551586151123047,-2.269920110702514,0.2346321642398834
4.384509086608887,-0.7721216678619385,-1.5688302516937256
3.775509834289551,2.1418004035949707,-3.8896164894104
4.677463054656982,4.141754627227783,-2.462634563446045
6.255523204803467,3.979748249053955,-2.037755012512207
6.436088562011719,4.481909275054932,0.0697939246892929
8.576192855834961,4.708606719970703,2.460380792617798
8.616828918457031,3.5195369720458984,4.296309947967529
6.8202290534973145,2.3827266693115234,6.533055305480957
3.930199384689331,1.3165754079818726,9.62820529937744
2.588229894638061,-0.9653123021125792,9.506635665893556
0.6546258926391602,-2.8663456439971924,11.994857788085938
-0.2605614364147186,-5.439792633056641,12.602869987487791
-1.1535719633102417,-6.304448127746582,4.244068145751953
4.885651588439941,-8.53023624420166,-2.0916390419006348
8.28227424621582,-4.087021827697754,8.078987121582031
1.0839273929595947,-3.662978410720825,14.11799430847168
3.121457576751709,-5.067054748535156,12.927287101745604
3.380419969558716,-5.990481376647949,10.443394660949709
3.859939575195313,-4.790014266967773,10.15102195739746
4.808353424072266,-4.239015102386475,11.337457656860352
5.854379177093506,-3.819745302200317,10.619009017944336
7.838184833526611,-5.540793418884277,7.656083583831787
7.289280414581299,-4.047903537750244,5.658209323883057
6.734426021575928,0.1556804180145263,7.127151012420654
5.743149757385254,-0.2342631667852401,5.460522651672363
5.1100664138793945,-1.5716036558151243,2.7029285430908203
4.3935322761535645,-1.5749666690826416,1.8177894353866575
3.787139415740967,-2.0986642837524414,0.6085669994354248
3.0554561614990234,-1.7269649505615234,-0.0047852247953414
2.29146146774292,-1.387710690498352,-0.912603199481964
1.4703502655029297,0.5438127517700195,-1.366267442703247
0.8051900863647461,2.191769599914551,-2.0023655891418457
0.0755257308483123,1.8833348751068115,-3.236555337905884
-0.7251814603805542,2.212778329849243,-4.667567253112793
-1.931734919548035,2.368380546569824,-5.6754913330078125
-2.9899940490722656,2.039820671081543,-6.059389591217041
-4.159219264984131,-0.1911716014146804,-8.234467506408691
-4.859650611877441,-1.0438882112503052,-10.74034309387207
-4.260940074920654,-0.4494960010051727,-14.50221824645996
-4.512020587921143,0.3776057064533233,-12.981993675231934
-4.3315205574035645,-1.315638303756714,-16.2219295501709
-4.3968586921691895,-1.8270998001098635,-18.933368682861328
-4.592995643615723,-1.1637835502624512,-19.44945335388184
-3.6929798126220703,-0.5299798250198364,-18.78985023498535
-3.728592157363892,0.2040859758853912,-15.873336791992188
-0.6403559446334839,-6.4264421463012695,-24.09754943847656
14.53063678741455,-21.258081436157227,-66.44438171386719
16.156307220458984,26.988222122192383,31.56676483154297
10.945331573486328,-1.9822094440460205,-5.989084243774414
6.343292236328125,3.6308724880218506,0.9014886617660522
5.890823841094971,5.293265342712402,-3.796109199523926
6.93048906326294,0.4433311522006988,-0.4539154469966888
4.68120813369751,-3.0122437477111816,-1.0740350484848022
3.085222721099853,-1.2811199426651,-3.0468058586120605
4.3457512855529785,1.478016018867493,-2.649987936019897
6.44789981842041,2.158992052078247,-4.370006561279297
7.092016696929932,2.3853952884674072,-1.2551075220108032
7.574934959411621,1.7085109949111938,-0.5207442045211792
9.465072631835938,1.9263246059417725,2.0932891368865967
8.766667366027832,1.5391600131988523,3.6434361934661865
6.434163570404053,-0.6547925472259521,4.577165126800537
4.259219646453857,-2.234550952911377,8.135232925415039
2.6572625637054443,-3.4275004863739014,9.302189826965332
1.1680132150650024,-3.3777565956115723,10.66059112548828
0.0437624901533126,-4.8262810707092285,11.702338218688965
-1.1163837909698486,-5.73700475692749,7.019808769226074
3.835048913955689,-8.76689624786377,0.706228494644165
7.074265003204346,-10.935284614562988,3.3828940391540527
2.64864182472229,-4.076975345611572,13.35220718383789
1.1557661294937134,-2.909951448440552,17.147958755493164
2.375006675720215,-3.0535130500793457,16.42430305480957
3.699349403381348,-2.042143583297729,13.11056137084961
4.648708343505859,-2.6536753177642822,13.304298400878906
4.547968864440918,-1.744063377380371,11.887187004089355
6.172554969787598,-2.140707731246948,8.892340660095215
6.928387641906738,-3.1950597763061523,6.835072994232178
6.50732421875,1.156612992286682,6.256192684173584
6.561282634735107,2.2620890140533447,4.783820629119873
5.361374378204346,-0.7335860133171082,2.01669979095459
4.897730827331543,-0.8461201190948486,0.8615991473197937
4.283576965332031,-0.8647055625915527,-0.2880761623382568
3.7511661052703857,-0.600028932094574,-1.4857096672058103
2.5938217639923096,0.6912370920181274,-1.8899633884429927
1.7926753759384155,2.1929047107696533,-2.1490187644958496
1.8327066898345947,3.6760504245758057,-3.1475837230682373
1.6473352909088137,2.673462152481079,-5.20653247833252
0.9423081874847412,2.427374839782715,-6.249028205871582
-0.2267776727676391,2.822115182876587,-6.60969877243042
-0.9124040603637696,2.2880547046661377,-7.375240802764893
