PacketCounter,SampleTimeFine,Quat_W,Quat_X,Quat_Y,Quat_Z,Acc_X,Acc_Y,Acc_Z,Gyr_X,Gyr_Y,Gyr_Z 
1,1082934529,0.64657557,-0.0489252,-0.76105577,0.018457364,-0.9628151059150696,-0.7201678156852722,-0.11920125782489777,-0.2849331796169281,-0.6224092841148376, -1.909140944480896
2,1082951196,0.6463553,-0.048709646,-0.7612627,0.018206635,9.79573917388916,-0.9875844120979309,-1.623002052307129,0.3678048253059387,-0.18795880675315857, 1.1319469213485718
3,1082967863,0.646287,-0.048900776,-0.76129526,0.018747663,9.800945281982422,-0.936067521572113,-1.564892053604126,0.5869086384773254,-0.273863822221756, 0.9673340916633606
4,1082984530,0.6465016,-0.049158905,-0.76108843,0.019065596,9.737350463867188,-0.9376670718193054,-1.5978885889053345,1.1460723876953125,-0.3203892707824707, 0.7554914355278015
5,1083001197,0.6466246,-0.049193624,-0.76097286,0.019417336,9.754151344299316,-0.9729690551757812,-1.6029595136642456,1.8492047786712646,-0.5465238094329834, 0.2837951183319092
6,1083017864,0.646663,-0.049161356,-0.76093155,0.019828951,9.78177547454834,-0.999259889125824,-1.5626333951950073,2.741922616958618,-0.9038978815078735, -0.0116537781432271
7,1083034531,0.64672077,-0.04915793,-0.7608724,0.02022558,9.704237937927246,-0.9340629577636719,-1.5882148742675781,2.6095051765441895,-0.9983574748039246, -0.1030270904302597
8,1083051198,0.6467275,-0.049088337,-0.76086295,0.020531403,9.699077606201172,-0.8863625526428223,-1.6501808166503906,2.672806739807129,-1.1255755424499512, -0.23138512670993805
9,1083067865,0.64665127,-0.049091138,-0.76092666,0.020566171,9.7339506149292,-0.8733651041984558,-1.724593162536621,1.4417835474014282,-1.1185834407806396, -0.3783251643180847
10,1083084532,0.6464702,-0.049056415,-0.76108384,0.020522816,9.871015548706055,-0.7947388291358948,-1.6326111555099487,0.6539369821548462,-1.215348243713379, -0.3234243392944336
11,1083101199,0.6463505,-0.048989885,-0.7611931,0.020403344,9.91887092590332,-0.8390345573425293,-1.630692720413208,0.8668938279151917,-0.8752756118774414, -0.1513582468032837
12,1083117866,0.6463067,-0.04884395,-0.76124126,0.020339398,9.860135078430176,-0.8124209642410278,-1.7205578088760376,1.50835120677948,-0.4044117331504822, -0.08581535518169403
13,1083134533,0.64631647,-0.04859835,-0.761248,0.020370105,9.790277481079102,-0.8282506465911865,-1.760664463043213,1.903247594833374,0.3076917231082916, 0.08765305578708649
14,1083151200,0.64633346,-0.048433762,-0.7612445,0.020349376,9.720235824584961,-0.805663526058197,-1.7386668920516968,1.5220922231674194,0.6918438076972961, 0.24938443303108215
15,1083167867,0.64634746,-0.048377916,-0.76123786,0.020286407,9.769681930541992,-0.7558340430259705,-1.6669355630874634,0.7870590090751648,0.8758454918861389, 0.6504409313201904
16,1083184534,0.64636105,-0.04844625,-0.76122564,0.020153042,9.790501594543457,-0.7732378840446472,-1.6415812969207764,0.3199218511581421,0.8052953481674194, 1.0188411474227905
17,1083201201,0.6463511,-0.048562102,-0.7612295,0.020047009,9.837120056152344,-0.7721856832504272,-1.580177903175354,-0.27976754307746887,0.5279993414878845, 1.4899226427078247
18,1083217868,0.64633995,-0.048786685,-0.761227,0.019950982,9.844855308532715,-0.7728526592254639,-1.5572381019592285,-0.4643838703632355,0.3178856372833252, 2.0653762817382812
19,1083234535,0.6462995,-0.049009133,-0.76124734,0.019940749,9.758742332458496,-0.7992870211601257,-1.595538854598999,-0.17476825416088104,-0.15221627056598663, 2.4413323402404785
20,1083251202,0.6462301,-0.049162414,-0.7612926,0.020089198,9.790875434875488,-0.8480950593948364,-1.6279770135879517,0.9210134744644165,-0.5510700345039368, 2.712980270385742
21,1083267869,0.6461808,-0.049272135,-0.76132005,0.020359308,9.826325416564941,-0.8730921149253845,-1.6417667865753174,1.5195311307907104,-0.4185371696949005, 2.9495904445648193
22,1083284536,0.6461564,-0.04943429,-0.76132464,0.020576397,9.801887512207031,-0.8698974847793579,-1.6551731824874878,1.026038408279419,-0.17429442703723907, 2.8723299503326416
23,1083301203,0.64618504,-0.049664114,-0.7612813,0.020718686,9.82295036315918,-0.9023817181587219,-1.6694883108139038,0.2896091938018799,0.363284170627594, 2.822333812713623
24,1083317870,0.646239,-0.049950097,-0.76121444,0.020800592,9.72298812866211,-0.8636677265167236,-1.7178174257278442,0.02378779463469982,0.6147240996360779, 2.701416254043579
25,1083334537,0.6462913,-0.050215453,-0.76115143,0.020841146,9.719117164611816,-0.8588693141937256,-1.7132728099822998,-0.25914931297302246,0.6836861968040466, 2.379016399383545
26,1083351204,0.64632577,-0.05036979,-0.761109,0.020948566,9.735006332397461,-0.9107618927955627,-1.68388032913208,-0.15940064191818237,0.5829898715019226, 2.171271800994873
27,1083367871,0.6463359,-0.050453342,-0.7610904,0.021117631,9.756268501281738,-0.9516804814338684,-1.6746678352355957,0.4674253463745117,0.3347131609916687, 1.9974766969680786
28,1083384538,0.64631546,-0.050528675,-0.7610988,0.021260938,9.848089218139648,-0.9806109666824341,-1.6455737352371216,1.1729271411895752,-0.015521295368671417, 1.6115189790725708
29,1083401205,0.6463133,-0.05047869,-0.7610983,0.021457313,9.805647850036621,-0.9059595465660095,-1.581578016281128,1.2502776384353638,0.13303878903388977, 1.2351789474487305
30,1083417872,0.6463138,-0.050513566,-0.761095,0.021482212,9.659446716308594,-0.9585130214691162,-1.650530457496643,1.188448429107666,0.056226279586553574, 0.6874127388000488
31,1083434539,0.646269,-0.050384507,-0.76113826,0.02160212,9.695950508117676,-0.9718154072761536,-1.6618635654449463,1.7789877653121948,-0.37956738471984863, 0.28280898928642273
32,1083451206,0.6461799,-0.050230592,-0.76122123,0.021699762,9.832118034362793,-0.9134146571159363,-1.5845719575881958,1.241479516029358,-0.7278104424476624, 0.07428322732448578
33,1083467873,0.6461327,-0.050070353,-0.7612686,0.021812133,9.81802749633789,-0.8693810105323792,-1.5762041807174683,1.2496756315231323,-0.3881092667579651, 0.11665944755077362
34,1083484540,0.6460725,-0.049900334,-0.76132756,0.021926433,9.774320602416992,-0.8475042581558228,-1.6871943473815918,1.4510939121246338,-0.5662839412689209, 0.05130864307284355
35,1083501207,0.6459614,-0.04981516,-0.76142657,0.02195862,9.715269088745117,-0.8372399806976318,-1.696056842803955,1.0303797721862793,-0.9952583312988281, 0.06744464486837387
36,1083517874,0.6458608,-0.04980655,-0.76151216,0.02196561,9.774645805358887,-0.8112244606018066,-1.6862635612487793,1.0893272161483765,-0.893153190612793, 0.28123384714126587
37,1083534541,0.6457902,-0.04982226,-0.7615704,0.02198662,9.812950134277344,-0.8015141487121582,-1.7093456983566284,0.9412347674369812,-0.5948677659034729, 0.517113983631134
38,1083551208,0.6457379,-0.04976555,-0.7616151,0.022102827,9.788314819335938,-0.780937135219574,-1.74115788936615,1.2572442293167114,-0.42030441761016846, 0.6694326996803284
39,1083567875,0.64572173,-0.04972978,-0.7616285,0.022192478,9.868143081665039,-0.8370696306228638,-1.7119090557098389,0.9933053255081177,-0.05297986790537834, 0.6989001035690308
40,1083584542,0.6457736,-0.049801324,-0.7615796,0.022203978,9.806242942810059,-0.8065030574798584,-1.7026365995407104,0.9547837376594543,0.5452880263328552, 0.792437732219696
41,1083601209,0.6458454,-0.049808204,-0.761516,0.02228375,9.750136375427246,-0.808506965637207,-1.7384871244430542,0.8462499380111694,0.7628678679466248, 0.8983461856842041
42,1083617876,0.64592004,-0.049881697,-0.7614466,0.022323623,9.811195373535156,-0.8166936039924622,-1.6768128871917725,0.506817638874054,0.8270404934883118, 1.0514204502105713
43,1083634543,0.6460124,-0.049957894,-0.7613595,0.022452366,9.80522632598877,-0.7915254831314087,-1.656558871269226,0.8167440891265869,0.9792183041572571, 1.4943280220031738
44,1083651210,0.64612925,-0.0500746,-0.7612485,0.022588648,9.791871070861816,-0.7856412529945374,-1.6904540061950684,0.6999375224113464,1.2070305347442627, 1.7537977695465088
45,1083667877,0.646224,-0.05022793,-0.7611539,0.022729076,9.755640983581543,-0.7745824456214905,-1.687175989151001,0.47658196091651917,1.0322750806808472, 1.9854389429092407
46,1083684544,0.646272,-0.05040446,-0.7610964,0.02289644,9.792988777160645,-0.8044121861457825,-1.6528717279434204,0.6658342480659485,0.6031726598739624, 2.2050936222076416
47,1083701211,0.6462918,-0.050672658,-0.7610577,0.023032239,9.841024398803711,-0.8122153878211975,-1.59575617313385,0.2057660073041916,0.3776272237300873, 2.527339458465576
48,1083717878,0.6463053,-0.050954636,-0.7610226,0.023189433,9.809493064880371,-0.8575944900512695,-1.5962177515029907,0.015924695879220963,0.3269781470298767, 2.738874912261963
49,1083734545,0.64636874,-0.051255137,-0.76094335,0.023365537,9.747652053833008,-0.8949854373931885,-1.7131427526474,0.29977741837501526,0.7379594445228577, 2.8817293643951416
50,1083751212,0.6464415,-0.051518034,-0.7608582,0.023542276,9.750983238220215,-0.8994377255439758,-1.6941312551498413,0.2976003587245941,0.8362482190132141, 2.7053604125976562
51,1083767879,0.6465328,-0.051821653,-0.7607563,0.02365913,9.78524112701416,-0.8922984600067139,-1.6794384717941284,0.03946277126669884,1.0172020196914673, 2.6064445972442627
52,1083784546,0.64663357,-0.051999472,-0.7606537,0.023815945,9.768735885620117,-0.9127013683319092,-1.7180620431900024,0.530381441116333,1.0673260688781738, 2.164638042449951
53,1083801213,0.64670765,-0.052171405,-0.76057595,0.023910182,9.747868537902832,-0.937883734703064,-1.702879548072815,0.7105922698974609,0.7955495715141296, 1.7594066858291626
54,1083817880,0.64676714,-0.052261427,-0.76051617,0.024008397,9.767875671386719,-0.894773542881012,-1.6332427263259888,0.6398372650146484,0.6791656017303467, 1.4056059122085571
55,1083834547,0.646818,-0.052363504,-0.7604637,0.024078116,9.764283180236816,-0.913625180721283,-1.5986326932907104,0.3641933798789978,0.6156588792800903, 1.3484125137329102
56,1083851214,0.6468415,-0.052443717,-0.76043636,0.024130661,9.78406810760498,-0.8877661228179932,-1.6373080015182495,0.397438645362854,0.34810858964920044, 1.1402069330215454
57,1083867881,0.6468458,-0.052509893,-0.7604255,0.024212565,9.777091979980469,-0.8919878005981445,-1.6324812173843384,0.6846723556518555,0.14950773119926453, 1.180444598197937
58,1083884548,0.6468107,-0.052543204,-0.76044977,0.024316037,9.781322479248047,-0.8861979246139526,-1.6451133489608765,0.7390735745429993,-0.21047234535217285, 1.1273621320724487
59,1083901215,0.6467825,-0.05261718,-0.76046664,0.024382193,9.777396202087402,-0.8782029747962952,-1.6128991842269897,0.591544508934021,-0.14629973471164703, 1.1385804414749146
60,1083917882,0.64682156,-0.052678466,-0.76042575,0.024487957,9.769814491271973,-0.8632327914237976,-1.7334306240081787,0.8738092184066772,0.44014787673950195, 1.2620593309402466
61,1083934549,0.6468295,-0.052717295,-0.76041275,0.02460053,9.77237319946289,-0.8763318657875061,-1.6991575956344604,0.9637482166290283,0.16226284205913544, 1.1792405843734741
62,1083951216,0.6468454,-0.052761454,-0.7603932,0.024687443,9.785970687866211,-0.8447814583778381,-1.6610524654388428,0.7534807920455933,0.2553650438785553, 1.105924367904663
63,1083967883,0.64687735,-0.05281999,-0.76035905,0.024778612,9.839374542236328,-0.864460289478302,-1.6288875341415405,0.7058283686637878,0.4071458876132965, 1.2120378017425537
64,1083984550,0.64692473,-0.052889764,-0.7603109,0.024871062,9.81673812866211,-0.8639283776283264,-1.6938393115997314,0.7284059524536133,0.540395975112915, 1.274712085723877
65,1084001217,0.64697504,-0.052949637,-0.76026064,0.024966868,9.774003028869629,-0.8314560651779175,-1.6965742111206055,0.7552352547645569,0.5697225332260132, 1.2494065761566162
66,1084017884,0.6470183,-0.05303927,-0.76021564,0.02502652,9.749580383300781,-0.8214601278305054,-1.6816465854644775,0.603147029876709,0.515039324760437, 1.2240372896194458
67,1084034551,0.6470384,-0.053124875,-0.7601897,0.025114374,9.755448341369629,-0.8369457125663757,-1.669966697692871,0.6470984816551208,0.31486332416534424, 1.3534198999404907
68,1084051218,0.64705867,-0.05321355,-0.7601625,0.025230493,9.789519309997559,-0.8538876175880432,-1.6574599742889404,0.7998782396316528,0.3121483623981476, 1.5004624128341675
69,1084067885,0.6470853,-0.053308304,-0.76012796,0.025387336,9.791333198547363,-0.867581844329834,-1.6503523588180542,0.8142980337142944,0.3830570876598358, 1.7498531341552734
70,1084084552,0.6470938,-0.05342084,-0.7601084,0.025522243,9.775994300842285,-0.8577766418457031,-1.6574877500534058,0.7936413884162903,0.2121948003768921, 1.717747688293457
71,1084101219,0.647098,-0.05353511,-0.760092,0.025660433,9.819512367248535,-0.8777225613594055,-1.6440494060516357,0.7022296786308289,0.1856856644153595, 1.7633254528045654
72,1084117886,0.6471211,-0.05363736,-0.7600602,0.025807664,9.791740417480469,-0.845104992389679,-1.7122873067855835,0.8735914826393127,0.3399125337600708, 1.737828016281128
73,1084134553,0.6471203,-0.053760644,-0.76004857,0.025908396,9.751015663146973,-0.8569260835647583,-1.7223827838897705,0.45328715443611145,0.16084134578704834, 1.6578781604766846
74,1084151220,0.6471266,-0.053908955,-0.76003104,0.025961405,9.748163223266602,-0.8756500482559204,-1.6792411804199219,0.0988842323422432,0.2542124390602112, 1.5837292671203613
75,1084167887,0.6471721,-0.05407617,-0.7599778,0.026041707,9.781967163085938,-0.9020889401435852,-1.6457377672195435,0.23007246851921082,0.6087561845779419, 1.8067646026611328
76,1084184554,0.64723384,-0.05422073,-0.7599105,0.026166152,9.7582426071167,-0.8735175132751465,-1.6772280931472778,0.6084744930267334,0.7305191159248352, 1.8837181329727173
77,1084201221,0.6472974,-0.05431941,-0.7598436,0.026332896,9.764817237854004,-0.875758707523346,-1.6837244033813477,0.9945347905158997,0.722258985042572, 1.844504952430725
78,1084217888,0.6473391,-0.054424785,-0.75979644,0.026452146,9.810224533081055,-0.8779608607292175,-1.6581004858016968,0.793884813785553,0.5325712561607361, 1.6563539505004883
79,1084234555,0.64736235,-0.054554332,-0.7597647,0.026524568,9.80190372467041,-0.8800469636917114,-1.65282142162323,0.5241063237190247,0.3794969916343689, 1.563751459121704
80,1084251222,0.6474003,-0.05469581,-0.7597202,0.026582543,9.782049179077148,-0.8912068605422974,-1.6510149240493774,0.3419615626335144,0.528153121471405, 1.580847978591919
81,1084267889,0.64747214,-0.054837063,-0.7596465,0.026648115,9.731969833374023,-0.9115830659866333,-1.663013219833374,0.31519630551338196,0.8427794575691223, 1.6380921602249146
82,1084284556,0.6475459,-0.054942995,-0.7595725,0.026747089,9.759963989257812,-0.9054297208786011,-1.6879686117172241,0.7398035526275635,0.8270149230957031, 1.5906702280044556
83,1084301223,0.64759535,-0.054987513,-0.75952244,0.026880205,9.809308052062988,-0.8965113759040833,-1.6724128723144531,1.0823349952697754,0.5852565765380859, 1.437967300415039
84,1084317890,0.6476258,-0.055000883,-0.7594916,0.026991423,9.778453826904297,-0.8666470646858215,-1.6721373796463013,1.1915860176086426,0.39486458897590637, 1.1651921272277832
85,1084334557,0.64765143,-0.055023722,-0.75946575,0.0270546,9.801534652709961,-0.8657928109169006,-1.6442595720291138,0.9318989515304565,0.36686989665031433, 1.0031918287277222
86,1084351224,0.6477274,-0.055140287,-0.75939244,0.027056605,9.827779769897461,-0.9057498574256897,-1.5967679023742676,0.18546795845031738,0.886116087436676, 1.244604229927063
87,1084367891,0.64786524,-0.055272855,-0.7592638,0.027092362,9.795968055725098,-0.8986109495162964,-1.6530966758728027,0.22657634317874908,1.4529380798339844, 1.5101441144943237
88,1084384558,0.6480014,-0.05528285,-0.75914097,0.027258344,9.777206420898438,-0.8727840781211853,-1.713953971862793,1.5270994901657104,1.3381291627883911, 1.4431538581848145
89,1084401225,0.6481118,-0.055259034,-0.75904244,0.027427528,9.742990493774414,-0.8431886434555054,-1.7558691501617432,1.6952342987060547,1.095205545425415, 1.2835613489151
90,1084417892,0.64817923,-0.055244822,-0.75898165,0.027547186,9.746564865112305,-0.8574802875518799,-1.699638843536377,1.5044066905975342,0.7196463942527771, 1.0970239639282227
91,1084434559,0.648205,-0.055242423,-0.7589571,0.027621295,9.772798538208008,-0.8629633188247681,-1.596253752708435,1.0672105550765991,0.38158437609672546, 0.9805886149406433
92,1084451226,0.6482694,-0.055359606,-0.75889224,0.02765599,9.82231330871582,-0.8621281385421753,-1.5223257541656494,0.379893958568573,0.7954343557357788, 1.4426159858703613
93,1084467893,0.64835715,-0.055496432,-0.7588041,0.027744358,9.829782485961914,-0.8368739485740662,-1.6009583473205566,0.6574204564094543,0.9870046377182007, 1.7882211208343506
94,1084484560,0.6484305,-0.055595923,-0.7587284,0.027898395,9.813387870788574,-0.8289427757263184,-1.6700315475463867,1.0870734453201294,0.8306774497032166, 1.9090744256973267
95,1084501227,0.64850247,-0.055720497,-0.75865525,0.02796895,10.007817268371582,-0.9052534699440002,-1.4937520027160645,0.5622819662094116,0.8507450222969055, 1.6774717569351196
96,1084517894,0.64868873,-0.055546146,-0.7584946,0.028344223,10.310264587402344,-0.9333258867263794,-1.0860285758972168,3.576256275177002,1.647018313407898, 1.4930858612060547
97,1084534561,0.6491439,-0.054373432,-0.7581356,0.029770324,10.045855522155762,-1.0345306396484375,-1.17140793800354,13.634833335876465,3.292034149169922, 1.0089937448501587
98,1084551228,0.64965945,-0.051474694,-0.75776243,0.033005524,9.532139778137207,-1.190295696258545,-1.9491307735443115,30.839298248291016,2.602419376373291, 0.07190148532390594
99,1084567895,0.650272,-0.048119206,-0.75728637,0.036722235,9.471792221069336,-0.4833422005176544,-2.3121798038482666,35.60966873168945,3.31276798248291, -0.18387439846992493
100,1084584562,0.6508013,-0.04567882,-0.75683665,0.03961941,9.368314743041992,-0.4717893898487091,-2.351611852645874,27.364351272583008,3.315796375274658, 0.9487801194190979
101,1084601229,0.65136594,-0.04432955,-0.756321,0.041666403,9.404892921447754,-0.5747144222259521,-1.9001802206039429,18.141633987426758,4.426155090332031, 2.867966413497925
102,1084617896,0.65197945,-0.044102482,-0.75573,0.043011468,9.764802932739258,-0.7585605978965759,-1.5083459615707397,9.514130592346191,5.585204124450684, 5.6022748947143555
103,1084634563,0.6526149,-0.04462196,-0.7550939,0.044000477,9.970038414001465,-0.7519676685333252,-1.2864192724227905,4.37516975402832,6.223587989807129, 7.911849498748779
104,1084651230,0.6531629,-0.044953473,-0.7545278,0.045225818,9.963600158691406,-0.7286425232887268,-1.2275614738464355,6.397472858428955,5.305270195007324, 8.029860496520996
105,1084667897,0.6535496,-0.044672158,-0.75409013,0.047177058,9.518743515014648,-1.0965328216552734,-1.0496878623962402,12.820786476135254,3.4551494121551514, 8.152740478515625
106,1084684564,0.6538119,-0.043216508,-0.75372803,0.05056109,9.270864486694336,-1.5202447175979614,-1.2977665662765503,25.487255096435547,1.6183487176895142, 8.514816284179688
107,1084701231,0.6540863,-0.04054087,-0.7532919,0.0554886,9.825518608093262,-1.664267659187317,-0.7890307903289795,39.02006149291992,1.1254347562789917, 9.11194133758545
108,1084717898,0.654662,-0.038072057,-0.75254667,0.06034562,10.297553062438965,-0.9817562103271484,-0.17623041570186615,37.88482666015625,4.133803367614746, 9.807598114013672
109,1084734565,0.6557452,-0.03541546,-0.75132173,0.06526655,10.538458824157715,-0.054496880620718,-0.18015620112419128,39.39158630371094,8.730697631835938, 9.064407348632812
110,1084751232,0.6573114,-0.034262184,-0.7497992,0.067597024,10.487300872802734,-1.172147274017334,-3.6692428588867188,19.446720123291016,13.787493705749512, 5.11347770690918
111,1084767899,0.65814257,-0.032530718,-0.7488824,0.070466526,9.055025100708008,0.2184615433216095,-3.148146867752075,24.426021575927734,7.031297206878662, 4.785647869110107
112,1084784566,0.6589394,-0.032903306,-0.74807537,0.071411535,7.898904323577881,-3.983095407485962,-3.165132522583008,4.9193115234375,7.9587721824646, 7.01450777053833
113,1084801233,0.6601135,-0.03243154,-0.74689573,0.07311149,10.222015380859375,-0.6266518235206604,-0.5315568447113037,12.906170845031738,11.152032852172852, 5.779122352600098
114,1084817900,0.66116464,-0.032145657,-0.74591124,0.073785685,10.597311973571777,-1.2810512781143188,-0.8825934529304504,6.627923011779785,9.905248641967773, 2.162205696105957
115,1084834567,0.6620384,-0.031447534,-0.74510384,0.0744084,9.361871719360352,-1.4661997556686401,-1.4872300624847412,8.099629402160645,7.963062286376953, -0.11646099388599396
116,1084851234,0.6628073,-0.030971993,-0.74445117,0.07429608,9.349236488342285,-1.3163018226623535,-1.101523756980896,3.208343267440796,7.020230770111084, -2.3088443279266357
117,1084867901,0.6632898,-0.031355716,-0.7441518,0.072812,9.745092391967773,-1.0947299003601074,-0.5216963291168213,-7.964963912963867,4.671713352203369, -4.089862823486328
118,1084884568,0.66336876,-0.032071218,-0.74425536,0.070690624,9.547807693481445,-1.6970001459121704,-0.5281447172164917,-12.968539237976074,1.0165623426437378, -5.170363426208496
119,1084901235,0.66276807,-0.03270676,-0.7449778,0.06838917,9.280257225036621,-1.794177770614624,-0.6244667172431946,-13.998286247253418,-5.324436187744141, -6.2323174476623535
120,1084917902,0.6613908,-0.032674015,-0.7463621,0.06662262,9.329009056091309,-2.688915252685547,0.023248502984642982,-8.65906047821045,-12.79328727722168, -7.046841621398926
121,1084934569,0.6594541,-0.03249162,-0.74819386,0.06534962,8.495635986328125,-2.9401469230651855,0.8880420327186584,-5.778425216674805,-17.959636688232422, -5.522105693817139
122,1084951236,0.65671515,-0.032853123,-0.7507702,0.06316655,9.706483840942383,-2.1403331756591797,0.2634196877479553,-13.467249870300293,-25.148582458496094, -6.7900238037109375
123,1084967903,0.6527441,-0.03265343,-0.7546061,0.058553677,11.86931324005127,0.34711432456970215,-1.3754141330718994,-24.23539924621582,-37.004417419433594, -20.487295150756836
124,1084984570,0.6474647,-0.031712312,-0.7595581,0.053435482,11.675802230834961,-2.7303500175476074,-0.934602677822113,-24.158466339111328,-49.012516021728516, -26.22348976135254
125,1085001237,0.6412958,-0.028052645,-0.76515126,0.049963664,14.952570915222168,-2.542997121810913,-0.15982483327388763,-3.940627336502075,-57.912593841552734, -33.00654602050781
126,1085017904,0.6343266,-0.024491273,-0.771435,0.043796517,22.359586715698242,-2.226435661315918,2.279534339904785,-18.92816925048828,-64.76473236083984, -44.31639862060547
127,1085034571,0.6270265,-0.023624487,-0.7779557,0.032630526,22.67134666442871,-3.958287239074707,5.76973295211792,-57.28907775878906,-66.32625579833984, -51.80449676513672
128,1085051238,0.62136817,-0.021323102,-0.7829166,0.02211165,18.16124725341797,-6.232015609741211,6.573956489562988,-47.39177703857422,-51.89988708496094, -56.9130744934082
129,1085067905,0.6206021,-0.021249508,-0.78374034,0.0123649,10.957730293273926,-5.764469623565674,5.2184343338012695,-51.677520751953125,-8.333481788635254, -42.091556549072266
130,1085084572,0.6203336,-0.027345207,-0.7838592,0.0018337201,3.277297258377075,-5.595307350158691,0.7389891147613525,-82.48678588867188,-2.4671778678894043, -12.460114479064941
131,1085101239,0.6225211,-0.03759037,-0.7816241,-0.010885134,1.460436463356018,-2.402236223220825,4.847021579742432,-111.86595916748047,21.243907928466797, 0.6250872611999512
132,1085117906,0.6311624,-0.05364104,-0.7734845,-0.021872107,4.505069255828857,-7.290929794311523,6.027518272399902,-126.23330688476562,80.05042266845703, 40.998592376708984
133,1085134573,0.6444782,-0.06559643,-0.761554,-0.019510046,6.901174545288086,-7.149177074432373,3.7760767936706543,-36.43242263793945,116.67379760742188, 78.70307922363281
134,1085151240,0.6610162,-0.07252259,-0.7468561,-0.0020701624,4.042928695678711,-5.699036121368408,1.0850486755371094,65.77845001220703,139.4000244140625, 120.43392944335938
135,1085167907,0.6794337,-0.070895776,-0.7297568,0.028262457,5.310568809509277,-0.7225672006607056,-0.09959207475185394,172.33831787109375,153.46897888183594, 136.051513671875
136,1085184574,0.6993681,-0.06005448,-0.7091689,0.06601049,8.732563972473145,2.129206895828247,-6.1751227378845215,254.75155639648438,171.74783325195312, 126.09400939941406
137,1085201241,0.71914524,-0.046877887,-0.68630546,0.09806914,10.547779083251953,4.863690376281738,-11.973830223083496,237.92176818847656,183.73048400878906, 88.86306762695312
138,1085217908,0.73723,-0.041013256,-0.6646027,0.114513636,11.700200080871582,6.322675704956055,-13.736613273620605,126.86344146728516,180.71084594726562, 47.487953186035156
139,1085234575,0.7529022,-0.04750542,-0.64616406,0.11555741,11.927666664123535,2.5769550800323486,-16.235973358154297,-9.248734474182129,168.16574096679688, 27.45931625366211
140,1085251242,0.7639763,-0.06268081,-0.6333194,0.10638605,11.931081771850586,-0.6805833578109741,-17.962316513061523,-105.32079315185547,130.1714630126953, 15.32068157196045
141,1085267909,0.769874,-0.07954383,-0.6258226,0.09650478,11.13803768157959,-2.325446128845215,-15.230605125427246,-123.14422607421875,82.34769439697266, 20.603473663330078
142,1085284576,0.7721126,-0.092557244,-0.62242615,0.088662826,10.246345520019531,0.4595668315887451,-12.970236778259277,-98.44503021240234,42.30609130859375, 15.12642765045166
143,1085301243,0.77101344,-0.103196114,-0.6228061,0.08367436,9.033554077148438,-1.407414436340332,-12.034330368041992,-77.84892272949219,5.619176387786865, 20.021629333496094
144,1085317910,0.76600504,-0.106977075,-0.6279721,0.08627437,7.918595314025879,-3.4359397888183594,-11.86196517944336,-14.294541358947754,-45.0003662109375, 29.845325469970703
145,1085334577,0.7566576,-0.10121165,-0.63865995,0.09663961,7.497298717498779,-1.8523696660995483,-11.657374382019043,63.315792083740234,-103.4078140258789, 27.90816307067871
146,1085351244,0.7396383,-0.09969925,-0.6571523,0.10557511,5.318698406219482,-3.2912497520446777,-20.71285057067871,24.648744583129883,-173.1416778564453, 38.713218688964844
147,1085367911,0.7101186,-0.106747545,-0.68710375,0.11056584,15.935018539428711,1.8904578685760498,-9.785555839538574,-53.155860900878906,-277.7965393066406, 58.37107849121094
148,1085384578,0.68155503,-0.10190282,-0.71303487,0.12915021,16.611738204956055,-3.9879953861236572,9.443814277648926,73.23218536376953,-272.0949401855469, 71.01959991455078
149,1085401245,0.65543973,-0.09183888,-0.7348336,0.14827038,14.31226634979248,11.571096420288086,-10.914054870605469,105.60990142822266,-246.39755249023438, 48.42961502075195
150,1085417912,0.6307756,-0.093736984,-0.75467855,0.15425938,11.358621597290039,0.6144632697105408,-3.013819456100464,-11.349129676818848,-209.2410430908203, 50.19619369506836
151,1085434579,0.6114542,-0.090689115,-0.76850337,0.1652326,15.694588661193848,-8.663240432739258,-2.7478795051574707,45.97446823120117,-163.8631591796875, 44.472469329833984
152,1085451246,0.5946403,-0.09332599,-0.78083056,0.16732286,13.724874496459961,-3.170261859893799,-1.4622819423675537,-21.583580017089844,-132.41726684570312, 34.968231201171875
153,1085467913,0.57945603,-0.0931088,-0.7919481,0.16846298,10.689837455749512,-6.544093608856201,-5.957485675811768,-12.560409545898438,-121.58528900146484, 14.736920356750488
154,1085484580,0.56719166,-0.08894127,-0.8007934,0.17062591,14.69888973236084,-3.7616515159606934,-5.702152252197266,13.258490562438965,-101.75875854492188, -4.820194721221924
155,1085501247,0.5570863,-0.08355333,-0.80784136,0.17339672,18.669025421142578,-8.195405006408691,-4.2447309494018555,26.554210662841797,-85.40409851074219, -11.173067092895508
156,1085517914,0.54769605,-0.08249075,-0.81503266,0.17013562,22.635923385620117,-3.2360119819641113,-2.376922607421875,-23.020971298217773,-73.69292449951172, -11.436572074890137
157,1085534581,0.53738165,-0.08634357,-0.8234941,0.160073,21.827632904052734,-2.3540217876434326,0.6992992162704468,-84.09940338134766,-73.44132232666016, -7.842660427093506
158,1085551248,0.5262274,-0.09236572,-0.83267766,0.14560707,21.234357833862305,-1.0892096757888794,4.901241302490234,-118.11944580078125,-76.61119842529297, -11.01756477355957
159,1085567915,0.514836,-0.09846093,-0.8418733,0.12844758,17.632625579833984,0.7780628204345703,8.682453155517578,-134.11383056640625,-77.10824584960938, -19.642166137695312
160,1085584582,0.5032774,-0.10586602,-0.85104525,0.10595462,13.56906509399414,2.2831733226776123,14.23354721069336,-169.88174438476562,-74.26679992675781, -30.32840347290039
161,1085601249,0.48726693,-0.11590952,-0.86141366,0.08427689,6.6087141036987305,-4.392792701721191,4.7352375984191895,-178.52757263183594,-104.40003204345703, -9.333552360534668
162,1085617916,0.46248055,-0.119577676,-0.87474096,0.08149342,12.050987243652344,-12.452342987060547,-1.6947920322418213,-54.096927642822266,-185.5823516845703, 18.756820678710938
163,1085634583,0.43467993,-0.116209045,-0.88785946,0.0962001,14.228865623474121,-6.453841686248779,4.428800582885742,70.8312759399414,-221.70846557617188, 33.37443161010742
164,1085651250,0.4049203,-0.11915197,-0.90055746,0.104109764,12.510734558105469,1.2647814750671387,6.021483898162842,8.962458610534668,-223.52053833007812, 53.03721237182617
165,1085667917,0.3751826,-0.13350822,-0.9133889,0.084466405,13.663457870483398,7.133487701416016,11.72059154510498,-193.52386474609375,-193.83731079101562, 47.01757049560547
166,1085684584,0.34708175,-0.15329571,-0.9242145,0.04315453,11.595843315124512,1.1158610582351685,10.400896072387695,-340.900634765625,-156.580810546875, 26.385791778564453
167,1085701251,0.32340094,-0.168352,-0.9311653,0.00092381844,14.231459617614746,-5.524452209472656,8.855507850646973,-329.66259765625,-120.74006652832031, -3.2914578914642334
168,1085717918,0.30841604,-0.17346364,-0.9350231,-0.02284296,15.755216598510742,-9.600502967834473,9.849287986755371,-179.4359130859375,-80.6379165649414, -22.818025588989258
169,1085734585,0.30465543,-0.17142054,-0.93656254,-0.025516314,12.903158187866211,-8.17190933227539,9.974669456481934,-16.088407516479492,-28.664958953857422, -19.992712020874023
170,1085751252,0.31180984,-0.16666818,-0.9352188,-0.019028086,11.64672565460205,-8.151289939880371,9.222960472106934,60.536075592041016,36.42715835571289, -13.144405364990234
171,1085767919,0.32975167,-0.15985356,-0.93042266,-0.004973998,10.454522132873535,-9.374608993530273,5.180286884307861,125.1177978515625,103.99394226074219, -4.883542537689209
172,1085784586,0.35808334,-0.15011688,-0.9214346,0.014133605,10.221833229064941,-7.832069396972656,1.429987907409668,174.92523193359375,173.94317626953125, -7.149667739868164
173,1085801253,0.39591694,-0.13810802,-0.9072988,0.031386785,10.726794242858887,-4.344415187835693,1.0480923652648926,178.76954650878906,248.13140869140625, -21.613494873046875
174,1085817920,0.4410793,-0.12813015,-0.8874267,0.038804926,11.84425163269043,-3.6824119091033936,-1.2271487712860107,119.91645812988281,318.8973693847656, -31.677371978759766
175,1085834587,0.49177006,-0.1230692,-0.8611609,0.037659686,13.425190925598145,-4.375007152557373,-3.907963514328003,59.19684600830078,380.64312744140625, -23.434900283813477
176,1085851254,0.5454857,-0.1267648,-0.8279783,0.028774166,14.291272163391113,-4.919105529785156,-6.314434051513672,-12.070329666137695,430.6734313964844, 7.168903350830078
177,1085867921,0.5992558,-0.13454421,-0.7888173,0.023616306,12.399191856384277,-7.108042240142822,-8.922200202941895,-5.092568397521973,451.048828125, 49.33357620239258
178,1085884588,0.6522058,-0.13621914,-0.7449173,0.034208886,15.98498249053955,-8.750773429870605,-12.201407432556152,105.41094970703125,450.9400634765625, 85.34718322753906
179,1085901255,0.70347244,-0.12487205,-0.6972366,0.058263797,22.1583194732666,-5.317085266113281,-20.129667282104492,232.1239471435547,444.24261474609375, 82.83959197998047
180,1085917922,0.74762136,-0.10624312,-0.65094644,0.07774025,23.227035522460938,0.35110074281692505,-22.03396987915039,238.8720245361328,405.4574890136719, 27.647214889526367
181,1085934589,0.78023696,-0.10541705,-0.6119882,0.07475286,17.232450485229492,2.3827080726623535,-27.81743621826172,34.54533004760742,343.3125, -6.956678867340088
182,1085951256,0.7987024,-0.123399876,-0.5857217,0.061458472,8.350597381591797,-6.241132736206055,-34.61530303955078,-126.25230407714844,234.4921112060547, 15.21288776397705
183,1085967923,0.80560845,-0.13806595,-0.57356197,0.05440221,5.137627124786377,-2.623365640640259,-32.745750427246094,-98.08895874023438,105.72898864746094, 28.751195907592773
184,1085984590,0.801058,-0.14858079,-0.5776253,0.0507845,1.611196517944336,4.049846649169922,-35.65361785888672,-77.9284439086914,-32.320526123046875, 20.260013580322266
185,1086001257,0.78458685,-0.15647289,-0.5978268,0.05042993,3.874105930328369,2.0521774291992188,-32.14154815673828,-67.82048034667969,-170.94741821289062, 15.740285873413086
186,1086017924,0.7570266,-0.15722264,-0.63072693,0.06614782,5.857696533203125,-19.34895133972168,-38.09583282470703,21.0387020111084,-303.179931640625, 63.378639221191406
187,1086034591,0.7248625,-0.122366354,-0.66896486,0.10994119,31.220243453979492,15.407990455627441,4.114185333251953,321.9151306152344,-395.7659912109375, 50.00043869018555
188,1086051258,0.6952463,-0.10340772,-0.69660556,0.1438061,18.62332534790039,2.808547258377075,4.366977214813232,206.90582275390625,-310.735595703125, 81.29756164550781
189,1086067925,0.6644164,-0.10017828,-0.72381675,0.15685877,14.893044471740723,7.362588405609131,-3.725757360458374,31.524017333984375,-284.35552978515625, 58.74311065673828
190,1086084592,0.63786966,-0.11110197,-0.7456702,0.15733592,7.595792770385742,-5.497662544250488,-4.09097957611084,-86.80838012695312,-214.53074645996094, 71.35725402832031
191,1086101259,0.6157873,-0.111609176,-0.7617701,0.1674985,27.57693862915039,-2.100825071334839,-2.088256359100342,18.34214973449707,-185.00155639648438, 59.78941345214844
192,1086117926,0.5960986,-0.11126832,-0.7755561,0.17549624,12.631688117980957,1.702798843383789,-5.37448263168335,15.208541870117188,-162.21461486816406, 45.5245246887207
193,1086134593,0.5786265,-0.11090045,-0.7877135,0.17999955,11.048460960388184,-6.137431621551514,-5.107269763946533,0.5421261191368103,-141.0359649658203, 29.854856491088867
194,1086151260,0.56440806,-0.11262711,-0.79792875,0.17907669,8.964435577392578,-9.725935935974121,-4.552079200744629,-32.23869323730469,-108.94023895263672, 16.94432258605957
195,1086167927,0.55362785,-0.11199038,-0.8060843,0.17658612,12.054763793945312,-10.889105796813965,-4.831292629241943,-26.532432556152344,-83.77195739746094, -5.024260520935059
196,1086184594,0.5453846,-0.107561365,-0.81290203,0.17371412,15.457724571228027,-6.411621570587158,-5.159846782684326,-10.770383834838867,-68.95967864990234, -29.801403045654297
197,1086201261,0.53923297,-0.10360528,-0.8185054,0.16894549,18.220069885253906,-6.280636787414551,-4.892180442810059,-22.491832733154297,-49.83111572265625, -34.91817092895508
198,1086217928,0.53295267,-0.10238869,-0.82447934,0.16034935,21.197280883789062,-3.809061050415039,-0.8839755058288574,-55.54175567626953,-45.91171646118164, -33.3212776184082
199,1086234595,0.5264074,-0.10331476,-0.8307874,0.1483703,19.815025329589844,-3.5808465480804443,2.095615863800049,-80.2833480834961,-45.61482620239258, -34.471797943115234
200,1086251262,0.5192657,-0.10557878,-0.83749145,0.13350849,16.532930374145508,-0.8114063143730164,6.463057041168213,-102.59378051757812,-47.62384796142578, -36.6343879699707
201,1086267929,0.5110401,-0.110326566,-0.84483504,0.11366655,12.047447204589844,-0.11083407700061798,8.793182373046875,-141.69471740722656,-50.99872970581055, -39.23427200317383
202,1086284596,0.5016632,-0.11380721,-0.8524273,0.09353944,9.48847770690918,-0.4630143642425537,9.46873664855957,-140.14358520507812,-60.10429382324219, -46.62479019165039
203,1086301263,0.4867863,-0.11720909,-0.86211604,0.077827096,7.172173976898193,-6.773933410644531,2.219651937484741,-119.79846954345703,-103.82242584228516, -29.823936462402344
204,1086317930,0.4646942,-0.11674625,-0.87442714,0.07620298,13.595871925354004,-9.701906204223633,3.572490692138672,-30.73383331298828,-169.13504028320312, -4.067913055419922
205,1086334597,0.43653205,-0.11531974,-0.8886523,0.080240145,14.110122680664062,-5.2586236000061035,5.914101600646973,0.2572264075279236,-217.3796844482422, 9.556840896606445
206,1086351264,0.4032068,-0.11852575,-0.9041283,0.076993816,13.301302909851074,-2.73492693901062,6.684214115142822,-63.1087760925293,-245.0743408203125, 17.74602508544922
207,1086367931,0.3697166,-0.12782423,-0.91847646,0.058067095,16.92182159423828,2.848505973815918,12.354043960571289,-177.15451049804688,-227.73216247558594, 13.125404357910156
208,1086384598,0.33840677,-0.13997358,-0.9302528,0.022760412,17.170995712280273,0.3424636721611023,12.471704483032227,-284.93719482421875,-193.0453643798828, -9.011124610900879
209,1086401265,0.3120236,-0.14962748,-0.9381164,-0.0138171455,17.78597640991211,-7.7793989181518555,9.778706550598145,-281.9245910644531,-152.73410034179688, -25.06413459777832
210,1086417932,0.2957684,-0.15127471,-0.9428041,-0.027525818,16.702470779418945,-8.858436584472656,9.760595321655273,-107.34806823730469,-104.3593521118164, -23.812631607055664
211,1086434599,0.29029348,-0.1508824,-0.94455373,-0.027978426,13.09880256652832,-6.394521236419678,9.491741180419922,-6.97184944152832,-42.85918426513672, -5.292068004608154
212,1086451266,0.29618022,-0.15075676,-0.94290775,-0.02179308,11.354509353637695,-8.71387767791748,6.771567344665527,46.44917297363281,29.986129760742188, 15.265519142150879
213,1086467933,0.31420892,-0.1486064,-0.9376322,-0.0058918614,10.33695125579834,-8.558067321777344,3.2067878246307373,125.21156311035156,105.71968078613281, 27.423078536987305
214,1086484600,0.3438424,-0.14550872,-0.92760396,0.01227715,9.143657684326172,-5.768209457397461,0.319121778011322,153.18338012695312,188.18203735351562, 31.5528507232666
215,1086501267,0.3831496,-0.14165083,-0.9123578,0.027108707,9.026366233825684,-4.340410232543945,-1.0322105884552002,143.6118621826172,265.4958190917969, 23.300336837768555
216,1086517934,0.4303894,-0.1383277,-0.8912473,0.036177754,10.114298820495605,-2.799495220184326,-2.2156496047973633,114.7820816040039,336.6636962890625, 15.757048606872559
217,1086534601,0.48266208,-0.13919917,-0.86393917,0.035643425,12.44687271118164,-2.5367228984832764,-4.084478378295898,49.82961654663086,396.4225158691406, 17.679792404174805
218,1086551268,0.53714377,-0.14587103,-0.83027476,0.029018516,13.027146339416504,-3.9051895141601562,-6.734971046447754,-1.9124993085861206,438.412841796875, 37.38511276245117
219,1086567935,0.5922159,-0.15433763,-0.7904055,0.026825631,13.09468936920166,-4.948328495025635,-7.994604110717773,18.657161712646484,461.2884826660156, 69.9744644165039
220,1086584602,0.64739394,-0.15622726,-0.7450087,0.037897803,17.082042694091797,-6.177346229553223,-10.251940727233887,118.81719207763672,469.8386535644531, 94.02084350585938
221,1086601269,0.7016415,-0.14593235,-0.6946897,0.061719306,23.11546516418457,-4.338778495788574,-17.777870178222656,238.90341186523438,470.9310607910156, 93.92400360107422
222,1086617936,0.7495422,-0.12684114,-0.6444367,0.082458526,22.980453491210938,0.27120137214660645,-28.08795928955078,260.4495544433594,440.5398864746094, 39.7843017578125
223,1086634603,0.78313637,-0.123230815,-0.6039988,0.08183544,19.35893440246582,4.068159580230713,-34.17760467529297,68.07379150390625,354.9283752441406, -1.9867182970046997
224,1086651270,0.8007496,-0.14053988,-0.5784717,0.066476,8.654207229614258,-3.3275744915008545,-34.373634338378906,-127.48321533203125,233.59547424316406, 2.1125314235687256
225,1086667937,0.8053746,-0.1559695,-0.56885064,0.0587748,3.457606077194214,-1.2584956884384155,-39.93419647216797,-106.18057250976562,86.92330932617188, 27.331817626953125
226,1086684604,0.7975033,-0.16370545,-0.5778614,0.057142794,1.3328708410263062,1.7906776666641235,-36.70835876464844,-60.47357940673828,-73.98395538330078, 15.898141860961914
227,1086701271,0.7793767,-0.15874344,-0.602497,0.06610733,4.0030412673950195,1.5732390880584717,-35.36498260498047,33.786598205566406,-216.8361358642578, 9.964157104492188
228,1086717938,0.74650997,-0.13969621,-0.6430166,0.09867992,11.277235984802246,-7.538202285766602,-33.83418273925781,184.05760192871094,-395.0207214355469, 67.37783813476562
229,1086734605,0.714123,-0.10821485,-0.67780876,0.13745402,36.60079574584961,7.5503411293029785,17.205631256103516,279.8985595703125,-377.6450500488281, 49.0059700012207
230,1086751272,0.68512416,-0.09880251,-0.70400786,0.15879564,13.817907333374023,3.7451956272125244,-0.5371461510658264,100.53343963623047,-286.2789611816406, 69.62556457519531
231,1086767939,0.6575131,-0.112702355,-0.7277318,0.15931542,18.415929794311523,-0.7000170946121216,7.010611534118652,-106.53972625732422,-228.56582641601562, 84.64454650878906
232,1086784606,0.6314714,-0.12472923,-0.7488897,0.15764141,18.72545051574707,0.6982647180557251,-6.4097900390625,-105.11797332763672,-209.84571838378906, 65.72020721435547
233,1086801273,0.60988677,-0.12017859,-0.7643283,0.17145713,10.086546897888184,-6.425648212432861,-5.375126838684082,56.654762268066406,-193.44960021972656, 47.75579071044922
234,1086817940,0.5928746,-0.116087146,-0.7754104,0.18374547,10.562756538391113,-4.625485897064209,-4.144439220428467,55.57200622558594,-149.46356201171875, 41.87028884887695
235,1086834607,0.57918906,-0.117063165,-0.785318,0.18469477,9.040932655334473,-7.60189962387085,-6.4786295890808105,-21.451805114746094,-111.61231231689453, 19.362382888793945
236,1086851274,0.56964374,-0.11734397,-0.7925562,0.18327871,10.7507963180542,-8.67436695098877,-5.114229679107666,-24.780025482177734,-77.68622589111328, 3.0270378589630127
237,1086867941,0.56361705,-0.11279834,-0.79757804,0.18298036,12.662293434143066,-9.006956100463867,-5.228006839752197,5.784672260284424,-56.907798767089844, -21.586219787597656
238,1086884608,0.5586541,-0.10756637,-0.80243695,0.18008411,17.074214935302734,-6.00631856918335,-5.160281658172607,-4.8316826820373535,-49.37709045410156, -36.66108703613281
239,1086901275,0.55399746,-0.10664904,-0.80720574,0.17358492,22.05512237548828,-4.52377462387085,-2.519052505493164,-37.97323989868164,-40.723262786865234, -28.028167724609375
240,1086917942,0.54770136,-0.10993873,-0.8135432,0.1615069,21.80120849609375,-1.9285169839859009,0.2618565559387207,-89.92450714111328,-46.001747131347656, -24.435558319091797
241,1086934609,0.5404164,-0.11508743,-0.8203061,0.14765865,19.02161979675293,-1.4939792156219482,3.645235776901245,-109.23643493652344,-49.39990234375, -19.4222469329834
242,1086951276,0.53133535,-0.11962161,-0.8281674,0.1323348,15.249008178710938,-1.7136090993881226,6.8704609870910645,-117.8573989868164,-63.226078033447266, -27.36090850830078
243,1086967943,0.52032644,-0.12335436,-0.83701575,0.11597016,11.805291175842285,-2.092648983001709,9.68118667602539,-123.39209747314453,-77.8422622680664, -34.75909423828125
244,1086984610,0.5076804,-0.1273364,-0.84633213,0.09883513,8.977795600891113,-0.22468766570091248,10.098569869995117,-130.53451538085938,-88.24188232421875, -35.17327117919922
245,1087001277,0.49127448,-0.13254128,-0.8569973,0.08147453,9.157204627990723,-4.94465446472168,2.3551061153411865,-140.36395263671875,-113.93602752685547, -27.47361183166504
246,1087017944,0.46795776,-0.1348071,-0.8703238,0.0733444,14.324461936950684,-8.374241828918457,2.2937803268432617,-83.86116027832031,-173.76132202148438, -12.208197593688965
247,1087034611,0.4374525,-0.1359725,-0.8861891,0.069397315,12.834746360778809,-5.805996417999268,3.698540687561035,-63.279640197753906,-229.4698028564453, -4.1104044914245605
248,1087051278,0.40272018,-0.13922587,-0.9024331,0.06361955,12.639359474182129,-5.7823004722595215,4.0262885093688965,-84.88980865478516,-253.7419891357422, 4.745073318481445
249,1087067945,0.3682153,-0.14555764,-0.91702855,0.047845937,17.076379776000977,3.744062662124634,12.389627456665039,-154.55043029785156,-236.92050170898438, -2.3822431564331055
250,1087084612,0.33520302,-0.15564571,-0.92913234,0.011257945,17.28766632080078,-0.01014333963394165,12.674559593200684,-293.05426025390625,-199.3048553466797, -29.38425636291504
251,1087101279,0.3093606,-0.15976389,-0.93727535,-0.016931392,18.303911209106445,-10.629344940185547,9.043625831604004,-217.594482421875,-153.91111755371094, -44.508731842041016
252,1087117946,0.29503357,-0.1547671,-0.94275284,-0.014818597,15.599260330200195,-10.348833084106445,9.818586349487305,9.39031982421875,-106.33114624023438, -34.573543548583984
253,1087134613,0.29112992,-0.1496585,-0.94490266,-0.0022787545,12.451748847961426,-6.559123992919922,9.531427383422852,87.89579010009766,-43.18266296386719, -9.560125350952148
254,1087151280,0.29736826,-0.14640439,-0.943401,0.011520366,10.551406860351562,-9.20061206817627,5.5096588134765625,102.70951080322266,28.642398834228516, 8.936984062194824
255,1087167947,0.31476337,-0.14229009,-0.9380043,0.028731674,9.576684951782227,-7.430617332458496,3.238300085067749,138.10076904296875,105.46537780761719, 13.373002052307129
256,1087184614,0.34296387,-0.13835646,-0.928123,0.042674933,8.25443172454834,-4.302803993225098,1.4665775299072266,128.06874084472656,188.11758422851562, 9.723111152648926
257,1087201281,0.38059258,-0.13535658,-0.91342735,0.049784828,7.8841166496276855,-3.6436991691589355,-0.6072701811790466,92.64231872558594,266.47003173828125, 1.3824042081832886
258,1087217948,0.42587495,-0.13395151,-0.8933464,0.051186115,9.21209716796875,-3.255922555923462,-2.079396963119507,61.59111022949219,334.5824279785156, -1.161138892173767
259,1087234615,0.47663134,-0.136262,-0.8672545,0.04609971,10.876824378967285,-3.1287176609039307,-3.2785444259643555,18.018369674682617,393.20159912109375, 6.25506067276001
260,1087251282,0.5305879,-0.14381912,-0.83453405,0.036684547,12.250982284545898,-4.123904228210449,-5.898859024047852,-19.89402198791504,439.8492126464844, 28.53461456298828
261,1087267949,0.5853835,-0.15293951,-0.79555446,0.032076806,12.703383445739746,-7.081959247589111,-8.54379940032959,4.431365966796875,463.25042724609375, 61.0101203918457
262,1087284616,0.6415939,-0.14865892,-0.7508977,0.04910089,15.1727933883667,-9.681659698486328,-10.699516296386719,179.60748291015625,468.28656005859375, 80.4231185913086
263,1087301283,0.6958594,-0.1294637,-0.7015895,0.08240993,22.918886184692383,-8.973898887634277,-18.312665939331055,329.29931640625,457.2733154296875, 80.6728744506836
264,1087317950,0.74280715,-0.100232765,-0.652061,0.114050314,25.373348236083984,-2.923337936401367,-28.299182891845703,362.959228515625,418.9100036621094, 28.578989028930664
265,1087334617,0.7752698,-0.09427409,-0.61383593,0.115217,16.739912033081055,6.428101539611816,-37.12260818481445,88.3866958618164,335.4316101074219, -19.13631820678711
266,1087351284,0.78989875,-0.12297517,-0.5933379,0.09427293,6.360048770904541,-8.101911544799805,-35.89833068847656,-215.2835693359375,207.70352172851562, 12.032608985900879
267,1087367951,0.79167014,-0.14701317,-0.587103,0.08340078,2.597330331802368,-2.5145654678344727,-35.070159912109375,-168.82810974121094,66.46548461914062, 43.97494888305664
268,1087384618,0.7836715,-0.1559421,-0.5958535,0.0806214,0.4764711558818817,3.7649857997894287,-34.18864059448242,-72.27140045166016,-71.15709686279297, 17.502981185913086
269,1087401285,0.76619184,-0.1584158,-0.6170855,0.08402405,3.6425364017486572,3.4763431549072266,-31.85982322692871,-29.164676666259766,-187.2668914794922, 16.27164077758789
270,1087417952,0.73289317,-0.14469838,-0.65541506,0.111180805,9.851102828979492,-8.381279945373535,-37.74803924560547,129.97134399414062,-379.6863098144531, 63.2459602355957
271,1087434619,0.7011985,-0.1126999,-0.6873024,0.15243052,34.10077667236328,3.791025161743164,16.571802139282227,292.387939453125,-367.83892822265625, 56.90129089355469
272,1087451286,0.6713279,-0.09575273,-0.71234465,0.18087465,16.32022476196289,0.5077866315841675,1.027158498764038,167.6693572998047,-300.563232421875, 69.6835708618164
273,1087467953,0.64201695,-0.110977754,-0.73664767,0.18124212,22.497411727905273,6.036694049835205,6.677854061126709,-117.1677017211914,-235.93495178222656, 97.46533966064453
274,1087484620,0.6142031,-0.12355225,-0.758557,0.17911114,16.32447052001953,0.0029832273721694946,-10.918583869934082,-114.01443481445312,-219.30357360839844, 73.08634185791016
275,1087501287,0.5916475,-0.11636419,-0.7730962,0.19681248,9.32050609588623,-7.798747539520264,-3.8324973583221436,86.49601745605469,-201.9189453125, 53.57282638549805
276,1087517954,0.5739077,-0.11314009,-0.7838296,0.20842397,6.368411540985107,-6.298087120056152,-5.565001964569092,46.97769546508789,-150.6224365234375, 46.33061981201172
277,1087534621,0.56076837,-0.11408438,-0.79271644,0.21005814,8.720625877380371,-9.99070930480957,-6.050191879272461,-17.028982162475586,-104.81745147705078, 24.226957321166992
278,1087551288,0.55264354,-0.11306842,-0.79887813,0.20879321,10.18014907836914,-9.724002838134766,-6.480913162231445,-17.42606544494629,-67.55126190185547, -2.7792816162109375
279,1087567955,0.5476269,-0.10720942,-0.8034414,0.20758878,13.793498039245605,-8.571913719177246,-6.464240550994873,5.992445945739746,-51.41875457763672, -32.39822769165039
280,1087584622,0.543823,-0.10155042,-0.8074485,0.20486878,20.55327796936035,-5.644665718078613,-6.139174461364746,-1.4718759059906006,-41.24651336669922, -38.32618713378906
281,1087601289,0.5397585,-0.10303052,-0.81265366,0.19400895,23.997377395629883,-3.866234540939331,-1.3276386260986328,-69.6823501586914,-34.04483413696289, -31.576139450073242
282,1087617956,0.5338375,-0.10811782,-0.81935346,0.17885144,23.29132843017578,-4.053525447845459,1.793642282485962,-112.83731079101562,-41.02525329589844, -25.062379837036133
283,1087634623,0.5271379,-0.11604232,-0.8262549,0.16112913,19.992826461791992,-2.408034563064575,5.522342681884766,-141.68707275390625,-39.49195098876953, -16.404586791992188
284,1087651290,0.5184552,-0.12300003,-0.83421564,0.14198422,15.245763778686523,-0.2993503510951996,9.904465675354004,-149.06967163085938,-54.673622131347656, -25.640941619873047
285,1087667957,0.50831735,-0.12899496,-0.8428285,0.1208884,11.921661376953125,2.1623432636260986,13.039709091186523,-158.7486114501953,-64.7936782836914, -37.20071792602539
286,1087684624,0.496494,-0.13353522,-0.85190535,0.099597864,7.070545196533203,-0.5587996244430542,8.148306846618652,-156.71774291992188,-77.38933563232422, -45.27779769897461
287,1087701291,0.47654435,-0.13403368,-0.8640736,0.091199934,9.153193473815918,-11.947330474853516,-0.39554283022880554,-77.00402069091797,-150.25209045410156, -22.210693359375
288,1087717958,0.44929075,-0.1284464,-0.8787453,0.09719225,15.194110870361328,-5.811542987823486,3.073756217956543,20.079692840576172,-218.9828338623047, -9.018106460571289
289,1087734625,0.41643783,-0.12839131,-0.8950786,0.094496384,15.141935348510742,-2.5635669231414795,5.215092182159424,-55.60880661010742,-246.69447326660156, -0.1637788861989975
290,1087751292,0.38340542,-0.1328309,-0.91024363,0.08254011,16.102460861206055,3.14204740524292,11.240160942077637,-124.90965270996094,-233.48570251464844, 2.1418216228485107
291,1087767959,0.3509455,-0.14270842,-0.92410165,0.05007864,14.977399826049805,5.14443302154541,12.846562385559082,-266.38409423828125,-204.85215759277344, -16.98851203918457
292,1087784626,0.32196307,-0.15328881,-0.9342217,0.008498999,15.026612281799316,-4.713675022125244,10.564156532287598,-321.3397216796875,-164.736572265625, -32.06320571899414
293,1087801293,0.30132213,-0.1569627,-0.94040704,-0.014229385,16.160358428955078,-9.902369499206543,9.390993118286133,-175.87437438964844,-122.83304595947266, -31.096338272094727
294,1087817960,0.2908501,-0.15556893,-0.94391036,-0.015425685,13.545184135437012,-9.524109840393066,8.636012077331543,-15.505694389343262,-74.41419219970703, -15.424372673034668
295,1087834627,0.29105783,-0.15303397,-0.94436294,-0.006709045,12.009385108947754,-7.611755847930908,6.539853572845459,62.12195587158203,-9.618586540222168, 1.3606358766555786
296,1087851294,0.3019877,-0.15100543,-0.94126946,0.0035349478,11.023140907287598,-8.404906272888184,4.289511203765869,82.07395935058594,65.36328125, 11.928194046020508
297,1087867961,0.32399788,-0.14793225,-0.9342407,0.018326504,9.342844009399414,-7.894766330718994,1.6441478729248047,125.20698547363281,140.4300994873047, 18.42641830444336
298,1087884628,0.3562454,-0.14418277,-0.92262244,0.03268591,8.207279205322266,-4.9072675704956055,-0.8519339561462402,134.8756103515625,216.75209045410156, 16.498849868774414
299,1087901295,0.3970408,-0.14190324,-0.9059031,0.039519258,8.714455604553223,-3.10135555267334,-2.3064091205596924,93.12176513671875,291.2908020019531, 10.521102905273438
300,1087917962,0.44401962,-0.14352271,-0.8837029,0.03629311,10.134774208068848,-3.0016679763793945,-3.293905258178711,27.316177368164062,355.69879150390625, 10.990791320800781
301,1087934629,0.49505526,-0.15038957,-0.8553384,0.026453376,10.965727806091309,-4.465615272521973,-5.354223251342773,-23.3740177154541,407.083984375, 27.711347579956055
302,1087951296,0.5475738,-0.16076614,-0.820964,0.0183152,11.435622215270996,-5.954906940460205,-7.900307655334473,-22.69331169128418,435.2272033691406, 60.03150939941406
303,1087967963,0.601212,-0.16623649,-0.78126943,0.022972679,11.431211471557617,-7.911731719970703,-9.625744819641113,69.97744750976562,446.9228210449219, 86.19803619384766
304,1087984630,0.6563389,-0.15849812,-0.73604816,0.04828016,16.09368133544922,-7.941841125488281,-13.579109191894531,238.2676239013672,452.2790222167969, 106.67552947998047
305,1088001297,0.70889217,-0.13779353,-0.68694985,0.08114707,23.307758331298828,-3.9705586433410645,-20.03706169128418,333.7149658203125,444.4171142578125, 80.24730682373047
306,1088017964,0.75300944,-0.114174776,-0.64024454,0.10014078,24.909799575805664,5.272418022155762,-26.887643814086914,273.0387268066406,404.51953125, 1.30177640914917
307,1088034631,0.7821118,-0.12353323,-0.60457146,0.08679792,14.296697616577148,1.780446171760559,-37.884368896484375,-59.535926818847656,329.55718994140625, -19.127891540527344
308,1088051298,0.7939495,-0.1486929,-0.5854013,0.06957088,6.6515374183654785,-9.522089958190918,-36.51356887817383,-185.02117919921875,182.16708374023438, 22.043664932250977
309,1088067965,0.79389524,-0.16340087,-0.5821504,0.06427758,2.422462224960327,1.5242022275924683,-37.224857330322266,-99.49211883544922,30.57341957092285, 34.486629486083984
310,1088084632,0.782974,-0.16786723,-0.5955102,0.064343564,1.6264710426330566,4.0984578132629395,-34.873741149902344,-41.539432525634766,-113.77264404296875, 8.934690475463867
311,1088101299,0.75774693,-0.16914558,-0.62550944,0.07712036,2.1573147773742676,-18.512367248535156,-52.14229202270508,3.9295496940612793,-277.7608337402344, 51.478424072265625
312,1088117966,0.72328216,-0.1364331,-0.66673505,0.11710547,32.79676818847656,13.4971923828125,6.4485015869140625,281.8236083984375,-425.4933166503906, 38.602142333984375
313,1088134633,0.69695795,-0.10765681,-0.69121414,0.15774189,17.064943313598633,2.4243407249450684,9.622183799743652,286.21356201171875,-302.2825012207031, 69.13571166992188
314,1088151300,0.6659213,-0.114337996,-0.7185023,0.16501549,28.464523315429688,9.357132911682129,0.9537138938903809,-49.040985107421875,-275.0868225097656, 80.79557037353516
315,1088167967,0.63816345,-0.1347727,-0.7419109,0.15540934,9.088634490966797,2.514606237411499,-4.408661365509033,-188.4630126953125,-212.3524627685547, 70.99530029296875
316,1088184634,0.6146603,-0.13284175,-0.7590378,0.16854495,15.970858573913574,-8.255451202392578,-6.817137718200684,36.4068489074707,-208.08262634277344, 57.99995803833008
317,1088201301,0.596758,-0.12858626,-0.7706488,0.18288246,6.830386161804199,-3.686342239379883,-3.002307176589966,64.00969696044922,-159.3567657470703, 49.43041229248047
318,1088217968,0.5813201,-0.1288263,-0.7812865,0.1872491,9.330693244934082,-10.313789367675781,-5.334501266479492,-3.890831470489502,-127.88694763183594, 30.06020164489746
319,1088234635,0.5699708,-0.12982188,-0.7893938,0.18744904,9.26015853881836,-8.709234237670898,-5.607664108276367,-22.447093963623047,-91.1806869506836, 14.377881050109863
320,1088251302,0.56154245,-0.12711412,-0.79589444,0.18725556,11.656285285949707,-8.546486854553223,-6.487792015075684,-5.424926280975342,-73.484130859375, -9.633148193359375
321,1088267969,0.5547439,-0.119642295,-0.8016531,0.18787627,16.63963508605957,-6.873953342437744,-4.945228576660156,19.769515991210938,-68.57523345947266, -34.036197662353516
322,1088284636,0.54872143,-0.11493378,-0.80714524,0.18496364,22.351009368896484,-3.428239107131958,-3.993978977203369,-9.299949645996094,-56.86363983154297, -33.05119705200195
323,1088301303,0.5424859,-0.11711912,-0.8134442,0.17407073,21.253602981567383,-3.2482285499572754,-1.932349681854248,-80.81730651855469,-46.104774475097656, -25.19011688232422
324,1088317970,0.53568715,-0.12135231,-0.82006556,0.16064055,20.328628540039062,-2.4700310230255127,1.9705944061279297,-103.5189437866211,-46.06562423706055, -22.71120834350586
325,1088334637,0.52836996,-0.126323,-0.8269355,0.14507005,16.379436492919922,-2.2127509117126465,5.227353096008301,-119.0576171875,-47.440185546875, -26.000429153442383
326,1088351304,0.51952773,-0.12988415,-0.8348213,0.12765053,12.660852432250977,-2.831634283065796,9.024799346923828,-126.84468841552734,-59.74864959716797, -40.04759979248047
327,1088367971,0.5093105,-0.13268104,-0.84317034,0.109828375,10.146133422851562,-1.1716029644012451,12.262696266174316,-128.12838745117188,-69.76968383789062, -45.063743591308594
328,1088384638,0.49651262,-0.13653986,-0.8522955,0.09178518,7.480360984802246,-3.732343912124634,5.757148742675781,-136.1352996826172,-86.62061309814453, -38.428192138671875
329,1088401305,0.4743978,-0.13811594,-0.8651686,0.085756086,11.428726196289062,-12.36911678314209,0.9429001808166504,-69.08943939208984,-166.83358764648438, -8.452677726745605
330,1088417972,0.44563752,-0.13415788,-0.8803498,0.0916136,14.356744766235352,-4.306497097015381,5.419855117797852,11.930145263671875,-228.5314483642578, -0.9508036375045776
331,1088434639,0.4112516,-0.13668178,-0.89694804,0.08760429,14.293984413146973,-1.9621659517288208,4.277791976928711,-73.79522705078125,-253.88490295410156, 10.294921875
332,1088451306,0.37546232,-0.14278385,-0.9129149,0.07230041,17.311445236206055,1.2130335569381714,10.117632865905762,-154.552734375,-248.11630249023438, 1.8757283687591553
333,1088467973,0.34170255,-0.15079255,-0.9265576,0.044633105,18.527257919311523,-0.5316789746284485,13.65648078918457,-233.97879028320312,-216.48992919921875, -16.783164978027344
334,1088484640,0.313968,-0.15511808,-0.93647856,0.01925413,18.063270568847656,-7.552375793457031,10.3337984085083,-203.35557556152344,-173.0586395263672, -32.87491226196289
335,1088501307,0.29650676,-0.15236287,-0.9426838,0.014717368,16.46867561340332,-8.264891624450684,9.700174331665039,-42.452205657958984,-122.20653533935547, -30.910171508789062
336,1088517974,0.289948,-0.14887768,-0.94521827,0.018111357,13.736716270446777,-4.080458641052246,10.18757152557373,22.155790328979492,-52.590335845947266, -16.750041961669922
337,1088534641,0.2943378,-0.14703976,-0.94408816,0.02103147,11.456005096435547,-6.722318649291992,7.298284530639648,27.41614532470703,26.43795394897461, -4.594518661499023
338,1088551308,0.31028363,-0.14519306,-0.93908423,0.027641214,9.456581115722656,-7.331694602966309,3.9311981201171875,63.56834030151367,105.48957824707031, 5.0516133308410645
339,1088567975,0.33752578,-0.1433576,-0.9296503,0.03571384,8.226970672607422,-5.904996871948242,1.5058491230010986,85.0582504272461,186.41371154785156, 10.506985664367676
340,1088584642,0.37488294,-0.1412701,-0.9152755,0.042149033,7.909176826477051,-4.526521682739258,-0.021664708852767944,86.3340072631836,264.1333312988281, 7.466130256652832
341,1088601309,0.41997096,-0.13958739,-0.8955875,0.04542073,8.787763595581055,-4.178730010986328,-2.0547280311584473,74.42244720458984,329.7503967285156, 4.756895542144775
342,1088617976,0.4706248,-0.13954727,-0.87008065,0.04470589,10.691926956176758,-3.9246318340301514,-3.1000120639801025,52.28807067871094,385.26947021484375, 7.173067092895508
343,1088634643,0.52476287,-0.14293092,-0.8381721,0.040774353,12.50344467163086,-4.285398006439209,-5.159663200378418,27.27435874938965,431.08349609375, 22.284543991088867
344,1088651310,0.5805603,-0.1479943,-0.7996764,0.039563324,13.424846649169922,-4.939118385314941,-7.043358325958252,40.39957809448242,462.3398132324219, 47.75996398925781
345,1088667977,0.636988,-0.14950225,-0.754658,0.048856564,15.31145191192627,-6.674494743347168,-8.768264770507812,114.85004425048828,480.3443603515625, 76.60088348388672
346,1088684644,0.6910614,-0.13856195,-0.7054523,0.07464488,22.783445358276367,-10.110820770263672,-17.375164031982422,254.1334991455078,465.49493408203125, 89.35868072509766
347,1088701311,0.73852557,-0.11339848,-0.65638876,0.10428058,24.231325149536133,-4.581661701202393,-28.31432342529297,334.1650390625,421.9629211425781, 41.86894989013672
348,1088717978,0.77340245,-0.10052586,-0.6153156,0.11458654,19.074617385864258,4.640247344970703,-37.8883171081543,168.86709594726562,348.5653076171875, 1.9993535280227661
349,1088734645,0.78999925,-0.12230717,-0.5930281,0.09622832,6.4068474769592285,-2.7345480918884277,-38.00275802612305,-164.07852172851562,218.779541015625, -2.2815277576446533
350,1088751312,0.79270184,-0.14352506,-0.5864047,0.08458101,4.749878883361816,-1.8983030319213867,-39.0716438293457,-155.52163696289062,71.3845443725586, 27.923452377319336
351,1088767979,0.7830518,-0.1544914,-0.59724426,0.07913114,0.5348271131515503,1.303079605102539,-37.86806106567383,-96.83914947509766,-85.30136108398438, 10.35168170928955
352,1088784646,0.7632608,-0.15656361,-0.6211228,0.08442457,1.7715412378311157,-5.99075174331665,-43.590087890625,-22.557828903198242,-213.08627319335938, 23.360349655151367
353,1088801313,0.7263749,-0.13447958,-0.6642176,0.11449888,18.42877960205078,3.0550312995910645,-22.657066345214844,180.8045196533203,-427.5370788574219, 39.369873046875
354,1088817980,0.696881,-0.10432094,-0.69252115,0.15455966,26.459678649902344,0.3335907459259033,15.950584411621094,285.36517333984375,-335.2378234863281, 60.14830017089844
355,1088834647,0.66619444,-0.090439714,-0.71759325,0.18183999,19.991880416870117,-3.0969831943511963,-0.933083713054657,148.8769073486328,-299.1192932128906, 79.95242309570312
356,1088851314,0.64014536,-0.1084045,-0.7396279,0.17723808,18.792869567871094,11.098335266113281,3.191368341445923,-147.71054077148438,-202.69363403320312, 87.13131713867188
357,1088867981,0.6140411,-0.117412455,-0.7598412,0.17835192,16.094614028930664,-5.5990142822265625,-10.299922943115234,-77.0267105102539,-210.25750732421875, 68.35233306884766
358,1088884648,0.5952975,-0.10856169,-0.7711015,0.19808564,9.206560134887695,-4.731884002685547,-3.0329463481903076,112.63114166259766,-170.9144744873047, 51.831947326660156
359,1088901315,0.57913816,-0.10820164,-0.78156495,0.2050549,8.712072372436523,-6.085855007171631,-5.377320289611816,13.190328598022461,-132.90077209472656, 41.622013092041016
360,1088917982,0.5667224,-0.110117674,-0.79021645,0.20556717,9.201446533203125,-9.489056587219238,-5.9940924644470215,-25.242795944213867,-97.5789794921875, 24.17904281616211
361,1088934649,0.5580259,-0.110983014,-0.7970938,0.2023157,11.146241188049316,-9.946651458740234,-5.676182746887207,-36.30002975463867,-69.11214447021484, -0.15247566998004913
362,1088951316,0.5517427,-0.106863625,-0.8026422,0.19981432,15.544668197631836,-7.578133583068848,-5.809032440185547,-9.412139892578125,-58.31869125366211, -26.970008850097656
363,1088967983,0.54687786,-0.10299654,-0.8072381,0.19668038,20.187118530273438,-5.575446128845215,-4.724730968475342,-11.542526245117188,-46.105499267578125, -29.217695236206055
364,1088984650,0.5410868,-0.1059557,-0.81350607,0.18494982,22.337783813476562,-2.823042154312134,-0.9453927874565125,-87.87158966064453,-42.28595733642578, -23.527189254760742
365,1089001317,0.53483325,-0.1124399,-0.8202203,0.16896638,20.345054626464844,-3.266573905944824,1.6619281768798828,-122.57527160644531,-40.387001037597656, -20.458019256591797
366,1089017984,0.5280931,-0.119151324,-0.8267861,0.15279193,17.396772384643555,-1.2780561447143555,4.582369327545166,-127.88719177246094,-41.007476806640625, -17.926286697387695
367,1089034651,0.5198591,-0.1253094,-0.83435637,0.13376753,13.301519393920898,-0.19075274467468262,8.986956596374512,-144.41586303710938,-51.55791473388672, -30.600296020507812
368,1089051318,0.50941384,-0.13087504,-0.8429704,0.113006994,10.124107360839844,-0.5242111682891846,11.120790481567383,-155.19122314453125,-67.21239471435547, -39.01805114746094
369,1089067985,0.4953513,-0.1368282,-0.8527731,0.09318343,8.119877815246582,-3.201996088027954,5.295656204223633,-155.36582946777344,-93.07415771484375, -31.724756240844727
370,1089084652,0.4747303,-0.1393882,-0.86500925,0.08343522,12.352410316467285,-11.627985954284668,3.4285788536071777,-92.50234985351562,-151.58444213867188, -15.410223007202148
371,1089101319,0.44859496,-0.13558231,-0.87921613,0.0857871,15.146676063537598,-3.767764091491699,7.246306419372559,-6.25757360458374,-206.1841583251953, -12.580251693725586
372,1089117986,0.41421312,-0.13988557,-0.89615965,0.075879104,12.92762279510498,-3.21889591217041,4.461419105529785,-114.75970458984375,-248.4619598388672, 0.943558394908905
373,1089134653,0.37714803,-0.14542654,-0.9124927,0.06299007,15.521597862243652,-2.5398600101470947,7.993025302886963,-138.95989990234375,-259.88177490234375, 2.05889892578125
374,1089151320,0.34228426,-0.15313633,-0.9261997,0.039306555,19.435747146606445,1.767799735069275,12.587376594543457,-209.03488159179688,-227.7043914794922, -10.663948059082031
375,1089167987,0.31142023,-0.16000561,-0.9366775,0.007130776,19.398099899291992,-5.013158798217773,12.155648231506348,-256.08233642578125,-186.15744018554688, -33.68833541870117
376,1089184654,0.29028904,-0.15998252,-0.9434459,-0.006915399,18.09209442138672,-11.575366973876953,9.498205184936523,-113.66522216796875,-135.9990234375, -35.69647216796875
377,1089201321,0.2822349,-0.15517676,-0.9467092,0.0023241835,14.229220390319824,-6.735283851623535,10.371007919311523,61.03989791870117,-69.74078369140625, -15.815566062927246
378,1089217988,0.28452644,-0.15283036,-0.94634986,0.010479852,11.527117729187012,-6.073025703430176,9.244815826416016,60.235870361328125,5.680668354034424, 1.795659065246582
379,1089234655,0.29847974,-0.15055504,-0.94217825,0.023308842,9.558589935302734,-9.240484237670898,4.777781963348389,102.97174072265625,84.0123062133789, 14.577765464782715
380,1089251322,0.32458708,-0.14774926,-0.93345654,0.03837175,9.215620994567871,-6.343441486358643,1.5817619562149048,131.76486206054688,169.65774536132812, 18.485910415649414
381,1089267989,0.3616414,-0.14409213,-0.9197121,0.050823163,8.46261215209961,-5.463099956512451,-0.22815343737602234,129.3124542236328,253.57650756835938, 9.41261100769043
382,1089284656,0.40766567,-0.13966534,-0.9003498,0.060602777,9.421961784362793,-4.5417160987854,-1.643563151359558,125.16661834716797,326.7147521972656, 0.3216101825237274
383,1089301323,0.4600933,-0.13678543,-0.87489825,0.06447637,11.59281063079834,-3.8234307765960693,-2.7854814529418945,92.9439697265625,389.82672119140625, -3.5014586448669434
384,1089317990,0.5162481,-0.13871056,-0.84291726,0.061136305,13.433942794799805,-4.688440322875977,-4.847249984741211,40.72956466674805,441.9158630371094, 7.039434432983398
385,1089334657,0.57466704,-0.14470252,-0.80351883,0.056362424,15.598359107971191,-5.043971061706543,-6.522089004516602,23.263002395629883,484.5777282714844, 31.598621368408203
386,1089351324,0.63368046,-0.15347089,-0.7562791,0.054202538,17.298011779785156,-5.181112766265869,-7.1635894775390625,30.391149520874023,517.4835815429688, 64.8062515258789
387,1089367991,0.6899863,-0.1588978,-0.7034292,0.062112167,23.19438362121582,-6.822620868682861,-14.258856773376465,96.64087677001953,516.0948486328125, 98.22360229492188
388,1089384658,0.7419613,-0.14888717,-0.64896494,0.07855491,28.328330993652344,-2.404909610748291,-25.485143661499023,207.28431701660156,487.0580749511719, 67.62686157226562
389,1089401325,0.78128326,-0.14025095,-0.6025788,0.08261323,23.363872528076172,1.7339529991149902,-36.99657440185547,127.71697235107422,402.9367370605469, 9.178977012634277
390,1089417992,0.8022793,-0.1505283,-0.5728801,0.07414753,7.901126384735107,-4.848150730133057,-41.30210876464844,-52.82827377319336,260.519775390625, 14.696850776672363
391,1089434659,0.809272,-0.16189544,-0.5602439,0.07068007,3.9887869358062744,-1.7807880640029907,-38.28980255126953,-62.1242790222168,107.0773696899414, 36.042877197265625
392,1089451326,0.80223566,-0.16755646,-0.56844884,0.07217333,-0.7277114391326904,1.8546881675720215,-43.36332702636719,-36.82229995727539,-70.79353332519531, 25.30623435974121
393,1089467993,0.7838918,-0.16805036,-0.59271574,0.077205196,4.229889392852783,7.587023735046387,-34.245059967041016,-15.292112350463867,-209.79965209960938, 11.757768630981445
394,1089484660,0.7493834,-0.16167974,-0.63471246,0.09707919,8.418277740478516,-12.298114776611328,-43.58039855957031,54.289894104003906,-391.8563537597656, 51.94371032714844
395,1089501327,0.71550155,-0.12792695,-0.67193663,0.14210473,33.05729293823242,1.5942926406860352,12.250282287597656,309.5215148925781,-410.4854431152344, 66.66069793701172
396,1089517994,0.68718094,-0.09711821,-0.69676745,0.1812889,16.713119506835938,13.143747329711914,-1.8112156391143799,284.86810302734375,-315.8349304199219, 56.898372650146484
397,1089534661,0.65850705,-0.111265816,-0.7218375,0.18149155,13.382683753967285,-3.9767305850982666,6.630701541900635,-115.01563262939453,-236.51492309570312, 88.48607635498047
398,1089551328,0.6337118,-0.12333064,-0.7411809,0.18398325,30.67640495300293,-0.5692580342292786,-1.8759299516677856,-84.13836669921875,-195.8261260986328, 88.06907653808594
399,1089567995,0.61214906,-0.12145519,-0.75678086,0.19443524,12.947722434997559,2.184400796890259,-7.119364261627197,24.675085067749023,-187.5099639892578, 50.914432525634766
400,1089584662,0.59361684,-0.116262384,-0.76868117,0.2079222,7.575439453125,-7.581223011016846,-2.949573278427124,61.95491027832031,-163.13987731933594, 45.49560546875
401,1089601329,0.57998234,-0.11631789,-0.7776745,0.21286844,9.6513090133667,-7.80204963684082,-5.702805042266846,3.4413001537323,-111.09352111816406, 33.6081657409668
402,1089617996,0.569547,-0.11851625,-0.78581417,0.2099196,9.343034744262695,-10.108587265014648,-5.691408634185791,-43.52094650268555,-81.14695739746094, 9.541704177856445
403,1089634663,0.5626295,-0.11679246,-0.79148054,0.20824619,13.44399356842041,-10.223814964294434,-5.891915798187256,-14.86413288116455,-59.16498565673828, -9.771119117736816
404,1089651330,0.5575083,-0.11348326,-0.79610443,0.20621328,18.37950325012207,-6.184214115142822,-4.60093879699707,-7.7897820472717285,-47.36231994628906, -21.555627822875977
405,1089667997,0.55228776,-0.11416994,-0.8018468,0.19744699,20.639463424682617,-3.1625704765319824,-1.9216493368148804,-61.658267974853516,-41.3314323425293, -26.17426300048828
406,1089684664,0.54708064,-0.11791952,-0.8077955,0.18510707,20.32406997680664,-3.833289384841919,-1.656597375869751,-93.29784393310547,-35.180511474609375, -22.92936134338379
407,1089701331,0.5416758,-0.12469133,-0.8139359,0.16896106,19.131677627563477,-2.3206963539123535,3.1350181102752686,-126.25071716308594,-30.177398681640625, -20.262338638305664
408,1089717998,0.5346493,-0.13003995,-0.82110935,0.15172133,14.716920852661133,-1.6015450954437256,7.868694305419922,-129.7248077392578,-43.984222412109375, -31.19742202758789
409,1089734665,0.5259979,-0.13476212,-0.82912904,0.1330823,11.781832695007324,-0.28597337007522583,11.029157638549805,-137.7435302734375,-55.87736129760742, -38.86471939086914
410,1089751332,0.51473737,-0.1409083,-0.8380702,0.113263845,9.119426727294922,0.3968488574028015,9.386144638061523,-152.9667510986328,-71.92098236083984, -33.418304443359375
411,1089767999,0.49784297,-0.14831822,-0.8490799,0.09600776,9.132265090942383,-5.515280246734619,3.00178599357605,-149.8041229248047,-113.40789794921875, -14.643115997314453
412,1089784666,0.47485524,-0.15002294,-0.8622876,0.092009805,13.484745025634766,-8.196002960205078,4.915009021759033,-60.58512496948242,-173.90977478027344, -0.8246225714683533
413,1089801333,0.44571888,-0.15104476,-0.8777026,0.090323426,13.074891090393066,-2.3004837036132812,3.6205532550811768,-52.47866439819336,-220.57315063476562, 4.235193252563477
414,1089818000,0.41118744,-0.1557192,-0.89438677,0.0821514,13.675695419311523,-4.294958591461182,3.7023637294769287,-109.2485580444336,-248.1961212158203, 8.443746566772461
415,1089834667,0.3758777,-0.1641862,-0.9097285,0.064445496,16.92494773864746,1.2429006099700928,10.179177284240723,-178.74913024902344,-237.02133178710938, 6.670909881591797
416,1089851334,0.34202924,-0.17583846,-0.9225467,0.031693876,16.810169219970703,-1.128849983215332,12.559585571289062,-278.4036865234375,-203.26708984375, -10.074816703796387
417,1089868001,0.31412217,-0.18395537,-0.9313893,0.001304845,17.270402908325195,-8.640694618225098,9.444195747375488,-247.06723022460938,-160.14105224609375, -23.471471786499023
418,1089884668,0.29695395,-0.18404827,-0.9369627,-0.0067524696,15.688431739807129,-9.076408386230469,8.661662101745605,-73.17656707763672,-112.87042236328125, -22.67255401611328
419,1089901335,0.29009768,-0.18259904,-0.93939626,-0.005969399,12.78244400024414,-6.283060550689697,8.740052223205566,-0.3026553690433502,-51.38861846923828, -10.159566879272461
420,1089918002,0.29413447,-0.18021235,-0.9386202,0.0008133064,10.756307601928711,-9.430505752563477,5.677774906158447,53.76301193237305,17.668167114257812, 0.21676911413669586
421,1089934669,0.31019545,-0.17623234,-0.93407136,0.01522832,8.93702507019043,-7.914439678192139,3.7713050842285156,121.03105926513672,93.2853012084961, 9.963720321655273
422,1089951336,0.33737364,-0.17234218,-0.9249854,0.029656246,7.596380710601807,-6.165874481201172,1.6925675868988037,134.7639617919922,174.26937866210938, 14.913004875183105
423,1089968003,0.3741027,-0.16886501,-0.91100585,0.040004782,6.9958648681640625,-5.11893367767334,-0.9651005268096924,120.10099792480469,251.25384521484375, 11.93051815032959
424,1089984670,0.41857588,-0.16689892,-0.89164215,0.043744277,8.33576774597168,-4.184922218322754,-1.975428819656372,85.23429107666016,321.7344055175781, 8.492898941040039
425,1090001337,0.46858096,-0.16827643,-0.8663379,0.03967048,10.37043571472168,-3.8548941612243652,-3.2379651069641113,35.80014419555664,382.782470703125, 11.607074737548828
426,1090018004,0.52171385,-0.17446177,-0.8345299,0.030626113,11.798599243164062,-5.073298931121826,-6.032283306121826,-3.934659481048584,429.5198669433594, 30.829538345336914
427,1090034671,0.57602715,-0.18308908,-0.7962985,0.024079094,12.705451965332031,-5.9426374435424805,-8.181661605834961,4.406131267547607,456.982177734375, 61.169227600097656
428,1090051338,0.6311488,-0.18657787,-0.75226265,0.030676741,14.46043586730957,-7.639583587646484,-9.821520805358887,98.79953002929688,467.1695861816406, 92.2056655883789
429,1090068005,0.6864816,-0.1765479,-0.70318264,0.05575383,20.685380935668945,-7.93529748916626,-15.395347595214844,254.5901336669922,463.843994140625, 108.89556121826172
430,1090084672,0.7363741,-0.15075617,-0.65403813,0.0852064,25.14394187927246,-4.3998823165893555,-25.83963394165039,343.7753601074219,426.72454833984375, 55.502601623535156
431,1090101339,0.7739988,-0.13188644,-0.6115138,0.09789257,19.82914161682129,3.2068686485290527,-34.56620788574219,216.7066650390625,359.70416259765625, 2.1292331218719482
432,1090118006,0.7936579,-0.14546767,-0.5846865,0.084191784,8.662628173828125,0.07322952151298523,-35.60396957397461,-93.7027359008789,246.8632354736328, -3.8342416286468506
433,1090134673,0.79947495,-0.16386424,-0.5729794,0.0753868,5.626037120819092,-3.216054916381836,-36.09879684448242,-122.66020965576172,107.13233184814453, 35.20597457885742
434,1090151340,0.793189,-0.17219897,-0.57965875,0.07207267,0.714614748954773,5.649364948272705,-37.16475296020508,-68.6416244506836,-52.48817825317383, 11.329562187194824
435,1090168007,0.7763098,-0.17326266,-0.6012531,0.076276,2.7439332008361816,-0.8884912729263306,-42.42505645751953,-18.752927780151367,-188.0721893310547, 11.03275203704834
436,1090184674,0.73955846,-0.15196629,-0.6466848,0.10843616,18.202848434448242,-3.442509174346924,-32.359901428222656,180.4171905517578,-442.25701904296875, 49.77892303466797
437,1090201341,0.71054345,-0.1174029,-0.6773283,0.1502368,31.80139923095703,7.223388671875,18.87405014038086,310.1646728515625,-352.1225280761719, 49.27325439453125
438,1090218008,0.68157476,-0.1102578,-0.70325637,0.16949797,16.350650787353516,1.7034002542495728,-2.0413808822631836,75.8153305053711,-282.52777099609375, 70.6785659790039
439,1090234675,0.6540641,-0.1314319,-0.7266643,0.16396597,20.619670867919922,2.7260875701904297,7.528135776519775,-172.7809295654297,-211.92213439941406, 91.7183609008789
440,1090251342,0.62838674,-0.14587656,-0.7468621,0.16139175,11.543415069580078,-3.224146842956543,-10.989026069641113,-122.48290252685547,-198.81011962890625, 72.39537811279297
441,1090268009,0.60803413,-0.14006875,-0.7612612,0.17651314,9.842321395874023,-8.031034469604492,-3.2021374702453613,67.76609802246094,-186.5786590576172, 44.72910690307617
442,1090284676,0.5917892,-0.13671753,-0.7718194,0.18811905,8.620027542114258,-6.217757225036621,-4.405543327331543,47.68517303466797,-142.7083740234375, 41.48211669921875
443,1090301343,0.57895863,-0.13678728,-0.7810379,0.18993704,9.400686264038086,-8.420056343078613,-6.917363166809082,-13.256125450134277,-105.55402374267578, 16.58626365661621
444,1090318010,0.56966865,-0.13673213,-0.7882386,0.18831314,10.6860933303833,-8.99139404296875,-5.796659469604492,-25.29766273498535,-75.44425201416016, -0.5698696970939636
445,1090334677,0.5631069,-0.13237683,-0.79369724,0.18823345,15.419665336608887,-7.769209861755371,-5.192735195159912,4.69024658203125,-60.88587951660156, -19.770065307617188
446,1090351344,0.5572303,-0.12795715,-0.7990921,0.18593904,19.569759368896484,-3.9882123470306396,-5.790867805480957,-6.488414287567139,-55.027130126953125, -29.525938034057617
447,1090368011,0.5515824,-0.12988439,-0.8049308,0.17599256,21.20791244506836,-3.495418071746826,-2.1362087726593018,-73.23725128173828,-40.697391510009766, -24.568758010864258
448,1090384678,0.54491484,-0.13478857,-0.8116516,0.16162196,21.675518035888672,-3.047003746032715,0.6361830830574036,-111.03834533691406,-42.26634979248047, -24.311145782470703
449,1090401345,0.5378179,-0.14123444,-0.8183689,0.14517984,17.652366638183594,-2.3874428272247314,4.044262886047363,-128.83273315429688,-41.19426345825195, -22.87017059326172
450,1090418012,0.52940494,-0.14598155,-0.82590204,0.1276945,14.265313148498535,-1.6182864904403687,7.983633518218994,-130.592529296875,-52.50170135498047, -35.67744064331055
451,1090434679,0.5191346,-0.14976121,-0.8344102,0.10876842,10.799663543701172,-1.7875655889511108,11.0748872756958,-138.06581115722656,-66.23690795898438, -45.70284652709961
452,1090451346,0.5069701,-0.15210667,-0.84347636,0.09161187,8.585823059082031,-1.9139045476913452,8.49105167388916,-125.26288604736328,-82.23860931396484, -46.74723434448242
453,1090468013,0.48813814,-0.15383838,-0.85528195,0.080918975,9.00943660736084,-10.032010078430176,1.9510084390640259,-94.4060287475586,-137.7989959716797, -26.443679809570312
454,1090484680,0.46286294,-0.14899486,-0.8695299,0.086466275,14.088242530822754,-7.092512607574463,5.576303005218506,14.90562915802002,-204.83705139160156, -9.704163551330566
455,1090501347,0.4307027,-0.15089832,-0.8860461,0.08153248,13.664909362792969,-0.9247527122497559,7.65715217590332,-77.735107421875,-238.68096923828125, -0.991495668888092
456,1090518014,0.3953682,-0.1569262,-0.9023654,0.069244646,13.456260681152344,-2.2799694538116455,7.1281585693359375,-137.99349975585938,-247.7269744873047, 4.3629584312438965
457,1090534681,0.36174744,-0.164821,-0.9164107,0.04652373,17.50529670715332,3.158985137939453,12.011130332946777,-204.9376983642578,-218.97853088378906, -10.794530868530273
458,1090551348,0.3311242,-0.17357735,-0.9274015,0.012426587,17.820850372314453,-3.2513387203216553,11.085867881774902,-274.4291687011719,-179.63633728027344, -31.147470474243164
459,1090568015,0.30784416,-0.17666218,-0.9348201,-0.011573213,19.367298126220703,-11.346731185913086,8.336956024169922,-188.05844116210938,-137.46798706054688, -40.754066467285156
460,1090584682,0.29605782,-0.17239238,-0.939429,-0.010197163,15.25600528717041,-9.338155746459961,7.8455071449279785,4.227088928222656,-88.1298599243164, -30.075878143310547
461,1090601349,0.29425204,-0.16803406,-0.9408384,-0.0018837359,11.871722221374512,-6.048756122589111,6.750802993774414,60.69929122924805,-25.5657958984375, -12.064168930053711
462,1090618016,0.30247027,-0.16473705,-0.9387742,0.008752926,10.779114723205566,-7.688963890075684,3.800326108932495,85.03795623779297,43.4741325378418, 3.653609037399292
463,1090634683,0.3211645,-0.16096777,-0.9329775,0.022267845,9.47417163848877,-6.435251235961914,1.2138946056365967,116.59746551513672,115.48941802978516, 10.193011283874512
464,1090651350,0.35026288,-0.15707426,-0.9227415,0.034523893,8.426950454711914,-5.120151042938232,-0.491276353597641,120.92745208740234,193.39146423339844, 9.947155952453613
465,1090668017,0.3883716,-0.15266523,-0.90772265,0.043598276,8.37012004852295,-4.048052787780762,-1.4740339517593384,112.81431579589844,265.4256591796875, 2.0402333736419678
466,1090684684,0.43348056,-0.1492371,-0.8874145,0.048151646,8.995457649230957,-4.2138752937316895,-2.5073204040527344,90.89327239990234,328.3469543457031, -0.4704800248146057
467,1090701351,0.48339286,-0.14830253,-0.8614014,0.048225164,10.411601066589355,-4.662492752075195,-3.3558130264282227,62.92512130737305,380.1701965332031, 5.618301868438721
468,1090718018,0.53650635,-0.1510246,-0.8289911,0.046112858,11.984835624694824,-5.450394630432129,-5.618375301361084,43.19505310058594,423.9417724609375, 25.41944694519043
469,1090734685,0.5918206,-0.15553215,-0.7896008,0.04570501,13.500471115112305,-5.838728904724121,-7.033737659454346,50.83572769165039,461.1846618652344, 48.37208557128906
470,1090751352,0.6479676,-0.15793303,-0.7431454,0.05413158,15.309995651245117,-7.698522567749023,-10.028365135192871,110.55400848388672,484.531982421875, 80.14359283447266
471,1090768019,0.7009265,-0.14842613,-0.69330543,0.07745596,20.537311553955078,-9.432957649230957,-18.32056427001953,237.6943359375,462.90155029296875, 90.51271057128906
472,1090784686,0.74727774,-0.12827966,-0.6440872,0.10135153,25.259328842163086,-3.014993190765381,-30.071123123168945,284.7643737792969,422.3876953125, 45.38950729370117
473,1090801353,0.7789669,-0.12462309,-0.605735,0.10375435,15.86166000366211,2.446242332458496,-38.871028900146484,84.34014892578125,332.3321228027344, 8.683610916137695
474,1090818020,0.79288715,-0.14434,-0.5850501,0.09062405,5.564112186431885,-3.9469056129455566,-38.20694351196289,-133.1845703125,194.21951293945312, 20.499042510986328
475,1090834687,0.7925485,-0.16046429,-0.58203304,0.08576644,2.5023398399353027,-1.8760854005813599,-40.36427307128906,-105.22315979003906,30.61884307861328, 42.51076126098633
476,1090851354,0.7817077,-0.15958816,-0.5960582,0.09044183,0.36302733421325684,2.4242336750030518,-35.97644805908203,4.177104473114014,-124.28082275390625, 13.831870079040527
477,1090868021,0.7602734,-0.15249357,-0.6227917,0.10421443,1.6338551044464111,-6.689477920532227,-47.27492141723633,55.57327651977539,-249.44493103027344, 29.890369415283203
478,1090884688,0.72232956,-0.12667003,-0.666031,0.13637371,25.84166717529297,9.049315452575684,-6.5154008865356445,203.51605224609375,-438.8289794921875, 40.11778259277344
479,1090901355,0.6930589,-0.093499236,-0.6915902,0.1806389,19.943138122558594,-1.6815108060836792,5.145473957061768,319.678955078125,-328.5856018066406, 73.87782287597656
480,1090918022,0.66281325,-0.08571466,-0.71584195,0.2022425,31.130285263061523,1.790480613708496,5.908562660217285,91.70354461669922,-280.91424560546875, 88.52156066894531
481,1090934689,0.6372556,-0.11083784,-0.73859155,0.19000773,14.349959373474121,12.036539077758789,-1.041651725769043,-220.0855712890625,-185.44769287109375, 90.82894897460938
482,1090951356,0.61172587,-0.11574421,-0.75761724,0.1959876,14.98458480834961,-7.11082649230957,-10.03515911102295,-34.01630783081055,-209.3589324951172, 71.011474609375
483,1090968023,0.59311223,-0.107810825,-0.7681974,0.21556336,5.831881523132324,-6.3674726486206055,-2.4361414909362793,107.76853942871094,-165.89462280273438, 58.63469696044922
484,1090984690,0.57808,-0.10913492,-0.7777755,0.22131142,8.674126625061035,-8.411545753479004,-5.669332027435303,1.0921690464019775,-118.9637680053711, 46.461448669433594
485,1091001357,0.5673176,-0.11267665,-0.78563106,0.21963319,8.248784065246582,-10.137792587280273,-6.469606399536133,-41.619720458984375,-80.35365295410156, 23.535627365112305
486,1091018024,0.56037897,-0.112676814,-0.79123616,0.2173129,13.21501350402832,-9.51196575164795,-6.36862850189209,-24.935951232910156,-55.772483825683594, -2.196702003479004
487,1091034691,0.5560218,-0.107628256,-0.7950014,0.21732195,16.891925811767578,-7.202519416809082,-6.476764678955078,11.901620864868164,-44.00970458984375, -23.14797019958496
488,1091051358,0.55196726,-0.10624122,-0.7993186,0.21245001,22.51890754699707,-2.8220396041870117,-3.667367458343506,-29.403705596923828,-35.41877746582031, -22.624982833862305
489,1091068025,0.54821724,-0.11180409,-0.80443335,0.19961177,20.962116241455078,-4.264623165130615,-0.9341039657592773,-100.52954864501953,-20.905750274658203, -15.544872283935547
490,1091084692,0.5430474,-0.12036899,-0.8106511,0.18290895,20.885013580322266,-3.3612160682678223,2.7982194423675537,-135.88186645507812,-25.963523864746094, -12.278498649597168
491,1091101359,0.5371098,-0.1298332,-0.817201,0.16382675,16.4278621673584,-2.3978729248046875,6.512401103973389,-153.6357421875,-28.578725814819336, -15.32525634765625
492,1091118026,0.52962404,-0.13708748,-0.82472354,0.1433062,12.835894584655762,-1.030437707901001,10.99233627319336,-156.12913513183594,-42.30228042602539, -32.07889175415039
493,1091134693,0.5190589,-0.14490017,-0.8337172,0.12040559,8.99512767791748,0.7868923544883728,12.043272018432617,-176.1288299560547,-62.59871292114258, -35.855621337890625
494,1091151360,0.50350296,-0.15416025,-0.8445004,0.097665355,7.194232940673828,-5.250309944152832,5.10072660446167,-186.92379760742188,-96.8239974975586, -24.579214096069336
495,1091168027,0.4817319,-0.1558013,-0.8574103,0.09223938,12.063163757324219,-11.603011131286621,2.9676949977874756,-68.08491516113281,-163.8882293701172, -7.004199981689453
496,1091184694,0.4538011,-0.15245175,-0.87303895,0.092877164,13.803740501403809,-0.6608539819717407,9.20277214050293,-24.245288848876953,-219.0316925048828, -15.453289985656738
497,1091201361,0.42050064,-0.15557931,-0.8896916,0.086159326,13.114267349243164,-3.8879425525665283,4.716428756713867,-94.95612335205078,-242.88308715820312, 2.8690476417541504
498,1091218028,0.38780078,-0.15676875,-0.90463674,0.081649415,15.226078033447266,-0.4608839154243469,7.314430236816406,-74.24272918701172,-237.9681396484375, -1.1429740190505981
499,1091234695,0.35720596,-0.16317718,-0.9174514,0.06371975,17.1983585357666,2.8749241828918457,12.852913856506348,-168.21685791015625,-202.0530242919922, -3.3227128982543945
500,1091251362,0.33000812,-0.17215443,-0.9274742,0.03534538,14.63646125793457,-4.232322692871094,11.850165367126465,-235.42181396484375,-161.2755126953125, -11.095678329467773
501,1091268029,0.31087747,-0.17662725,-0.9337071,0.018684968,16.38564682006836,-11.621607780456543,7.590357780456543,-140.08123779296875,-116.4670181274414, -10.779664993286133
502,1091284696,0.30173808,-0.17546919,-0.93690807,0.019189429,14.494430541992188,-5.987154483795166,8.326794624328613,-5.4999566078186035,-67.6750717163086, -7.928361415863037
503,1091301363,0.30125475,-0.17462546,-0.9372671,0.016791604,12.244821548461914,-4.856129169464111,6.713529586791992,-14.137096405029297,-2.7229270935058594, -9.655868530273438
504,1091318030,0.3117828,-0.17167784,-0.93431556,0.019307328,11.333839416503906,-7.254612445831299,2.9486331939697266,35.401397705078125,68.75788116455078, -10.342719078063965
505,1091334697,0.33329028,-0.16733818,-0.92746085,0.027055802,9.65165901184082,-6.995311260223389,0.39576560258865356,85.3730239868164,141.1658935546875, -4.929995536804199
506,1091351364,0.36491197,-0.16171506,-0.9161379,0.037133895,8.438465118408203,-6.454391956329346,-0.9893037676811218,115.55513763427734,212.92774963378906, -4.5224738121032715
507,1091368031,0.40555388,-0.15604529,-0.8994598,0.04634947,8.618197441101074,-5.572270393371582,-1.7560369968414307,121.57108306884766,284.1341247558594, -3.3402271270751953
508,1091384698,0.45306358,-0.15251729,-0.8768294,0.051401343,9.764863967895508,-5.308849811553955,-2.434316635131836,99.0550765991211,348.3907165527344, 2.468675374984741
509,1091401365,0.5052389,-0.15314522,-0.8477144,0.051581502,10.681633949279785,-5.0964226722717285,-4.189022541046143,63.86043167114258,403.351318359375, 17.44794464111328
510,1091418032,0.5606252,-0.15742539,-0.8114206,0.050132815,12.809473991394043,-4.7440595626831055,-5.224184989929199,47.56588363647461,450.1227722167969, 39.424800872802734
511,1091434699,0.6177959,-0.16267876,-0.7675658,0.052027702,14.789286613464355,-5.939027309417725,-8.395817756652832,67.00862121582031,486.0774230957031, 65.2492446899414
512,1091451366,0.6732246,-0.16437797,-0.718211,0.062623516,18.550426483154297,-6.708720684051514,-13.530658721923828,128.1084747314453,489.4015197753906, 90.17647552490234
513,1091468033,0.7256149,-0.15158187,-0.6659929,0.083425246,26.200578689575195,-4.343263626098633,-21.92537498474121,243.59104919433594,470.1250305175781, 70.3599853515625
514,1091484700,0.767079,-0.1406844,-0.61870235,0.09489638,22.766197204589844,-4.928354740142822,-36.106502532958984,177.22105407714844,406.5627136230469, 33.691036224365234
515,1091501367,0.79187477,-0.14087074,-0.586901,0.09293593,11.543510437011719,3.0614635944366455,-36.99950408935547,35.581241607666016,274.7040100097656, 5.940392017364502
516,1091518034,0.8012311,-0.15858603,-0.5710464,0.08237308,4.620920658111572,-3.4178988933563232,-36.30186462402344,-119.4714584350586,145.76077270507812, 24.397634506225586
517,1091534701,0.79640496,-0.1701681,-0.5750693,0.07795754,0.43550610542297363,-1.0723509788513184,-40.47171401977539,-87.97705841064453,-28.98832130432129, 20.55449104309082
518,1091551368,0.7827253,-0.16603439,-0.59366655,0.08563895,2.1391448974609375,3.6480987071990967,-34.07166290283203,28.04641342163086,-165.73553466796875, 12.353480339050293
519,1091568035,0.75485325,-0.15170008,-0.62834233,0.111219205,4.522696495056152,-13.23391056060791,-51.3326301574707,130.64816284179688,-336.2364196777344, 57.05937194824219
520,1091584702,0.71909577,-0.11987668,-0.6681021,0.14889768,34.89391326904297,11.031851768493652,11.628061294555664,262.1614990234375,-422.0931701660156, 44.59016418457031
521,1091601369,0.69105023,-0.094261386,-0.6921006,0.18590692,14.503830909729004,3.6688570976257324,2.1012015342712402,250.70152282714844,-301.8749694824219, 75.01895904541016
522,1091618036,0.66118336,-0.10179953,-0.71759963,0.19371197,26.61483383178711,3.355380058288574,7.572996616363525,-49.04718017578125,-256.4101257324219, 95.37134552001953
523,1091634703,0.63483596,-0.12248532,-0.73993576,0.18567653,14.221055030822754,3.659275531768799,-5.6396403312683105,-180.37130737304688,-196.30584716796875, 85.99629211425781
524,1091651370,0.61116225,-0.12267417,-0.7569762,0.19600749,14.950934410095215,-5.242980480194092,-8.023857116699219,11.66700267791748,-201.2356719970703, 63.05941390991211
525,1091668037,0.5934882,-0.11928412,-0.7678499,0.20964165,6.445589542388916,-5.473521709442139,-3.592749834060669,57.326236724853516,-151.6940155029297, 55.37054443359375
526,1091684704,0.57955766,-0.12133434,-0.77725536,0.21275626,10.195199012756348,-8.340691566467285,-6.033473014831543,-15.235968589782715,-109.5146713256836, 36.879512786865234
527,1091701371,0.5694422,-0.12393434,-0.7849317,0.21037604,9.184131622314453,-10.014022827148438,-5.695359230041504,-41.094669342041016,-76.87322235107422, 13.724705696105957
528,1091718038,0.5624317,-0.12354599,-0.7907845,0.20752548,13.145636558532715,-10.242947578430176,-5.190237998962402,-26.691986083984375,-56.922210693359375, -7.2554240226745605
529,1091734705,0.5566,-0.11829981,-0.79582435,0.2070396,17.480459213256836,-7.246327877044678,-4.126184940338135,7.048383712768555,-56.35879898071289, -25.563806533813477
530,1091751372,0.5510308,-0.11709746,-0.8012908,0.20146076,21.13654899597168,-3.271497964859009,-3.0688605308532715,-36.74787902832031,-46.74565887451172, -23.614442825317383
531,1091768039,0.54574317,-0.121465795,-0.80717194,0.18943046,20.057144165039062,-4.545652389526367,-1.7141916751861572,-93.78912353515625,-33.987396240234375, -17.95077133178711
532,1091784706,0.53981626,-0.12896848,-0.8134426,0.17400233,21.10934829711914,-1.340564489364624,2.678781747817993,-125.51226806640625,-32.22841262817383, -12.676942825317383
533,1091801373,0.5325518,-0.13761657,-0.8207655,0.1542543,15.896113395690918,-0.5812315940856934,7.099085807800293,-156.4502716064453,-38.650142669677734, -21.470781326293945
534,1091818040,0.5240425,-0.14383145,-0.8288476,0.13305554,12.687787055969238,-0.833880603313446,10.852843284606934,-157.81431579589844,-49.935020446777344, -39.792930603027344
535,1091834707,0.51355755,-0.14843497,-0.8375695,0.11270896,9.635541915893555,-0.5298471450805664,11.401272773742676,-149.81451416015625,-66.11762237548828, -44.65886688232422
536,1091851374,0.49798468,-0.15294504,-0.84810954,0.09658819,7.425490856170654,-6.392791748046875,2.5191502571105957,-131.853515625,-106.50904846191406, -28.15506935119629
537,1091868041,0.47455728,-0.1512144,-0.8615789,0.09803795,13.160025596618652,-11.076805114746094,4.03115701675415,-18.298486709594727,-185.0887908935547, -2.3275179862976074
538,1091884708,0.44460285,-0.14770204,-0.87746215,0.10282342,13.533464431762695,-1.0972007513046265,5.5424275398254395,-1.2698335647583008,-236.50491333007812, -0.21366487443447113
539,1091901375,0.4094634,-0.14952059,-0.8947279,0.09718753,14.119205474853516,-1.9107002019882202,7.194457530975342,-86.73576354980469,-257.89520263671875, 2.3796117305755615
540,1091918042,0.3754678,-0.15564018,-0.9100931,0.08081276,17.150894165039062,2.9616737365722656,12.80024528503418,-162.53749084472656,-231.84671020507812, -0.19522392749786377
541,1091934709,0.34453037,-0.16399635,-0.9229982,0.049785372,18.226123809814453,0.14302492141723633,13.482460975646973,-255.4251708984375,-189.81289672851562, -23.05691146850586
542,1091951376,0.31956828,-0.16925555,-0.93212724,0.0191698,18.717365264892578,-8.369975090026855,11.425999641418457,-237.4695281982422,-144.83880615234375, -39.552608489990234
543,1091968043,0.3065287,-0.16596778,-0.937187,0.01324187,16.431352615356445,-10.082623481750488,9.748285293579102,-46.148040771484375,-89.66496276855469, -37.007164001464844
544,1091984710,0.30450833,-0.16093713,-0.9386445,0.017903449,13.83321762084961,-5.408041000366211,8.982515335083008,38.496864318847656,-23.596446990966797, -22.865264892578125
545,1092001377,0.3128361,-0.1570936,-0.9364713,0.021843523,11.354630470275879,-8.597103118896484,7.133388996124268,43.15409851074219,51.50486373901367, -13.965068817138672
546,1092018044,0.3330652,-0.1519466,-0.92995507,0.034112837,9.742935180664062,-8.86144733428955,4.292774677276611,112.95785522460938,128.12989807128906, -1.5495356321334839
547,1092034711,0.36427408,-0.14692383,-0.9184004,0.0475268,8.856972694396973,-6.715348720550537,0.9840627312660217,132.51748657226562,208.63360595703125, 4.552119731903076
548,1092051378,0.4047272,-0.14325735,-0.90140766,0.05601328,8.94130802154541,-5.744556903839111,-0.9295790791511536,109.02703094482422,286.0509338378906, 3.241455316543579
549,1092068045,0.4525262,-0.14162752,-0.87846977,0.05876079,10.219795227050781,-5.421375274658203,-2.383145570755005,77.24254608154297,354.612548828125, 2.8806726932525635
550,1092084712,0.50476235,-0.14427398,-0.84929323,0.055687614,11.750303268432617,-6.941093921661377,-4.588428497314453,35.55467224121094,408.2945556640625, 14.805380821228027
551,1092101379,0.5596303,-0.14792287,-0.81354296,0.055505402,13.296902656555176,-8.21352767944336,-7.772139072418213,54.050079345703125,444.10308837890625, 36.10076904296875
552,1092118046,0.6160961,-0.15039504,-0.7707437,0.061328053,14.9274263381958,-8.58386516571045,-9.523502349853516,96.5055160522461,473.79071044921875, 59.07718276977539
553,1092134713,0.67065984,-0.15071467,-0.7223369,0.07569545,17.281497955322266,-7.899890422821045,-14.725153923034668,151.3692626953125,477.9207458496094, 90.3990249633789
554,1092151380,0.7209492,-0.14140883,-0.6716287,0.09566071,22.946399688720703,-6.7152581214904785,-23.530675888061523,220.4735565185547,456.7483215332031, 72.96825408935547
555,1092168047,0.761438,-0.12826508,-0.62608933,0.10850173,20.842512130737305,-0.85569167137146,-33.26847457885742,193.79808044433594,390.5595397949219, 21.34834098815918
556,1092184714,0.7859218,-0.14061528,-0.59398246,0.098685846,12.245400428771973,2.191011428833008,-37.9786262512207,-61.2147102355957,290.8268127441406, 12.671910285949707
557,1092201381,0.7953251,-0.16454941,-0.5769989,0.086335294,5.395195007324219,-7.097895622253418,-36.02558135986328,-158.729736328125,158.4794158935547, 42.02682876586914
558,1092218048,0.79292417,-0.17814535,-0.5767774,0.08284663,1.7716931104660034,4.279677867889404,-38.98910140991211,-90.0240707397461,4.42592716217041, 37.479393005371094
559,1092234715,0.78039944,-0.18492939,-0.59145504,0.08341986,2.3059256076812744,3.6564338207244873,-34.57606506347656,-57.37807083129883,-125.18633270263672, 20.25088119506836
560,1092251382,0.75425744,-0.18400437,-0.6223576,0.09954518,2.795820951461792,-13.935298919677734,-54.64152145385742,20.895204544067383,-291.35797119140625, 59.59793472290039
561,1092268049,0.7197626,-0.15963344,-0.662356,0.13320546,35.099788665771484,11.082243919372559,9.064708709716797,201.3535614013672,-411.86627197265625, 44.04011917114258
562,1092284716,0.6950615,-0.125437,-0.68514335,0.1781399,14.615158081054688,4.309291362762451,6.335619926452637,327.85919189453125,-303.5395202636719, 65.13700103759766
563,1092301383,0.6635047,-0.12955847,-0.7118736,0.190295,33.72028350830078,7.5170440673828125,5.265212059020996,-20.686504364013672,-279.5289611816406, 93.94625091552734
564,1092318050,0.6360982,-0.14717507,-0.7346577,0.184382,10.831387519836426,4.484113693237305,-6.143584251403809,-161.85023498535156,-207.62466430664062, 75.99620056152344
565,1092334717,0.61295414,-0.14462744,-0.75087035,0.19890697,15.182743072509766,-7.032777786254883,-6.581254005432129,42.36739730834961,-203.57595825195312, 64.87559509277344
566,1092351384,0.59492487,-0.14121975,-0.7623052,0.21216065,6.009690761566162,-5.632599353790283,-4.043770790100098,51.1090087890625,-156.93264770507812, 52.73899459838867
567,1092368051,0.58071464,-0.14290588,-0.77200365,0.21531105,8.099311828613281,-10.042706489562988,-6.4139790534973145,-16.427919387817383,-112.58235931396484, 34.11903381347656
568,1092384718,0.57049596,-0.14647219,-0.77990925,0.21171178,9.423303604125977,-9.709502220153809,-6.062149524688721,-53.18533706665039,-74.80493927001953, 12.90172004699707
569,1092401385,0.56373024,-0.14587295,-0.7859454,0.20789276,12.88137435913086,-9.557019233703613,-5.842060565948486,-31.84406280517578,-54.788936614990234, -13.50265121459961
570,1092418052,0.5581991,-0.14252938,-0.7914361,0.20427491,18.46560287475586,-6.10957670211792,-3.823025703430176,-18.142026901245117,-50.136146545410156, -28.802082061767578
571,1092434719,0.5525844,-0.14252135,-0.7972078,0.19697265,21.833288192749023,-4.9510345458984375,-3.937443971633911,-51.51304626464844,-43.44977951049805, -24.873729705810547
572,1092451386,0.5458184,-0.14781734,-0.80446035,0.18186836,21.491355895996094,-2.9375851154327393,1.6232410669326782,-117.60202026367188,-40.66177749633789, -25.19137954711914
573,1092468053,0.53857493,-0.15483756,-0.81155354,0.16535811,19.057729721069336,-2.8859469890594482,2.095952033996582,-132.21121215820312,-39.32706069946289, -19.991350173950195
574,1092484720,0.53082156,-0.16100046,-0.8188389,0.14768344,16.736623764038086,0.16852562129497528,6.225275039672852,-136.37522888183594,-42.8309326171875, -28.56389617919922
575,1092501387,0.5218309,-0.16685626,-0.8270345,0.1259591,13.603519439697266,2.614788770675659,11.024076461791992,-160.44566345214844,-49.22609329223633, -44.66865921020508
576,1092518054,0.51059735,-0.17132972,-0.83625853,0.1029971,9.438820838928223,0.43261852860450745,10.555386543273926,-166.0999298095703,-65.79047393798828, -56.060516357421875
577,1092534721,0.49375674,-0.17450814,-0.8474728,0.086840145,8.222312927246094,-8.331548690795898,1.8890631198883057,-130.53128051757812,-114.25341796875, -37.93880081176758
578,1092551388,0.47145656,-0.1684151,-0.8607566,0.09199736,13.446161270141602,-11.772846221923828,4.9102630615234375,17.26703453063965,-184.33621215820312, -18.944427490234375
579,1092568055,0.44259584,-0.1599017,-0.87618786,0.10409202,12.463648796081543,-2.046248197555542,5.469865322113037,57.066776275634766,-239.93238830566406, -9.258584022521973
580,1092584722,0.40743607,-0.15859698,-0.8931572,0.10541843,14.219054222106934,-1.449390172958374,5.7331671714782715,-37.83235168457031,-265.79937744140625, 4.216877460479736
581,1092601389,0.3725747,-0.16211312,-0.9087858,0.09495135,18.12198829650879,3.1403653621673584,10.84564208984375,-122.52344512939453,-244.11904907226562, 2.0398643016815186
582,1092618056,0.3389895,-0.16979459,-0.9230457,0.06513743,18.039146423339844,2.1001150608062744,14.029396057128906,-251.8384246826172,-208.77670288085938, -20.748628616333008
583,1092634723,0.3110978,-0.17730597,-0.9332122,0.029928261,18.309926986694336,-8.206926345825195,11.962563514709473,-277.2441711425781,-157.3135528564453, -32.1892204284668
584,1092651390,0.29478538,-0.17688566,-0.93889445,0.017038379,17.207263946533203,-9.126388549804688,10.437756538391113,-102.12103271484375,-102.625244140625, -32.36811447143555
585,1092668057,0.28918728,-0.17471257,-0.9411356,0.01049271,14.5764741897583,-5.723425388336182,10.74525260925293,-44.355709075927734,-34.744178771972656, -27.980257034301758
586,1092684724,0.29561952,-0.17129198,-0.93978405,0.00861591,12.949143409729004,-10.569926261901855,8.64224910736084,2.9216856956481934,44.26095962524414, -23.35789680480957
587,1092701391,0.31578445,-0.16503316,-0.93418473,0.018528042,10.823734283447266,-10.898351669311523,5.547702789306641,101.0966567993164,127.36456298828125, -13.588234901428223
588,1092718058,0.3486593,-0.15745437,-0.92332155,0.03349862,10.05504322052002,-9.509847640991211,2.0941669940948486,151.3755645751953,214.4221954345703, -6.740045070648193
589,1092734725,0.39232814,-0.1497049,-0.90638506,0.046186235,9.690630912780762,-7.348040580749512,-0.16260194778442383,150.243408203125,299.92938232421875, -9.215882301330566
590,1092751392,0.44399944,-0.14532176,-0.8827272,0.05039063,10.5132474899292,-6.0448150634765625,-2.4772984981536865,98.55217742919922,377.7860412597656, -6.774178981781006
591,1092768059,0.5006152,-0.14806764,-0.85177946,0.043956354,12.834571838378906,-6.462942600250244,-4.702119827270508,19.576007843017578,443.25933837890625, 9.504069328308105
592,1092784726,0.5594846,-0.15698141,-0.81313586,0.03382337,14.512661933898926,-7.636343002319336,-7.376075744628906,-18.780059814453125,488.724853515625, 39.91622543334961
593,1092801393,0.61880803,-0.16838023,-0.766746,0.028730713,16.736303329467773,-8.983067512512207,-9.425923347473145,2.114924907684326,516.3944702148438, 81.30477142333984
594,1092818060,0.6753921,-0.17739733,-0.7148094,0.03772491,22.118432998657227,-10.600854873657227,-15.611043930053711,84.50869750976562,508.96990966796875, 135.53375244140625
595,1092834727,0.72885364,-0.16705762,-0.6608836,0.06400761,26.81216812133789,-5.3729472160339355,-23.27785301208496,256.3438720703125,477.0683288574219, 123.84833526611328
596,1092851394,0.7718426,-0.15121062,-0.61226106,0.08081609,25.08336639404297,2.128103256225586,-32.44240951538086,226.62399291992188,411.6508483886719, 49.88298416137695
597,1092868061,0.7984258,-0.15747552,-0.5763587,0.07435474,11.38783073425293,4.63500452041626,-39.47983932495117,-12.718450546264648,312.04730224609375, 15.54030990600586
598,1092884728,0.80881643,-0.17476746,-0.557676,0.06534223,5.642430305480957,-8.113204956054688,-36.99971008300781,-109.415771484375,162.42837524414062, 35.038455963134766
599,1092901395,0.8082779,-0.18032254,-0.5563573,0.068097465,-0.3018825650215149,3.181307792663574,-40.203094482421875,-19.625431060791016,5.180428504943848, 39.46359634399414
600,1092918062,0.7975452,-0.18024753,-0.57114136,0.072320454,3.8178963661193848,8.69029712677002,-33.727535247802734,-2.6115310192108154,-127.1230697631836, 10.96454906463623
601,1092934729,0.77691674,-0.17780314,-0.5982251,0.083145246,5.374853610992432,-3.595061779022217,-37.655250549316406,18.16136932373047,-242.2930908203125, 27.68447494506836
602,1092951396,0.74196833,-0.14573956,-0.64208424,0.12637626,15.7710599899292,-2.7409489154815674,-24.222400665283203,283.1820373535156,-447.1523132324219, 66.48451232910156
603,1092968063,0.7129427,-0.10789174,-0.67048603,0.17470208,33.240638732910156,4.781422138214111,11.134193420410156,354.8046875,-351.79632568359375, 76.95796966552734
604,1092984730,0.68330723,-0.10040293,-0.6961152,0.1960463,21.455821990966797,1.982166051864624,4.8637800216674805,84.1214828491211,-284.5699462890625, 87.44623565673828
605,1093001397,0.6545367,-0.12446229,-0.7219021,0.18694526,20.72264862060547,10.840290069580078,1.7192695140838623,-209.5467987060547,-217.7884979248047, 94.28211975097656
606,1093018064,0.62775755,-0.13031188,-0.74318063,0.19136801,16.69611167907715,-4.666112899780273,-8.712228775024414,-52.87993621826172,-222.71791076660156, 66.37448120117188
607,1093034731,0.6079109,-0.120579466,-0.7556164,0.21201134,7.975826263427734,-5.82262659072876,-3.190858840942383,115.2181625366211,-184.1245880126953, 55.5159797668457
608,1093051398,0.5909529,-0.12127943,-0.76694125,0.21878628,9.47341537475586,-5.1970367431640625,-4.565664768218994,3.5658440589904785,-137.79983520507812, 48.325828552246094
609,1093068065,0.57812256,-0.12553564,-0.7766288,0.21647862,6.598106861114502,-10.941204071044922,-7.199000835418701,-52.867794036865234,-96.48824310302734, 25.29681968688965
610,1093084732,0.5696283,-0.12733738,-0.7833698,0.21363725,11.192228317260742,-11.112412452697754,-5.586076736450195,-37.842994689941406,-64.78771209716797, 6.043930530548096
611,1093101399,0.56361467,-0.12530062,-0.7885445,0.21174502,16.928417205810547,-7.049266338348389,-5.1877851486206055,-13.271963119506836,-51.77952575683594, -13.2594633102417
612,1093118066,0.5584164,-0.12544776,-0.79376006,0.20586133,21.099611282348633,-3.3523061275482178,-4.95918083190918,-42.7686882019043,-40.954505920410156, -18.06492042541504
613,1093134733,0.55244213,-0.13034666,-0.80044806,0.19261451,20.804271697998047,-2.7864949703216553,-1.2934596538543701,-103.97154998779297,-37.85476303100586, -20.41532325744629
614,1093151400,0.5463382,-0.13669199,-0.8069988,0.1777167,19.001087188720703,-5.0708136558532715,1.8416074514389038,-118.53890228271484,-34.805355072021484, -18.255647659301758
615,1093168067,0.5391098,-0.14263988,-0.8141542,0.16176361,16.897916793823242,-1.6512558460235596,5.735601425170898,-124.79444122314453,-43.01274490356445, -23.504459381103516
616,1093184734,0.53009784,-0.14872497,-0.82259554,0.1421763,13.16687297821045,-0.6063721776008606,8.876835823059082,-148.9368133544922,-54.30903625488281, -35.349388122558594
617,1093201401,0.51977134,-0.15367103,-0.8314769,0.121939026,12.061284065246582,0.36811262369155884,12.96849250793457,-150.3542022705078,-64.08951568603516, -43.219810485839844
618,1093218068,0.50634956,-0.15861337,-0.8413085,0.10320853,8.219239234924316,-1.625815510749817,5.066771984100342,-145.92471313476562,-87.1304931640625, -36.17390823364258
619,1093234735,0.48619282,-0.16026354,-0.85388917,0.09383825,11.666510581970215,-9.067404747009277,3.711050033569336,-89.66961669921875,-148.396728515625, -20.84174346923828
620,1093251402,0.46195927,-0.15354764,-0.867876,0.09903597,12.572112083435059,-3.110955238342285,8.323884963989258,18.31884765625,-198.67962646484375, -20.28215217590332
621,1093268069,0.43128586,-0.1529637,-0.8838241,0.09720898,11.454222679138184,-3.435124635696411,5.785510063171387,-51.30161666870117,-232.0330352783203, -3.695611000061035
622,1093284736,0.3987895,-0.15282209,-0.8990059,0.09695821,12.996933937072754,-3.952594518661499,3.718977928161621,-44.506351470947266,-242.4325714111328, 5.6756911277771
623,1093301403,0.36787808,-0.15654278,-0.91275734,0.08387189,17.37061882019043,3.4970703125,12.8491792678833,-131.8970947265625,-212.8744659423828, -5.217897415161133
624,1093318070,0.3408703,-0.16520247,-0.9237983,0.055786397,16.424394607543945,-1.516499400138855,13.288812637329102,-232.8072509765625,-162.96636962890625, -11.430107116699219
625,1093334737,0.32186413,-0.16923968,-0.9310227,0.030958926,16.266592025756836,-7.287617206573486,9.930304527282715,-190.7858428955078,-109.07638549804688, -31.921661376953125
626,1093351404,0.31348234,-0.16893506,-0.9342452,0.019393416,15.094529151916504,-8.136796951293945,8.243054389953613,-83.1995620727539,-48.9224739074707, -28.055397033691406
627,1093368071,0.3150892,-0.16678214,-0.93416715,0.01530498,12.87415885925293,-7.582005500793457,7.942533493041992,-19.31072425842285,13.103073120117188, -21.378585815429688
628,1093384738,0.32826212,-0.16319321,-0.93018407,0.019227136,11.04576301574707,-9.266051292419434,4.665640354156494,48.765499114990234,86.24739837646484, -10.024559020996094
629,1093401405,0.35235342,-0.1594424,-0.9217865,0.027108392,10.331803321838379,-7.896473407745361,2.5982213020324707,87.10936737060547,161.4014129638672, 1.3501607179641724
630,1093418072,0.3863434,-0.15602759,-0.9083656,0.03558524,9.040360450744629,-7.487788200378418,-0.5247542858123779,101.71194458007812,235.6095428466797, 8.565386772155762
631,1093434739,0.42884275,-0.15303905,-0.88929933,0.04266104,9.442591667175293,-5.681318759918213,-1.909560203552246,102.21778106689453,305.345703125, 11.441402435302734
632,1093451406,0.4776349,-0.15330282,-0.86397266,0.043755926,10.91158390045166,-4.416615962982178,-3.118419647216797,64.41213989257812,369.561279296875, 18.384017944335938
633,1093468073,0.5304156,-0.1594701,-0.8317205,0.03833714,12.865063667297363,-4.9970526695251465,-5.1825127601623535,12.534309387207031,424.7073669433594, 38.08000183105469
634,1093484740,0.5851785,-0.16948548,-0.7923208,0.032690868,14.719335556030273,-5.827134132385254,-7.1400299072265625,1.193238377571106,463.4906311035156, 66.4582290649414
635,1093501407,0.6403887,-0.1766648,-0.7465338,0.037135363,16.119102478027344,-7.745555400848389,-11.078367233276367,69.5538330078125,479.3901672363281, 98.8496322631836
636,1093518074,0.69500643,-0.16724402,-0.69660705,0.06110712,23.316537857055664,-9.684779167175293,-16.374216079711914,243.41859436035156,466.8990173339844, 104.7517318725586
637,1093534741,0.74468017,-0.1468642,-0.6453195,0.08628728,27.616832733154297,-2.4399027824401855,-22.97073745727539,296.6270751953125,444.0561828613281, 61.654808044433594
638,1093551408,0.78311765,-0.13589439,-0.599798,0.09220618,23.575963973999023,4.402596473693848,-31.079517364501953,148.23793029785156,390.0578918457031, 5.752641201019287
639,1093568075,0.80354047,-0.15151718,-0.57030374,0.07822453,7.0374016761779785,-2.657703399658203,-37.914405822753906,-103.85597229003906,265.5300598144531, 4.955767631530762
640,1093584742,0.8102044,-0.16711593,-0.55732125,0.07095289,4.792912006378174,-4.065031051635742,-34.77471923828125,-100.27128601074219,114.09519958496094, 32.15800094604492
641,1093601409,0.8058298,-0.17365514,-0.56165254,0.07091272,-0.2589673697948456,3.37776255607605,-37.30663299560547,-42.894805908203125,-36.691097259521484, 23.216840744018555
642,1093618076,0.7912729,-0.17253678,-0.5816088,0.076483406,2.5382497310638428,5.880132675170898,-32.30564498901367,1.733451247215271,-172.34727478027344, 11.117484092712402
643,1093634743,0.76599467,-0.1706851,-0.6132127,0.089938864,4.559617042541504,-14.032252311706543,-37.66483688354492,18.6993465423584,-287.8099060058594, 42.993961334228516
644,1093651410,0.73078865,-0.13269591,-0.656023,0.13406618,21.48076820373535,8.532958984375,-9.229621887207031,320.4928894042969,-446.74407958984375, 44.705345153808594
645,1093668077,0.70154303,-0.10176464,-0.68273926,0.1770557,26.069995880126953,-0.031374841928482056,9.06484317779541,300.1396179199219,-331.0801086425781, 79.94610595703125
646,1093684744,0.67050254,-0.09719831,-0.70922333,0.19488728,20.523881912231445,0.9032940864562988,5.006225109100342,53.6380500793457,-288.82171630859375, 84.63411712646484
647,1093701411,0.64190286,-0.11605598,-0.73427224,0.1879795,18.408899307250977,9.330055236816406,-0.986923098564148,-171.53871154785156,-222.57139587402344, 82.630859375
648,1093718078,0.6151009,-0.11814592,-0.75462633,0.19552916,16.380985260009766,-4.46329402923584,-8.963861465454102,-16.938451766967773,-226.09190368652344, 63.503807067871094
649,1093734745,0.5949425,-0.10959018,-0.7668075,0.21456945,6.786839962005615,-4.601140975952148,-4.435177803039551,104.18865966796875,-180.66671752929688, 54.514095306396484
650,1093751412,0.578471,-0.1088321,-0.777396,0.22177106,8.604032516479492,-7.449067115783691,-5.631160736083984,15.000349044799805,-134.31228637695312, 42.825965881347656
651,1093768079,0.5670731,-0.11064726,-0.78556305,0.22153114,9.092835426330566,-10.423126220703125,-6.905709266662598,-27.528831481933594,-88.09114837646484, 20.96626091003418
652,1093784746,0.5601471,-0.11030706,-0.790934,0.22020714,13.56345272064209,-9.381189346313477,-6.818829536437988,-17.349851608276367,-55.49400329589844, 0.31050002574920654
653,1093801413,0.5551874,-0.1077215,-0.795246,0.2185107,18.379623413085938,-6.50536584854126,-5.997890949249268,-7.673651218414307,-43.867759704589844, -15.541996955871582
654,1093818080,0.5503753,-0.10838175,-0.8003213,0.2117227,23.03915786743164,-4.1578593254089355,-2.662790536880493,-48.976715087890625,-37.399513244628906, -17.94384002685547
655,1093834747,0.544572,-0.11398314,-0.80688936,0.1984412,22.075454711914062,-3.413759469985962,0.256891667842865,-106.37968444824219,-36.64039993286133, -14.816261291503906
656,1093851414,0.5381254,-0.122837976,-0.8137337,0.18212488,19.806638717651367,-5.235904216766357,2.8728017807006836,-136.3651580810547,-34.651371002197266, -7.27614164352417
657,1093868081,0.53027403,-0.13132481,-0.82146996,0.16355692,16.637359619140625,-2.0707199573516846,8.617374420166016,-150.0272674560547,-44.635597229003906, -16.532020568847656
658,1093884748,0.5207735,-0.13977927,-0.8302779,0.14105147,12.617195129394531,-0.7165135145187378,12.232545852661133,-175.00048828125,-54.69027328491211, -30.049861907958984
659,1093901415,0.5093711,-0.14848016,-0.8396073,0.11642369,9.31997299194336,1.7997804880142212,10.295315742492676,-190.49696350097656,-65.52144622802734, -34.7999153137207
660,1093918082,0.4928565,-0.1585854,-0.85054374,0.09229623,8.183374404907227,-6.445530891418457,2.390667200088501,-199.1285400390625,-100.37916564941406, -22.403602600097656
661,1093934749,0.47292754,-0.15695088,-0.86228764,0.090366706,14.194056510925293,-10.586636543273926,5.642751693725586,-33.8384895324707,-154.88365173339844, -14.629387855529785
662,1093951416,0.44672638,-0.15326637,-0.8765548,0.09272002,12.178433418273926,-1.9541479349136353,7.453378677368164,-10.285001754760742,-206.4460906982422, -11.794291496276855
663,1093968083,0.41661888,-0.1531032,-0.89113075,0.09420358,11.263679504394531,-6.271009922027588,5.432423114776611,-30.729188919067383,-228.05474853515625, 8.937628746032715
664,1093984750,0.38968194,-0.15158777,-0.90327215,0.09627492,15.13717269897461,3.2341082096099854,11.45137882232666,-18.45294761657715,-203.36141967773438, 2.796952962875366
665,1094001417,0.36330253,-0.15821193,-0.9149553,0.07640065,13.099686622619629,5.089727878570557,15.597043991088867,-175.72412109375,-170.79473876953125, -5.249229907989502
666,1094018084,0.341715,-0.16910551,-0.9233207,0.045969713,12.110297203063965,-5.024273872375488,11.165246963500977,-245.88504028320312,-119.05183410644531, -3.6274819374084473
667,1094034751,0.32865477,-0.17333923,-0.92792827,0.029811352,15.077632904052734,-7.943337917327881,7.758398056030273,-128.61700439453125,-75.08712768554688, -10.806679725646973
668,1094051418,0.3241254,-0.17377765,-0.9296701,0.021394491,15.068832397460938,-5.563004493713379,7.873327255249023,-60.061912536621094,-24.484880447387695, -15.949161529541016
669,1094068085,0.32899612,-0.17323658,-0.9281622,0.016294967,12.470113754272461,-7.001328945159912,5.452530384063721,-25.092588424682617,38.448123931884766, -12.362234115600586
670,1094084752,0.3438926,-0.1704351,-0.9232095,0.019344127,11.127601623535156,-7.732320785522461,1.7200238704681396,44.20945739746094,100.0691146850586, -5.421900272369385
671,1094101419,0.36818966,-0.16683373,-0.9142357,0.02785757,10.841861724853516,-6.1638407707214355,0.056984275579452515,92.20478820800781,162.64283752441406, 5.852781772613525
672,1094118086,0.4006944,-0.16362107,-0.9007608,0.03608934,10.08142375946045,-5.257838249206543,-1.5899138450622559,99.63097381591797,225.987548828125, 11.166078567504883
673,1094134753,0.44029877,-0.16125728,-0.8822209,0.042655546,10.106877326965332,-5.835453510284424,-3.209489345550537,96.14592742919922,286.0213623046875, 15.759053230285645
674,1094151420,0.48558018,-0.15954614,-0.85813797,0.048543565,11.19714069366455,-6.019491195678711,-4.220139980316162,97.91815948486328,338.25860595703125, 22.09884262084961
675,1094168087,0.53485864,-0.15990686,-0.8280221,0.052302286,12.18043327331543,-5.636907577514648,-5.230453014373779,84.77489471435547,385.122802734375, 32.43816375732422
676,1094184754,0.5870613,-0.16092409,-0.79135376,0.056759648,13.822216987609863,-6.02541971206665,-6.744321823120117,91.89180755615234,425.4895935058594, 44.83012008666992
677,1094201421,0.64185476,-0.1591991,-0.7471793,0.06634188,15.401564598083496,-6.099909782409668,-9.124544143676758,136.68833923339844,463.3706359863281, 57.83513259887695
678,1094218088,0.6947697,-0.15282138,-0.6982552,0.07987943,18.42024803161621,-4.136415004730225,-13.612037658691406,177.73760986328125,468.46295166015625, 57.40701675415039
679,1094234755,0.74199533,-0.14679796,-0.6480208,0.08923194,26.983814239501953,-3.1608779430389404,-22.229238510131836,150.77101135253906,452.2687683105469, 43.63250732421875
680,1094251422,0.77873164,-0.14806257,-0.6036851,0.08496411,23.083351135253906,2.1331632137298584,-30.7093563079834,38.80754089355469,394.05084228515625, 7.168482780456543
681,1094268089,0.7997831,-0.1647709,-0.57286984,0.070836745,9.982048034667969,-1.9393497705459595,-38.84269332885742,-108.46310424804688,276.2099914550781, 14.060282707214355
682,1094284756,0.80668855,-0.17936747,-0.5595333,0.063275576,4.808743476867676,-2.3141303062438965,-34.69780731201172,-95.16896057128906,116.63617706298828, 29.001598358154297
683,1094301423,0.8040666,-0.17861554,-0.5630544,0.06740262,1.0481798648834229,3.2683143615722656,-37.00898361206055,16.154800415039062,-33.957801818847656, 18.161338806152344
684,1094318090,0.79112965,-0.1725206,-0.5819819,0.07515105,4.955625534057617,8.668207168579102,-30.740915298461914,40.211631774902344,-165.3451690673828, 3.4120688438415527
685,1094334757,0.76614296,-0.17397879,-0.6129775,0.08375628,2.776684284210205,-12.069610595703125,-39.62946701049805,-17.729076385498047,-275.8371276855469, 30.356151580810547
686,1094351424,0.732873,-0.14701577,-0.65386486,0.11723712,25.297086715698242,0.7990224361419678,-3.128145694732666,221.79495239257812,-408.5343017578125, 34.16579818725586
687,1094368091,0.7098426,-0.114066795,-0.67468727,0.16706033,28.71575164794922,-8.264483451843262,16.47787857055664,352.11395263671875,-282.6182556152344, 101.51356506347656
