PacketCounter,SampleTimeFine,Quat_W,Quat_X,Quat_Y,Quat_Z,Acc_X,Acc_Y,Acc_Z,Gyr_X,Gyr_Y,Gyr_Z 
1,1520107978,0.79452014,0.18529963,-0.56244254,0.13438891,0.11493571102619171,-0.1095937043428421,-0.02726578712463379,0.01874701865017414,0.4538601040840149, -0.35902759432792664
2,1520124645,0.79465,0.18594918,-0.56214976,0.13394767,17.20807647705078,2.6627438068389893,5.44984245300293,-1.4169331789016724,1.8400869369506836, 3.2057180404663086
3,1520141312,0.79482436,0.18597504,-0.56194484,0.13373768,17.384004592895508,2.678445816040039,5.379125118255615,-1.2607978582382202,1.8684782981872559, 2.702619791030884
4,1520157979,0.7946,0.18616287,-0.5621002,0.1341559,16.964160919189453,2.466543436050415,5.246980667114258,0.8188187479972839,2.812767267227173, 3.2797763347625732
5,1520174646,0.79437035,0.18562084,-0.56250286,0.1345778,16.956329345703125,2.6669139862060547,5.292570114135742,-0.14200960099697113,2.863736629486084, 2.945735454559326
6,1520191313,0.7941824,0.18559216,-0.56270266,0.13489152,17.35741424560547,2.919182777404785,5.469407081604004,0.24528639018535614,2.0074656009674072, 2.1035773754119873
7,1520207980,0.79423517,0.18589048,-0.56251425,0.13495554,17.163610458374023,2.244361639022827,5.368321895599365,0.017205331474542618,2.9451980590820312, 2.1302785873413086
8,1520224647,0.79430854,0.18556601,-0.56243306,0.13530827,16.991985321044922,2.6930837631225586,5.2224650382995605,-0.039417948573827744,3.131082057952881, 1.71461021900177
9,1520241314,0.79433215,0.18564628,-0.5622718,0.13572943,17.171974182128906,2.596769332885742,5.370342254638672,0.4649409055709839,3.308257818222046, 1.3352220058441162
10,1520257981,0.7944355,0.18558678,-0.5620714,0.13603477,17.249494552612305,2.5064151287078857,5.298394680023193,0.06078534200787544,3.588063955307007, 1.4007267951965332
11,1520274648,0.79449743,0.1855919,-0.56185037,0.13657884,17.01854705810547,2.5234556198120117,5.384224891662598,0.6247770190238953,3.909362554550171, 1.731476068496704
12,1520291315,0.79463786,0.18550862,-0.5615847,0.13696615,16.85559844970703,2.820917844772339,5.20475959777832,0.5261937379837036,3.9731125831604004, 1.3841551542282104
13,1520307982,0.7946942,0.18579505,-0.56124794,0.13763,17.087406158447266,2.5297112464904785,5.271039962768555,0.8501302599906921,3.7874841690063477, 1.7572295665740967
14,1520324649,0.79478157,0.18571934,-0.56106883,0.13795868,17.058568954467773,2.661654472351074,5.4628424644470215,-0.3015127182006836,3.3976340293884277, 1.9688806533813477
15,1520341316,0.79484975,0.18579052,-0.56081057,0.13851908,17.13596534729004,2.7971479892730713,5.311666488647461,-0.4135171175003052,3.1866750717163086, 2.1591317653656006
16,1520357983,0.7949375,0.18576902,-0.5605964,0.1389102,17.071374893188477,2.615269184112549,5.447364330291748,0.06352589279413223,3.255777359008789, 2.614729881286621
17,1520374650,0.7950297,0.18557493,-0.56049037,0.1390698,17.090587615966797,2.7162044048309326,5.41037130355835,-0.8191838264465332,2.4627444744110107, 2.414823055267334
18,1520391317,0.7951024,0.18556868,-0.5602722,0.13953997,17.252376556396484,2.466144561767578,5.4457526206970215,-0.5502120852470398,2.819632053375244, 2.7261714935302734
19,1520407984,0.7951747,0.18557984,-0.56003976,0.14004615,16.919353485107422,2.528848886489868,5.210480690002441,1.5028574466705322,3.1349244117736816, 3.0632729530334473
20,1520424651,0.79520553,0.18562794,-0.5598408,0.1406019,16.814441680908203,2.8799118995666504,5.135921001434326,1.5973553657531738,2.9159741401672363, 3.087873935699463
21,1520441318,0.7952246,0.18557933,-0.55973977,0.14095944,17.176647186279297,2.4153809547424316,5.549695014953613,0.40793994069099426,2.3809123039245605, 3.0005345344543457
22,1520457985,0.7952438,0.18547972,-0.55966806,0.14126691,16.98593521118164,2.5991907119750977,5.364318370819092,0.5194319486618042,2.070319175720215, 2.847485303878784
23,1520474652,0.7952589,0.18517008,-0.5597165,0.14139673,16.9117488861084,2.7808010578155518,5.120926380157471,-1.9067245721817017,1.263404130935669, 2.6862661838531494
24,1520491319,0.79526067,0.18500549,-0.55969733,0.14167674,17.01820182800293,2.3735790252685547,5.240172863006592,-0.06341704726219177,1.862164855003357, 3.207305431365967
25,1520507986,0.79526865,0.18485677,-0.5596462,0.14202727,16.85895538330078,2.701688051223755,5.115971088409424,0.013184137642383575,2.133711099624634, 3.1625218391418457
26,1520524653,0.7953029,0.18462057,-0.55961335,0.14227383,17.27043342590332,2.6378579139709473,5.246489524841309,-0.6673645973205566,2.2215371131896973, 3.1308648586273193
27,1520541320,0.7953114,0.1846891,-0.5594296,0.14285779,17.010351181030273,2.3561010360717773,5.273213863372803,1.4339078664779663,3.00262188911438, 3.3051846027374268
28,1520557987,0.7953357,0.18461607,-0.5592869,0.1433749,16.545289993286133,2.479503631591797,5.081487655639648,0.7779154181480408,2.9313547611236572, 3.491145610809326
29,1520574654,0.79540175,0.18428814,-0.5592805,0.14345463,17.284700393676758,2.674633741378784,5.490242004394531,-1.8619922399520874,2.140126943588257, 2.4054746627807617
30,1520591321,0.79550695,0.1840987,-0.55910903,0.14378321,17.21028709411621,2.051743745803833,5.2520623207092285,0.36346349120140076,2.81335711479187, 2.8116281032562256
31,1520607988,0.7956208,0.18380216,-0.5589639,0.144096,16.669692993164062,2.4001200199127197,5.220333576202393,-0.5719059705734253,2.218552589416504, 2.6126298904418945
32,1520624655,0.7957275,0.18355207,-0.55882215,0.1443749,16.717233657836914,2.4978291988372803,5.091923236846924,-0.7592884302139282,1.831468105316162, 2.089874744415283
33,1520641322,0.79585177,0.18336079,-0.5586655,0.14453971,17.025693893432617,2.3504104614257812,5.23135232925415,-0.2267363965511322,1.816586971282959, 1.4046964645385742
34,1520657989,0.7959898,0.18332724,-0.5583865,0.14489965,16.889989852905273,2.078843116760254,5.258376121520996,1.2541449069976807,2.575350284576416, 1.607753872871399
35,1520674656,0.79610556,0.18328846,-0.55818224,0.1450995,17.067270278930664,2.6631507873535156,5.173194885253906,1.2057241201400757,1.9620158672332764, 1.0679150819778442
36,1520691323,0.7962979,0.18321332,-0.5578722,0.14533162,16.927852630615234,2.1746294498443604,5.240749835968018,1.0256156921386719,2.896738290786743, 1.1471221446990967
37,1520707990,0.7964903,0.18314153,-0.55758077,0.14548647,16.685190200805664,2.4615774154663086,4.956989765167236,0.846019446849823,2.707371234893799, 0.7676318287849426
38,1520724657,0.79671526,0.18297811,-0.55729,0.14557374,16.896135330200195,2.403278350830078,5.180923938751221,-0.44945162534713745,2.771198272705078, 0.5581198930740356
39,1520741324,0.7968505,0.18300433,-0.5569845,0.14596905,16.835630416870117,2.3320629596710205,5.168633937835693,2.0725347995758057,2.7286810874938965, 1.6487343311309814
40,1520757991,0.79705054,0.18272763,-0.55676043,0.14607842,16.62078094482422,2.528001546859741,5.1695380210876465,-0.7492099404335022,2.488036632537842, 1.3108515739440918
41,1520774658,0.7971879,0.18242744,-0.5566293,0.14620358,16.96405792236328,2.236337184906006,5.195228099822998,-0.6194815039634705,1.8100942373275757, 1.7421693801879883
42,1520791325,0.7972864,0.18235758,-0.5564255,0.14652981,16.587329864501953,2.46110463142395,5.07387638092041,1.2172499895095825,2.0384697914123535, 1.8009250164031982
43,1520807992,0.79740083,0.18217166,-0.5562736,0.14671466,16.744123458862305,2.4900894165039062,5.1190595626831055,0.15240196883678436,1.7808446884155273, 1.5843696594238281
44,1520824659,0.79745185,0.18214314,-0.55610365,0.14711693,16.7742919921875,2.4390270709991455,4.991086483001709,1.3574154376983643,1.6729254722595215, 2.021155834197998
45,1520841326,0.79759437,0.18193468,-0.55586547,0.14750154,17.214031219482422,2.105250120162964,5.221463203430176,0.5167298316955566,2.594585418701172, 2.5220375061035156
46,1520857993,0.79769355,0.1817762,-0.55566084,0.14793094,16.730615615844727,2.28745698928833,5.0424346923828125,1.2478954792022705,2.2866570949554443, 2.7451627254486084
47,1520874660,0.79783535,0.1815767,-0.55542713,0.14828861,16.590242385864258,2.5411298274993896,5.026906967163086,0.269733726978302,2.502110719680786, 2.2760915756225586
48,1520891327,0.79805374,0.18140261,-0.55509007,0.14858857,16.8876895904541,2.3745813369750977,4.9302778244018555,0.731133759021759,3.3350749015808105, 1.8414443731307983
49,1520907994,0.79817086,0.18154573,-0.55472136,0.14916061,16.65415382385254,2.131096839904785,5.2973175048828125,3.801008462905884,3.1593592166900635, 2.2329349517822266
50,1520924661,0.79839355,0.18120886,-0.5544862,0.14925244,16.770811080932617,2.448190212249756,5.144509792327881,-1.0218313932418823,2.7062697410583496, 1.4530916213989258
51,1520941328,0.7985637,0.18105827,-0.5542515,0.14939645,16.969432830810547,2.334681272506714,5.011295318603516,0.13105377554893494,2.36088228225708, 1.0423407554626465
52,1520957995,0.7987586,0.18111968,-0.55385137,0.14976387,16.598203659057617,2.1424148082733154,4.988986968994141,2.259751081466675,3.4242961406707764, 1.2213351726531982
53,1520974662,0.7989837,0.18113208,-0.5534656,0.14997403,16.789175033569336,2.663374662399292,4.9612627029418945,1.4859912395477295,3.337174654006958, 0.5788021087646484
54,1520991329,0.79921186,0.18112142,-0.5530793,0.15019645,16.977705001831055,2.3383450508117676,5.0956597328186035,1.6818006038665771,3.4303159713745117, 0.8347628116607666
55,1521007996,0.79942983,0.18114954,-0.55265653,0.15055764,16.73807716369629,2.266817092895508,5.049200534820557,2.1556737422943115,3.6855335235595703, 1.3048710823059082
56,1521024663,0.799588,0.18122222,-0.5522887,0.15097915,16.788227081298828,2.4225475788116455,4.825291156768799,2.689749240875244,3.192718505859375, 1.6111218929290771
57,1521041330,0.7997241,0.1815964,-0.5518026,0.15158531,17.247188568115234,2.2242929935455322,5.053066253662109,5.0271782875061035,3.659921169281006, 1.3000177145004272
58,1521057997,0.79981303,0.18205784,-0.5513895,0.15206502,16.68796730041504,2.366513967514038,5.336775302886963,5.286135673522949,2.870422124862671, 0.5070226788520813
59,1521074664,0.79999214,0.18180113,-0.5512276,0.15201706,17.117088317871094,2.4662387371063232,5.143118858337402,-1.015645980834961,1.9201520681381226, 0.5576972961425781
60,1521091331,0.80005586,0.18287759,-0.5505271,0.1529267,17.799121856689453,2.3856594562530518,5.052529811859131,10.751531600952148,4.262678623199463, 0.2558518052101135
61,1521107998,0.8000501,0.18473278,-0.54947835,0.15449065,16.913795471191406,2.6065049171447754,4.91399621963501,17.853782653808594,5.908863544464111, 0.5016829371452332
62,1521124665,0.79988,0.18587409,-0.5489017,0.15604499,16.776891708374023,2.8433310985565186,5.496023654937744,13.762603759765625,3.458799362182617, 3.9818875789642334
63,1521141332,0.79993695,0.18566091,-0.54859483,0.15708153,16.494279861450195,2.4159533977508545,5.764987468719482,3.8300154209136963,3.619158983230591, 6.371436595916748
64,1521157999,0.80012506,0.18458942,-0.5485249,0.1576297,16.06759262084961,2.573119878768921,4.51833438873291,-3.488731861114502,3.057497262954712, 6.96417760848999
65,1521174666,0.80018675,0.18211783,-0.5494498,0.15696877,15.932829856872559,2.333434820175171,3.7151224613189697,-16.23819923400879,-2.8460605144500732, 7.14795446395874
66,1521191333,0.79993916,0.17821954,-0.5516543,0.15496077,15.561928749084473,2.4505615234375,2.834855794906616,-30.29277992248535,-11.20380687713623, 7.018259048461914
67,1521208000,0.7992006,0.1740337,-0.55482125,0.15219787,15.532510757446289,2.937135696411133,2.3053321838378906,-35.717525482177734,-19.024812698364258, 5.467414379119873
68,1521224667,0.7981754,0.17099127,-0.55789214,0.14978217,16.39665985107422,2.5746800899505615,3.84665846824646,-27.956506729125977,-20.382326126098633, 3.1113221645355225
69,1521241334,0.7971805,0.17018713,-0.5597892,0.14891599,17.33062171936035,2.2632908821105957,5.30153226852417,-9.020647048950195,-14.359735488891602, 1.4634534120559692
70,1521258001,0.7962011,0.17137457,-0.56056947,0.14985476,17.359556198120117,1.925358772277832,5.445953369140625,9.835674285888672,-8.138324737548828, 2.3215813636779785
71,1521274668,0.7952942,0.1724975,-0.5611658,0.1511448,16.87993049621582,2.093022108078003,5.997941493988037,11.057758331298828,-6.374390125274658, 4.233532428741455
72,1521291335,0.7948826,0.17077985,-0.5626336,0.14979781,16.10428237915039,3.239217758178711,4.812653541564941,-15.886909484863281,-9.397015571594238, 1.3746542930603027
73,1521308002,0.79434526,0.16900045,-0.56424254,0.14861004,16.89649200439453,1.787051796913147,4.791700839996338,-15.83975887298584,-10.431631088256836, 2.7225630283355713
74,1521324669,0.7938026,0.16745016,-0.5656795,0.14779964,17.329797744750977,1.8004807233810425,4.548092842102051,-13.146282196044922,-9.326810836791992, 3.626038074493408
75,1521341336,0.7927892,0.16764645,-0.5668834,0.1484028,16.930471420288086,2.038221597671509,2.9122419357299805,2.5533249378204346,-10.03689193725586, 4.7178425788879395
76,1521358003,0.7910623,0.16898923,-0.5686703,0.14925613,16.492326736450195,2.9624438285827637,1.0798553228378296,9.888775825500488,-16.860403060913086, 2.9804577827453613
77,1521374670,0.788256,0.1714133,-0.57159054,0.15018146,16.627832412719727,2.678330421447754,0.6509736776351929,16.33974266052246,-28.2036075592041, 1.653927206993103
78,1521391337,0.78503394,0.17427821,-0.5749776,0.1508299,16.646968841552734,2.0286006927490234,3.724611520767212,17.546890258789062,-33.116981506347656, -0.6142467260360718
79,1521408004,0.782322,0.17705442,-0.5776804,0.15135881,16.545366287231445,1.1078641414642334,6.1467976570129395,16.67447280883789,-27.478464126586914, -2.2605979442596436
80,1521424671,0.78082067,0.17928995,-0.5788307,0.15208347,16.311031341552734,0.7429568767547607,7.903947830200195,14.545785903930664,-13.58797836303711, -2.264460325241089
81,1521441338,0.78082925,0.17972337,-0.5786102,0.15236701,16.577817916870117,1.0020415782928467,8.885727882385254,2.6543657779693604,1.043083667755127, -0.7597111463546753
82,1521458005,0.78140974,0.17842884,-0.5784971,0.15133762,17.561201095581055,2.270250082015991,2.730165958404541,-12.188077926635742,2.9067163467407227, -1.2846951484680176
83,1521474672,0.781124,0.17779091,-0.5792023,0.15086597,16.80959701538086,1.8493967056274414,2.5179359912872314,-6.6852617263793945,-4.933633804321289, 0.891033947467804
84,1521491339,0.7807159,0.17772248,-0.5798017,0.15075661,16.191650390625,2.3320837020874023,4.145181655883789,-1.7917494773864746,-4.948681354522705, 0.6072067618370056
85,1521508006,0.78047985,0.17714167,-0.5804859,0.15002765,16.073211669921875,2.8282244205474854,3.648014545440674,-7.265888690948486,-4.938564777374268, -0.7258511781692505
86,1521524673,0.78021055,0.1765163,-0.5812467,0.14921768,16.670269012451172,2.5281119346618652,2.885529041290283,-8.026280403137207,-5.542820453643799, -0.8780933618545532
87,1521541340,0.7798965,0.1764519,-0.58173996,0.1490133,16.83669090270996,2.2250146865844727,3.424128532409668,-2.546901226043701,-4.132673263549805, -0.21462160348892212
88,1521558007,0.77987784,0.17616773,-0.58198947,0.14847156,16.587703704833984,2.2559022903442383,3.4279284477233887,-4.984104156494141,-1.7993563413619995, -1.6866604089736938
89,1521574674,0.7800199,0.17593856,-0.5819796,0.14803559,17.128368377685547,1.521561622619629,2.742966651916504,-4.393589973449707,0.2939121425151825, -1.8674862384796143
90,1521591341,0.7802046,0.17626905,-0.5816035,0.14814627,16.767227172851562,1.5687230825424194,2.7934486865997314,1.3668664693832397,2.5631203651428223, -1.6075170040130615
91,1521608008,0.7805023,0.17685764,-0.5810274,0.1481372,16.091289520263672,2.2916319370269775,2.862826108932495,2.219346761703491,3.6763763427734375, -3.681352138519287
92,1521624675,0.780937,0.17759427,-0.58033687,0.1476713,16.76426124572754,2.115718364715576,3.049569606781006,1.2113465070724487,4.1383538246154785, -6.978796482086182
93,1521641342,0.7814539,0.1789471,-0.57926047,0.14752994,16.981184005737305,1.238156795501709,3.179333209991455,6.119536876678467,6.308315277099609, -8.247358322143555
94,1521658009,0.7819713,0.18111873,-0.57779735,0.14787556,16.977903366088867,1.7391691207885742,2.9686601161956787,13.071436882019043,8.176896095275879, -9.325940132141113
95,1521674676,0.7825572,0.1835977,-0.57609695,0.14835238,17.166244506835938,2.225433111190796,3.3410627841949463,15.54451847076416,9.59410285949707, -10.174032211303711
96,1521691343,0.78323555,0.18584457,-0.5743394,0.1487894,16.57941436767578,2.6076555252075195,3.5035669803619385,14.117631912231445,10.455867767333984, -9.623614311218262
97,1521708010,0.78398734,0.18724076,-0.5728832,0.14869341,16.356225967407227,3.2348105907440186,3.261153221130371,7.313961505889893,9.340991020202637, -8.740032196044922
98,1521724677,0.78471327,0.18813203,-0.57163143,0.14855692,16.79334831237793,3.2149174213409424,3.4335033893585205,4.432849407196045,8.623178482055664, -6.615046501159668
99,1521741344,0.78539264,0.18868466,-0.5704701,0.14873005,16.368654251098633,3.1964924335479736,3.4534037113189697,3.9021153450012207,8.71487045288086, -3.4061315059661865
100,1521758011,0.78593415,0.18869314,-0.5696574,0.14897394,16.093107223510742,3.236271381378174,3.2951691150665283,1.019878625869751,6.934543609619141, -0.29957902431488037
101,1521774678,0.7863303,0.1884508,-0.5690701,0.1494338,15.919408798217773,2.979856491088867,3.339385986328125,0.4497654438018799,5.6838226318359375, 2.2953782081604004
102,1521791345,0.78655267,0.18821469,-0.56867814,0.15005088,15.919690132141113,3.0385143756866455,3.3809359073638916,1.4201921224594116,4.186811447143555, 3.6391615867614746
103,1521808012,0.78659767,0.18803163,-0.56851315,0.15066856,16.25806999206543,2.9558184146881104,3.5400986671447754,1.4717634916305542,2.182849168777466, 3.8521182537078857
104,1521824679,0.7865663,0.18779239,-0.5684971,0.15119076,16.631315231323242,2.5175750255584717,3.724493980407715,0.7047398686408997,1.010158658027649, 3.8197312355041504
105,1521841346,0.78650117,0.18768859,-0.5684689,0.15176363,16.384443283081055,2.5102267265319824,3.202698230743408,1.767858862876892,0.8792263269424438, 3.6002554893493652
106,1521858013,0.7865373,0.18742889,-0.5683975,0.15216438,16.34177017211914,2.5118677616119385,3.1664280891418457,-0.029544247314333916,1.4333058595657349, 3.0581111907958984
107,1521874680,0.786653,0.18728594,-0.5681679,0.15259977,16.155803680419922,2.5514204502105713,2.868813991546631,1.2627254724502563,2.5863513946533203, 2.6322622299194336
108,1521891347,0.7869039,0.18699506,-0.5678459,0.15286157,16.044681549072266,2.5660173892974854,3.1110947132110596,-0.5430148839950562,3.5274388790130615, 1.9396820068359375
109,1521908014,0.7871498,0.18679762,-0.5675231,0.1530336,16.375741958618164,2.8516218662261963,3.2285327911376953,-0.781789243221283,3.2546889781951904, 0.9794232249259949
110,1521924681,0.7874784,0.18665756,-0.5670478,0.15327615,16.057527542114258,2.3610999584198,3.224731683731079,0.08027661591768265,4.467104911804199, 0.9232546091079712
111,1521941348,0.7877641,0.18653813,-0.5666474,0.15343441,16.15275001525879,2.469580888748169,3.170475721359253,-0.0905793234705925,3.7770988941192627, 0.5448910593986511
112,1521958015,0.78805786,0.18656306,-0.56618905,0.15358716,16.313613891601562,2.6219534873962402,3.2886977195739746,0.9523505568504333,3.997854471206665, -0.0626230537891388
113,1521974682,0.7883142,0.1866602,-0.56571066,0.15391722,16.033489227294922,2.4165141582489014,3.2755212783813477,1.8980485200881958,4.092467784881592, 0.5733339786529541
114,1521991349,0.78851575,0.18667956,-0.5653632,0.15413713,15.800758361816406,2.825556755065918,3.0745186805725098,1.2674380540847778,3.1501505374908447, 0.5893546342849731
115,1522008016,0.7887699,0.18654692,-0.5650208,0.15425307,15.87606143951416,2.7271456718444824,3.165919065475464,-0.13786035776138306,3.3502113819122314, 0.5443658828735352
116,1522024683,0.78895897,0.18644737,-0.5647438,0.15442018,16.05242156982422,2.820265531539917,3.0340216159820557,0.03184298798441887,2.752667188644409, 0.7854198217391968
117,1522041350,0.7891919,0.18626615,-0.56442237,0.15462345,16.048120498657227,2.6690752506256104,3.1159706115722656,-0.15041057765483856,3.3225367069244385, 1.2400195598602295
118,1522058017,0.789415,0.186097,-0.56409276,0.1548911,16.01781463623047,2.7105491161346436,3.1233158111572266,0.23191656172275543,3.4126808643341064, 1.559460997581482
119,1522074684,0.78962994,0.18599804,-0.5637479,0.15516989,15.989093780517578,2.857950448989868,3.1250414848327637,0.663170337677002,3.4088261127471924, 1.3353116512298584
120,1522091351,0.78986275,0.18586163,-0.56338227,0.1554758,15.829776763916016,2.53434419631958,3.217895030975342,0.6270950436592102,3.677875518798828, 1.6068832874298096
121,1522108018,0.79009336,0.18563484,-0.5630657,0.155722,16.056665420532227,2.622870445251465,3.1226747035980225,-0.21606875956058502,3.4132192134857178, 1.6734763383865356
122,1522124685,0.7902769,0.18562075,-0.56268436,0.15618601,15.782848358154297,2.5859580039978027,3.0008676052093506,1.8475147485733032,3.625113010406494, 1.9797660112380981
123,1522141352,0.79048526,0.185484,-0.5623733,0.15641302,15.763385772705078,2.7862141132354736,3.263955593109131,0.17148339748382568,3.1702051162719727, 1.2320541143417358
124,1522158019,0.7906728,0.18533668,-0.56212205,0.1565429,15.975373268127441,2.5972065925598145,3.036635160446167,-0.2710079848766327,2.649832248687744, 0.8545357584953308
125,1522174686,0.7908917,0.18532178,-0.5617487,0.15679522,15.85598373413086,2.3988213539123535,3.190337657928467,1.150336742401123,3.4662625789642334, 0.8593380451202393
126,1522191353,0.7911096,0.1852151,-0.56145686,0.15686706,15.807007789611816,2.858799457550049,2.908310651779175,-0.21997466683387756,2.8751344680786133, 0.30589887499809265
127,1522208020,0.7913549,0.18521251,-0.5610809,0.15697744,15.869962692260742,2.870316505432129,3.0014898777008057,0.6654884219169617,3.393535614013672, 0.017653554677963257
128,1522224687,0.7915791,0.18521388,-0.56071824,0.15714127,15.874581336975098,2.6660208702087402,3.2228875160217285,0.8261952996253967,3.2967965602874756, 0.31275027990341187
129,1522241354,0.79179305,0.1852362,-0.5603553,0.1573318,15.59961223602295,2.915424108505249,2.833228349685669,1.1491329669952393,3.28131365776062, 0.4174293875694275
130,1522258021,0.7920316,0.18508233,-0.56006396,0.1573503,15.932814598083496,2.8239097595214844,3.249770164489746,-0.6399717926979065,2.9576330184936523, 0.21206678450107574
131,1522274688,0.79222274,0.1851086,-0.5597101,0.15761505,15.650957107543945,2.7804155349731445,2.978396415710449,1.4179896116256714,3.2356204986572266, 0.8344041705131531
132,1522291355,0.7923886,0.18516514,-0.5593762,0.15790069,15.671088218688965,2.8103952407836914,3.106497287750244,1.3459153175354004,2.9904425144195557, 0.7839854955673218
133,1522308022,0.79254615,0.1850202,-0.5591598,0.15804552,15.822165489196777,2.761126756668091,3.097017765045166,0.04563542827963829,2.414182662963867, 1.0979845523834229
134,1522324689,0.7926536,0.1851133,-0.5588501,0.15849249,15.445816040039062,2.887667655944824,2.8831655979156494,2.4964888095855713,2.8409669399261475, 1.7124971151351929
135,1522341356,0.792792,0.18474966,-0.5587341,0.15863419,15.554866790771484,2.7913219928741455,2.9323363304138184,-1.3511465787887573,2.028109550476074, 2.0428881645202637
136,1522358023,0.79289407,0.18454939,-0.55855113,0.15900068,15.49980354309082,2.6709518432617188,2.8984227180480957,0.27887746691703796,2.3399441242218018, 2.521512508392334
137,1522374690,0.79299694,0.18437515,-0.5583874,0.159265,15.560186386108398,2.8931455612182617,2.9615018367767334,0.341436505317688,2.1270384788513184, 1.996477723121643
138,1522391357,0.7930864,0.18430434,-0.55819464,0.15957709,15.512975692749023,2.5947134494781494,2.8638479709625244,1.2818195819854736,2.205016613006592, 1.8902491331100464
139,1522408024,0.7931862,0.18420394,-0.5580204,0.15980522,15.49976634979248,2.5899462699890137,2.9765381813049316,0.5445195436477661,2.052428722381592, 1.4886037111282349
140,1522424691,0.7932887,0.18416327,-0.5578168,0.16005391,15.251688003540039,2.583869695663452,2.9082067012786865,0.897167980670929,2.181171178817749, 1.306228518486023
141,1522441358,0.79339457,0.18410578,-0.5576425,0.16020255,15.402432441711426,2.7429304122924805,2.9382803440093994,0.552741289138794,1.9521807432174683, 0.9146615862846375
142,1522458025,0.7934863,0.18399107,-0.55751675,0.16031812,15.649127960205078,2.8527307510375977,2.8820340633392334,0.08651328831911087,1.6637687683105469, 1.03831946849823
143,1522474692,0.79357636,0.18397135,-0.5572891,0.16068602,15.221705436706543,2.5777602195739746,2.9247093200683594,1.738276481628418,2.444303274154663, 1.9477627277374268
144,1522491359,0.7936736,0.18368657,-0.55719596,0.16085432,15.095047950744629,2.979661703109741,2.787094831466675,-0.6454528570175171,1.7838413715362549, 2.0335910320281982
145,1522508026,0.7937608,0.18349831,-0.5570614,0.16110465,15.464902877807617,2.6710221767425537,2.733384847640991,0.19970864057540894,1.972017765045166, 2.063621759414673
146,1522524693,0.7937999,0.1834416,-0.5568938,0.16155632,15.386408805847168,2.5583786964416504,3.0741684436798096,1.6433684825897217,2.0733802318573, 2.627472400665283
147,1522541360,0.7938159,0.18326733,-0.55681986,0.16192959,15.124672889709473,2.8802011013031006,2.798091173171997,0.685005247592926,1.518186330795288, 2.813894271850586
148,1522558027,0.79387105,0.18286684,-0.5568067,0.16215761,15.221410751342773,2.6079044342041016,2.7203710079193115,-1.1965099573135376,1.4181687831878662, 2.938499927520752
149,1522574694,0.79390484,0.18262042,-0.55673146,0.162527,15.238085746765137,2.689176082611084,2.830652952194214,0.22778014838695526,1.6877937316894531, 3.0522079467773438
150,1522591361,0.79396725,0.18237871,-0.55659664,0.16295454,15.103362083435059,2.5824804306030273,2.6548726558685303,0.5913909077644348,2.206822395324707, 3.276805877685547
151,1522608028,0.79406685,0.18203953,-0.5564746,0.1632656,14.948640823364258,2.6710052490234375,2.7567994594573975,-0.24101555347442627,2.2699451446533203, 3.0564730167388916
152,1522624695,0.7941024,0.18178254,-0.55641586,0.16357884,14.854191780090332,2.6705446243286133,2.6639928817749023,0.10611981153488159,1.5760455131530762, 2.867027759552002
153,1522641362,0.79417795,0.18140383,-0.5563926,0.16371135,14.98477554321289,2.529297351837158,2.8294122219085693,-1.3760039806365967,1.4408231973648071, 2.334578514099121
154,1522658029,0.79425067,0.18113652,-0.5563531,0.16378854,15.240667343139648,2.5611519813537598,2.64469313621521,-0.750413715839386,1.3419967889785767, 1.6556881666183472
155,1522674696,0.79431033,0.1811523,-0.5561798,0.16407073,15.021986961364746,2.3165035247802734,2.7298355102539062,1.6987688541412354,1.9550238847732544, 1.522924780845642
156,1522691363,0.7943373,0.18116151,-0.55607843,0.16427279,14.762106895446777,2.70206356048584,2.7460007667541504,1.3528691530227661,1.3478363752365112, 1.2432979345321655
157,1522708030,0.7943593,0.1811009,-0.55604905,0.16433243,14.927070617675781,2.760274887084961,2.807415008544922,0.031164249405264854,0.8018247485160828, 0.7241029739379883
158,1522724697,0.7944155,0.18086335,-0.55610865,0.16412129,15.010393142700195,2.663790702819824,2.672374963760376,-1.9301856756210327,0.32656827569007874, 0.05991449952125549
159,1522741364,0.79455733,0.18067959,-0.5559956,0.16402055,15.195149421691895,2.501418113708496,2.455040216445923,-1.1220794916152954,1.6775870323181152, 0.14958456158638
160,1522758031,0.7946409,0.18080238,-0.55575895,0.16428131,15.075531959533691,2.549537181854248,2.59155011177063,2.1514346599578857,2.242461919784546, 0.8657538890838623
161,1522774698,0.7947541,0.18082808,-0.5555105,0.16454588,14.475732803344727,2.931467056274414,2.6312458515167236,1.7306309938430786,2.5520811080932617, 1.2502135038375854
162,1522791365,0.7948307,0.18055649,-0.55546486,0.16462865,14.795939445495605,2.8718807697296143,2.639355421066284,-1.01291823387146,1.3916853666305542, 1.6148104667663574
163,1522808032,0.7948503,0.1804036,-0.55542403,0.16483867,14.937268257141113,2.660909414291382,2.6647400856018066,0.28325724601745605,1.1855541467666626, 1.9678046703338623
164,1522824699,0.7948117,0.18033928,-0.5553925,0.16520157,14.662981033325195,2.535137891769409,2.69948673248291,1.4842238426208496,1.0150247812271118, 2.56980562210083
165,1522841366,0.7947467,0.18022813,-0.5554169,0.16555241,14.400215148925781,2.9322915077209473,2.4990551471710205,1.235294222831726,0.6590083837509155, 2.8117434978485107
166,1522858033,0.7946905,0.17987902,-0.5555489,0.1657589,14.812976837158203,2.6835570335388184,2.4893417358398438,-0.8828313946723938,0.1899886280298233, 3.0206403732299805
167,1522874700,0.79466575,0.17941305,-0.55565155,0.16603838,14.701133728027344,2.4622843265533447,2.510866641998291,-1.2547791004180908,0.7029727101325989, 3.79634690284729
168,1522891367,0.79464376,0.17893283,-0.5557264,0.16641168,14.506360054016113,2.5272018909454346,2.346572160720825,-0.8805774450302124,1.0127966403961182, 4.34873628616333
169,1522908034,0.794608,0.1785503,-0.5557758,0.16682716,14.430493354797363,2.744076728820801,2.3891539573669434,-0.2919079661369324,1.0353485345840454, 4.141989707946777
170,1522924701,0.7946001,0.17824806,-0.5557423,0.16729872,14.425232887268066,2.2911152839660645,2.4835968017578125,0.4686804413795471,1.586226463317871, 4.03273868560791
171,1522941368,0.79457766,0.1779679,-0.5557538,0.16766547,14.443778038024902,2.507349967956543,2.4332516193389893,0.16271108388900757,1.1399765014648438, 3.449601888656616
172,1522958035,0.7945221,0.17780384,-0.5557836,0.16800329,14.332673072814941,2.5269100666046143,2.4353294372558594,0.7613312005996704,0.7592566013336182, 2.9325969219207764
173,1522974702,0.7944664,0.17762399,-0.55583817,0.16827638,14.311266899108887,2.303988456726074,2.4321274757385254,0.3595062494277954,0.5688004493713379, 2.6622416973114014
174,1522991369,0.794423,0.17728814,-0.55604047,0.16816694,14.416443824768066,2.4756693840026855,2.606154441833496,-2.1177220344543457,-0.4663560390472412, 1.344429850578308
175,1523008036,0.79438025,0.17729561,-0.5560524,0.16832195,14.388138771057129,2.29370379447937,2.2238104343414307,1.0064448118209839,0.511261522769928, 1.2558996677398682
176,1523024703,0.7942971,0.17748411,-0.55600566,0.16866913,13.958041191101074,2.562499523162842,2.4144983291625977,2.7225208282470703,0.7064046263694763, 1.5477945804595947
177,1523041370,0.7941434,0.17747462,-0.55615324,0.16891679,13.885498046875,2.564256429672241,2.3059136867523193,0.8548943400382996,-0.5298627614974976, 1.9970030784606934
178,1523058037,0.7939689,0.1771713,-0.55649513,0.16892856,14.119064331054688,2.619154691696167,2.5880038738250732,-1.6969051361083984,-1.5916242599487305, 2.1571974754333496
179,1523074704,0.79381096,0.17671743,-0.55684346,0.16899884,14.175978660583496,2.409851312637329,2.2184019088745117,-2.354140520095825,-1.3132401704788208, 3.0410282611846924
180,1523091371,0.7936425,0.17642333,-0.55706334,0.16937211,14.029085159301758,2.3312158584594727,2.0760984420776367,-0.03885447233915329,-0.44727465510368347, 3.9852917194366455
181,1523108038,0.7934433,0.17634708,-0.5571504,0.1700969,13.874384880065918,2.45733904838562,2.253040075302124,2.456392288208008,0.32232943177223206, 4.863550662994385
182,1523124705,0.7932752,0.17610353,-0.5572647,0.17075811,13.634982109069824,2.522190809249878,2.2438406944274902,1.133061170578003,0.40473830699920654, 5.122482776641846
183,1523141372,0.7930749,0.17564917,-0.5575401,0.17125694,13.77086353302002,2.343604803085327,2.178961992263794,-0.9020153880119324,-0.5580111742019653, 5.2419281005859375
184,1523158039,0.7928439,0.17518057,-0.5578876,0.17167366,14.040617942810059,2.166686773300171,2.2783732414245605,-1.0662567615509033,-1.131966233253479, 5.065981388092041
185,1523174706,0.792625,0.17480949,-0.5581809,0.17210992,13.91178035736084,2.0022828578948975,2.1093828678131104,-0.5541180372238159,-0.8937680125236511, 4.663785457611084
186,1523191373,0.7923991,0.17483494,-0.55831456,0.17268912,13.717463493347168,2.0784080028533936,1.9819351434707642,2.436286211013794,-0.34122514724731445, 3.7584264278411865
187,1523208040,0.7921463,0.17495377,-0.55847996,0.17319268,13.77362060546875,2.1643247604370117,2.2942276000976562,2.6023077964782715,-0.8205156326293945, 3.0373268127441406
188,1523224707,0.791939,0.17505231,-0.5586349,0.17354153,13.762826919555664,2.04838228225708,2.198148488998413,1.948889970779419,-0.7469816207885742, 2.236520528793335
189,1523241374,0.7917449,0.17564896,-0.5585752,0.17401588,13.775123596191406,2.0962119102478027,2.1671273708343506,5.151066780090332,0.012390145100653172, 0.6489682197570801
190,1523258041,0.7917008,0.17676723,-0.5581431,0.17446911,13.840058326721191,2.2374534606933594,2.201918363571167,8.372786521911621,1.9818918704986572, -2.0316765308380127
191,1523274708,0.7916773,0.17777541,-0.5576976,0.17497636,13.545991897583008,2.198918581008911,1.7233942747116089,7.972101211547852,2.3333237171173096, -1.3547582626342773
192,1523291375,0.79159087,0.17840588,-0.5574856,0.17540056,13.45172119140625,2.2162652015686035,2.2380731105804443,5.495185852050781,1.19230318069458, 0.03930909186601639
193,1523308042,0.79142636,0.1788063,-0.55750835,0.1756621,13.615116119384766,2.235726833343506,2.2659194469451904,3.4780828952789307,-0.3040355443954468, 0.436190664768219
194,1523324709,0.7912726,0.17920473,-0.5575254,0.17589493,13.398185729980469,2.072108745574951,2.1915628910064697,3.320039749145508,-0.26504021883010864, 0.2594374418258667
195,1523341376,0.79104304,0.1794661,-0.55771804,0.17605016,13.558087348937988,2.1140897274017334,2.0017428398132324,2.184487819671631,-1.4369237422943115, 0.6798186898231506
196,1523358043,0.7906663,0.18026818,-0.55784786,0.17651089,13.561473846435547,1.9092005491256714,2.330522298812866,6.347692489624023,-1.9421472549438477, 0.2975876033306122
197,1523374710,0.79013836,0.18134154,-0.55811405,0.17693317,13.278014183044434,1.816741943359375,2.1610827445983887,8.052820205688477,-3.614119529724121, -0.4802382290363312
198,1523391377,0.78947777,0.18235882,-0.5586409,0.17717327,13.435541152954102,1.946940302848816,2.2001938819885254,6.705770492553711,-5.7064337730407715, -0.839584469795227
199,1523408044,0.7887755,0.1831149,-0.5594138,0.17708345,13.346826553344727,2.383699655532837,2.0223357677459717,3.7083804607391357,-7.296906471252441, -1.2916361093521118
200,1523424711,0.7880432,0.18388128,-0.5602158,0.17701478,13.201483726501465,2.258256196975708,1.9643062353134155,3.961817979812622,-7.54000997543335, -1.0946869850158691
201,1523441378,0.78735054,0.18493012,-0.56076103,0.17727762,13.258339881896973,2.515941619873047,1.2736966609954834,7.008897304534912,-5.91355037689209, -0.7604027986526489
202,1523458045,0.78656584,0.18575531,-0.56145555,0.177699,13.121177673339844,2.0502395629882812,1.489260196685791,6.2764506340026855,-6.582452297210693, 1.2515712976455688
203,1523474712,0.7856344,0.18658577,-0.562332,0.17817733,13.126798629760742,1.9345566034317017,1.810949444770813,6.610902309417725,-8.04141616821289, 1.991727352142334
204,1523491379,0.7845086,0.18766448,-0.56335163,0.17878279,13.018091201782227,1.923081636428833,1.826595664024353,8.267098426818848,-9.71549129486084, 2.056156635284424
205,1523508046,0.783327,0.18849327,-0.56462073,0.179088,12.90890884399414,1.9533419609069824,1.8583316802978516,5.737267017364502,-11.334611892700195, 1.863587737083435
206,1523524713,0.78210354,0.18934251,-0.5660005,0.1791839,12.763580322265625,2.2404587268829346,1.4504258632659912,4.661507606506348,-12.403326988220215, 0.7592184543609619
207,1523541380,0.7808775,0.18991041,-0.5675425,0.17905304,12.727450370788574,1.9914674758911133,1.5808014869689941,1.925762414932251,-13.229915618896484, 0.8138248324394226
208,1523558047,0.77959454,0.19063021,-0.56911415,0.17888992,12.668323516845703,1.966845154762268,1.2507086992263794,2.8406870365142822,-13.817635536193848, 0.21862371265888214
209,1523574714,0.77820843,0.19174625,-0.5706275,0.17891133,12.911552429199219,1.7627569437026978,1.5834803581237793,5.642602920532227,-14.154753684997559, -0.36452022194862366
210,1523591381,0.77651995,0.1933177,-0.572302,0.17920838,12.618295669555664,1.9241987466812134,1.7070637941360474,9.406332969665527,-16.390945434570312, -0.08180706202983856
211,1523608048,0.7747316,0.19466832,-0.5743019,0.17908852,11.992218017578125,2.1946513652801514,1.3500653505325317,6.35848331451416,-18.8057804107666, -0.8712427616119385
212,1523624715,0.7728707,0.19618556,-0.5763101,0.17902185,12.540525436401367,1.8656284809112549,0.7962568402290344,7.469461441040039,-19.278553009033203, -1.1578238010406494
213,1523641382,0.7707655,0.198294,-0.5782892,0.17939277,12.545638084411621,1.969443440437317,1.4069355726242065,12.613516807556152,-20.22811508178711, -0.9421266317367554
214,1523658049,0.76861554,0.20039392,-0.5803815,0.17952764,11.854886054992676,2.4520576000213623,1.0758315324783325,11.61914348602295,-21.321630477905273, -1.9331226348876953
215,1523674716,0.7667115,0.20214096,-0.58238053,0.17923644,11.970344543457031,1.7507747411727905,0.3506566286087036,7.975737571716309,-19.996213912963867, -3.160176992416382
216,1523691383,0.7647482,0.20463237,-0.58407927,0.17926846,11.732843399047852,2.350804328918457,1.481340765953064,13.545845985412598,-19.11587142944336, -4.810778617858887
217,1523708050,0.7635787,0.20548327,-0.5856799,0.1780541,12.559969902038574,2.1215574741363525,-0.4244987666606903,-1.2618234157562256,-15.178611755371094, -5.918933391571045
218,1523724717,0.76245993,0.20766592,-0.5864372,0.17782366,12.81130599975586,1.4645012617111206,-0.9213507771492004,10.77924919128418,-10.751363754272461, -7.345844745635986
219,1523741384,0.761159,0.21089134,-0.58674455,0.17858484,13.084956169128418,0.9401812553405762,0.4020722806453705,21.011411666870117,-8.950822830200195, -6.797367572784424
220,1523758051,0.75933737,0.21483134,-0.5873093,0.17978424,11.041409492492676,1.3929965496063232,2.8591065406799316,27.172466278076172,-12.619227409362793, -6.366915225982666
221,1523774718,0.7578245,0.21684043,-0.58881724,0.17882048,10.795032501220703,4.201508522033691,1.57272207736969,6.7729997634887695,-17.165283203125, -8.858650207519531
222,1523791385,0.75640404,0.21822427,-0.5903652,0.17804573,11.733872413635254,2.4250552654266357,0.48894375562667847,4.064297676086426,-15.980189323425293, -5.339011192321777
223,1523808052,0.7552116,0.21857254,-0.5919375,0.17745864,12.024998664855957,2.597571849822998,0.37745189666748047,-1.332194209098816,-13.66380786895752, -0.4589030146598816
224,1523824719,0.75447285,0.21746519,-0.5934559,0.17688954,11.905216217041016,2.50897479057312,-1.242531657218933,-9.430167198181152,-9.728311538696289, 4.951047420501709
225,1523841386,0.75392944,0.21648131,-0.5944479,0.17708209,11.280122756958008,2.602236032485962,-0.5737943649291992,-5.442739009857178,-5.176341533660889, 7.390719890594482
226,1523858053,0.7536164,0.21546634,-0.59506935,0.17756446,11.584707260131836,1.8243321180343628,-0.4076906144618988,-4.521628379821777,-1.8395172357559204, 8.16137981414795
227,1523874720,0.7531909,0.21467043,-0.59567744,0.1782939,10.266729354858398,2.3050005435943604,0.26644474267959595,-1.871686577796936,-2.0849509239196777, 8.690332412719727
228,1523891387,0.75283706,0.21297655,-0.59667015,0.17849995,10.21824836730957,2.1410508155822754,0.4714694023132324,-9.45300006866455,-3.473583221435547, 10.123661994934082
229,1523908054,0.7525939,0.21079382,-0.59778976,0.17837088,10.935060501098633,1.814557433128357,0.02419973537325859,-13.693267822265625,-3.5744733810424805, 10.459205627441406
230,1523924721,0.7522788,0.20909649,-0.598611,0.17894219,11.455509185791016,1.6649802923202515,-0.642777681350708,-8.396411895751953,-1.9345415830612183, 11.68313217163086
231,1523941388,0.7517632,0.20814802,-0.59919673,0.18024969,10.48542594909668,0.7523077130317688,0.8454439640045166,-0.7489156723022461,-1.360188603401184, 12.32533073425293
232,1523958055,0.7512577,0.20717278,-0.5999477,0.18098122,8.70918083190918,2.7593517303466797,-0.07064328342676163,-3.540841817855835,-2.9777209758758545, 9.65776538848877
233,1523974722,0.7513247,0.20476937,-0.60058326,0.18133026,11.132457733154297,1.2688288688659668,-0.6486464738845825,-12.856743812561035,1.2336945533752441, 12.750828742980957
234,1523991389,0.75170857,0.2023472,-0.60063314,0.18229055,11.217741012573242,1.5724836587905884,-0.7038852572441101,-10.643062591552734,6.458935737609863, 14.693774223327637
235,1524008056,0.75233257,0.20009258,-0.6001254,0.18387118,10.113460540771484,1.2099589109420776,-0.8189643621444702,-6.589811325073242,11.032936096191406, 16.154817581176758
236,1524024723,0.7528127,0.19876626,-0.5992846,0.18607266,8.513029098510742,1.4825221300125122,1.3298828601837158,1.3671884536743164,11.875900268554688, 15.24989128112793
237,1524041390,0.7539641,0.19542108,-0.5988565,0.18633221,9.628281593322754,2.9391674995422363,-0.21888230741024017,-18.50434684753418,12.405904769897461, 13.22911262512207
238,1524058057,0.75546914,0.19158056,-0.5980161,0.18692319,10.985462188720703,0.8213974237442017,-0.6467791795730591,-19.726543426513672,17.09725570678711, 16.014257431030273
239,1524074724,0.75726086,0.1882239,-0.5963118,0.18852118,10.496174812316895,0.5388375520706177,-0.9523281455039978,-12.248367309570312,23.511201858520508, 17.74372673034668
240,1524091391,0.75917274,0.18608986,-0.5938166,0.19081305,9.09677505493164,0.3797396421432495,0.3886534571647644,-2.2302589416503906,27.482242584228516, 15.130592346191406
241,1524108058,0.7611236,0.18459633,-0.5911937,0.19262706,7.73939847946167,1.7145209312438965,1.3751709461212158,-0.7093841433525085,26.860925674438477, 9.782036781311035
242,1524124725,0.7636512,0.18166031,-0.5887734,0.19282721,9.649209022521973,0.8558763265609741,-0.14269161224365234,-15.728857040405273,27.979246139526367, 6.7227253913879395
243,1524141392,0.7662752,0.18020615,-0.5855023,0.19373982,9.564359664916992,0.05161503702402115,0.10419677197933197,-4.091310501098633,31.790098190307617, 3.25774884223938
244,1524158059,0.76885575,0.18022802,-0.5815911,0.19527048,9.149800300598145,0.3911597728729248,0.528218150138855,7.060227394104004,33.80956268310547, -0.20208503305912018
245,1524174726,0.77073133,0.18133245,-0.5780862,0.19725223,7.943763732910156,1.014283537864685,2.849700450897217,15.013775825500488,27.957609176635742, -0.7037882208824158
246,1524191393,0.7722254,0.18012662,-0.5763245,0.19766806,7.043492317199707,2.941093921661377,2.140610933303833,-5.199525356292725,18.325162887573242, 2.8962175846099854
247,1524208060,0.7736981,0.17621318,-0.5759663,0.19647631,8.106452941894531,2.311938762664795,-0.5210755467414856,-27.887596130371094,12.437137603759766, 6.907222747802734
248,1524224727,0.7743748,0.17334521,-0.5758746,0.19663014,8.301716804504395,2.278103828430176,-0.34719905257225037,-16.476360321044922,8.132718086242676, 11.349807739257812
249,1524241394,0.77423155,0.16900496,-0.5774811,0.19626127,7.702544689178467,2.153968572616577,3.003237247467041,-27.791000366210938,-2.7407102584838867, 17.554094314575195
250,1524258061,0.7736854,0.16215898,-0.58061814,0.19493093,5.149844646453857,2.146318197250366,4.815562725067139,-46.58732223510742,-10.275151252746582, 24.742265701293945
251,1524274728,0.7729178,0.15493487,-0.584079,0.19350779,8.3053560256958,0.30529406666755676,1.442051887512207,-49.21927261352539,-12.596521377563477, 26.45232582092285
252,1524291395,0.77196676,0.14961985,-0.58701986,0.19258513,8.07371711730957,-1.8829728364944458,1.60831618309021,-36.124881744384766,-12.56987476348877, 21.136615753173828
253,1524308062,0.77117574,0.14656967,-0.5890821,0.1918014,7.33106803894043,-1.9917417764663696,0.6456047296524048,-22.427919387817383,-10.121562957763672, 11.564042091369629
254,1524324729,0.77067417,0.14555372,-0.59019035,0.19118294,7.815369129180908,-1.4674475193023682,-0.5078082084655762,-9.91060733795166,-6.390742778778076, 2.800974130630493
255,1524341396,0.7711503,0.14525619,-0.59002227,0.19000474,8.36817455291748,-1.175455093383789,-1.6707806587219238,-7.752659320831299,2.8981614112854004, -5.711852073669434
256,1524358063,0.7722201,0.14756356,-0.5878743,0.19053869,8.48542594909668,-0.5809975862503052,-1.3556219339370728,15.115970611572266,14.19596004486084, -9.982464790344238
257,1524374730,0.773484,0.1509587,-0.5847875,0.19224396,7.049520015716553,0.965681791305542,0.7278040647506714,26.552274703979492,19.818872451782227, -9.419878005981445
258,1524391397,0.77507216,0.15302029,-0.5817305,0.19348827,5.962643623352051,2.545311450958252,0.17642216384410858,17.088581085205078,22.263254165649414, -6.9193925857543945
259,1524408064,0.77722067,0.15251388,-0.5787975,0.19406497,6.768102169036865,3.3131349086761475,-0.6384864449501038,-0.03953329846262932,26.572696685791016, -0.7591239213943481
260,1524424731,0.77963686,0.15107526,-0.5754264,0.19551887,7.144222259521484,2.4851772785186768,-1.0360828638076782,-1.3264610767364502,32.20115661621094, 6.889144420623779
261,1524441398,0.7816376,0.1503361,-0.5719172,0.1983754,7.791033744812012,0.2611410319805145,0.39813536405563354,8.572051048278809,31.886329650878906, 12.105682373046875
262,1524458065,0.78273207,0.1511589,-0.5687727,0.20243375,3.2749576568603516,1.393289566040039,4.182505130767822,22.111217498779297,25.51179313659668, 14.005620956420898
263,1524474732,0.7841665,0.14835678,-0.5672252,0.20329559,5.628486156463623,1.2240899801254272,1.0479110479354858,-12.42504596710205,19.833593368530273, 12.196547508239746
264,1524491399,0.7853039,0.14600568,-0.5659973,0.20402767,7.630309581756592,-1.781875491142273,1.0059987306594849,-10.682064056396484,16.194969177246094, 10.490179061889648
265,1524508066,0.7858736,0.14599258,-0.5647748,0.2052278,7.514492034912109,-1.8629361391067505,0.4701553285121918,4.364668846130371,11.170774459838867, 4.644411087036133
266,1524524733,0.78499794,0.15021059,-0.5638837,0.20796686,4.74749755859375,-2.7390215396881104,4.564682483673096,34.09989547729492,-0.6034761071205139, -1.2066320180892944
267,1524541400,0.78420484,0.15270096,-0.56411016,0.20853096,1.8513511419296265,2.1034293174743652,3.683133363723755,14.788127899169922,-6.230884552001953, -5.293983459472656
268,1524558067,0.78378236,0.1532831,-0.5650379,0.20717631,6.839931011199951,-0.11769722402095795,-1.0240033864974976,-4.361717224121094,-7.979703903198242, -7.9682936668396
269,1524574734,0.7828051,0.15696926,-0.5650192,0.20815973,6.512825965881348,0.2868570387363434,-0.18858332931995392,23.307859420776367,-6.890395164489746, -7.666744232177734
270,1524591401,0.7808645,0.16186681,-0.56548244,0.21042724,5.496414661407471,0.6945911049842834,2.9023773670196533,35.42523956298828,-13.548663139343262, -3.5019147396087646
271,1524608068,0.7784468,0.16602898,-0.56690437,0.21230766,2.9105725288391113,2.2540347576141357,2.929551124572754,28.980424880981445,-19.9632625579834, -0.9827634692192078
272,1524624735,0.77613574,0.16819416,-0.5693482,0.21252485,4.42106294631958,3.465797185897827,-0.41389167308807373,10.480070114135742,-24.128299713134766, -0.9439584016799927
273,1524641402,0.7738674,0.16944577,-0.572019,0.21263042,5.665022850036621,1.5793675184249878,-1.035742163658142,4.531094551086426,-23.890064239501953, 2.301478624343872
274,1524658069,0.7710442,0.17188312,-0.5745046,0.21422355,5.552809715270996,0.12284702062606812,0.6701350212097168,17.638317108154297,-25.00896644592285, 6.2032318115234375
275,1524674736,0.7678681,0.17430772,-0.5773348,0.21605556,3.8751964569091797,0.5315370559692383,2.210225820541382,18.548093795776367,-27.92475700378418, 8.462848663330078
276,1524691403,0.76522416,0.17434958,-0.5808105,0.2160875,3.679718255996704,1.5965962409973145,0.09734390676021576,-2.8612029552459717,-27.883270263671875, 8.39149284362793
277,1524708070,0.7628491,0.17392029,-0.5841679,0.2157808,5.149217128753662,0.257741779088974,-0.7759689688682556,-6.891536712646484,-25.86953353881836, 7.995453834533691
278,1524724737,0.76055026,0.17468734,-0.5868214,0.21607485,5.207077503204346,-1.0413620471954346,-1.8307161331176758,2.680649757385254,-22.85010528564453, 5.374125003814697
279,1524741404,0.75784034,0.17800745,-0.5887978,0.21750544,5.269493579864502,-1.9833533763885498,-0.8124682903289795,21.963281631469727,-23.2652645111084, 0.7321351766586304
280,1524758071,0.7551592,0.18191944,-0.59037143,0.21932071,3.1013126373291016,-0.18152707815170288,2.534435749053955,27.236099243164062,-21.40608024597168, -0.2773098349571228
281,1524774738,0.7535952,0.18300278,-0.59223825,0.21876554,4.127173900604248,0.7288191914558411,-1.148463249206543,1.30535888671875,-17.217424392700195, -2.398669958114624
282,1524791405,0.75222784,0.18494703,-0.5934752,0.21848406,4.746819496154785,0.6068553328514099,-1.9305267333984375,7.420677185058594,-14.015483856201172, -5.5748772621154785
283,1524808072,0.75025624,0.18985152,-0.59371656,0.22039205,4.020122051239014,-0.29854726791381836,-0.7028890252113342,33.881282806396484,-12.88753890991211, -6.680860996246338
284,1524824739,0.74821615,0.19558728,-0.5933102,0.22338665,2.2254607677459717,0.07560010254383087,3.9972026348114014,43.818939208984375,-9.645312309265137, -5.21906042098999
285,1524841406,0.7470018,0.20001695,-0.592567,0.22549091,3.0484085083007812,2.062908172607422,0.25481727719306946,33.01999282836914,-3.9248673915863037, -6.183852672576904
286,1524858073,0.7458483,0.20371188,-0.59202856,0.22740693,5.098699569702148,0.3288225829601288,-2.156231641769409,28.357635498046875,-3.893026113510132, -3.854863166809082
287,1524874740,0.744376,0.207347,-0.591684,0.22983025,5.165256023406982,-0.3578678369522095,-1.2451682090759277,30.546724319458008,-5.300872802734375, -0.20532485842704773
288,1524891407,0.74244004,0.21083815,-0.5918876,0.23237728,3.0703275203704834,-0.48662567138671875,2.741032361984253,30.20668601989746,-9.519505500793457, 2.5030736923217773
289,1524908074,0.7411845,0.21175046,-0.5927983,0.23323263,2.053481340408325,2.2276220321655273,1.703472375869751,8.263500213623047,-8.83489990234375, 4.291775226593018
290,1524924741,0.73990005,0.21135849,-0.594369,0.2336688,3.3819119930267334,1.6409295797348022,-0.3578009605407715,-1.3314385414123535,-10.879756927490234, 8.54055404663086
291,1524941408,0.7383805,0.21012594,-0.59667337,0.23371412,3.456160306930542,1.0574833154678345,-0.20731747150421143,-8.030707359313965,-14.764884948730469, 11.495975494384766
292,1524958075,0.7366106,0.20765395,-0.6001667,0.2325614,3.3709094524383545,1.2620991468429565,0.08701969683170319,-20.988279342651367,-21.5140323638916, 12.635336875915527
293,1524974742,0.7347892,0.20463315,-0.60415405,0.23066932,1.3980884552001953,-0.1475440114736557,2.2380547523498535,-27.649349212646484,-24.38150978088379, 11.984763145446777
294,1524991409,0.73353744,0.20108622,-0.6078664,0.22800384,1.604862093925476,-0.3184436559677124,0.9477442502975464,-34.27777099609375,-20.920475006103516, 8.930323600769043
295,1525008076,0.7323881,0.19850995,-0.61099565,0.22557934,3.790789842605591,-0.4697473645210266,-1.2485085725784302,-27.902280807495117,-18.730375289916992, 5.08809232711792
296,1525024743,0.7308501,0.19720612,-0.61371756,0.22431861,3.7548136711120605,0.04591842740774155,-0.4831928014755249,-15.50460433959961,-18.60636329650879, 5.625823020935059
297,1525041410,0.72918564,0.19502895,-0.6170614,0.22245772,3.2164509296417236,0.6274973750114441,-0.1790512055158615,-23.294652938842773,-21.674222946166992, 7.338608741760254
298,1525058077,0.72734356,0.19296512,-0.6203993,0.22099991,1.2566626071929932,0.7841017246246338,1.6893011331558228,-20.790605545043945,-22.00547218322754, 9.179885864257812
299,1525074744,0.7264552,0.18945853,-0.623475,0.21828298,1.5969525575637817,2.1916823387145996,-0.5878229737281799,-34.229923248291016,-16.193700790405273, 7.287984371185303
300,1525091411,0.7258053,0.18601438,-0.6263291,0.21521436,3.3313210010528564,1.0422637462615967,-2.098510503768921,-35.35784912109375,-14.605780601501465, 4.732834339141846
301,1525108078,0.72508943,0.18306787,-0.6290495,0.21219909,3.9271228313446045,-0.09370557218790054,-2.2592413425445557,-32.20731735229492,-14.823877334594727, 2.8342819213867188
302,1525124745,0.7235244,0.18230584,-0.6317424,0.21018744,3.0968308448791504,-1.5518593788146973,1.0646836757659912,-15.803765296936035,-20.195148468017578, -0.4198059141635895
303,1525141412,0.722642,0.1801389,-0.6343741,0.20714267,0.8187054395675659,0.03293129801750183,2.851003885269165,-28.095273971557617,-16.25374984741211, -0.6072152853012085
304,1525158079,0.72245663,0.1767468,-0.6368316,0.20313199,2.165048360824585,0.16931040585041046,-2.687969923019409,-38.098812103271484,-12.171504974365234, -1.3093156814575195
305,1525174746,0.72252315,0.17521434,-0.6381301,0.20012581,2.0429296493530273,-1.1567133665084839,-0.5337046384811401,-23.149795532226562,-6.5929155349731445, -6.234118938446045
306,1525191413,0.72329736,0.17600635,-0.63721067,0.19956307,1.6489874124526978,-2.4211761951446533,1.0495558977127075,1.3262838125228882,7.26348876953125, -8.018916130065918
307,1525208080,0.72491413,0.17846629,-0.63379896,0.20235722,2.142839193344116,-2.828295946121216,-0.7131191492080688,26.744579315185547,25.036487579345703, -2.93973708152771
308,1525224747,0.72797686,0.18006654,-0.6285599,0.20624803,0.780195415019989,2.017548084259033,1.4816755056381226,28.025897979736328,42.987388610839844, 1.8742585182189941
309,1525241414,0.73414713,0.17583981,-0.62235177,0.2068504,2.1536455154418945,3.431941509246826,0.8515380024909973,-18.660825729370117,65.53529357910156, 5.099411964416504
310,1525258081,0.73856926,0.1765984,-0.6154225,0.21114914,1.8988138437271118,0.05374825745820999,-6.64605712890625,25.329030990600586,59.03927993774414, 4.161592960357666
311,1525274748,0.7413634,0.17818889,-0.6096893,0.21658292,1.826862096786499,0.9176123738288879,2.1322474479675293,34.463134765625,46.5376091003418, 10.18267822265625
312,1525291415,0.7440368,0.17615388,-0.60631007,0.21855716,3.161475419998169,0.29106974601745605,0.21777410805225372,-1.9244576692581177,35.082069396972656, 10.813253402709961
313,1525308082,0.7454697,0.17403676,-0.6051276,0.21864831,3.2973928451538086,-2.307265520095825,1.3837144374847412,-12.001887321472168,16.49541664123535, 6.032818794250488
314,1525324749,0.74486953,0.17545536,-0.60495955,0.22002006,1.9396991729736328,-4.148553848266602,5.006472587585449,12.455072402954102,-1.0286065340042114, 2.0480756759643555
315,1525341416,0.7439805,0.17781301,-0.60467714,0.22190379,-0.5462475419044495,0.43856650590896606,1.1408934593200684,19.78508949279785,-2.6140100955963135, 0.8930712342262268
316,1525358083,0.7435177,0.1775398,-0.6054433,0.2215847,0.13532675802707672,1.5107444524765015,-1.3256161212921143,-4.927602291107178,-4.955392360687256, 1.2157516479492188
317,1525374750,0.7419185,0.17782272,-0.6076577,0.22065392,0.7021609544754028,1.0324925184249878,0.15396401286125183,-5.461095333099365,-18.64594078063965, -0.6632929444313049
318,1525391417,0.73832655,0.17801018,-0.6127309,0.21851093,0.6991441249847412,0.6089024543762207,5.075662136077881,-12.896121978759766,-42.91272735595703, 0.11813300848007202
319,1525408084,0.7330312,0.17597657,-0.620828,0.21510515,4.659666061401367,4.45403528213501,3.199342727661133,-31.88020896911621,-63.85578155517578, 9.361120223999023
320,1525424751,0.7288537,0.17084427,-0.6285733,0.21090347,3.5227718353271484,4.8813300132751465,-1.9967269897460938,-51.6171760559082,-53.8091926574707, 16.66729164123535
321,1525441418,0.72639847,0.17188652,-0.63049275,0.21278994,3.491482973098755,1.3204389810562134,-3.6075761318206787,12.932428359985352,-19.114381790161133, 11.261822700500488
322,1525458085,0.72338414,0.18451962,-0.62691784,0.22280504,4.175442218780518,4.465315341949463,-0.6757433414459229,114.75897979736328,-1.296523928642273, -4.044125556945801
323,1525474752,0.71774495,0.20796333,-0.62179166,0.23445395,2.5342094898223877,11.622246742248535,1.770024061203003,180.16897583007812,-19.02934455871582, -40.27621078491211
324,1525491419,0.7091998,0.23860751,-0.6161515,0.24588503,3.9558374881744385,7.862155437469482,0.9670857191085815,219.57510375976562,-40.83139419555664, -67.83179473876953
325,1525508086,0.7034136,0.2589562,-0.6138017,0.24778688,-0.48917070031166077,9.812339782714844,5.865260124206543,120.30760955810547,-43.76567840576172, -69.82978057861328
326,1525524753,0.7100284,0.25169843,-0.616833,0.22808927,-6.432144641876221,4.925381660461426,8.689229965209961,-134.97784423828125,-9.24428653717041, -69.12126922607422
327,1525541420,0.7233256,0.23553349,-0.615812,0.20518182,-4.5209479331970215,-0.5281103253364563,6.293310165405273,-198.28538513183594,47.125370025634766, -64.35499572753906
328,1525558087,0.7373831,0.22700469,-0.60595286,0.19379455,-4.608535289764404,-5.68078088760376,2.4433436393737793,-101.41696166992188,102.11502075195312, -54.808773040771484
329,1525574754,0.7508051,0.22732574,-0.5894276,0.19284675,-4.5266523361206055,-3.5147407054901123,-5.991673469543457,-3.049292802810669,137.64573669433594, -48.62046813964844
330,1525591421,0.76299727,0.23069707,-0.57153076,0.19485046,-2.1593282222747803,-6.475368022918701,-13.89311695098877,29.070068359375,140.41409301757812, -46.47825622558594
331,1525608088,0.7688268,0.23718202,-0.55929446,0.19959982,-1.1691890954971313,-5.9805169105529785,-19.823699951171875,59.62807083129883,86.24397277832031, -27.059038162231445
332,1525624755,0.76915234,0.23639737,-0.55991876,0.1975147,-3.655482530593872,2.105430841445923,-21.42511558532715,-14.255464553833008,-3.3902275562286377, -6.947398662567139
333,1525641422,0.76235926,0.22974624,-0.578378,0.1774938,-3.0221221446990967,10.460087776184082,-41.881072998046875,-126.87055969238281,-145.74893188476562, -40.47060775756836
334,1525658089,0.7483046,0.23380876,-0.59740156,0.1687758,14.164595603942871,-15.857024192810059,14.025228500366211,-16.92934226989746,-171.45875549316406, -13.638522148132324
335,1525674756,0.7335675,0.2341893,-0.6168234,0.1629823,25.994426727294922,-19.345834732055664,0.9218642115592957,-21.53844451904297,-167.97535705566406, 17.318096160888672
336,1525691423,0.72266734,0.22049096,-0.63940865,0.14245182,8.999570846557617,-14.605411529541016,2.761892795562744,-165.8234100341797,-175.54034423828125, 2.9743804931640625
337,1525708090,0.7087968,0.23406924,-0.6494543,0.14500968,5.267001628875732,-4.1534576416015625,-5.090875625610352,89.2091064453125,-118.2466812133789, -18.935829162597656
338,1525724757,0.6987183,0.24270861,-0.65695906,0.14591214,-5.05404806137085,10.596132278442383,-2.0158724784851074,54.136985778808594,-86.6296615600586, -12.939289093017578
339,1525741424,0.69311094,0.2427968,-0.66340935,0.14330038,-2.242464065551758,4.264519691467285,-7.548211097717285,-9.246248245239258,-58.717559814453125, 2.9761111736297607
340,1525758091,0.69021344,0.24091138,-0.66738194,0.14201687,-1.04987633228302,4.109567165374756,-5.303696632385254,-14.701038360595703,-30.2634220123291, 11.694265365600586
341,1525774758,0.6882928,0.23724642,-0.67080474,0.14138044,3.2919161319732666,-0.21572467684745789,-1.5521868467330933,-21.260082244873047,-20.31502342224121, 21.23528289794922
342,1525791425,0.68626994,0.23131086,-0.6755233,0.13855551,2.371565818786621,0.3966343104839325,1.2947739362716675,-43.170623779296875,-28.347352981567383, 23.57559585571289
343,1525808092,0.6825533,0.22923659,-0.6804109,0.13642818,1.0178130865097046,-2.6251587867736816,1.4379504919052124,-19.1496639251709,-39.7313346862793, 10.84854793548584
344,1525824759,0.6769716,0.23153529,-0.6853973,0.13539326,0.47428756952285767,-1.5479010343551636,0.43338221311569214,9.348334312438965,-51.44222640991211, -2.6449718475341797
345,1525841426,0.6706615,0.23661187,-0.68988997,0.13520251,1.7632235288619995,-2.621713161468506,-0.9835110306739807,27.882715225219727,-53.92361068725586, -11.951330184936523
346,1525858093,0.6638024,0.24401131,-0.6936007,0.13690467,0.7005830407142639,-0.19733156263828278,-0.9300349354743958,49.18840408325195,-52.0606575012207, -15.082026481628418
347,1525874760,0.6555042,0.25244653,-0.69803524,0.13903923,1.4840071201324463,1.3395899534225464,2.318873405456543,57.70867919921875,-62.532615661621094, -15.480224609375
348,1525891427,0.6431645,0.263407,-0.7048543,0.1419044,3.2143328189849854,3.840895175933838,6.738926410675049,77.34851837158203,-93.97637939453125, -16.264711380004883
349,1525908094,0.6263348,0.27522036,-0.71541864,0.14189686,5.382358551025391,3.3154635429382324,9.29463005065918,71.72077941894531,-138.61825561523438, -21.828824996948242
350,1525924761,0.60536206,0.2871617,-0.7292354,0.13889135,8.34555435180664,-1.2234382629394531,10.304160118103027,62.25141143798828,-179.16041564941406, -25.08859634399414
351,1525941428,0.57999086,0.30075654,-0.74473304,0.13612099,11.690781593322754,-1.6447670459747314,8.24974250793457,77.4354248046875,-209.71778869628906, -24.946401596069336
352,1525958095,0.5533363,0.31363437,-0.76028544,0.13198024,15.699675559997559,0.1761985570192337,9.001152038574219,70.18087768554688,-219.010986328125, -25.50743293762207
353,1525974762,0.5270063,0.32890683,-0.77266157,0.13068597,15.542482376098633,0.8400612473487854,7.601403713226318,96.39506530761719,-201.658447265625, -34.37622833251953
354,1525991429,0.5029237,0.3440772,-0.78156203,0.1335643,8.616485595703125,-1.2412382364273071,10.606361389160156,116.27540588378906,-167.94921875, -28.59268569946289
355,1526008096,0.4807231,0.3587788,-0.78715754,0.1434094,2.57440447807312,-0.6071941256523132,-0.559084951877594,150.70619201660156,-129.8452606201172, -11.535115242004395
356,1526024763,0.46018216,0.3737416,-0.78930974,0.15981242,-0.204914391040802,3.365140914916992,10.898767471313477,186.3494415283203,-93.51966857910156, -1.347139835357666
357,1526041430,0.456777,0.3782898,-0.78737503,0.16820276,-1.238460659980774,2.6224496364593506,30.2369384765625,70.43251037597656,3.0552709102630615, 0.6479038000106812
358,1526058097,0.46395385,0.37506735,-0.78319126,0.17516467,1.321082353591919,3.196824550628662,20.20384407043457,13.494075775146484,71.98904418945312, 20.23941993713379
359,1526074764,0.48625335,0.3580057,-0.7794433,0.1669068,1.2072924375534058,6.562610149383545,18.063745498657227,-152.07688903808594,129.0223388671875, 29.155237197875977
360,1526091431,0.5143052,0.33690935,-0.77218086,0.16037226,1.493493676185608,-0.758059024810791,14.406538963317871,-166.37823486328125,180.11285400390625, 41.335174560546875
361,1526108098,0.54527223,0.31760213,-0.75861126,0.16222283,2.015303611755371,1.6881036758422852,12.570297241210938,-115.3480453491211,235.104736328125, 43.517608642578125
362,1526124765,0.5796323,0.2999481,-0.73855245,0.16911002,1.5949809551239014,-0.20765671133995056,9.495870590209961,-83.0433349609375,286.116943359375, 35.79443359375
363,1526141432,0.61433476,0.2899047,-0.7104379,0.18391865,0.48719698190689087,1.4696193933486938,3.5644302368164062,-3.8085381984710693,327.3891296386719, 11.680461883544922
364,1526158099,0.6492373,0.28466326,-0.6763961,0.19986567,1.221938133239746,0.19544729590415955,-0.9453073143959045,29.150789260864258,349.7261962890625, -18.946062088012695
365,1526174766,0.6824397,0.2830391,-0.6385889,0.21533515,1.887225866317749,-0.41984736919403076,-6.03655481338501,51.59001541137695,352.96575927734375, -42.86442947387695
366,1526191433,0.71307325,0.27873042,-0.60211694,0.22647563,2.34323787689209,-0.7878461480140686,-10.180418968200684,22.97708511352539,331.3254699707031, -44.941776275634766
367,1526208100,0.7402153,0.2663364,-0.5716045,0.23326996,3.427593946456909,0.5787298679351807,-10.643945693969727,-37.31494903564453,292.3631286621094, -15.922503471374512
368,1526224767,0.7643158,0.24325624,-0.5492016,0.23457527,3.480224370956421,0.04721252620220184,-13.228776931762695,-120.80834197998047,246.67611694335938, 17.84990882873535
369,1526241434,0.78474647,0.22021236,-0.53118336,0.23135272,4.002837181091309,2.1554393768310547,-17.044021606445312,-136.95242309570312,202.4663543701172, 6.648755073547363
370,1526258101,0.80042356,0.20182195,-0.5180819,0.22401163,3.0629663467407227,-1.7090390920639038,-20.391427993774414,-127.59308624267578,145.5493621826172, -17.451486587524414
371,1526274768,0.80854225,0.1892483,-0.5131938,0.21697192,2.1670048236846924,-1.3599133491516113,-25.320919036865234,-96.68894958496094,65.54872131347656, -13.477675437927246
372,1526291435,0.80875885,0.17872046,-0.5207554,0.2068377,1.2298612594604492,1.3160688877105713,-30.180992126464844,-104.94418334960938,-37.84212875366211, -9.863296508789062
373,1526308102,0.79766047,0.17727594,-0.54288226,0.19388102,7.205132961273193,7.534516334533691,-33.464271545410156,-73.86351776123047,-174.77333068847656, -23.5958194732666
374,1526324769,0.7831989,0.18970935,-0.5609276,0.18965818,14.821564674377441,-6.309376239776611,10.637874603271484,43.49924087524414,-171.82693481445312, -27.554597854614258
375,1526341436,0.76724416,0.20096354,-0.5798072,0.1864776,10.253656387329102,-2.261445999145508,-6.916869640350342,42.05658721923828,-179.47720336914062, -14.489889144897461
376,1526358103,0.75280356,0.20595343,-0.5993784,0.17780809,5.855916500091553,-1.8396458625793457,-6.162993431091309,-15.625187873840332,-176.4877471923828, -19.534330368041992
377,1526374770,0.7433507,0.20571877,-0.61443716,0.16606219,-0.8675347566604614,-2.8603384494781494,-7.067924976348877,-55.38022994995117,-130.51007080078125, -26.9774169921875
378,1526391437,0.7363722,0.21006931,-0.6230159,0.15961902,1.1687095165252686,0.47524628043174744,-8.293172836303711,-5.660121917724609,-84.5866928100586, -31.281246185302734
379,1526408104,0.73098624,0.2209005,-0.6255593,0.15980588,2.499502420425415,-0.7270584106445312,-5.25781774520874,59.82917785644531,-44.622920989990234, -35.93466567993164
380,1526424771,0.72702235,0.23250118,-0.6252018,0.16280201,2.213705539703369,-0.037842776626348495,-1.2686415910720825,76.77957916259766,-20.47854232788086, -31.16316795349121
381,1526441438,0.7246701,0.23986262,-0.6251056,0.16297983,3.3136117458343506,-1.3915776014328003,0.20258143544197083,40.59451675415039,-14.709599494934082, -28.451927185058594
382,1526458105,0.72042483,0.25085312,-0.6246909,0.16679983,1.9210153818130493,0.4971010982990265,1.4393059015274048,77.8160400390625,-19.448421478271484, -24.385658264160156
383,1526474772,0.71517164,0.2585296,-0.6272116,0.16821902,-0.8737964034080505,5.5735554695129395,2.691800594329834,49.46687698364258,-38.81861877441406, -15.83905029296875
384,1526491439,0.7105788,0.25788647,-0.6340085,0.1631129,-1.655288815498352,3.7420735359191895,2.002337694168091,-25.701135635375977,-59.169185638427734, -5.024312496185303
385,1526508106,0.7059906,0.2543437,-0.64220136,0.15641004,-1.3186008930206299,2.796603202819824,-1.5708767175674438,-48.389957427978516,-65.70927429199219, 2.437458038330078
386,1526524773,0.7007367,0.25362986,-0.6491148,0.15261215,-0.349842369556427,0.7752823829650879,-1.936191439628601,-19.289644241333008,-60.44108963012695, 2.639483690261841
387,1526541440,0.6955723,0.2539994,-0.655128,0.14990304,0.8406617045402527,-0.7653408050537109,-1.2667628526687622,-8.4172945022583,-54.965614318847656, 1.4191957712173462
388,1526558107,0.6898426,0.25657848,-0.6603411,0.14911163,1.1735470294952393,-1.4156984090805054,0.7041841745376587,12.610395431518555,-52.65377426147461, -0.20626120269298553
389,1526574774,0.6835096,0.2601992,-0.6655697,0.14875546,0.9733015298843384,-0.428743839263916,0.8363813757896423,20.594873428344727,-55.86359786987305, -2.281223773956299
390,1526591441,0.6762004,0.26569542,-0.67060894,0.14980939,0.9758046269416809,-0.6541491746902466,0.7051634192466736,37.81891632080078,-58.93578338623047, -3.605895519256592
391,1526608108,0.6678905,0.2719025,-0.67619413,0.15084173,0.9730693697929382,-0.7896255850791931,1.1985313892364502,42.3044548034668,-66.95409393310547, -4.992435455322266
392,1526624775,0.65871525,0.2769636,-0.68331397,0.14989232,1.7561357021331787,-1.4856634140014648,2.488668203353882,27.87059211730957,-80.6503677368164, -5.033895015716553
393,1526641442,0.64850396,0.28096345,-0.69220674,0.14612398,1.3760402202606201,-1.2993595600128174,2.980588912963867,9.985395431518555,-97.9693832397461, -8.423101425170898
394,1526658109,0.6366119,0.28491792,-0.70256984,0.14121924,1.5939494371414185,-1.5209765434265137,2.577277898788452,6.162589073181152,-114.83140563964844, -8.782109260559082
395,1526674776,0.62348336,0.28951344,-0.7133445,0.13634627,1.8739897012710571,-0.49171683192253113,2.106285810470581,11.156567573547363,-123.30435180664062, -9.775399208068848
396,1526691443,0.60920924,0.29536903,-0.7239892,0.13214053,2.166520833969116,1.2185792922973633,0.03978067636489868,22.24382972717285,-128.33889770507812, -12.292252540588379
397,1526708110,0.5939775,0.30155984,-0.7347249,0.12818679,3.3217074871063232,0.9819129109382629,1.7205684185028076,26.771812438964844,-133.3348846435547, -11.812507629394531
398,1526724777,0.5770958,0.30763352,-0.7463325,0.12373311,4.5068359375,1.4994513988494873,4.620795249938965,26.438745498657227,-146.2797393798828, -9.97860336303711
399,1526741444,0.5573126,0.3148113,-0.759033,0.11901885,5.431377410888672,1.7112916707992554,7.624724388122559,34.73110580444336,-167.20736694335938, -11.869919776916504
400,1526758111,0.53531176,0.32364175,-0.77166903,0.11499747,6.5193257331848145,0.4956948161125183,6.879858016967773,49.594520568847656,-178.68653869628906, -16.137142181396484
401,1526774778,0.51180977,0.33577347,-0.782482,0.11414424,6.921850204467773,-1.4056280851364136,6.661710262298584,83.38456726074219,-175.7786407470703, -24.875492095947266
402,1526791445,0.4879803,0.3499484,-0.7910083,0.1171213,9.692972183227539,-1.9242771863937378,7.742285251617432,113.75553131103516,-162.52005004882812, -27.470022201538086
403,1526808112,0.46285412,0.36564577,-0.79765046,0.12579063,13.780815124511719,1.36176335811615,13.541682243347168,154.48226928710938,-151.1151580810547, -20.204002380371094
404,1526824779,0.43973413,0.3788596,-0.80306005,0.1348845,10.979635238647461,5.509311676025391,15.93696403503418,145.01268005371094,-133.51002502441406, -10.030106544494629
405,1526841446,0.4192646,0.38533622,-0.8108387,0.13518089,4.574006080627441,3.7567355632781982,6.81074333190918,67.10850524902344,-143.2294464111328, 4.435889720916748
406,1526858113,0.39657995,0.3946336,-0.8162498,0.14396209,0.9996461272239685,1.663634181022644,0.866356611251831,130.69415283203125,-129.05343627929688, 9.078371047973633
407,1526874780,0.3852129,0.4016439,-0.8169788,0.15112531,2.9524986743927,10.351763725280762,20.97509765625,89.31009674072266,-54.81651306152344, -6.319206714630127
408,1526891447,0.3850328,0.40115863,-0.81694436,0.15304808,-0.7837677597999573,-0.5216251015663147,15.487638473510742,10.150262832641602,2.908292531967163, 8.429805755615234
409,1526908114,0.39259845,0.39942783,-0.81330645,0.15765949,-3.3019938468933105,7.173300266265869,16.1037654876709,4.369623184204102,64.45511627197266, 4.426112651824951
410,1526924781,0.41096598,0.39065507,-0.8088668,0.15565991,-1.4113960266113281,3.670539379119873,14.70067310333252,-80.2926254272461,116.3105697631836, 12.190659523010254
411,1526941448,0.43298697,0.38098788,-0.80131316,0.15895844,-0.6886992454528809,1.2458539009094238,10.793782234191895,-59.80963134765625,160.41412353515625, 19.891067504882812
412,1526958115,0.45822582,0.3710432,-0.7902044,0.16713248,0.3673710823059082,3.9998903274536133,6.5046162605285645,-38.353660583496094,201.6880645751953, 23.09928321838379
413,1526974782,0.4871879,0.36013532,-0.7759253,0.17575811,0.7469348907470703,3.409921646118164,4.35864782333374,-44.808475494384766,234.1393585205078, 17.469362258911133
414,1526991449,0.5183204,0.3490859,-0.75874937,0.18380085,1.5950039625167847,2.511946439743042,3.521772623062134,-50.3045654296875,254.16563415527344, 6.5365190505981445
415,1527008116,0.551661,0.33683133,-0.73926866,0.18893598,1.7844620943069458,2.090528964996338,1.8112819194793701,-72.21047973632812,268.46533203125, -5.841134071350098
416,1527024783,0.58725315,0.32224718,-0.71788704,0.18954885,1.5072625875473022,0.9427409768104553,0.24289891123771667,-106.84111785888672,279.7394714355469, -18.499059677124023
417,1527041450,0.62460774,0.30342537,-0.69509125,0.186136,3.3871665000915527,-2.477081298828125,-0.9405518174171448,-145.9608917236328,290.8675231933594, -19.347997665405273
418,1527058117,0.6598414,0.28597876,-0.66929734,0.1867259,4.402859687805176,-2.7900753021240234,-3.982713460922241,-112.71196746826172,300.322998046875, -12.454984664916992
419,1527074784,0.69354993,0.26583582,-0.642706,0.18774761,5.514988899230957,-2.918102979660034,-8.449969291687012,-118.99727630615234,301.4629821777344, 2.128800630569458
420,1527091451,0.72428125,0.24550934,-0.61466885,0.19319467,7.683450698852539,-4.4530768394470215,-9.623822212219238,-93.06612396240234,303.9046630859375, 25.08555793762207
421,1527108118,0.7512705,0.22951595,-0.5847227,0.20252049,8.37867546081543,0.030684679746627808,-12.371591567993164,-46.26518630981445,298.8079833984375, 27.65384864807129
422,1527124785,0.77490526,0.21548341,-0.5568127,0.20748214,5.231116771697998,4.92429256439209,-17.59627342224121,-53.36665344238281,265.7063903808594, 6.228515148162842
423,1527141452,0.7938246,0.20576592,-0.5331126,0.20807199,3.1791093349456787,2.4649693965911865,-21.041500091552734,-44.687679290771484,213.18548583984375, -21.408069610595703
424,1527158119,0.8058692,0.20237942,-0.51585925,0.20858297,0.5575269460678101,2.0357749462127686,-22.689952850341797,-8.966049194335938,144.31515502929688, -26.484174728393555
425,1527174786,0.81028986,0.2043202,-0.5084861,0.20766719,-2.2440576553344727,4.321094989776611,-26.0386905670166,12.842158317565918,53.600215911865234, -28.905105590820312
426,1527191453,0.8070677,0.20685722,-0.5146167,0.20253778,-2.0671584606170654,0.9903104305267334,-26.736392974853516,-8.858060836791992,-54.454742431640625, -23.90029525756836
427,1527208120,0.7959451,0.21178451,-0.5324364,0.19526982,2.854363203048706,1.94147527217865,-23.25320816040039,-8.317870140075684,-152.9698944091797, -16.559688568115234
428,1527224787,0.7837622,0.21334736,-0.55287635,0.18581666,9.795339584350586,-2.048515796661377,11.927903175354004,-36.8050537109375,-169.25120544433594, -10.89163875579834
429,1527241454,0.772145,0.21124372,-0.5727902,0.17629401,10.564308166503906,-11.12226676940918,-0.5183423757553101,-56.86985397338867,-160.08184814453125, 1.1176789999008179
430,1527258121,0.75723994,0.21660453,-0.592584,0.16886245,7.506757736206055,0.7134699821472168,-6.811827659606934,-5.9619526863098145,-178.53897094726562, -12.595930099487305
431,1527274788,0.7437855,0.21608706,-0.61305445,0.1557371,3.0795862674713135,-0.9012648463249207,-2.6299149990081787,-60.74191665649414,-177.53228759765625, -20.03998374938965
432,1527291455,0.73146486,0.21606621,-0.62998843,0.14625055,-0.9861993193626404,2.839219331741333,-3.39093279838562,-40.75688171386719,-149.80857849121094, -9.9785737991333
433,1527308122,0.7221503,0.2126707,-0.64405066,0.1359011,-2.739598035812378,9.361859321594238,-5.249392032623291,-63.061885833740234,-120.25131225585938, -6.852869033813477
434,1527324789,0.71577144,0.2076032,-0.65454173,0.12707236,0.4419344663619995,1.2442352771759033,-6.360476493835449,-65.62672424316406,-85.70236206054688, 0.4752695858478546
435,1527341456,0.7106409,0.20086989,-0.66349363,0.12007147,4.972644805908203,-4.754547595977783,-2.9771199226379395,-66.031494140625,-68.36929321289062, 13.74811840057373
436,1527358123,0.7056279,0.19690233,-0.6707501,0.11581594,5.384191513061523,-6.523321628570557,-1.2180343866348267,-38.713111877441406,-58.06260681152344, 11.960976600646973
437,1527374790,0.69991416,0.1975169,-0.67678934,0.11429534,2.191852331161499,-3.9000861644744873,0.8446196913719177,-1.9101134538650513,-55.408058166503906, 2.791154623031616
438,1527391457,0.69326675,0.19944671,-0.6831014,0.113907516,-0.6376387476921082,1.5454432964324951,-0.11964166164398193,10.77548885345459,-60.699066162109375, 3.0922563076019287
439,1527408124,0.6869227,0.1991665,-0.6898425,0.11219219,-2.3067829608917236,2.52555513381958,-1.5221513509750366,-6.731980323791504,-61.50869369506836, 7.543446063995361
440,1527424791,0.6804993,0.20063439,-0.69575304,0.112224124,-1.9645588397979736,1.2282109260559082,-2.201899528503418,10.569378852844238,-56.96616744995117, 6.5105881690979
441,1527441458,0.6740166,0.20299697,-0.70132166,0.112436935,-1.4790325164794922,-0.7409780621528625,-1.3765403032302856,15.973901748657227,-56.11308670043945, 2.682725191116333
442,1527458125,0.66726655,0.20466514,-0.707477,0.111103445,-0.08930978178977966,-1.9131170511245728,-0.2970476746559143,5.229127407073975,-61.78679275512695, -0.13927094638347626
443,1527474792,0.6598909,0.20588759,-0.7144859,0.10800133,1.0974570512771606,-1.8329262733459473,1.3637807369232178,-5.180261611938477,-70.97381591796875, -4.4690351486206055
444,1527491459,0.6509642,0.20857865,-0.7223153,0.10488699,0.737441897392273,-1.3534197807312012,1.6135494709014893,3.020677089691162,-83.55494689941406, -9.487218856811523
445,1527508126,0.6402368,0.21199393,-0.73138064,0.10118258,0.12300387024879456,0.33735451102256775,1.3576269149780273,5.031415939331055,-99.53036499023438, -12.69900894165039
446,1527524793,0.6280015,0.21664667,-0.74097013,0.09819212,0.9074289798736572,0.9579493403434753,0.14574001729488373,15.911182403564453,-109.35635375976562, -13.95694351196289
447,1527541460,0.61343914,0.22437206,-0.75084335,0.097898744,1.3163970708847046,1.596308946609497,1.0159666538238525,46.20166778564453,-120.57062530517578, -15.954628944396973
448,1527558127,0.5957745,0.2354899,-0.7614074,0.09927953,2.5320188999176025,0.7664667367935181,3.603851079940796,73.49078369140625,-139.3054656982422, -23.231014251708984
449,1527574794,0.5754276,0.2487769,-0.7725464,0.10082327,4.644406795501709,-1.4306671619415283,7.404170513153076,87.20242309570312,-157.11276245117188, -31.1700439453125
450,1527591461,0.55210865,0.26310155,-0.7845329,0.1022823,11.026741027832031,-2.133192539215088,4.231781959533691,95.37776947021484,-177.4473419189453, -33.590370178222656
451,1527608128,0.5254831,0.2789225,-0.7968929,0.105031095,16.114036560058594,0.22471340000629425,4.028395652770996,113.73746490478516,-195.72341918945312, -33.88458251953125
452,1527624795,0.49745423,0.29451966,-0.80900145,0.10636821,14.947431564331055,2.9164979457855225,6.694067478179932,108.08562469482422,-205.4131317138672, -37.282535552978516
453,1527641462,0.4704311,0.3103644,-0.81903875,0.107443936,9.658947944641113,1.8040804862976074,6.520218849182129,107.02190399169922,-193.86944580078125, -44.441246032714844
454,1527658129,0.44737566,0.3289978,-0.8235491,0.11568329,7.622366428375244,-1.5906932353973389,10.893463134765625,152.0620880126953,-140.74720764160156, -51.65950012207031
455,1527674796,0.42963216,0.35144126,-0.8199057,0.14021389,7.394968509674072,-6.463984966278076,20.000289916992188,250.56175231933594,-52.17176818847656, -45.802642822265625
456,1527691463,0.42097226,0.36816236,-0.813217,0.16098788,3.3872203826904297,3.808224678039551,18.05964469909668,193.4216766357422,3.848870038986206, -40.835994720458984
457,1527708130,0.42583883,0.3720956,-0.8080626,0.1650494,2.697739362716675,0.5367749929428101,18.363821029663086,27.133533477783203,46.42556381225586, -28.622539520263672
458,1527724797,0.43999088,0.36734813,-0.8035485,0.16054104,2.3615646362304688,0.05385112762451172,14.572279930114746,-70.31678771972656,83.6370620727539, -14.389241218566895
459,1527741464,0.46170643,0.35456753,-0.7987099,0.15222248,3.2513680458068848,-1.9761288166046143,13.127799987792969,-134.39141845703125,125.3531494140625, 9.218003273010254
460,1527758131,0.4867548,0.33748862,-0.7918702,0.14870429,3.3742644786834717,-3.6605143547058105,11.695606231689453,-127.71873474121094,165.9523468017578, 39.532772064208984
461,1527774798,0.51397395,0.3194297,-0.78120255,0.15335663,1.5925211906433105,-3.6172521114349365,10.467494010925293,-87.67508697509766,210.33782958984375, 60.9248046875
462,1527791465,0.5455278,0.2992749,-0.76567024,0.16304335,0.6609696745872498,-2.797122001647949,10.500067710876465,-72.47395324707031,263.95751953125, 74.5731430053711
463,1527808132,0.58193547,0.27741325,-0.74408245,0.17531244,0.45520445704460144,-0.9479746222496033,8.275930404663086,-68.5029296875,319.3570556640625, 75.2371597290039
464,1527824799,0.62217337,0.25754452,-0.7141798,0.19109762,1.8938480615615845,1.567598581314087,2.894395351409912,-39.80127716064453,376.5133972167969, 58.59739685058594
465,1527841466,0.6646241,0.2409412,-0.6757598,0.20873614,4.381963729858398,3.6961581707000732,-2.781818389892578,-9.404677391052246,422.948974609375, 32.56775665283203
466,1527858133,0.704769,0.2252587,-0.6349473,0.2222636,4.415282249450684,4.107285499572754,-9.31035327911377,-17.014984130859375,415.26300048828125, 8.986343383789062
467,1527874800,0.7393044,0.21123143,-0.5957734,0.23208722,6.898698329925537,7.290948390960693,-14.765592575073242,-21.39988136291504,375.15277099609375, -3.096849203109741
468,1527891467,0.7664377,0.19764009,-0.5626182,0.23868938,4.08050012588501,7.206831932067871,-19.349929809570312,-28.884567260742188,309.223388671875, -2.3133316040039062
469,1527908134,0.7860214,0.18336977,-0.54065907,0.23713674,-0.8806121945381165,6.63424825668335,-25.639453887939453,-72.23522186279297,211.72337341308594, -14.867962837219238
470,1527924801,0.79514575,0.17705776,-0.53167564,0.23176491,-3.6619088649749756,5.049196720123291,-30.874343872070312,-51.507606506347656,85.73409271240234, -31.510190963745117
471,1527941468,0.7934826,0.17425027,-0.539258,0.22186323,-2.377145290374756,2.8568568229675293,-30.749467849731445,-62.2845573425293,-54.454376220703125, -31.5947265625
472,1527958135,0.78091127,0.17334844,-0.56269985,0.20855907,5.279001712799072,-0.04966241121292114,-27.386940002441406,-75.70706176757812,-187.5477294921875, -21.4874210357666
473,1527974802,0.76830405,0.17049053,-0.58681047,0.1905134,14.531275749206543,-0.04656568169593811,15.216678619384766,-105.49812316894531,-193.2963104248047, -38.48838806152344
474,1527991469,0.7506576,0.18240091,-0.60745555,0.18504249,18.132551193237305,-16.07969856262207,-12.041930198669434,33.7602653503418,-200.35293579101562, -29.115543365478516
475,1528008136,0.73010933,0.19901492,-0.6283493,0.18030739,10.40572452545166,1.871630072593689,-8.528076171875,64.56455993652344,-218.3792266845703, -41.49127960205078
476,1528024803,0.7135105,0.20896535,-0.64627665,0.17193808,1.1043736934661865,-1.8078839778900146,-6.514923095703125,13.620597839355469,-182.87295532226562, -39.87388610839844
477,1528041470,0.7016799,0.21492283,-0.6595027,0.16281849,-2.41762113571167,5.7230963706970215,-8.707386016845703,-10.626029014587402,-134.841552734375, -38.248626708984375
478,1528058137,0.6961745,0.21511598,-0.6678063,0.15199101,-0.21994033455848694,6.456981182098389,-6.855949878692627,-50.08592987060547,-78.2963638305664, -34.48897933959961
479,1528074804,0.6920659,0.22063208,-0.670802,0.14963605,4.176870822906494,0.7345956563949585,-4.5555853843688965,17.720903396606445,-39.38475799560547, -27.473356246948242
480,1528091471,0.6899713,0.22382417,-0.67236805,0.14752437,4.123042583465576,0.2790648341178894,-0.38684412837028503,6.179934501647949,-20.48804473876953, -19.847686767578125
481,1528108138,0.68827873,0.22440784,-0.67481333,0.14332022,3.218937635421753,-1.1272172927856445,-1.0295085906982422,-17.376405715942383,-23.475107192993164, -16.783044815063477
482,1528124805,0.68742377,0.22072364,-0.67854685,0.13529325,0.4690481424331665,0.6241883039474487,0.5038230419158936,-57.86649703979492,-27.457395553588867, -13.939718246459961
483,1528141472,0.6867903,0.21568792,-0.6823428,0.12730351,-0.13709118962287903,0.7541822791099548,-2.222747325897217,-64.46563720703125,-25.536903381347656, -7.520261287689209
484,1528158139,0.68524766,0.21450426,-0.68488055,0.123945415,-0.37636804580688477,1.7224023342132568,-2.4089467525482178,-22.095977783203125,-20.398391723632812, -4.751516342163086
485,1528174806,0.683286,0.21470371,-0.6871928,0.1216083,-0.3449138402938843,1.482628345489502,-1.114667296409607,-9.963308334350586,-21.00839614868164, -6.379341125488281
486,1528191473,0.68057597,0.21698144,-0.6894549,0.119948536,1.205463171005249,-1.7140743732452393,0.09132231026887894,4.150285720825195,-25.11452293395996, -12.43311595916748
487,1528208140,0.6759598,0.22326612,-0.69175774,0.12125097,0.4947102963924408,-1.2907459735870361,1.6633777618408203,39.76382064819336,-33.328277587890625, -16.022930145263672
488,1528224807,0.6694488,0.22957948,-0.69597363,0.12145962,-0.4598456621170044,1.7801458835601807,2.359153985977173,36.02587890625,-53.08403778076172, -16.803112030029297
489,1528241474,0.6621515,0.23370308,-0.7020371,0.11866871,-0.24946728348731995,0.8365666270256042,0.8292979598045349,11.309381484985352,-68.41998291015625, -16.523509979248047
490,1528258141,0.6535279,0.23980145,-0.70819306,0.1177246,0.46782174706459045,0.10870247334241867,-0.09231260418891907,31.283355712890625,-73.99385070800781, -16.41077995300293
491,1528274808,0.6445516,0.24485324,-0.7150021,0.115639195,1.3854560852050781,0.7697492241859436,1.159459114074707,21.086824417114258,-79.75436401367188, -15.10089111328125
492,1528291475,0.63456714,0.2499512,-0.72245276,0.113627225,1.5047715902328491,0.24438254535198212,1.2895448207855225,22.858144760131836,-87.5809326171875, -13.122413635253906
493,1528308142,0.6234673,0.25543582,-0.7304224,0.11191216,1.6574171781539917,0.9453177452087402,1.306334137916565,27.551071166992188,-95.29222106933594, -12.00294303894043
494,1528324809,0.6112872,0.26140407,-0.738822,0.110173024,2.4187638759613037,0.48054128885269165,1.1456480026245117,31.09152603149414,-103.0865478515625, -12.946115493774414
495,1528341476,0.5972899,0.26916245,-0.7475966,0.10906915,3.2454652786254883,-0.8935679197311401,2.3440895080566406,44.84444046020508,-114.21517181396484, -17.337228775024414
496,1528358143,0.58099157,0.27773583,-0.7574983,0.107276164,3.631821870803833,-1.146635890007019,2.597649097442627,48.0815544128418,-132.70721435546875, -20.609163284301758
497,1528374810,0.5625529,0.2861853,-0.7686766,0.10377208,4.245952129364014,-2.0214662551879883,2.89909029006958,41.83589553833008,-152.28875732421875, -22.8503475189209
498,1528391477,0.541371,0.29556686,-0.78075355,0.099908695,4.575891971588135,-0.9408386945724487,3.340106725692749,48.30705261230469,-171.80850219726562, -25.532011032104492
499,1528408144,0.5173591,0.30560207,-0.79366505,0.095093325,6.020029544830322,0.36039015650749207,6.29807186126709,50.82255935668945,-192.681396484375, -29.00020408630371
500,1528424811,0.49164498,0.31615397,-0.8063468,0.09020442,7.664236545562744,0.06958550214767456,5.296270370483398,56.029232025146484,-201.93505859375, -31.473859786987305
501,1528441478,0.4648691,0.3271605,-0.8181271,0.08678129,11.517171859741211,-0.3725011348724365,6.646949768066406,68.59525299072266,-202.14797973632812, -30.3756103515625
502,1528458145,0.4360433,0.3397356,-0.8287304,0.087476134,18.155227661132812,2.5395946502685547,13.373238563537598,102.12904357910156,-201.97052001953125, -27.52098274230957
503,1528474812,0.40834773,0.3499985,-0.8383933,0.08860074,17.77381706237793,3.904038190841675,18.954753875732422,95.68865966796875,-190.9873504638672, -15.931317329406738
504,1528491479,0.38998598,0.35462135,-0.84502363,0.08994205,12.515448570251465,-0.17661374807357788,11.246536254882812,60.64308547973633,-125.48726654052734, 4.252748966217041
505,1528508146,0.36988902,0.35861397,-0.85187054,0.09431333,4.341137409210205,1.1256294250488281,6.058626651763916,80.6895980834961,-128.84181213378906, 17.617977142333984
506,1528524813,0.35171244,0.36223567,-0.85743886,0.099411376,-1.9705451726913452,2.4400346279144287,-0.884467363357544,80.11627960205078,-112.45809936523438, 17.300029754638672
507,1528541480,0.3470476,0.36486012,-0.8579739,0.1015675,3.581000566482544,9.579838752746582,19.021852493286133,30.171295166015625,-27.107389450073242, -5.6113786697387695
508,1528558147,0.35450554,0.36227134,-0.85655504,0.09694828,-1.0606253147125244,-2.1968679428100586,16.093088150024414,-51.041683197021484,35.28610610961914, -4.193970680236816
509,1528574814,0.36561635,0.36373144,-0.850308,0.10488445,-1.5618746280670166,3.8785769939422607,13.997733116149902,26.87403678894043,96.91809844970703, -11.957618713378906
510,1528591481,0.38428974,0.36260754,-0.8416026,0.111992516,-0.39262279868125916,1.1161612272262573,13.444866180419922,-1.5080502033233643,146.94387817382812, -10.411141395568848
511,1528608148,0.40567315,0.36245123,-0.82952744,0.1262646,0.602184534072876,-2.438988447189331,11.642212867736816,38.37409210205078,188.47671508789062, -7.502669811248779
512,1528624815,0.4293012,0.36297616,-0.8142459,0.14475006,0.5126171112060547,-0.49623608589172363,6.3586106300354,61.456382751464844,219.9890899658203, -9.566659927368164
513,1528641482,0.45623732,0.36183122,-0.79670286,0.1618336,0.49112316966056824,-0.7607330679893494,5.419433116912842,42.641326904296875,243.33619689941406, -13.229072570800781
514,1528658149,0.485789,0.3586003,-0.77726966,0.17682493,0.7272657752037048,-0.5562441945075989,4.826848983764648,20.1911563873291,260.71722412109375, -15.944997787475586
515,1528674816,0.5187847,0.3514418,-0.7567113,0.18638487,0.6482722759246826,0.32001975178718567,3.373746633529663,-29.123485565185547,274.27703857421875, -20.05925750732422
516,1528691483,0.5547793,0.34041944,-0.7343854,0.19238806,1.2304896116256714,-1.3136298656463623,1.4681642055511475,-66.4325942993164,292.5977783203125, -20.77518081665039
517,1528708150,0.5920257,0.32730648,-0.7092363,0.19839343,1.6163731813430786,-2.2707419395446777,-0.5224051475524902,-73.63817596435547,312.5643310546875, -18.563053131103516
518,1528724817,0.62945735,0.3127161,-0.68113226,0.20506397,2.3176028728485107,-2.415131092071533,-3.319690227508545,-72.83910369873047,329.1712646484375, -15.668611526489258
519,1528741484,0.66615033,0.29534918,-0.65117574,0.21209157,4.129591464996338,-1.412757158279419,-7.279070854187012,-79.03111267089844,338.6559753417969, -4.176086902618408
520,1528758151,0.70098716,0.27477065,-0.6203636,0.21969815,6.679083347320557,1.666234016418457,-9.714997291564941,-86.19219970703125,340.4793701171875, 13.739158630371094
521,1528774818,0.7327984,0.25288105,-0.5899799,0.22579122,8.703163146972656,6.225167751312256,-12.654586791992188,-93.97748565673828,325.0437927246094, 17.408267974853516
522,1528791485,0.7606329,0.23276874,-0.5618714,0.22706161,8.51443099975586,7.618576526641846,-16.46666145324707,-101.3281021118164,286.7937927246094, -3.8632071018218994
523,1528808152,0.7815507,0.22029284,-0.53862286,0.22480053,4.5662126541137695,5.053794860839844,-24.03252410888672,-71.6988525390625,217.67025756835938, -33.10872268676758
524,1528824819,0.7927903,0.21624003,-0.5250741,0.22140732,-1.3243560791015625,5.579465866088867,-27.075206756591797,-31.121261596679688,115.75972747802734, -40.635929107666016
525,1528841486,0.79416317,0.21601222,-0.5268968,0.2121872,-3.558570384979248,7.638073921203613,-27.050052642822266,-40.22687911987305,-17.334548950195312, -48.1990852355957
526,1528858153,0.78721267,0.21445522,-0.5444038,0.19475614,-0.4941205084323883,4.1894989013671875,-25.015209197998047,-87.96469116210938,-142.6742706298828, -52.560298919677734
527,1528874820,0.77486724,0.2087758,-0.57168895,0.17077881,6.2502665519714355,1.6108561754226685,-9.99367904663086,-140.0665740966797,-219.30499267578125, -50.741703033447266
528,1528891487,0.7633131,0.19962072,-0.59591,0.14965369,12.537360191345215,-18.760332107543945,6.777090549468994,-144.9031524658203,-191.4454345703125, -27.08498764038086
529,1528908154,0.74559546,0.21204248,-0.614436,0.14694862,14.007308959960938,-10.060115814208984,-10.420952796936035,58.437034606933594,-183.9246826171875, -20.853450775146484
530,1528924821,0.72909564,0.2174268,-0.6357595,0.13021244,9.13241195678711,10.321908950805664,-5.3255934715271,-41.475929260253906,-206.14576721191406, -60.55022048950195
531,1528941488,0.7150307,0.2163992,-0.65488964,0.114114314,5.509355545043945,-13.564997673034668,-5.585931777954102,-72.59976959228516,-177.7039337158203, -34.45814514160156
532,1528958155,0.700763,0.22623795,-0.667597,0.109827965,0.3948683440685272,4.390249252319336,-4.586900234222412,39.41205978393555,-137.8836669921875, -35.11933135986328
533,1528974822,0.69131744,0.23153743,-0.67623436,0.105725035,-1.6504732370376587,6.821776866912842,-5.149631023406982,13.910833358764648,-92.37451171875, -23.250444412231445
534,1528991489,0.6860373,0.231499,-0.68240374,0.1004308,3.320690155029297,0.6134613156318665,-4.984413146972656,-21.877056121826172,-59.229679107666016, -10.834300994873047
535,1529008156,0.6827911,0.23057054,-0.68634236,0.097815916,3.991323232650757,-0.8611716032028198,-2.8009777069091797,-15.207231521606445,-34.23026657104492, 1.0313581228256226
536,1529024823,0.68067926,0.22906923,-0.6892488,0.09560007,2.7452340126037598,-0.9843496680259705,-1.287311315536499,-17.104110717773438,-23.030729293823242, 3.162262439727783
537,1529041490,0.67816466,0.22915617,-0.6918158,0.09471695,1.6393959522247314,-0.07504680752754211,-0.2088475227355957,-2.4785709381103516,-22.356327056884766, 1.5547255277633667
538,1529058157,0.6747865,0.23051704,-0.6946613,0.094713815,-0.14776009321212769,0.6556389331817627,-0.5024660229682922,8.84666919708252,-27.29601287841797, 0.5762423872947693
539,1529074824,0.6702972,0.2325525,-0.69829315,0.094910115,-1.190390706062317,0.8927003741264343,-1.4246548414230347,14.193233489990234,-36.44660568237305, 0.25414979457855225
540,1529091491,0.66525644,0.23306723,-0.70318633,0.09296648,-2.1361310482025146,0.45597904920578003,-2.338059425354004,-3.020657777786255,-47.37390899658203, 0.09244337677955627
541,1529108158,0.65934503,0.23315492,-0.70911604,0.08976317,-1.9918205738067627,0.20009461045265198,-1.7569546699523926,-10.325322151184082,-58.0789909362793, -1.3633038997650146
542,1529124825,0.6529418,0.2345763,-0.714928,0.086713836,-0.8956559896469116,0.07113667577505112,0.06009342521429062,-2.6593756675720215,-60.54816436767578, -7.038256645202637
543,1529141492,0.6460005,0.23741406,-0.72055274,0.08439086,0.39489245414733887,-0.3911878168582916,0.1979326754808426,8.265188217163086,-62.11561965942383, -10.72377872467041
544,1529158159,0.6385873,0.2410862,-0.72616553,0.08226413,1.188314437866211,-0.7398698925971985,0.5335885286331177,13.736152648925781,-64.66122436523438, -13.760619163513184
545,1529174826,0.6305995,0.2447489,-0.73218775,0.07964497,1.5397721529006958,-1.1647206544876099,0.72211092710495,11.972732543945312,-70.24847412109375, -14.916397094726562
546,1529191493,0.62220126,0.2489835,-0.7381521,0.07748738,1.502583384513855,-0.41219276189804077,0.34427687525749207,17.512617111206055,-71.712646484375, -15.724513053894043
547,1529208160,0.6135845,0.25300044,-0.74415076,0.0757925,1.8181706666946411,1.0120644569396973,-0.05620651692152023,19.29869270324707,-72.15960693359375, -12.499313354492188
548,1529224827,0.6044948,0.2564928,-0.7505599,0.073874,1.38454270362854,0.925324022769928,1.2268511056900024,16.566715240478516,-76.51220703125, -9.790579795837402
549,1529241494,0.5944854,0.26009232,-0.757535,0.07127422,2.074613094329834,-0.7773596048355103,1.8139437437057495,14.855706214904785,-84.986083984375, -11.701833724975586
550,1529258161,0.58254486,0.2642871,-0.7655954,0.0682495,3.1969587802886963,-1.1420193910598755,3.6019961833953857,18.017065048217773,-100.67223358154297, -13.697134971618652
551,1529274828,0.5687881,0.26808617,-0.7749579,0.06364134,3.3803961277008057,-0.8775210976600647,3.1310932636260986,10.814144134521484,-118.34024047851562, -14.797572135925293
552,1529291495,0.5532284,0.27243796,-0.7850546,0.0583546,2.7052745819091797,-0.41801175475120544,1.9184856414794922,12.385366439819336,-132.49427795410156, -18.302885055541992
553,1529308162,0.53498805,0.27931443,-0.79554254,0.05369785,3.0825774669647217,0.4904264807701111,1.944467306137085,30.26934242248535,-148.42044067382812, -27.756906509399414
554,1529324829,0.5130409,0.29010785,-0.8062046,0.05158187,4.909407138824463,0.6429361701011658,6.907672882080078,65.65352630615234,-166.04493713378906, -38.147403717041016
555,1529341496,0.48871586,0.30131093,-0.81728846,0.04907312,6.274813175201416,0.6559718251228333,5.628435134887695,69.57179260253906,-181.9466094970703, -40.14048767089844
556,1529358163,0.46352735,0.31398728,-0.82719815,0.0479363,7.41421365737915,-3.0035064220428467,4.339046478271484,84.46815490722656,-180.78384399414062, -45.97914505004883
557,1529374830,0.43823949,0.32818437,-0.8352877,0.05035954,9.76518440246582,-4.168157577514648,6.4471893310546875,110.371826171875,-168.6171112060547, -47.30270004272461
558,1529391497,0.41494417,0.34019715,-0.8421028,0.05431657,10.50289535522461,-4.548342704772949,6.46361780166626,108.52581787109375,-149.46243286132812, -33.85059356689453
559,1529408164,0.39395612,0.34982195,-0.84772027,0.06159179,13.20708179473877,-0.8122758865356445,9.959275245666504,115.94449615478516,-124.39386749267578, -14.358009338378906
560,1529424831,0.37599325,0.35900712,-0.8511238,0.07301608,11.754500389099121,3.597238540649414,13.765803337097168,132.64755249023438,-91.0971908569336, -7.198439598083496
561,1529441498,0.35768834,0.36411905,-0.85653526,0.076315776,3.792160987854004,5.621810436248779,6.083830833435059,74.54008483886719,-116.83837890625, 0.8551827073097229
562,1529458165,0.3414932,0.36818275,-0.86132765,0.07706383,1.124087929725647,2.7431983947753906,-0.8174602389335632,52.09961700439453,-108.88937377929688, -1.748040795326233
563,1529474832,0.33179536,0.3771404,-0.85997605,0.09010108,5.008282661437988,3.9112980365753174,20.218055725097656,123.22480773925781,-27.410062789916992, -20.763427734375
564,1529491499,0.33002758,0.38352025,-0.8557709,0.10793774,1.1554033756256104,-5.665388584136963,16.305089950561523,127.08311462402344,39.560821533203125, -6.728736400604248
565,1529508166,0.33470124,0.39110303,-0.8469677,0.13288823,-1.3141390085220337,3.9873833656311035,14.649677276611328,158.04261779785156,105.49446868896484, -14.58952808380127
566,1529524833,0.3511553,0.3928377,-0.837104,0.14705612,-1.8113356828689575,1.7866160869598389,14.88651180267334,51.17595291137695,152.70294189453125, -18.772750854492188
567,1529541500,0.37382773,0.39323464,-0.8245159,0.16060191,-0.08093765377998352,-0.8835145831108093,11.893811225891113,30.37425422668457,194.57252502441406, -26.132890701293945
568,1529558167,0.40068853,0.39316136,-0.8086041,0.17615965,-0.05392272770404816,2.259752035140991,6.337871074676514,32.9193229675293,232.67391967773438, -31.889057159423828
569,1529574834,0.43255866,0.39015552,-0.79079247,0.18793356,0.4974963665008545,1.3905748128890991,5.032522678375244,-7.408342361450195,259.0562438964844, -37.124412536621094
570,1529591501,0.4667022,0.384768,-0.7711474,0.19868168,2.1749911308288574,-0.5599477887153625,2.696349620819092,-23.790048599243164,277.18194580078125, -35.038307189941406
571,1529608168,0.5022045,0.37744522,-0.74953085,0.20863715,2.9601871967315674,-0.23636730015277863,0.29644864797592163,-35.12648010253906,291.2786865234375, -34.41697692871094
572,1529624835,0.53922474,0.367578,-0.72587234,0.2173311,3.56400203704834,-2.028937339782715,-1.6780179738998413,-51.45085906982422,306.6122741699219, -33.16715621948242
573,1529641502,0.5751835,0.35807505,-0.699071,0.22857475,3.233973264694214,-3.309725046157837,-3.235424518585205,-30.02532386779785,319.0047607421875, -31.967554092407227
574,1529658169,0.6097482,0.34756655,-0.6706557,0.24005406,3.251281261444092,-2.363135814666748,-4.24301815032959,-26.934961318969727,321.03887939453125, -28.09016990661621
575,1529674836,0.64385265,0.33322686,-0.6422954,0.24873725,4.23499059677124,-1.8480437994003296,-7.057828426361084,-54.919803619384766,318.5528564453125, -21.339427947998047
576,1529691503,0.6767144,0.3157117,-0.61452615,0.2544434,5.158673286437988,-0.3866703510284424,-10.659183502197266,-80.32916259765625,309.3669128417969, -17.10516357421875
577,1529708170,0.7069894,0.2959492,-0.58869725,0.25693566,6.021659851074219,0.6093577146530151,-12.953010559082031,-102.20065307617188,286.77447509765625, -13.88390064239502
578,1529724837,0.7328371,0.27675357,-0.5660327,0.2568352,5.0451812744140625,0.12394556403160095,-16.178203582763672,-106.58158111572266,247.6664276123047, -14.554035186767578
579,1529741504,0.75200665,0.2630984,-0.5475602,0.2558187,3.3512423038482666,0.9018939733505249,-18.813526153564453,-76.98680114746094,189.5807342529297, -20.992881774902344
580,1529758171,0.7638211,0.25621903,-0.5351576,0.2540384,0.5813543796539307,-0.19955120980739594,-21.484163284301758,-42.28794479370117,117.82154083251953, -26.526721954345703
581,1529774838,0.76708376,0.25663993,-0.5313832,0.25169533,-1.5886242389678955,0.3321976363658905,-22.954378128051758,-6.122530460357666,27.958642959594727, -26.2171688079834
582,1529791505,0.76221275,0.26028872,-0.53929317,0.24585508,-0.7759863138198853,0.4485923945903778,-22.49924659729004,-7.8621907234191895,-74.48738098144531, -21.751792907714844
583,1529808172,0.75031555,0.26585144,-0.55716944,0.23645708,3.1237449645996094,3.546128988265991,-14.110718727111816,-15.418593406677246,-161.76173400878906, -17.758432388305664
584,1529824839,0.7396143,0.26775664,-0.57532346,0.22423236,7.996951103210449,-3.993842124938965,11.0122709274292,-47.86514663696289,-157.4580535888672, -19.649147033691406
585,1529841506,0.727518,0.27310002,-0.5905159,0.21777293,9.38114070892334,-8.094901084899902,-3.5952916145324707,-0.3314138650894165,-142.96322631835938, -7.3422441482543945
586,1529858173,0.712717,0.28533432,-0.6037288,0.21478002,7.496163368225098,2.306910514831543,-9.029556274414062,56.31204605102539,-147.75637817382812, -17.91016387939453
587,1529874840,0.6997617,0.29344818,-0.6180215,0.20559998,5.731588363647461,0.3116705119609833,-3.5616965293884277,5.138256549835205,-151.2072296142578, -31.696138381958008
588,1529891507,0.6878325,0.29987842,-0.6306151,0.19820246,3.116814613342285,-3.693819999694824,-2.2678821086883545,4.910055160522461,-132.65037536621094, -20.838947296142578
589,1529908174,0.67648786,0.30685824,-0.64110285,0.1928459,2.0654025077819824,1.4072343111038208,-3.2143893241882324,18.020614624023438,-116.70158386230469, -18.810516357421875
590,1529924841,0.6666225,0.31442276,-0.6482064,0.19126268,0.582571268081665,1.0981050729751587,-3.6341845989227295,38.70853042602539,-87.23961639404297, -12.901153564453125
591,1529941508,0.65889585,0.32061672,-0.6532292,0.19066426,1.3503457307815552,1.4734801054000854,-4.2490234375,34.90286636352539,-64.2120361328125, -9.564798355102539
592,1529958175,0.65301764,0.3255813,-0.6567769,0.19028705,1.0730986595153809,-1.4651832580566406,-2.761923313140869,28.16120719909668,-47.08529281616211, -8.683029174804688
593,1529974842,0.6480628,0.3297029,-0.6598055,0.18965048,0.9299209713935852,-0.8008164167404175,-1.221840739250183,21.810665130615234,-40.060821533203125, -8.459362983703613
594,1529991509,0.6433387,0.33298045,-0.66316855,0.1882732,0.2980347275733948,0.42614683508872986,-0.7879814505577087,13.732731819152832,-41.13099670410156, -7.494774341583252
595,1530008176,0.6390863,0.3339658,-0.66768897,0.18500564,-0.922336220741272,2.9838290214538574,0.4494006633758545,-7.600754261016846,-45.51538848876953, -3.3385376930236816
596,1530024843,0.634834,0.33357388,-0.6730756,0.18078622,-1.2535066604614258,2.3920397758483887,-1.2056740522384644,-19.113821029663086,-49.844322204589844, 0.9059238433837891
597,1530041510,0.6293114,0.33507738,-0.6779675,0.17902671,-0.5130776166915894,0.2955668866634369,-1.3735231161117554,4.075164794921875,-50.3096923828125, 3.4080631732940674
598,1530058177,0.622759,0.33848873,-0.6821949,0.1794626,1.2095869779586792,-1.138479232788086,-1.0282951593399048,25.759658813476562,-49.55049514770508, 3.7634880542755127
599,1530074844,0.6160495,0.34202415,-0.6863317,0.18014255,1.504610300064087,-1.4830048084259033,-0.3229445815086365,27.921894073486328,-49.52442169189453, 4.165088653564453
600,1530091511,0.6090915,0.34530368,-0.69089574,0.1801002,1.1284537315368652,-1.3300182819366455,0.29569029808044434,23.497234344482422,-53.95120620727539, 3.572228193283081
601,1530108178,0.6013947,0.3475991,-0.69691116,0.17836536,0.9589999318122864,-0.05214127153158188,1.9336413145065308,11.306964874267578,-66.4181137084961, 5.480456829071045
602,1530124845,0.5930172,0.3476496,-0.7052052,0.1736553,0.6982691287994385,1.2605465650558472,2.4909565448760986,-13.37394905090332,-83.58847045898438, 10.225882530212402
603,1530141512,0.58257955,0.34794423,-0.7150301,0.1681302,0.6290810108184814,1.0671321153640747,3.395899534225464,-13.202348709106445,-102.20203399658203, 11.893906593322754
604,1530158179,0.57060397,0.34810647,-0.72614104,0.16109684,0.46169960498809814,0.554563045501709,2.615910530090332,-18.919084548950195,-118.53533935546875, 11.407374382019043
605,1530174846,0.5568744,0.34944767,-0.7375259,0.15437987,1.8814594745635986,-0.6932827830314636,2.558136463165283,-8.790197372436523,-129.04966735839844, 9.3931303024292
606,1530191513,0.54083866,0.3532169,-0.7486262,0.14929937,1.4560703039169312,0.33756932616233826,0.5951071381568909,14.669276237487793,-138.44117736816406, 5.092390060424805
607,1530208180,0.52260715,0.35859266,-0.7598324,0.14473407,1.8681057691574097,0.6460743546485901,2.814809799194336,28.533254623413086,-150.6133270263672, 1.258859634399414
608,1530224847,0.50108176,0.36648244,-0.7711737,0.14106369,3.3028554916381836,1.0171666145324707,4.276604175567627,50.25660705566406,-168.75230407714844, -5.0374932289123535
609,1530241514,0.47536978,0.37706143,-0.78280175,0.13809377,6.129908084869385,1.090558409690857,7.549267292022705,73.54891967773438,-192.9949951171875, -12.090902328491211
610,1530258181,0.4462473,0.38898477,-0.7945942,0.13481237,8.503546714782715,-0.5874958634376526,7.39211893081665,85.01390075683594,-214.31332397460938, -16.68107032775879
611,1530274848,0.41460654,0.40189233,-0.8055848,0.13273096,11.20075798034668,-2.093001127243042,8.523550987243652,102.10992431640625,-223.6781463623047, -18.23681640625
612,1530291515,0.37939215,0.4172456,-0.81450653,0.136188,14.882037162780762,-0.6364938020706177,14.592720031738281,151.55409240722656,-224.944091796875, -18.53301239013672
613,1530308182,0.34521073,0.42903644,-0.82296956,0.13956603,15.590079307556152,3.165836811065674,17.711891174316406,139.338134765625,-215.4949188232422, -1.0941083431243896
614,1530324849,0.3180559,0.43128166,-0.83370185,0.1333339,13.012406349182129,2.8526387214660645,13.209696769714355,39.49318313598633,-201.00721740722656, 30.131013870239258
615,1530341516,0.2934354,0.42928395,-0.84429127,0.12955071,5.461357116699219,0.06456355005502701,4.0077738761901855,36.933868408203125,-175.53726196289062, 57.107261657714844
616,1530358183,0.27088624,0.43074718,-0.850164,0.13527368,2.132699489593506,9.142541885375977,2.870133638381958,97.16130065917969,-129.14744567871094, 40.456573486328125
617,1530374850,0.27074334,0.42476723,-0.85476124,0.12511772,2.9518063068389893,8.02556037902832,21.918527603149414,-74.53169250488281,-35.92781448364258, 29.96213722229004
618,1530391517,0.27789727,0.41962215,-0.85545796,0.12199326,-2.751582145690918,-3.0407793521881104,15.47449016571045,-49.44338607788086,33.62678909301758, 20.569238662719727
619,1530408184,0.28962556,0.41821972,-0.8508073,0.13166754,-2.5719664096832275,6.444939613342285,14.067732810974121,24.197521209716797,104.4316177368164, 3.6670994758605957
620,1530424851,0.31188715,0.41383156,-0.8442427,0.13683686,-1.3635998964309692,6.755066871643066,11.636518478393555,-36.53543472290039,159.51858520507812, -2.732941150665283
621,1530441518,0.33895692,0.4090622,-0.83455503,0.14592628,-0.34849733114242554,1.5770283937454224,9.229076385498047,-25.22938346862793,205.5544891357422, -5.383041858673096
622,1530458185,0.36974704,0.40409127,-0.8211111,0.16054326,1.4612913131713867,1.6508111953735352,7.707031726837158,-0.6754676699638367,251.3499755859375, -5.592818260192871
623,1530474852,0.4039108,0.39858374,-0.80401367,0.17762142,2.192202091217041,-0.07146912813186646,4.038895606994629,6.5077691078186035,287.044677734375, -10.11135196685791
624,1530491519,0.43939328,0.39290664,-0.78365767,0.19605838,2.1700587272644043,0.24577879905700684,2.4941954612731934,13.871424674987793,307.30914306640625, -15.906286239624023
625,1530508186,0.47655317,0.38579074,-0.76088226,0.2124169,2.491481304168701,0.4030866026878357,-0.16885103285312653,-2.992316484451294,320.0076599121094, -23.194225311279297
626,1530524853,0.51487595,0.376456,-0.73647726,0.22535577,1.6831876039505005,0.748246967792511,-2.189056396484375,-28.910951614379883,325.6872253417969, -28.79551124572754
627,1530541520,0.5529725,0.36595652,-0.7103736,0.23593815,1.8287367820739746,-0.5463836789131165,-3.505042791366577,-41.8021354675293,326.4123840332031, -35.27854537963867
628,1530558187,0.59165704,0.35227758,-0.683831,0.24128354,1.801384449005127,0.3622685372829437,-6.094123840332031,-80.30366516113281,323.12249755859375, -41.775936126708984
629,1530574854,0.63101214,0.33240288,-0.658025,0.24152695,3.775681495666504,-1.8129216432571411,-9.560670852661133,-132.42544555664062,321.4725646972656, -32.78886795043945
630,1530591521,0.66703457,0.31211045,-0.63078177,0.24447258,5.1888346672058105,-2.0748658180236816,-12.185441970825195,-112.0689697265625,319.8622131347656, -17.057823181152344
631,1530608188,0.6985232,0.2944474,-0.6021776,0.25049594,7.208317756652832,0.8843124508857727,-13.988253593444824,-74.70037841796875,309.0733947753906, -9.767172813415527
632,1530624855,0.7252799,0.27945298,-0.5751863,0.2550214,6.283787727355957,4.061714172363281,-17.022165298461914,-61.36591720581055,274.6037292480469, -16.622671127319336
633,1530641522,0.745818,0.26903093,-0.5525024,0.25713637,4.2519121170043945,-0.36593157052993774,-20.48250389099121,-43.831260681152344,216.46401977539062, -27.47719383239746
634,1530658189,0.7569736,0.26660544,-0.53718525,0.2595086,1.0001293420791626,-1.8782167434692383,-24.185861587524414,2.3850297927856445,130.0655517578125, -26.367130279541016
635,1530674856,0.7582971,0.26972553,-0.53373617,0.25953758,-2.364392042160034,0.2324167788028717,-24.664934158325195,19.339977264404297,18.56114387512207, -19.827396392822266
636,1530691523,0.7517072,0.27275166,-0.5445221,0.2530588,-1.5393434762954712,0.16517332196235657,-22.143436431884766,-15.887300491333008,-95.87677001953125, -12.892267227172852
637,1530708190,0.7397149,0.27379343,-0.565871,0.24010256,2.296851396560669,0.5538145303726196,-17.67254638671875,-58.75458526611328,-178.78619384765625, -9.69766902923584
638,1530724857,0.7274143,0.2729738,-0.5888564,0.22271553,6.609213352203369,8.016998291015625,9.982213020324707,-87.66958618164062,-193.09347534179688, -21.323848724365234
639,1530741524,0.7203515,0.26013315,-0.6114035,0.19902354,7.283711910247803,-9.689565658569336,4.55886697769165,-182.49362182617188,-163.53884887695312, -12.723912239074707
640,1530758191,0.70649904,0.2611314,-0.6298235,0.18971567,8.091376304626465,-9.308614730834961,-8.47657585144043,-35.51069641113281,-165.0306854248047, 2.013840436935425
641,1530774858,0.691794,0.26698413,-0.64555055,0.18277039,7.812235355377197,-3.9632647037506104,-2.4453341960906982,3.403388500213623,-157.4944305419922, -11.538141250610352
642,1530791525,0.678679,0.2710141,-0.6605044,0.17227966,3.4131698608398438,3.4513657093048096,-3.2610087394714355,-22.934133529663086,-150.96530151367188, -23.857074737548828
643,1530808192,0.66700035,0.27187666,-0.67508495,0.15954421,2.1413230895996094,2.5457653999328613,-5.937384128570557,-50.17753982543945,-143.11415100097656, -22.215030670166016
644,1530824859,0.6558307,0.27401528,-0.68703157,0.1509621,0.9201301336288452,-0.23683467507362366,-7.345505714416504,-23.139780044555664,-122.20262145996094, -14.466736793518066
645,1530841526,0.6461374,0.27815396,-0.6952386,0.14758228,0.4924420416355133,1.6098659038543701,-4.5164594650268555,11.529738426208496,-90.48934173583984, -9.032125473022461
646,1530858193,0.6394152,0.27888748,-0.7019317,0.14374225,2.416933059692383,1.4471169710159302,-2.44246506690979,-9.953434944152832,-66.9356918334961, -0.6601523756980896
647,1530874860,0.6349899,0.27724972,-0.70751834,0.1390625,2.33919620513916,-2.012694835662842,-3.1955270767211914,-27.733661651611328,-50.28135681152344, 2.745476007461548
648,1530891527,0.6311763,0.2766991,-0.7115624,0.13686882,1.6652239561080933,-1.226585030555725,-1.798385500907898,-10.575858116149902,-36.869747161865234, 4.723832130432129
649,1530908194,0.6275114,0.27591792,-0.7153614,0.1354877,0.42274752259254456,1.3355662822723389,-1.1623327732086182,-7.639007568359375,-33.35792922973633, 8.730490684509277
650,1530924861,0.62398297,0.27417982,-0.71942484,0.13378622,-0.5132043361663818,1.8005707263946533,-1.2086069583892822,-13.8317232131958,-33.598915100097656, 12.472724914550781
651,1530941528,0.61986715,0.27317125,-0.723448,0.13328722,-1.139382004737854,1.348844051361084,-1.499611735343933,-3.5907256603240967,-34.781795501708984, 14.545746803283691
652,1530958195,0.61489016,0.2726017,-0.72796625,0.13290507,-1.2083889245986938,0.6765906810760498,-0.9787778854370117,0.04297199472784996,-41.387420654296875, 14.620320320129395
653,1530974862,0.60916257,0.27259636,-0.73298883,0.13168065,-1.0111558437347412,-0.4131107032299042,-0.6345219016075134,-0.822725772857666,-49.412940979003906, 9.886277198791504
654,1530991529,0.60310316,0.27252063,-0.738551,0.12861395,-0.5647966265678406,-1.6904959678649902,-0.3850649297237396,-10.252971649169922,-56.78685760498047, 3.825601816177368
655,1531008196,0.5964756,0.27347165,-0.74408835,0.1255501,0.12489701062440872,-2.1518759727478027,-0.328614205121994,-4.883700370788574,-60.531883239746094, -0.9710027575492859
656,1531024863,0.5890017,0.27592447,-0.749577,0.12278935,0.2918160855770111,-0.6251295208930969,0.12928378582000732,4.464138031005859,-65.45268249511719, -6.842038154602051
657,1531041530,0.5803709,0.27851117,-0.75586754,0.119438864,-0.307476282119751,-0.4215918481349945,1.7355207204818726,3.4919469356536865,-75.9734878540039, -7.446174144744873
658,1531058197,0.5696881,0.2817667,-0.7633142,0.11582128,-0.40778878331184387,0.7064595222473145,1.85199773311615,7.767205715179443,-92.43418884277344, -8.1040678024292
659,1531074864,0.5575431,0.28540424,-0.7714911,0.11176646,0.28046664595603943,0.28113996982574463,2.1873908042907715,9.239211082458496,-104.23957061767578, -9.223260879516602
660,1531091531,0.5442599,0.2890141,-0.78018093,0.107563674,0.7322462201118469,0.10837515443563461,1.1513975858688354,10.207718849182129,-112.64451599121094, -7.760627746582031
661,1531108198,0.5302903,0.29240316,-0.78904533,0.1034416,1.4505674839019775,0.4274807870388031,0.6682304739952087,11.06557559967041,-116.76004791259766, -5.42445707321167
662,1531124865,0.51519626,0.29801032,-0.7971458,0.10159456,2.1080100536346436,1.075784683227539,1.4597184658050537,34.3161506652832,-117.17388916015625, -9.904045104980469
663,1531141532,0.49877346,0.30576354,-0.8046053,0.10170702,3.229961395263672,0.7719142436981201,2.720797538757324,55.85325241088867,-119.79717254638672, -15.108004570007324
664,1531158199,0.4806389,0.31444567,-0.81230575,0.10134001,3.8020758628845215,0.9281810522079468,2.5666654109954834,59.84412384033203,-131.9322967529297, -20.202180862426758
665,1531174866,0.46007755,0.32415673,-0.82048106,0.10030959,5.936408996582031,0.7324101328849792,5.51586389541626,64.48430633544922,-149.39068603515625, -25.435405731201172
666,1531191533,0.43595418,0.33585972,-0.8289435,0.0999742,9.525765419006348,0.0005484968423843384,5.806938648223877,82.49262237548828,-170.5254669189453, -31.403724670410156
667,1531208200,0.409195,0.34792858,-0.8375764,0.09985564,13.654526710510254,0.07735276222229004,7.841875076293945,90.83380126953125,-186.18505859375, -30.690401077270508
668,1531224867,0.38029453,0.36009127,-0.84594107,0.10047028,15.527266502380371,-1.0051295757293701,10.625757217407227,100.67945098876953,-196.58238220214844, -28.397064208984375
669,1531241534,0.35126638,0.3703965,-0.8539469,0.100962006,14.564956665039062,-0.7509832978248596,12.593966484069824,95.71089935302734,-196.01597595214844, -18.785951614379883
670,1531258201,0.32719305,0.37802577,-0.85984826,0.10345206,12.702239036560059,-2.515186071395874,11.053586959838867,89.86043548583984,-155.50070190429688, -7.085139274597168
671,1531274868,0.30295405,0.38647082,-0.8634883,0.115096904,4.794358253479004,0.27993711829185486,8.595688819885254,147.85440063476562,-128.69610595703125, 2.8905346393585205
672,1531291535,0.27974027,0.3905314,-0.86854696,0.121888466,-0.594100832939148,2.056793451309204,2.7768025398254395,106.06843566894531,-135.22621154785156, 21.844314575195312
673,1531308202,0.26276597,0.39341488,-0.8716625,0.12799798,1.2495940923690796,6.206709861755371,8.132730484008789,84.62999725341797,-95.0249252319336, 17.218441009521484
674,1531324869,0.26580557,0.3881488,-0.8751547,0.11310327,0.9675315022468567,6.618487358093262,22.30112075805664,-110.32011413574219,-25.516189575195312, 11.63623332977295
675,1531341536,0.27493384,0.38234803,-0.876268,0.101862274,-0.3993363082408905,-3.9942028522491455,15.531583786010742,-103.57127380371094,25.260513305664062, 10.49278736114502
676,1531358203,0.28860757,0.37972367,-0.87291926,0.10260542,-1.2081071138381958,3.2843899726867676,15.36703109741211,-34.27503967285156,90.18008422851562, -1.0558925867080688
677,1531374870,0.3111158,0.37507543,-0.8668668,0.10520254,-0.03558579087257385,-2.5800297260284424,14.752069473266602,-48.24625015258789,154.68319702148438, 1.5252171754837036
678,1531391537,0.33729187,0.372965,-0.8560359,0.1197256,-0.547851026058197,-2.556105375289917,12.809746742248535,22.229223251342773,215.5193328857422, -3.126675844192505
679,1531408204,0.3696871,0.37013948,-0.8410279,0.1378419,-0.294013112783432,-1.8629947900772095,9.743817329406738,29.18505096435547,271.50244140625, -6.435000419616699
680,1531424871,0.40653336,0.36700237,-0.8212253,0.16009068,0.7316112518310547,-2.8129379749298096,8.05610179901123,45.501502990722656,320.1863098144531, -10.539482116699219
681,1531441538,0.4477296,0.3618132,-0.79700726,0.18278114,3.039142608642578,-2.602994203567505,7.124698638916016,36.12266540527344,360.4161376953125, -13.660740852355957
682,1531458205,0.49192885,0.35369837,-0.7687551,0.20474255,5.67007303237915,-3.2347683906555176,3.444192886352539,20.71188735961914,391.07110595703125, -13.705397605895996
683,1531474872,0.537749,0.34203136,-0.73720866,0.22441909,7.326941013336182,-1.7684088945388794,-0.16405385732650757,-2.6972227096557617,410.19464111328125, -13.0125093460083
684,1531491539,0.58440334,0.3249803,-0.7042776,0.23844038,9.724467277526855,-2.06019926071167,-4.368799209594727,-51.10895919799805,414.6080017089844, -11.228271484375
685,1531508206,0.6281257,0.30505618,-0.67130846,0.24848352,11.508145332336426,0.8146644830703735,-10.986865997314453,-75.2989273071289,396.5483093261719, -8.67859935760498
686,1531524873,0.66833055,0.2789806,-0.64190394,0.25191987,11.3717041015625,1.78121018409729,-17.02208137512207,-131.10861206054688,361.97088623046875, 4.631011962890625
687,1531541540,0.7002791,0.25954223,-0.6133823,0.2569229,7.635983467102051,1.2945690155029297,-21.637767791748047,-79.39022064208984,313.58807373046875, -1.4778473377227783
688,1531558207,0.7233548,0.24778025,-0.59008384,0.25915992,2.5886940956115723,5.2405571937561035,-24.86886978149414,-47.520877838134766,233.2969512939453, -22.160078048706055
689,1531574874,0.7362531,0.24153568,-0.5773151,0.25748646,-2.272218704223633,2.429887056350708,-29.917098999023438,-37.48271942138672,124.01204681396484, -27.771127700805664
690,1531591541,0.73611486,0.24401096,-0.5777133,0.25463906,-3.7545995712280273,2.397463083267212,-30.71630859375,0.2207883596420288,-10.768038749694824, -23.310056686401367
691,1531608208,0.7255781,0.25067866,-0.5911492,0.24746561,-0.6632061004638672,3.086988925933838,-26.99773597717285,-1.253218412399292,-131.67416381835938, -21.710494995117188
692,1531624875,0.70980054,0.25715068,-0.61249596,0.23431993,5.390542030334473,6.412243366241455,-7.632278919219971,-31.06189727783203,-201.57113647460938, -28.054489135742188
693,1531641542,0.6987999,0.25616628,-0.63225985,0.21518636,8.378758430480957,-0.19409333169460297,13.193830490112305,-98.65960693359375,-172.11004638671875, -36.13620376586914
694,1531658209,0.6840211,0.26144534,-0.6487167,0.2071911,9.995657920837402,-10.285500526428223,-8.474013328552246,-8.519227027893066,-162.80967712402344, -10.073295593261719
