PacketCounter,SampleTimeFine,Quat_W,Quat_X,Quat_Y,Quat_Z,Acc_X,Acc_Y,Acc_Z,Gyr_X,Gyr_Y,Gyr_Z 
1,1560849342,0.47252515,0.5026723,-0.23389013,0.6850809,-0.04484708234667778,-0.06917420774698257,-0.14243799448013306,0.0012365743750706315,0.549115777015686, -0.09501753002405167
2,1560866009,0.47177827,0.5003372,-0.23449798,0.68709433,14.999847412109375,2.400879144668579,6.418832778930664,0.8417550325393677,2.3585774898529053, 1.1571369171142578
3,1560882676,0.4709523,0.4993917,-0.23475067,0.6882618,14.815526008605957,2.5491576194763184,6.137303829193115,1.4166576862335205,2.594329595565796, 0.5609117150306702
4,1560899343,0.47071514,0.5003619,-0.23451279,0.6878002,14.9541015625,2.6367053985595703,6.295028209686279,1.1057194471359253,2.9866394996643066, 0.11983542889356613
5,1560916010,0.4710078,0.50134426,-0.233746,0.68714523,15.1200590133667,2.5419669151306152,6.503326416015625,1.1755396127700806,3.185201644897461, -0.08993899077177048
6,1560932677,0.4713097,0.5015858,-0.2331008,0.686981,14.988582611083984,2.441011667251587,6.372707366943359,1.2453984022140503,3.1486780643463135, 0.021764392033219337
7,1560949344,0.47125384,0.50153434,-0.23273055,0.68718255,14.711920738220215,2.358839511871338,6.3469462394714355,0.9595221877098083,3.41969895362854, 0.626928448677063
8,1560966011,0.47125793,0.5012103,-0.23260991,0.68745685,14.723562240600586,2.540161609649658,6.327486515045166,1.5205554962158203,3.172830820083618, 0.7940000891685486
9,1560982678,0.47156158,0.50087065,-0.23259197,0.6875024,14.490011215209961,2.6104555130004883,6.339013576507568,2.234894275665283,2.8601512908935547, 1.1825193166732788
10,1560999345,0.47177148,0.5005744,-0.23231593,0.6876672,14.423572540283203,2.617074728012085,6.173943519592285,1.477705478668213,2.5810494422912598, 1.2648253440856934
11,1561016012,0.4719087,0.5004036,-0.23201287,0.6877999,14.588506698608398,2.5631144046783447,6.1321916580200195,0.4195040166378021,2.10271954536438, 1.2122172117233276
12,1561032679,0.47245362,0.50015676,-0.23209475,0.68757755,14.824538230895996,2.5171520709991455,6.359499454498291,0.37780651450157166,2.200751543045044, 1.203316569328308
13,1561049346,0.4733519,0.49972403,-0.23253332,0.687126,14.744102478027344,2.4129648208618164,6.524839401245117,1.2696534395217896,2.509922742843628, 1.8056378364562988
14,1561066013,0.47332516,0.49944738,-0.23248462,0.6873621,14.646381378173828,2.5004372596740723,6.21989107131958,0.8344425559043884,2.2982594966888428, 2.449361562728882
15,1561082680,0.47336185,0.49909845,-0.23256376,0.6875635,14.346602439880371,2.4814305305480957,6.0757622718811035,0.12904319167137146,2.6580541133880615, 2.6618831157684326
16,1561099347,0.47400305,0.49861696,-0.23300374,0.6873221,14.373350143432617,2.534970760345459,6.038504600524902,0.1947782039642334,2.7057323455810547, 2.010103940963745
17,1561116014,0.47436756,0.49830842,-0.23317713,0.68723553,14.344080924987793,2.4291887283325195,6.244403839111328,0.1900654435157776,2.6664681434631348, 1.4710336923599243
18,1561132681,0.47439626,0.49813253,-0.23315941,0.68734914,14.407585144042969,2.4262309074401855,6.071414470672607,0.45440128445625305,2.192991256713867, 1.5891591310501099
19,1561149348,0.47496554,0.4977205,-0.23360157,0.6871043,14.664595603942871,2.4961700439453125,6.257594585418701,-1.0704957246780396,2.2916386127471924, 1.3847953081130981
20,1561166015,0.4751997,0.49736828,-0.23381801,0.6871239,14.553876876831055,2.245609760284424,6.470707416534424,-0.3908625841140747,2.7880895137786865, 1.9835432767868042
21,1561182682,0.47525588,0.49703905,-0.23380712,0.6873271,14.326842308044434,2.4103453159332275,6.192637920379639,0.5241063237190247,3.2361068725585938, 1.7077972888946533
22,1561199349,0.4757854,0.49654332,-0.23414376,0.6872044,14.301641464233398,2.3225927352905273,5.904295444488525,-0.03421856090426445,3.1493051052093506, 1.5141011476516724
23,1561216016,0.47627813,0.49600565,-0.234459,0.6871438,14.191228866577148,2.2338995933532715,6.0968475341796875,-0.46699637174606323,3.7540721893310547, 1.5397777557373047
24,1561232683,0.4767073,0.495519,-0.23482865,0.6870711,14.34556770324707,2.398603677749634,6.123049736022949,-1.098541498184204,3.054525375366211, 1.433715581893921
25,1561249350,0.47715542,0.49498957,-0.23537636,0.68695426,14.226633071899414,2.2805018424987793,6.254310607910156,-1.7292544841766357,2.6728458404541016, 2.13140606880188
26,1561266017,0.47774017,0.4943831,-0.23618788,0.68670595,14.250555038452148,2.4699807167053223,6.169140815734863,-2.964387893676758,1.9769225120544434, 2.4323673248291016
27,1561282684,0.47811306,0.49388075,-0.23677763,0.68660486,14.508455276489258,2.3862714767456055,6.393395900726318,-2.6597509384155273,2.0207719802856445, 2.220999002456665
28,1561299351,0.47848165,0.49338907,-0.23722523,0.6865471,14.684802055358887,1.9244592189788818,6.562953472137451,-1.4064445495605469,2.561148166656494, 2.0977888107299805
29,1561316018,0.47876057,0.49297065,-0.2374228,0.68658483,14.603425979614258,1.857898235321045,6.3394317626953125,-0.1747170090675354,2.9598352909088135, 1.2306581735610962
30,1561332685,0.479178,0.49254465,-0.2375485,0.68655586,14.433359146118164,2.060762882232666,6.151904106140137,0.280657559633255,3.3395822048187256, 0.14063292741775513
31,1561349352,0.47964212,0.49207425,-0.237441,0.6866063,14.254655838012695,1.9941433668136597,6.101131916046143,-0.184731587767601,4.269476890563965, -0.9891113042831421
32,1561366019,0.4801294,0.49161744,-0.23709218,0.68671346,14.192704200744629,1.9793872833251953,6.022212505340576,0.81938236951828,4.969997406005859, -1.5995900630950928
33,1561382686,0.48073778,0.49112788,-0.23683074,0.68672854,14.076933860778809,2.1113390922546387,6.0076823234558105,-0.16511227190494537,4.653975009918213, -1.9777487516403198
34,1561399353,0.48144284,0.49059018,-0.23680393,0.6866282,13.889714241027832,2.1944315433502197,6.018994331359863,-1.6257661581039429,3.894712209701538, -1.7504615783691406
35,1561416020,0.48219636,0.49009496,-0.2370366,0.6863725,13.686853408813477,2.5140509605407715,5.771104335784912,-2.9149298667907715,2.410609722137451, -1.5700582265853882
36,1561432687,0.4829717,0.489642,-0.23748606,0.6859953,13.631342887878418,2.8412277698516846,5.858160972595215,-4.24301290512085,1.0892890691757202, -1.4739983081817627
37,1561449354,0.48363402,0.48923627,-0.23786734,0.685686,13.796820640563965,2.378236770629883,6.541566848754883,-4.489867687225342,0.9355358481407166, -1.5580333471298218
38,1561466021,0.48411885,0.48889726,-0.23829532,0.6854371,14.523210525512695,1.8799116611480713,6.915607452392578,-3.8178935050964355,0.36040276288986206, -0.49006062746047974
39,1561482688,0.48413557,0.48869404,-0.23861219,0.68545985,14.784217834472656,1.4757083654403687,6.610374450683594,-0.5205012559890747,0.2777121067047119, 2.146401882171631
40,1561499355,0.48384348,0.48848772,-0.23893245,0.68570155,14.302111625671387,1.5391744375228882,6.1881608963012695,0.16176344454288483,0.4008580148220062, 4.0181145668029785
41,1561516022,0.48355004,0.48819885,-0.23924097,0.6860066,13.706236839294434,1.955092430114746,6.105601787567139,0.011122315190732479,1.037474513053894, 4.307601451873779
42,1561532689,0.48340508,0.48783788,-0.2395296,0.6862649,13.374589920043945,1.9788273572921753,5.6896257400512695,0.35230907797813416,1.6990121603012085, 3.993244171142578
43,1561549356,0.48336667,0.48747092,-0.23976721,0.6864697,13.790839195251465,2.1639223098754883,5.6078386306762695,-0.43760576844215393,1.806700587272644, 2.9013874530792236
44,1561566023,0.4835316,0.48699385,-0.24010162,0.6865751,13.741618156433105,1.9438416957855225,6.087411880493164,-1.6922951936721802,2.0779776573181152, 2.3131022453308105
45,1561582690,0.4838189,0.48651618,-0.24061196,0.6865329,13.716249465942383,2.1652543544769287,6.117791175842285,-3.0496785640716553,1.219132661819458, 1.8935022354125977
46,1561599357,0.48414695,0.48607537,-0.24117522,0.68641615,13.659942626953125,2.136357307434082,6.094037055969238,-3.9411160945892334,0.6042612791061401, 1.3432645797729492
47,1561616024,0.48443955,0.48567957,-0.24168766,0.6863097,13.837555885314941,2.070260763168335,6.172381401062012,-3.6547791957855225,0.49736669659614563, 1.1942756175994873
48,1561632691,0.48458228,0.48530504,-0.24219577,0.6862947,14.215580940246582,1.3500112295150757,6.557286262512207,-2.6468801498413086,0.5062798261642456, 2.277167320251465
49,1561649358,0.48436403,0.48502013,-0.24249402,0.6865447,14.174529075622559,1.2012286186218262,6.231747150421143,0.3164640963077545,1.0640347003936768, 4.0114030838012695
50,1561666025,0.48395124,0.48477122,-0.24257575,0.6869826,13.792145729064941,1.753877878189087,5.923149108886719,1.2860970497131348,1.7465623617172241, 4.242071628570557
51,1561682692,0.48379314,0.4844047,-0.24283567,0.68726057,13.577402114868164,1.906680941581726,5.846959114074707,-0.22778654098510742,1.7300032377243042, 3.6841371059417725
52,1561699359,0.4838169,0.4839974,-0.24311034,0.6874338,13.516275405883789,2.0330402851104736,5.701418876647949,-0.4191390573978424,1.9487615823745728, 2.9656753540039062
53,1561716026,0.48387998,0.48352638,-0.24326706,0.68766546,13.755505561828613,1.8550310134887695,5.8437418937683105,-1.2591458559036255,2.734750986099243, 2.1666228771209717
54,1561732693,0.4840099,0.48308274,-0.24340187,0.6878382,13.854050636291504,1.5594980716705322,6.184355735778809,-0.9979348182678223,2.6531620025634766, 1.716172695159912
55,1561749360,0.48412132,0.48276305,-0.24350607,0.68794703,14.092809677124023,1.7062500715255737,6.296186447143555,0.091033935546875,2.0070817470550537, 1.5436710119247437
56,1561766027,0.4841452,0.48243535,-0.24344392,0.6881822,14.038840293884277,1.5313823223114014,6.39219856262207,1.5853302478790283,2.9029886722564697, 1.9460211992263794
57,1561782694,0.48405245,0.482252,-0.24338305,0.68839765,13.910172462463379,1.4279106855392456,6.181971073150635,1.6008387804031372,1.8324031829833984, 1.8144487142562866
58,1561799361,0.48398808,0.48206636,-0.24334165,0.6885874,13.735726356506348,1.7903066873550415,5.983026027679443,2.175600290298462,1.8591681718826294, 2.035191535949707
59,1561816028,0.48399848,0.48184094,-0.24330117,0.6887522,13.770833969116211,1.6875712871551514,5.869375228881836,1.44731605052948,2.045321464538574, 1.5319788455963135
60,1561832695,0.48402607,0.48160356,-0.24304038,0.6889908,13.661957740783691,1.8649954795837402,5.74298095703125,2.0319387912750244,3.042449474334717, 0.7626246213912964
61,1561849362,0.4842227,0.48133716,-0.2427605,0.6891374,13.549396514892578,1.7312480211257935,5.74038028717041,1.8099408149719238,3.2981152534484863, -0.12000830471515656
62,1561866029,0.48467174,0.4809142,-0.24272652,0.68912905,13.547801971435547,1.7963920831680298,5.927303791046143,-0.6914404630661011,3.171473503112793, -0.6218891739845276
63,1561882696,0.4851164,0.4805239,-0.24278012,0.68906957,13.70001220703125,1.860796570777893,5.820106029510498,-1.4366803169250488,2.492621660232544, -0.7044388651847839
64,1561899363,0.4854772,0.48020124,-0.24271618,0.68906283,13.7107572555542,1.659167766571045,6.176536560058594,-0.08584097027778625,2.6294193267822266, -0.5323472023010254
65,1561916030,0.4857111,0.48001668,-0.24249193,0.68910575,14.03372573852539,1.6452503204345703,5.97650671005249,1.9460335969924927,2.5041470527648926, -0.37966984510421753
66,1561932697,0.4858676,0.47973558,-0.24216639,0.6893055,13.801348686218262,1.5795518159866333,6.185800075531006,2.3314924240112305,3.6490349769592285, 0.20066912472248077
67,1561949364,0.4860396,0.47944036,-0.24202195,0.6894404,13.803016662597656,1.7779573202133179,6.029683589935303,0.8516159057617188,2.860189437866211, 0.33403444290161133
68,1561966031,0.48632288,0.47903952,-0.24196586,0.689539,13.673604011535645,1.7548162937164307,5.862157344818115,-0.054452598094940186,3.1743931770324707, 0.2936944365501404
69,1561982698,0.48661363,0.47853184,-0.24189423,0.6897113,13.490937232971191,1.396942138671875,5.884912967681885,-0.27545180916786194,3.9856629371643066, 0.6178616881370544
70,1561999365,0.4869521,0.4780448,-0.24176121,0.6898567,13.440184593200684,1.7605676651000977,5.833346843719482,-0.25046661496162415,4.064883232116699, -0.0013190541649237275
71,1562016032,0.48729134,0.47757012,-0.24154682,0.69002104,13.616178512573242,1.8965928554534912,5.954296588897705,0.5485023856163025,4.393826484680176, -0.06070210039615631
72,1562032699,0.48769855,0.4770815,-0.24149045,0.6900912,13.639813423156738,1.6023445129394531,6.21531867980957,-0.6501271724700928,3.7321221828460693, -0.16152648627758026
73,1562049366,0.48798344,0.4766575,-0.24147807,0.69018734,13.739524841308594,1.5514601469039917,6.154286861419678,-0.2997838258743286,3.142390012741089, 0.4929996430873871
74,1562066033,0.48804379,0.4762835,-0.24136302,0.6904429,13.668397903442383,1.6180328130722046,6.115509986877441,-0.21268782019615173,3.1708455085754395, 0.9140723943710327
75,1562082700,0.48805183,0.4759504,-0.24127415,0.6906979,13.653043746948242,1.7047514915466309,6.032865047454834,-0.03352702409029007,2.8003838062286377, 1.175001859664917
76,1562099367,0.48810926,0.47558382,-0.2412339,0.69092387,13.614152908325195,1.7366857528686523,6.118310928344727,-0.5856984257698059,2.784785747528076, 1.0583744049072266
77,1562116034,0.4881475,0.47518656,-0.24122024,0.69117475,13.612178802490234,1.5554085969924927,5.978959560394287,-0.7110981345176697,2.891692876815796, 1.3719377517700195
78,1562132701,0.48822245,0.4747465,-0.2411638,0.6914439,13.560701370239258,1.8899449110031128,5.843550205230713,-0.7409114241600037,3.3616220951080322, 1.1876033544540405
79,1562149368,0.48832962,0.47424018,-0.24111181,0.6917338,13.454439163208008,1.5908043384552002,5.9318060874938965,-1.0589569807052612,3.786792755126953, 1.230965495109558
80,1562166035,0.488476,0.4737236,-0.2410518,0.69200516,13.546357154846191,1.6222386360168457,5.834222316741943,-1.2129662036895752,3.8689324855804443, 0.9715472459793091
81,1562182702,0.48861092,0.47321448,-0.2409389,0.6922976,13.55164909362793,1.6156158447265625,6.0160603523254395,-0.8615728616714478,4.0647292137146, 0.9122411608695984
82,1562199369,0.48881477,0.47266793,-0.24104775,0.69248915,13.640934944152832,1.5072717666625977,6.265853404998779,-2.435037612915039,3.2851040363311768, 1.0271012783050537
83,1562216036,0.48898512,0.47220367,-0.24116261,0.69264555,13.631053924560547,1.6500964164733887,6.323083877563477,-2.133845090866089,2.702030658721924, 0.9496482610702515
84,1562232703,0.4891507,0.47182405,-0.24121517,0.6927691,13.753654479980469,1.4905602931976318,6.201268672943115,-1.5911505222320557,2.3918612003326416, 0.5193935632705688
85,1562249370,0.48932227,0.47147238,-0.24120162,0.692892,13.828679084777832,1.1725486516952515,6.119041919708252,-1.2026443481445312,2.49045729637146, 0.2245657593011856
86,1562266037,0.4894505,0.47124895,-0.24097267,0.69303316,13.72109317779541,1.3305655717849731,6.164447784423828,0.42867332696914673,2.595200300216675, -0.42622092366218567
87,1562282704,0.48960167,0.47112793,-0.24059154,0.69314104,13.714334487915039,1.569969654083252,6.071680068969727,1.3702731132507324,2.5519020557403564, -1.313470482826233
88,1562299371,0.4898249,0.47099555,-0.2402085,0.6932063,13.672295570373535,1.4987587928771973,6.040792465209961,1.0365971326828003,2.5968074798583984, -1.7873053550720215
89,1562316038,0.49010465,0.47085166,-0.23981392,0.69324285,13.600494384765625,1.3757456541061401,6.0628485679626465,0.8220587372779846,2.694500684738159, -2.1732118129730225
90,1562332705,0.4904157,0.47071207,-0.23940955,0.69325733,13.753898620605469,1.473412036895752,5.881915092468262,0.7472825646400452,2.6896727085113525, -2.4381115436553955
91,1562349372,0.49072054,0.47056678,-0.23890235,0.69331515,13.780352592468262,1.486354947090149,5.972033500671387,1.3089946508407593,3.198622941970825, -2.586690902709961
92,1562366039,0.4909726,0.47041008,-0.23834778,0.69343406,13.83534049987793,1.494312047958374,6.241804599761963,1.7671293020248413,3.5252106189727783, -2.262895107269287
93,1562382706,0.49118832,0.47022364,-0.23786747,0.6935725,13.680480003356934,1.5473918914794922,6.157402515411377,1.462209701538086,3.4167914390563965, -1.734158992767334
94,1562399373,0.49135837,0.47004148,-0.23731558,0.69376475,13.536395072937012,1.8486472368240356,6.011738300323486,2.052736520767212,3.7356059551239014, -1.571441650390625
95,1562416040,0.49157667,0.46980622,-0.23688869,0.69391537,13.577982902526855,1.8142756223678589,6.001447677612305,1.0508188009262085,3.5102274417877197, -1.4453887939453125
96,1562432707,0.4917785,0.46955115,-0.23655899,0.69405735,13.686738967895508,1.6801716089248657,6.106207847595215,0.5571466684341431,3.221904754638672, -1.0467270612716675
97,1562449374,0.4919081,0.46929508,-0.23631047,0.69422346,13.591940879821777,1.5982171297073364,6.242826461791992,0.43899527192115784,2.912951707839966, -0.3559012711048126
98,1562466041,0.4919383,0.4691298,-0.23612928,0.6943754,13.784570693969727,1.7556414604187012,6.063043594360352,0.7225023508071899,2.0426065921783447, 0.13904495537281036
99,1562482708,0.49199387,0.4688931,-0.23599058,0.6945428,13.593764305114746,1.6495139598846436,6.349808216094971,0.22072386741638184,2.3338868618011475, 0.3246217668056488
100,1562499375,0.49200845,0.4687234,-0.2358625,0.69469064,13.611796379089355,1.457624077796936,6.038334369659424,0.4973793923854828,1.8457852602005005, 0.3788950443267822
101,1562516042,0.49208298,0.46857536,-0.23570356,0.6947917,13.657055854797363,1.6810451745986938,6.030068397521973,0.4506041705608368,1.7956550121307373, -0.20346727967262268
102,1562532709,0.49220797,0.46843413,-0.23554856,0.69485086,13.542174339294434,1.5206446647644043,6.036552429199219,0.22378458082675934,1.6999086141586304, -0.584302544593811
103,1562549376,0.49243575,0.46828339,-0.2353161,0.6948698,13.859264373779297,1.6405338048934937,5.965658187866211,0.16654019057750702,2.046461343765259, -1.4472583532333374
104,1562566043,0.4926933,0.46802622,-0.23508967,0.69493705,13.767162322998047,1.2211191654205322,6.215313911437988,-0.24105395376682281,2.743408203125, -1.2357230186462402
105,1562582710,0.4928937,0.46783978,-0.23468727,0.69505656,13.76192569732666,1.3793991804122925,6.136187553405762,1.1108548641204834,3.078000068664551, -1.4730632305145264
106,1562599377,0.49306625,0.46768427,-0.23418261,0.695209,13.612822532653809,1.6309763193130493,6.121947765350342,1.8488078117370605,3.3401200771331787, -1.61066734790802
107,1562616044,0.49330723,0.46747908,-0.233742,0.69532454,13.566697120666504,1.7068300247192383,6.02003812789917,1.0941426753997803,3.35382342338562, -1.776573896408081
108,1562632711,0.49356493,0.4672266,-0.23334163,0.6954458,13.65611743927002,1.7688146829605103,6.129002094268799,0.6955450177192688,3.4918758869171143, -1.630620002746582
109,1562649378,0.49382296,0.46691215,-0.23301193,0.69558436,13.540220260620117,1.5772545337677002,6.157325744628906,0.17332755029201508,3.6069021224975586, -1.2453535795211792
110,1562666045,0.49407583,0.46664077,-0.23265457,0.69570637,13.751708984375,1.8940918445587158,6.031306743621826,0.4423377513885498,3.4346442222595215, -1.4366931915283203
111,1562682712,0.49425542,0.46631697,-0.232292,0.6959172,13.722725868225098,1.3796902894973755,6.3443803787231445,0.6648737788200378,3.876169204711914, -0.7143767476081848
112,1562699379,0.49441493,0.4660631,-0.23197816,0.69607866,13.764505386352539,1.5031625032424927,6.052098274230957,0.6578685641288757,3.185675621032715, -0.7474297881126404
113,1562716046,0.49456584,0.46574503,-0.23164555,0.6962951,13.587451934814453,1.4745827913284302,6.227410316467285,0.6448190808296204,3.724708318710327, -0.4813907742500305
114,1562732713,0.49471247,0.46553075,-0.23126474,0.6964607,13.5526704788208,1.6126675605773926,6.003196716308594,1.1621826887130737,3.2235054969787598, -0.9570696949958801
115,1562749380,0.49490055,0.46527958,-0.23087493,0.6966242,13.642684936523438,1.6987558603286743,6.109663486480713,0.9440392851829529,3.495474100112915, -1.1334388256072998
116,1562766047,0.49506712,0.46508554,-0.23050931,0.6967564,13.69120979309082,1.6487458944320679,6.056773662567139,1.0414955615997314,3.008960723876953, -1.1502022743225098
117,1562782714,0.49524003,0.4648313,-0.23018211,0.6969114,13.565174102783203,1.557618260383606,6.268233299255371,0.668408215045929,3.2549195289611816, -0.886289119720459
118,1562799381,0.49545822,0.46461535,-0.22990358,0.6969923,13.700495719909668,1.7050238847732544,6.083758354187012,0.30460548400878906,2.7418205738067627, -1.2631545066833496
119,1562816048,0.49564183,0.46443328,-0.22955483,0.6970981,13.734230995178223,1.5151455402374268,6.21317720413208,0.9056202173233032,2.8491759300231934, -1.291776418685913
120,1562832715,0.49582973,0.46423024,-0.22922966,0.6972065,13.714024543762207,1.3712419271469116,6.301631450653076,0.7131150960922241,2.8890416622161865, -1.1985974311828613
121,1562849382,0.49597895,0.46411604,-0.22886515,0.6972963,13.782170295715332,1.6689190864562988,6.0323805809021,1.3020024299621582,2.4780352115631104, -1.3469719886779785
122,1562866049,0.49619675,0.4639144,-0.22852115,0.69738823,13.688996315002441,1.668470025062561,6.207976341247559,0.688386082649231,2.945249080657959, -1.4651360511779785
123,1562882716,0.49639514,0.4637145,-0.22815463,0.69750005,13.701193809509277,1.5885841846466064,6.121631145477295,0.8945170640945435,3.04540753364563, -1.3772971630096436
124,1562899383,0.49664024,0.46348503,-0.22778626,0.69759846,13.700098037719727,1.596724510192871,5.983575344085693,0.6324864029884338,3.223877191543579, -1.6062109470367432
125,1562916050,0.49689758,0.4632387,-0.22733115,0.6977273,13.638948440551758,1.5786676406860352,6.2046661376953125,0.9990425109863281,3.719905138015747, -1.8103952407836914
126,1562932717,0.49714994,0.46305072,-0.22689219,0.69781506,13.667606353759766,1.640159249305725,6.10801887512207,1.0727688074111938,3.24395751953125, -1.9672220945358276
127,1562949384,0.4973736,0.46286437,-0.2264729,0.6979156,13.698943138122559,1.712127685546875,6.09519624710083,1.0948469638824463,3.1656980514526367, -1.7251946926116943
128,1562966051,0.49762294,0.46266538,-0.22614382,0.6979766,13.730813980102539,1.6681020259857178,6.260739326477051,0.47477617859840393,2.8336801528930664, -1.6755315065383911
129,1562982718,0.4978173,0.46253732,-0.22582848,0.69802487,13.782208442687988,1.719099521636963,6.147655010223389,0.8066911697387695,2.3201711177825928, -1.522021770477295
130,1562999385,0.49800435,0.46236876,-0.2255009,0.69810915,13.674057006835938,1.7071998119354248,6.152453899383545,0.8055129647254944,2.662459373474121, -1.3393776416778564
131,1563016052,0.49819973,0.462201,-0.22523148,0.6981676,13.753828048706055,1.6706244945526123,6.052464008331299,0.46229004859924316,2.3920021057128906, -1.284105658531189
132,1563032719,0.49837562,0.4620411,-0.2248729,0.69826347,13.629791259765625,1.66943359375,6.107822895050049,1.0371414422988892,2.7524240016937256, -1.3597397804260254
133,1563049386,0.49856657,0.46187773,-0.2244871,0.69835955,13.649900436401367,1.713028907775879,5.983003616333008,1.1084343194961548,2.8890676498413086, -1.5133262872695923
134,1563066053,0.49882197,0.46166915,-0.22411212,0.6984355,13.700382232666016,1.745858907699585,6.130216598510742,0.6652770638465881,3.109638214111328, -1.788342833518982
135,1563082720,0.49901572,0.46148276,-0.2237785,0.6985272,13.748139381408691,1.6471805572509766,6.257469177246094,0.7623555660247803,2.8197593688964844, -1.3421053886413574
136,1563099387,0.4992048,0.4612732,-0.22348222,0.6986253,13.596092224121094,1.6918179988861084,6.177039623260498,0.5294336676597595,2.818056583404541, -1.146270751953125
137,1563116054,0.4993226,0.46117035,-0.22311789,0.69872546,13.558880805969238,1.7334712743759155,6.0285115242004395,1.4525156021118164,2.4381563663482666, -1.17822265625
138,1563132721,0.49949336,0.461054,-0.22276554,0.69879276,13.616707801818848,1.7705631256103516,6.075107574462891,1.1293472051620483,2.444520950317383, -1.487892985343933
139,1563149388,0.4996717,0.46090674,-0.2224413,0.69886565,13.557024955749512,1.6362593173980713,6.129238605499268,0.8723621368408203,2.5306050777435303, -1.3696775436401367
140,1563166055,0.49987677,0.46082687,-0.22208965,0.6988837,13.678478240966797,1.8422092199325562,5.902575969696045,1.0682352781295776,2.1717073917388916, -1.8793319463729858
141,1563182722,0.500069,0.4606528,-0.22175924,0.69896555,13.547479629516602,1.5333631038665771,6.0770263671875,0.7786453366279602,2.742204427719116, -1.3880802392959595
142,1563199389,0.500319,0.4604885,-0.2214245,0.6990012,13.689282417297363,1.8435986042022705,6.025989532470703,0.5821318626403809,2.6566708087921143, -1.8579450845718384
143,1563216056,0.50051224,0.46030587,-0.22111091,0.6990824,13.649919509887695,1.444456934928894,6.090710639953613,0.6656420826911926,2.73642897605896, -1.3339093923568726
144,1563232723,0.50068015,0.46017942,-0.22071373,0.69917077,13.539962768554688,1.7522578239440918,6.049186706542969,1.3541499376296997,2.744086980819702, -1.544958233833313
145,1563249390,0.50087994,0.46004006,-0.22041923,0.69921225,13.55618953704834,1.766310214996338,5.981345176696777,0.6445243954658508,2.3584749698638916, -1.516553521156311
146,1563266057,0.5010695,0.45987496,-0.22013591,0.69927436,13.39884090423584,1.6063659191131592,5.941559314727783,0.564971387386322,2.500138998031616, -1.3238948583602905
147,1563282724,0.50127894,0.45974353,-0.21981761,0.69931084,13.498885154724121,1.8719691038131714,5.8901543617248535,0.7489473819732666,2.4146950244903564, -1.6727526187896729
148,1563299391,0.5014665,0.4595868,-0.219542,0.69936585,13.458745956420898,1.7254393100738525,5.973047256469727,0.5518831610679626,2.4230570793151855, -1.3308870792388916
149,1563316058,0.5016278,0.4594733,-0.21927798,0.6994076,13.449604988098145,1.7727235555648804,5.968249320983887,0.7085944414138794,2.0998635292053223, -1.281761884689331
150,1563332725,0.5017788,0.4593565,-0.21904664,0.6994486,13.533685684204102,1.7746057510375977,5.839597225189209,0.5712208151817322,1.9924695491790771, -1.1282778978347778
151,1563349392,0.50194037,0.4592158,-0.21881655,0.699497,13.554791450500488,1.7232987880706787,6.057569980621338,0.4598568379878998,2.150487184524536, -1.1152538061141968
152,1563366059,0.5020911,0.45907855,-0.218632,0.69953674,13.635477066040039,1.7146950960159302,5.960015296936035,0.27486908435821533,1.9343160390853882, -0.9557379484176636
153,1563382726,0.50220823,0.4589661,-0.21836984,0.6996082,13.670467376708984,1.7047020196914673,5.927289009094238,0.887204647064209,2.134619951248169, -0.9680191278457642
154,1563399393,0.502366,0.45877275,-0.21813883,0.69969386,13.592344284057617,1.6889721155166626,6.048361301422119,0.3513486385345459,2.523984432220459, -0.8952279686927795
155,1563416060,0.5025154,0.45862302,-0.21781303,0.6997863,13.484108924865723,1.8332207202911377,5.789236545562744,0.9952904582023621,2.648257255554199, -1.197035312652588
156,1563432727,0.502714,0.4584157,-0.21748242,0.6998822,13.497233390808105,1.8674412965774536,5.882997989654541,0.6675630807876587,3.028810977935791, -1.3487136363983154
157,1563449394,0.5029201,0.4582026,-0.21716534,0.69997215,13.510932922363281,1.7254558801651,5.886808395385742,0.5486176609992981,3.002852201461792, -1.3520561456680298
158,1563466061,0.50309795,0.45797154,-0.2168498,0.70009357,13.406774520874023,1.6281771659851074,5.898711204528809,0.6156332492828369,3.14231276512146, -1.0761175155639648
159,1563482728,0.50323665,0.45780686,-0.21653296,0.70019966,13.539824485778809,1.8403093814849854,5.804374694824219,0.9527989029884338,2.721970319747925, -1.0457024574279785
160,1563499395,0.5033871,0.4576115,-0.21624506,0.70030814,13.44485855102539,1.7643829584121704,6.013778209686279,0.6728392839431763,2.7983734607696533, -0.9563270211219788
161,1563516062,0.50349015,0.45749852,-0.21598981,0.70038664,13.704909324645996,1.9883852005004883,5.824759006500244,0.9049416184425354,2.12404203414917, -0.8535945415496826
162,1563532729,0.50361323,0.45728633,-0.21585715,0.70047736,13.620305061340332,1.849603295326233,5.94388484954834,-0.0755830779671669,2.2525665760040283, -0.37213972210884094
163,1563549396,0.5037299,0.45707333,-0.21578057,0.7005563,13.625167846679688,1.8068876266479492,5.9169020652771,-0.345976322889328,2.0197086334228516, -0.205234557390213
164,1563566063,0.50380725,0.45693555,-0.21572179,0.7006087,13.70746898651123,1.8823907375335693,5.81962776184082,-0.08691670745611191,1.458483338356018, -0.16497139632701874
165,1563582730,0.5038915,0.45679146,-0.21562934,0.7006704,13.869726181030273,1.9143764972686768,5.901806831359863,0.04436760023236275,1.6528196334838867, -0.26361873745918274
166,1563599397,0.5039167,0.45664552,-0.21551259,0.70078343,13.793964385986328,1.7181098461151123,6.029068470001221,0.4160078465938568,1.8276004791259766, 0.1253165304660797
167,1563616064,0.50389874,0.45650464,-0.21548931,0.7008952,13.78454303741455,1.7473710775375366,5.799912452697754,0.11822181195020676,1.4164270162582397, 0.6099728345870972
168,1563632731,0.50393873,0.45630506,-0.21553251,0.7009831,13.714447975158691,2.0161874294281006,5.844297409057617,-0.6223757266998291,1.4892823696136475, 0.5402422547340393
169,1563649398,0.50389034,0.4561901,-0.21552725,0.7010944,13.835726737976074,1.8891819715499878,5.9781880378723145,0.21447433531284332,1.1992955207824707, 0.7712047100067139
170,1563666065,0.5038144,0.45607942,-0.21552463,0.7012217,13.916056632995605,1.767904281616211,5.881556034088135,0.3265683352947235,1.186604380607605, 0.9603032469749451
171,1563682732,0.50371915,0.45597595,-0.21546146,0.7013769,13.917051315307617,1.8935396671295166,5.892207622528076,0.7455280423164368,1.4295921325683594, 0.9449996948242188
172,1563699399,0.5036775,0.4558689,-0.21546501,0.7014752,13.944658279418945,1.7290050983428955,5.819544792175293,0.15812639892101288,1.1260559558868408, 0.7010259628295898
173,1563716066,0.50364417,0.45577338,-0.2153998,0.70158124,13.957719802856445,1.6859081983566284,6.002193927764893,0.5170371532440186,1.3565702438354492, 0.4514046609401703
174,1563732733,0.50357586,0.45576712,-0.21527296,0.7016734,14.124160766601562,1.7425493001937866,5.8734517097473145,1.2139075994491577,1.0520737171173096, 0.24050965905189514
175,1563749400,0.5035339,0.45568445,-0.2151242,0.70180273,14.061525344848633,1.5524979829788208,5.902284622192383,1.0270626544952393,1.6646653413772583, 0.2811570167541504
176,1563766067,0.5034429,0.45573255,-0.21493207,0.70189553,14.115294456481934,1.642081379890442,5.900773048400879,1.7919474840164185,1.0077251195907593, 0.05424129217863083
177,1563782734,0.503367,0.455739,-0.21476981,0.7019955,14.123287200927734,1.6471024751663208,5.984191417694092,1.467895746231079,1.162131428718567, 0.1546686887741089
178,1563799401,0.50328624,0.4557046,-0.21466011,0.7021093,14.009099006652832,1.7542885541915894,5.964885711669922,1.111085295677185,1.2238835096359253, 0.4449758231639862
179,1563816068,0.5031032,0.45576742,-0.21449132,0.7022513,13.841937065124512,1.9252229928970337,5.718259334564209,2.0973408222198486,0.9065807461738586, 0.7054442167282104
180,1563832735,0.50309134,0.455782,-0.21460247,0.7022164,13.70743465423584,1.8461025953292847,5.699862957000732,-0.22422635555267334,-0.11838189512491226, 0.212707057595253
181,1563849402,0.5030535,0.45586875,-0.21470258,0.70215654,13.919821739196777,1.8482768535614014,5.807499408721924,0.12233265489339828,-0.5357792377471924, 0.1110246479511261
182,1563866069,0.5030718,0.45592758,-0.21466199,0.7021177,14.077733993530273,1.7058544158935547,5.7542033195495605,0.5605787038803101,0.23960039019584656, -0.48621866106987
183,1563882736,0.5030569,0.45597726,-0.21449882,0.70214593,14.06675910949707,1.6736087799072266,5.745863437652588,1.322979211807251,0.874193549156189, -0.46703478693962097
184,1563899403,0.5030952,0.45601064,-0.21436311,0.70213825,13.869592666625977,1.7080605030059814,5.819283962249756,0.914930522441864,0.8267075419425964, -0.7403607368469238
185,1563916070,0.50311637,0.45607427,-0.21432696,0.7020928,13.878695487976074,1.6461607217788696,5.804006099700928,0.5371686816215515,0.1911923736333847, -0.5213977098464966
186,1563932737,0.5031143,0.45611268,-0.21433492,0.70206696,13.873531341552734,1.5762667655944824,5.870645523071289,0.33966919779777527,0.18626193702220917, -0.1672893464565277
187,1563949404,0.5030173,0.45620918,-0.21443534,0.70204294,13.79333782196045,1.6145789623260498,5.667375087738037,0.3954280912876129,-0.5505194067955017, 0.498224675655365
188,1563966071,0.50297314,0.45627266,-0.21460573,0.7019813,13.581537246704102,1.8033275604248047,5.402905464172363,-0.2769501209259033,-0.6721668839454651, 0.37995797395706177
189,1563982738,0.5028534,0.45643437,-0.21472518,0.70192534,13.332874298095703,1.7864956855773926,5.577247619628906,0.5522418022155762,-1.0599943399429321, 0.46245646476745605
190,1563999405,0.5027536,0.4566932,-0.21482597,0.7017977,13.414813041687012,1.9849008321762085,5.258513927459717,0.8086376190185547,-1.660624623298645, -0.08005248010158539
191,1564016072,0.5027569,0.45687246,-0.21496576,0.70163584,13.433720588684082,1.9169305562973022,5.602777004241943,-0.03199026361107826,-1.3614046573638916, -0.44986143708229065
192,1564032739,0.5026958,0.45712113,-0.21504608,0.701493,13.480937004089355,1.684069275856018,5.5279083251953125,0.7225021719932556,-1.5254666805267334, -0.35982000827789307
193,1564049406,0.5026419,0.4573794,-0.2150662,0.7013571,13.37887191772461,1.7403408288955688,5.442676067352295,1.034631371498108,-1.3291070461273193, -0.5757863521575928
194,1564066073,0.5025251,0.457637,-0.2150902,0.7012655,13.240151405334473,1.6364134550094604,5.433233261108398,1.2741358280181885,-1.289945363998413, -0.10830330848693848
195,1564082740,0.5024165,0.45782745,-0.21520852,0.7011827,13.31104564666748,1.6727083921432495,5.2505927085876465,0.5665465593338013,-1.2510651350021362, 0.27102717757225037
196,1564099407,0.5023264,0.4579412,-0.21545677,0.70109665,13.010926246643066,1.5673185586929321,5.303677082061768,-0.377287894487381,-1.3033790588378906, 0.6972736716270447
197,1564116074,0.5022192,0.4581454,-0.21570663,0.7009632,12.95418930053711,1.672808051109314,5.0580220222473145,-0.09009265154600143,-1.9162522554397583, 0.48274165391921997
198,1564132741,0.50211966,0.45834818,-0.21587563,0.70085,12.875351905822754,1.5694841146469116,5.205756187438965,0.28306517004966736,-1.550054907798767, 0.2521122097969055
199,1564149408,0.50202763,0.45864394,-0.21603096,0.7006745,13.003585815429688,1.60835599899292,5.256690502166748,0.5925562381744385,-2.1243557929992676, -0.16041234135627747
200,1564166075,0.5018951,0.45901045,-0.21608742,0.70051193,12.933570861816406,1.5210360288619995,5.279670715332031,1.4693429470062256,-2.1358301639556885, -0.3347579836845398
201,1564182742,0.50179344,0.4594118,-0.21620104,0.70028675,12.83852767944336,1.5833091735839844,5.160632133483887,1.085190773010254,-2.6562418937683105, -0.5996445417404175
202,1564199409,0.50166047,0.45984268,-0.21633144,0.70005894,12.785395622253418,1.4804339408874512,5.058223724365234,1.2227566242218018,-2.900907039642334, -0.439116895198822
203,1564216076,0.5015143,0.46022347,-0.21652606,0.6998532,12.585524559020996,1.4383466243743896,5.07187557220459,0.8115447759628296,-2.8237106800079346, -0.02981318160891533
204,1564232743,0.50128734,0.46068195,-0.21669659,0.6996612,12.537800788879395,1.555014967918396,4.942111015319824,1.41848886013031,-3.1961445808410645, 0.1779506355524063
205,1564249410,0.5010634,0.4611064,-0.21690962,0.69947606,12.382673263549805,1.572621464729309,5.099437236785889,1.1042850017547607,-3.143843412399292, 0.37291449308395386
206,1564266077,0.5008301,0.46154484,-0.21712045,0.69928837,12.336370468139648,1.6608715057373047,4.932015895843506,1.2220906019210815,-3.214803457260132, 0.4010116457939148
207,1564282744,0.50054556,0.46199822,-0.21734649,0.6991227,12.274072647094727,1.6725744009017944,4.785659313201904,1.3773038387298584,-3.343571662902832, 0.737088680267334
208,1564299411,0.5002353,0.46244323,-0.21759024,0.69897455,12.035329818725586,1.5773576498031616,4.7162394523620605,1.419795274734497,-3.3288700580596924, 1.0182650089263916
209,1564316078,0.4999012,0.46290538,-0.21784815,0.69882727,11.937475204467773,1.6231485605239868,4.644726276397705,1.5191086530685425,-3.4777822494506836, 1.17384934425354
210,1564332745,0.49959373,0.46332902,-0.21814404,0.69867426,11.878678321838379,1.5975759029388428,4.6260576248168945,1.037922739982605,-3.4070911407470703, 1.162515640258789
211,1564349412,0.49927166,0.4637518,-0.21845753,0.69852585,11.840466499328613,1.3799883127212524,4.544031620025635,1.0008995532989502,-3.4663333892822266, 1.303603172302246
212,1564366079,0.4989018,0.46425593,-0.21879482,0.6983499,11.64730453491211,1.4184361696243286,4.5629706382751465,1.2937424182891846,-4.091616630554199, 1.3985751867294312
213,1564382746,0.49850073,0.46483573,-0.21921472,0.6981188,11.64430046081543,1.5711374282836914,4.528625965118408,1.3122731447219849,-4.937898635864258, 1.5868284702301025
214,1564399413,0.4980877,0.46537662,-0.21974494,0.6978865,11.542607307434082,1.4937881231307983,4.715939998626709,0.6139811873435974,-5.168104648590088, 2.013510227203369
215,1564416080,0.4975916,0.46598735,-0.22034329,0.6976441,11.53243350982666,1.5375884771347046,4.457202434539795,0.8157197833061218,-5.894763469696045, 2.5161855220794678
216,1564432747,0.49701488,0.46652535,-0.22098544,0.6974925,11.213847160339355,1.344072699546814,4.333657264709473,0.6055675148963928,-5.5591349601745605, 3.383713483810425
217,1564449414,0.49642214,0.46704623,-0.22169323,0.6973414,11.079166412353516,1.3712891340255737,4.111870288848877,0.2741263806819916,-5.729831218719482, 3.6948437690734863
218,1564466081,0.4958408,0.46753976,-0.22230491,0.6972295,10.90947437286377,1.30985426902771,3.9839730262756348,0.6673709750175476,-5.130186080932617, 3.5087287425994873
219,1564482748,0.4953667,0.46800998,-0.2228969,0.6970621,10.895837783813477,1.313429832458496,4.055532455444336,0.27786579728126526,-4.960091590881348, 2.794877052307129
220,1564499415,0.49494302,0.46852747,-0.22323853,0.69690603,10.919830322265625,1.3759568929672241,4.210281848907471,1.6597349643707275,-4.196999549865723, 1.801821231842041
221,1564516082,0.4945059,0.46906987,-0.2231962,0.6968652,10.703106880187988,1.337257981300354,4.179951190948486,3.695509433746338,-2.681457757949829, 0.9281594157218933
222,1564532749,0.49409947,0.4696776,-0.22319716,0.6967437,10.70528507232666,1.2045776844024658,4.067061424255371,3.684086322784424,-3.3256170749664307, 0.6541163325309753
223,1564549416,0.4935156,0.47048977,-0.22281493,0.69673204,10.772934913635254,1.2347136735916138,4.517038345336914,6.716041088104248,-2.9678843021392822, 0.19187115132808685
224,1564566083,0.49253637,0.4713766,-0.2212411,0.6973268,10.600159645080566,1.0254569053649902,4.099404811859131,14.029703140258789,1.9136604070663452, -0.2899743318557739
225,1564582750,0.49120438,0.4724961,-0.21896228,0.69822717,10.448027610778809,1.1516932249069214,4.15339469909668,20.618608474731445,3.7771551609039307, 0.22628214955329895
226,1564599417,0.48995554,0.4734891,-0.21647033,0.6992085,10.016182899475098,1.3687258958816528,3.912558078765869,21.05714988708496,5.485077381134033, -0.41203221678733826
227,1564616084,0.48871493,0.4745257,-0.21435384,0.7000255,9.771650314331055,1.3431004285812378,3.4640562534332275,19.051334381103516,3.4738359451293945, 0.11238226294517517
228,1564632751,0.48765892,0.4756241,-0.21364993,0.7002316,9.606680870056152,1.5477463006973267,3.4629836082458496,11.954534530639648,-3.0967049598693848, 2.228952646255493
229,1564649418,0.48649675,0.47679833,-0.2138718,0.7001738,9.50632095336914,1.7752772569656372,3.7192928791046143,6.872663974761963,-7.742133140563965, 4.3264665603637695
230,1564666085,0.48516807,0.47806138,-0.2143809,0.70007867,9.579893112182617,1.5392751693725586,3.7712559700012207,6.30448579788208,-9.493301391601562, 5.841036319732666
231,1564682752,0.48355484,0.47955486,-0.21459427,0.7001079,9.544026374816895,1.3821277618408203,3.514760732650757,9.43569278717041,-9.664908409118652, 6.224780559539795
232,1564699419,0.48199353,0.480908,-0.21511683,0.70009613,9.532461166381836,0.8655128479003906,3.4453859329223633,7.4541015625,-10.033655166625977, 7.173142433166504
233,1564716086,0.48032853,0.48239958,-0.21549737,0.7000974,9.416078567504883,1.076436996459961,3.4551875591278076,8.919367790222168,-10.34398078918457, 7.006533622741699
234,1564732753,0.47885448,0.48381922,-0.21624947,0.69989544,9.181021690368652,1.093277931213379,3.3131086826324463,5.978309154510498,-11.611359596252441, 6.759740829467773
235,1564749420,0.47753108,0.48518723,-0.21719643,0.69955933,8.983556747436523,1.1640284061431885,3.327465057373047,4.087796211242676,-12.240165710449219, 6.2717413902282715
236,1564766087,0.47642416,0.48638594,-0.21836935,0.6991163,9.0324068069458,1.2912319898605347,3.1699297428131104,1.6067177057266235,-12.19340705871582, 5.907899379730225
237,1564782754,0.47546384,0.48757142,-0.21950643,0.698588,9.148416519165039,0.9712055921554565,3.4560556411743164,1.1024415493011475,-12.076175689697266, 4.819998264312744
238,1564799421,0.4742939,0.48910517,-0.22020431,0.6980915,8.886370658874512,0.7917541861534119,3.2096188068389893,5.108193874359131,-12.525348663330078, 3.9294581413269043
239,1564816088,0.4731334,0.4907971,-0.2207302,0.6975251,8.644060134887695,0.785854160785675,3.076998233795166,6.311044692993164,-12.94484806060791, 2.827113151550293
240,1564832755,0.4721687,0.4923958,-0.22141163,0.6968358,8.462754249572754,0.8681966662406921,2.7606406211853027,4.42747163772583,-13.118692398071289, 2.152268409729004
241,1564849422,0.47146097,0.49387556,-0.22215052,0.6960324,8.228914260864258,0.7796335220336914,2.732367992401123,2.7187957763671875,-12.726393699645996, 0.91965651512146
242,1564866089,0.4711241,0.49525285,-0.22290799,0.69503886,8.316357612609863,0.5707550644874573,2.771756887435913,0.7496136426925659,-12.371131896972656, -1.2564188241958618
243,1564882756,0.47097367,0.49653417,-0.22348768,0.6940395,8.313350677490234,0.5709898471832275,2.629916191101074,0.6484946012496948,-11.068045616149902, -2.635573387145996
244,1564899423,0.47103813,0.49763805,-0.2239381,0.6930593,7.856931686401367,1.0556007623672485,2.261796712875366,-0.012639871798455715,-9.40100383758545, -3.778886318206787
245,1564916090,0.4715383,0.49841335,-0.22431438,0.69203985,7.420547008514404,1.2688508033752441,2.163869857788086,-2.276367664337158,-7.049128532409668, -5.7251691818237305
246,1564932757,0.47215196,0.49909657,-0.2241552,0.69117993,7.984139919281006,0.8543972969055176,2.1576216220855713,-0.17812354862689972,-4.146081924438477, -7.431013584136963
247,1564949424,0.47241512,0.49992228,-0.22323313,0.6907018,8.110898971557617,-0.07818059623241425,2.8208608627319336,5.699166774749756,-1.5632587671279907, -7.36771297454834
248,1564966091,0.47223628,0.5010272,-0.22184193,0.6904714,8.434103965759277,0.27286335825920105,2.849926233291626,10.745756149291992,-1.1951019763946533, -6.535404205322266
249,1564982758,0.47201806,0.5020024,-0.22079696,0.69024724,8.068551063537598,0.3774559497833252,2.615603446960449,8.83448314666748,-1.7412545680999756, -4.960144996643066
250,1564999425,0.47152424,0.5032105,-0.21960211,0.69008625,7.567061901092529,1.0196735858917236,2.5402419567108154,11.35498046875,-2.5572242736816406, -4.3357462882995605
251,1565016092,0.4709631,0.5045172,-0.2184018,0.6898963,7.3071722984313965,1.358675479888916,2.356501340866089,11.887775421142578,-3.2099897861480713, -4.276119232177734
252,1565032759,0.47063455,0.50576496,-0.21767214,0.6894374,6.76302433013916,1.7419661283493042,2.465193510055542,8.247888565063477,-5.035932540893555, -4.517838478088379
253,1565049426,0.47061437,0.5068119,-0.21756534,0.68871564,7.012007236480713,1.4323327541351318,2.299266815185547,3.1701161861419678,-6.559899806976318, -4.340225696563721
254,1565066093,0.47038564,0.507926,-0.2177119,0.68800455,7.119038105010986,1.379506230354309,2.6543755531311035,2.924656867980957,-7.97078800201416, -2.523209810256958
255,1565082760,0.46985832,0.50912637,-0.21825092,0.6873063,6.637882709503174,1.5282177925109863,2.495238780975342,2.405167818069458,-10.058558464050293, 0.18067844212055206
256,1565099427,0.4692913,0.5101869,-0.2192729,0.68658173,6.397488594055176,1.9133950471878052,2.1527459621429443,-0.23479172587394714,-11.117466926574707, 2.1994340419769287
257,1565116094,0.46866933,0.5110655,-0.22080311,0.6858625,6.353090763092041,1.7368217706680298,2.237536907196045,-3.0299198627471924,-11.963929176330566, 4.560887813568115
258,1565132761,0.46798748,0.5118957,-0.2227611,0.6850754,6.0657057762146,1.6487840414047241,1.9689295291900635,-5.104487419128418,-13.448101043701172, 6.222104549407959
259,1565149428,0.46746442,0.5127024,-0.22502142,0.6840899,5.664720058441162,1.6021064519882202,2.212484359741211,-7.474536418914795,-14.765748977661133, 5.956207275390625
260,1565166095,0.46729323,0.51334506,-0.22770254,0.6828365,6.320420742034912,0.743163526058197,2.4621798992156982,-11.641180038452148,-15.759040832519531, 5.1987385749816895
261,1565182762,0.46933356,0.5134206,-0.23214297,0.6798787,6.579972267150879,-0.1468530297279358,2.4853146076202393,-10.044598579406738,-17.22533416748047, 5.592239856719971
262,1565199429,0.4707796,0.51378185,-0.23622881,0.67719346,6.368350982666016,0.6226372718811035,2.104647636413574,-8.32577896118164,-18.102712631225586, 5.994821548461914
263,1565216096,0.47217095,0.5140314,-0.24038672,0.674567,5.550739765167236,1.4396175146102905,1.9961060285568237,-11.398950576782227,-18.236310958862305, 5.68876314163208
264,1565232763,0.4739137,0.5139435,-0.24497111,0.67175674,4.990910530090332,2.4574036598205566,1.820265293121338,-18.512786865234375,-18.623178482055664, 4.477449893951416
265,1565249430,0.47628674,0.51322585,-0.25034145,0.6686401,4.9775776863098145,1.7081319093704224,1.588047981262207,-31.06985855102539,-19.0622615814209, 2.7902796268463135
266,1565266097,0.47777662,0.51299727,-0.25484845,0.6660449,5.445280075073242,0.6706308126449585,1.85416841506958,-25.8875675201416,-18.93332290649414, 2.968247175216675
267,1565282764,0.4797424,0.51253027,-0.2599524,0.6630118,5.471546649932861,0.8916300535202026,2.079296588897705,-31.47344970703125,-20.479158401489258, 1.9837967157363892
268,1565299431,0.48154542,0.51212066,-0.26506537,0.65999013,5.341116428375244,0.3723836839199066,1.6490001678466797,-33.059234619140625,-21.42194938659668, 1.801446795463562
269,1565316098,0.48306027,0.51196784,-0.26975778,0.657094,4.898945331573486,0.32633665204048157,1.6025933027267456,-33.0859375,-21.905202865600586, 0.0758076086640358
270,1565332765,0.4853645,0.51161176,-0.27423635,0.6538112,4.2856526374816895,1.7866896390914917,1.7543683052062988,-38.158721923828125,-20.45510482788086, -5.824085712432861
271,1565349432,0.4899739,0.5093885,-0.28055453,0.6494139,4.026855945587158,2.404482364654541,1.5256476402282715,-63.065799713134766,-17.80994987487793, -9.920502662658691
272,1565366099,0.49475747,0.5061968,-0.28755197,0.6452085,6.098962783813477,-1.169690728187561,0.5799962282180786,-73.80016326904297,-15.35668659210205, -7.183995723724365
273,1565382766,0.4958654,0.5058146,-0.29076406,0.64321494,6.438801288604736,-2.4354867935180664,1.029740333557129,-30.796937942504883,-14.508718490600586, -2.306676149368286
274,1565399433,0.49688435,0.50655854,-0.29325092,0.6407092,5.139988422393799,-0.32840320467948914,1.9590911865234375,-16.47307014465332,-17.852779388427734, -5.8155670166015625
275,1565416100,0.49774995,0.50790995,-0.29509467,0.6381157,4.385214805603027,0.4040304720401764,1.583595871925354,-11.195972442626953,-18.964614868164062, -8.936301231384277
276,1565432767,0.49886364,0.50939953,-0.2973185,0.63501894,4.2821879386901855,-0.24779705703258514,1.1345065832138062,-14.276725769042969,-22.138961791992188, -10.70154094696045
277,1565449434,0.49977666,0.5111473,-0.29980856,0.6317171,4.54559850692749,0.22798596322536469,1.4543743133544922,-14.263143539428711,-25.306608200073242, -10.149051666259766
278,1565466101,0.5005878,0.5130271,-0.3020751,0.628463,4.948947906494141,0.2768023610115051,1.362131118774414,-12.380104064941406,-25.161893844604492, -10.609389305114746
279,1565482768,0.5005311,0.5153048,-0.30319124,0.62610275,5.22634220123291,0.12406428158283234,1.1172220706939697,-1.1200966835021973,-21.573223114013672, -8.676728248596191
280,1565499435,0.50009626,0.5170845,-0.30409127,0.6245445,4.908936977386475,0.1713571846485138,0.2719663679599762,1.1097289323806763,-16.621747970581055, -4.034747123718262
281,1565516102,0.49993005,0.5178207,-0.30539146,0.62343234,3.5602638721466064,1.604636788368225,0.13307420909404755,-4.220154762268066,-11.332178115844727, -0.06471051275730133
282,1565532769,0.50014997,0.51747096,-0.30676305,0.62287265,3.420806646347046,1.19703209400177,0.009659442119300365,-8.491777420043945,-4.118292331695557, 2.7631051540374756
283,1565549436,0.5002881,0.51662606,-0.30762115,0.62303996,3.911616802215576,0.811140239238739,0.43150365352630615,-6.184380054473877,2.211458683013916, 4.863449573516846
284,1565566103,0.50029325,0.5153474,-0.30847785,0.62367076,4.286962032318115,0.11126198619604111,0.8812006115913391,-6.22310733795166,5.457575798034668, 7.95458459854126
285,1565582770,0.49988732,0.5139397,-0.30913922,0.62482935,4.545337200164795,0.2332700937986374,0.9688734412193298,-3.2479870319366455,7.68629264831543, 11.098444938659668
286,1565599437,0.49884912,0.5126745,-0.30964166,0.6264478,4.0727458000183105,0.6869363784790039,1.2567399740219116,1.1405025720596313,7.905078411102295, 14.518168449401855
287,1565616104,0.49750236,0.51118517,-0.3101358,0.62848794,4.016838073730469,0.7040073275566101,0.8097043037414551,2.3938493728637695,9.717207908630371, 17.751678466796875
288,1565632771,0.49628553,0.50928295,-0.3109539,0.63058645,3.601531505584717,0.7219623923301697,0.3656926155090332,-0.752412736415863,10.881298065185547, 19.419422149658203
289,1565649438,0.49511006,0.50691515,-0.31249285,0.63265413,3.795424461364746,0.6058242917060852,0.9978024363517761,-5.6803975105285645,10.44173812866211, 22.669654846191406
290,1565666105,0.49391124,0.50405526,-0.3146202,0.6348183,4.0504841804504395,1.2571680545806885,1.3100711107254028,-9.627459526062012,10.862348556518555, 26.217838287353516
291,1565682772,0.49203363,0.5013598,-0.31624606,0.6375968,4.158207893371582,1.3470120429992676,1.9606823921203613,-3.2054920196533203,12.496295928955078, 29.209909439086914
292,1565699439,0.48841113,0.5001839,-0.31617826,0.64132833,4.782599925994873,1.7283827066421509,2.902820348739624,17.439748764038086,11.019306182861328, 30.982807159423828
293,1565716106,0.48286468,0.50101936,-0.31394437,0.645957,5.975950717926025,3.986325979232788,6.260892391204834,42.302085876464844,8.258352279663086, 30.710689544677734
294,1565732773,0.47589225,0.5033085,-0.31006452,0.6512046,6.7459797859191895,4.352838039398193,8.105998992919922,60.65381622314453,6.126971244812012, 30.443653106689453
295,1565749440,0.46536154,0.5107338,-0.30300745,0.6563355,6.62120246887207,4.108811378479004,9.6051025390625,103.71849822998047,-14.72176742553711, 24.219810485839844
296,1565766107,0.44962052,0.5253279,-0.29168615,0.6609017,4.461358547210693,3.7615010738372803,7.702033519744873,163.0084228515625,-46.583229064941406, 16.192323684692383
297,1565782774,0.4306315,0.54445744,-0.27802092,0.6639481,2.9344985485076904,7.016575813293457,4.124814033508301,196.36483764648438,-72.19815826416016, 8.876832008361816
298,1565799441,0.41530895,0.5613763,-0.2682226,0.66365045,1.1459256410598755,10.687996864318848,2.128493309020996,151.98487854003906,-79.14756774902344, 1.2809531688690186
299,1565816108,0.41314447,0.5717448,-0.2632123,0.6581329,-0.24141566455364227,14.882699966430664,3.2820234298706055,50.92758560180664,-58.832847595214844, -42.598785400390625
300,1565832775,0.43518135,0.5683873,-0.27259716,0.6428405,-1.3230197429656982,7.753199100494385,7.1080732345581055,-166.1382293701172,-32.42650604248047, -97.80741882324219
301,1565849442,0.46152285,0.559963,-0.2773204,0.6297075,-3.652313709259033,3.9438583850860596,9.861224174499512,-173.45184326171875,19.982627868652344, -118.87291717529297
302,1565866109,0.48618317,0.5470391,-0.27562815,0.6232202,-4.83740758895874,-2.4069771766662598,10.414435386657715,-140.7278289794922,81.65325164794922, -106.61421203613281
303,1565882776,0.5076761,0.53126305,-0.26689,0.6235338,1.487706184387207,-3.4112415313720703,2.5267281532287598,-95.13228607177734,136.50575256347656, -91.68795776367188
304,1565899443,0.52210045,0.5161131,-0.24786578,0.63214016,2.6654229164123535,-6.588986396789551,0.3937757611274719,-7.753947734832764,187.0834197998047, -71.49005889892578
305,1565916110,0.5363236,0.49736196,-0.2294196,0.6421487,5.761147499084473,-3.1022238731384277,-3.5940043926239014,-20.016904830932617,205.4805908203125, -57.82695007324219
306,1565932777,0.55110204,0.47572166,-0.21473113,0.65105003,7.993643283843994,-4.5495195388793945,-7.268723011016846,-50.92931365966797,201.86500549316406, -47.25523376464844
307,1565949444,0.5631072,0.45616353,-0.20159107,0.65892816,8.585908889770508,-4.064416408538818,-8.57940673828125,-42.418033599853516,179.7955322265625, -37.08564758300781
308,1565966111,0.57312566,0.43774664,-0.195522,0.6645872,8.886818885803223,-5.11107063293457,-10.622366905212402,-66.8937759399414,138.12152099609375, -16.38707733154297
309,1565982778,0.5803464,0.4238075,-0.19395308,0.6678081,8.118748664855957,-2.2452261447906494,-13.292045593261719,-64.65904998779297,89.45545959472656, -5.992476940155029
310,1565999445,0.5866119,0.41343784,-0.19714504,0.66789925,6.5753021240234375,-0.4297764301300049,-14.645106315612793,-73.74021911621094,44.326507568359375, -5.137261390686035
311,1566016112,0.5900547,0.41002965,-0.20069769,0.6659066,3.1722962856292725,-2.2875640392303467,-14.878358840942383,-42.237693786621094,1.7508764266967773, -9.04170036315918
312,1566032779,0.5888582,0.41676685,-0.20067856,0.66278183,1.9780486822128296,-2.013155460357666,-15.158079147338867,26.724855422973633,-39.34154510498047, -16.549983978271484
313,1566049446,0.5846831,0.4296681,-0.20233086,0.6577182,2.2227063179016113,-1.2849160432815552,-14.587228775024414,49.85011672973633,-83.4733657836914, -14.622931480407715
314,1566066113,0.5780928,0.4456282,-0.20900136,0.6508016,0.36306771636009216,-3.3571572303771973,-10.653889656066895,43.92378234863281,-125.9739990234375, -0.6370151042938232
315,1566082780,0.56844574,0.46576712,-0.21852493,0.6420104,1.0456634759902954,-3.8474903106689453,-9.750843048095703,54.43490982055664,-166.00550842285156, 8.228628158569336
316,1566099447,0.5604588,0.48548245,-0.23258214,0.6293635,-0.8557398319244385,-0.6218441128730774,-6.173305988311768,21.649669647216797,-191.58338928222656, 0.8821721076965332
317,1566116114,0.55804205,0.50522965,-0.2504402,0.608779,4.5318922996521,10.459081649780273,-28.583402633666992,-26.023557662963867,-223.98924255371094, -41.11780548095703
318,1566132781,0.5605613,0.5234286,-0.29320294,0.57081145,19.775821685791016,-5.671681880950928,-25.646194458007812,-183.81227111816406,-364.3212890625, -38.80122375488281
319,1566149448,0.55225486,0.5460052,-0.31616762,0.5449139,-3.3428759574890137,-3.452843427658081,19.363189697265625,-26.000232696533203,-282.6136779785156, -30.007261276245117
320,1566166115,0.549171,0.5643468,-0.33737788,0.51584905,13.946578979492188,-2.585799217224121,-0.4707530736923218,-61.770416259765625,-261.6139831542969, -58.955421447753906
321,1566182782,0.5433933,0.5811118,-0.35606506,0.4901537,8.6983003616333,6.443173885345459,7.946247100830078,-40.48410415649414,-239.79037475585938, -42.91618347167969
322,1566199449,0.5405584,0.5930306,-0.3706238,0.46770674,13.759947776794434,-2.5599751472473145,0.9569580554962158,-48.398441314697266,-188.28634643554688, -45.10022735595703
323,1566216116,0.5347579,0.60520023,-0.38132483,0.44984245,9.214827537536621,-1.3143659830093384,-0.10216933488845825,-11.249613761901855,-163.81224060058594, -35.068687438964844
324,1566232783,0.52766246,0.6172742,-0.38877848,0.43519697,5.055490493774414,-1.745132327079773,-1.2216081619262695,12.290810585021973,-141.7386932373047, -32.591243743896484
325,1566249450,0.5213933,0.6268774,-0.39378184,0.42439356,3.5452542304992676,0.633468747138977,-3.535365343093872,17.428430557250977,-107.0569839477539, -24.999099731445312
326,1566266117,0.5142561,0.63518167,-0.39651823,0.41816077,2.995295286178589,3.6790122985839844,-1.3296499252319336,35.49923324584961,-77.8240737915039, -12.332351684570312
327,1566282784,0.50645614,0.64229596,-0.39768696,0.41569635,4.599511623382568,5.040938377380371,-0.930333137512207,49.003719329833984,-54.309051513671875, -0.6116170883178711
328,1566299451,0.4971732,0.6491739,-0.39714062,0.4167391,6.132109642028809,3.667964220046997,0.2953200042247772,69.27735137939453,-36.33942413330078, 9.010570526123047
329,1566316118,0.4858481,0.656717,-0.39519346,0.4201152,7.341037750244141,1.6434465646743774,1.31777822971344,91.1170425415039,-28.768657684326172, 14.79274845123291
330,1566332785,0.47202185,0.6658703,-0.39306572,0.42345205,8.11745834350586,-0.9202046394348145,2.643932819366455,108.27057647705078,-39.97644805908203, 16.640249252319336
331,1566349452,0.4559192,0.6758929,-0.39190397,0.42628387,8.642525672912598,-2.855605125427246,4.5276713371276855,117.39689636230469,-54.34303283691406, 23.567405700683594
332,1566366119,0.4371559,0.68584013,-0.39238942,0.42959115,8.307360649108887,-2.8206284046173096,7.419041156768799,126.03834533691406,-64.54141998291016, 40.539283752441406
333,1566382786,0.41881827,0.69396704,-0.395725,0.43174383,7.020169734954834,-1.80095636844635,10.549029350280762,107.0942153930664,-72.40039825439453, 54.0233268737793
334,1566399453,0.40228805,0.7009369,-0.4032153,0.4292662,6.292293548583984,1.2584725618362427,9.525306701660156,70.28451538085938,-98.53955078125, 58.232540130615234
335,1566416120,0.38875046,0.7073341,-0.41495177,0.41996014,6.960823059082031,3.1632978916168213,13.870718002319336,22.885520935058594,-133.57061767578125, 52.61360168457031
336,1566432787,0.37477246,0.7147755,-0.4253673,0.40951726,8.231629371643066,4.4815826416015625,19.006366729736328,28.49134635925293,-140.31285095214844, 41.54479217529297
337,1566449454,0.3517707,0.7285057,-0.4359542,0.39431077,11.882513046264648,4.410144805908203,13.518260955810547,74.76828002929688,-208.89315795898438, 37.26851272583008
338,1566466121,0.32454887,0.7455006,-0.4456263,0.3745854,13.37299633026123,9.289669036865234,7.495721817016602,92.83628845214844,-251.29632568359375, 23.532114028930664
339,1566482788,0.2995922,0.76191044,-0.45092177,0.35553744,12.056873321533203,7.927172660827637,23.98499870300293,93.40567779541016,-229.88092041015625, -1.1932730674743652
340,1566499455,0.27372298,0.777148,-0.451468,0.34248126,6.202725887298584,2.0443687438964844,23.441696166992188,126.1767349243164,-189.34091186523438, -7.6471710205078125
341,1566516122,0.25055495,0.79068875,-0.44628426,0.33595237,6.98826265335083,5.924007415771484,23.59333610534668,142.41409301757812,-131.7832489013672, -26.957691192626953
342,1566532789,0.24275343,0.79762703,-0.4426227,0.33007133,7.724146842956543,6.767569065093994,21.828739166259766,46.14114761352539,-68.9327392578125, -32.61732864379883
343,1566549456,0.2510976,0.7971432,-0.44200474,0.32579863,7.26853084564209,3.7835092544555664,17.575475692749023,-56.630897521972656,0.37459737062454224, -27.201217651367188
344,1566566123,0.2699329,0.7900152,-0.44262117,0.3272597,6.154056549072266,0.6901789903640747,13.536001205444336,-110.86956787109375,76.14361572265625, -13.910845756530762
345,1566582790,0.292815,0.7777119,-0.44194666,0.33779746,4.739429473876953,-2.7168188095092773,10.208857536315918,-111.953369140625,151.64642333984375, 2.420325517654419
346,1566599457,0.31598046,0.7621904,-0.43759486,0.35739753,3.6840221881866455,-0.4059957265853882,6.538149833679199,-83.96466827392578,215.80699157714844, 9.939960479736328
347,1566616124,0.3441714,0.7420243,-0.4315215,0.3804411,2.3585872650146484,2.2586352825164795,4.28253173828125,-105.8746337890625,264.2113342285156, 9.927881240844727
348,1566632791,0.3763655,0.717241,-0.42308846,0.4060918,1.1253447532653809,3.293696641921997,2.842613935470581,-123.36075592041016,307.21270751953125, 7.256917476654053
349,1566649458,0.41066563,0.6880583,-0.410358,0.43535718,2.053523302078247,3.3697779178619385,0.4550957679748535,-122.64925384521484,354.79022216796875, 2.3460915088653564
350,1566666125,0.4447892,0.65491223,-0.39186138,0.46871907,3.32112193107605,3.066330671310425,-2.577284097671509,-104.22469329833984,402.092041015625, -1.620220422744751
351,1566682792,0.47595233,0.6203558,-0.36855608,0.5027869,4.622295379638672,-0.08521199971437454,-5.999258995056152,-77.85604095458984,416.8429870605469, -7.724385738372803
352,1566699459,0.4986289,0.589089,-0.3379763,0.5386238,6.3585710525512695,-1.8914657831192017,-10.734423637390137,-1.299625277519226,415.6777038574219, -11.96100902557373
353,1566716126,0.51576144,0.5594734,-0.3050338,0.5726553,6.280454158782959,-2.9933183193206787,-11.920507431030273,31.2885684967041,397.9461669921875, -11.047651290893555
354,1566732793,0.53275645,0.5287961,-0.27886662,0.5989815,7.968414306640625,0.022029470652341843,-15.115002632141113,-14.896787643432617,348.6295471191406, -9.613360404968262
355,1566749460,0.54561615,0.5030559,-0.253117,0.6206204,8.25085163116455,4.796009063720703,-22.23687171936035,7.409468650817871,302.3651428222656, -17.722909927368164
356,1566766127,0.55900687,0.47934958,-0.23549782,0.63425237,8.193974494934082,4.906386852264404,-26.743389129638672,-35.660614013671875,237.16371154785156, -25.36655044555664
357,1566782794,0.5643727,0.46708572,-0.21583794,0.645545,1.9117257595062256,-0.42943650484085083,-23.271440505981445,39.62369155883789,175.25534057617188, -24.554563522338867
358,1566799461,0.56152886,0.46679977,-0.19847052,0.65375274,4.601938724517822,0.6722091436386108,-28.66537094116211,97.55332946777344,91.74044799804688, -10.554153442382812
359,1566816128,0.5558256,0.47260088,-0.19239144,0.65627134,1.4807332754135132,-0.6580153107643127,-26.39504051208496,71.50855255126953,-0.5792802572250366, 8.191488265991211
360,1566832795,0.54323214,0.49120054,-0.1890183,0.6541352,1.2517788410186768,-2.6812524795532227,-27.390745162963867,124.28010559082031,-92.27812194824219, 13.275135040283203
361,1566849462,0.5318436,0.511981,-0.19620068,0.6453861,-0.20964591205120087,-3.0098798274993896,-18.74627113342285,72.14064025878906,-161.6610565185547, 15.848563194274902
362,1566866129,0.52767897,0.5314715,-0.21398167,0.6271404,3.5317797660827637,4.856656551361084,-22.028942108154297,-17.93982696533203,-218.04684448242188, -11.927828788757324
363,1566882796,0.53736645,0.54119384,-0.25939766,0.59250295,16.477550506591797,-2.3364853858947754,-35.533817291259766,-247.62127685546875,-315.38226318359375, -15.453856468200684
364,1566899463,0.53020734,0.5632686,-0.2843956,0.56632835,3.5464954376220703,-11.090012550354004,14.984698295593262,-41.105552673339844,-287.7726135253906, -13.458855628967285
365,1566916130,0.53142554,0.57638514,-0.30492407,0.54072976,8.848356246948242,3.0861289501190186,-0.7321268320083618,-87.41836547851562,-218.62442016601562, -43.97365188598633
366,1566932797,0.53161186,0.58982724,-0.3191143,0.51735765,9.777948379516602,4.3423662185668945,11.281868934631348,-53.90488052368164,-190.17323303222656, -57.6563606262207
367,1566949464,0.52894515,0.6025404,-0.3330575,0.49622077,11.787864685058594,-2.794387102127075,5.234234809875488,-39.099388122558594,-184.39401245117188, -38.62120056152344
368,1566966131,0.5239896,0.6138437,-0.34600246,0.47844875,4.970204830169678,-5.609186172485352,-4.4186248779296875,-23.529438018798828,-167.56736755371094, -19.61322784423828
369,1566982798,0.5190207,0.6227187,-0.3562035,0.46471286,0.9717127680778503,2.156255006790161,-2.2506682872772217,-13.575396537780762,-132.7165069580078, -10.993151664733887
370,1566999465,0.512942,0.6308852,-0.36198866,0.45589337,4.07628870010376,3.0544626712799072,-2.1590423583984375,14.824316024780273,-96.4544906616211, -6.999238967895508
371,1567016132,0.50611407,0.6373013,-0.3666742,0.45082772,4.796352386474609,3.6821908950805664,-0.12786227464675903,24.725004196166992,-72.76619720458984, 8.220383644104004
372,1567032799,0.49672884,0.6442273,-0.36964956,0.44898885,6.747170448303223,1.3059957027435303,-0.6070585250854492,51.202354431152344,-60.851837158203125, 18.632463455200195
373,1567049466,0.4839793,0.6530979,-0.37043592,0.44944903,9.800739288330078,-0.1340346783399582,1.1941019296646118,85.40531158447266,-57.8788948059082, 22.163326263427734
374,1567066133,0.46833685,0.66390723,-0.3691996,0.45119786,11.701421737670898,-1.3766947984695435,4.683694839477539,114.44683837890625,-58.91545104980469, 21.22477149963379
375,1567082800,0.4533045,0.67279845,-0.37003908,0.45269045,11.917621612548828,-3.1475958824157715,5.862508773803711,98.47868347167969,-59.57292938232422, 32.67045211791992
376,1567099467,0.43765616,0.6811015,-0.37190032,0.45414552,8.311322212219238,-2.853062629699707,8.932558059692383,96.29708862304688,-63.00215148925781, 40.49028396606445
377,1567116134,0.41786042,0.69118094,-0.3728265,0.45679572,5.26881217956543,-2.051100254058838,10.570052146911621,127.13036346435547,-71.1434326171875, 47.97304153442383
378,1567132801,0.39519927,0.7032178,-0.37483397,0.45694852,1.9833210706710815,1.7834175825119019,9.269438743591309,136.65480041503906,-100.03167724609375, 49.8419075012207
379,1567149468,0.37483355,0.7154654,-0.38237217,0.448777,3.8897604942321777,4.033450603485107,9.74793529510498,87.36219024658203,-150.3883514404297, 46.281288146972656
380,1567166135,0.35586482,0.7260041,-0.3922588,0.43864733,3.957259178161621,4.1753058433532715,19.40854263305664,63.76297378540039,-157.46347045898438, 53.09813690185547
381,1567182802,0.33783406,0.7365482,-0.4078198,0.42077103,4.0550665855407715,4.411545276641846,11.747303009033203,21.196975708007812,-208.11160278320312, 59.758583068847656
382,1567199469,0.32484797,0.74712735,-0.4272252,0.39211404,8.322044372558594,4.831673622131348,6.281842231750488,-45.56183624267578,-257.96185302734375, 39.60173797607422
383,1567216136,0.32408327,0.7539385,-0.44649282,0.35663876,9.457996368408203,4.16793966293335,20.66123390197754,-136.380859375,-246.8616180419922, 1.8393731117248535
384,1567232803,0.31885725,0.76173884,-0.45783877,0.32934427,2.734909772872925,-1.8227216005325317,20.668027877807617,-66.3509750366211,-203.5155792236328, -13.091286659240723
385,1567249470,0.29967946,0.7738641,-0.45837274,0.31815264,5.966557502746582,1.8328473567962646,17.47728157043457,91.45362854003906,-149.6488800048828, -16.493831634521484
386,1567266137,0.27482265,0.7853837,-0.45507,0.3171059,3.4150354862213135,1.6797335147857666,17.343000411987305,160.89596557617188,-104.76670837402344, -1.5563400983810425
387,1567282804,0.24655922,0.79545325,-0.4486933,0.32424828,4.238171100616455,1.6900866031646729,14.504515647888184,208.96937561035156,-62.58125305175781, 9.475007057189941
388,1567299471,0.22335187,0.80162525,-0.44234914,0.3344224,3.3318800926208496,4.287543296813965,12.948707580566406,184.0253448486328,-22.032209396362305, 15.753597259521484
389,1567316138,0.21661207,0.8015133,-0.44050238,0.34148684,2.389371156692505,4.181422710418701,10.96376895904541,63.860023498535156,18.25249481201172, 17.222232818603516
390,1567332805,0.22462933,0.79626715,-0.4411051,0.3477453,2.6870291233062744,2.6296539306640625,8.110692977905273,-33.26129150390625,66.77212524414062, 10.519275665283203
391,1567349472,0.24586935,0.7861985,-0.44252664,0.35441586,1.836848497390747,4.196616172790527,6.69920539855957,-113.81437683105469,119.3233413696289, -1.3850369453430176
392,1567366139,0.27784026,0.7710569,-0.44363722,0.36257744,1.672308325767517,3.399113655090332,5.4646759033203125,-175.09780883789062,172.91297912597656, -11.32214641571045
393,1567382806,0.31280902,0.75224376,-0.4416187,0.37583628,1.6787967681884766,3.0736441612243652,3.974088430404663,-174.65325927734375,224.24191284179688, -14.548222541809082
394,1567399473,0.34779108,0.7301194,-0.43502268,0.3958822,2.4587996006011963,3.516014337539673,2.3441803455352783,-149.4051513671875,277.8726806640625, -13.681900978088379
395,1567416140,0.3794153,0.7060487,-0.42240575,0.42321715,3.6086690425872803,3.0390357971191406,0.39233702421188354,-99.011962890625,324.2361145019531, -11.51856803894043
396,1567432807,0.4062457,0.6815535,-0.4031823,0.4559533,4.240609169006348,1.835945725440979,-1.5796821117401123,-41.94816589355469,355.16790771484375, -14.279547691345215
397,1567449474,0.43188024,0.656074,-0.38051403,0.4881144,4.918554782867432,1.0399768352508545,-3.7608654499053955,-29.9375057220459,362.07159423828125, -25.518848419189453
398,1567466141,0.45807487,0.6286504,-0.35777625,0.5166839,4.575675964355469,-1.7242512702941895,-5.391060829162598,-47.466064453125,354.3231506347656, -33.293479919433594
399,1567482808,0.48328558,0.5992574,-0.3360896,0.54255825,3.206566333770752,-2.8207335472106934,-5.260717868804932,-59.85255813598633,344.2452392578125, -28.986312866210938
400,1567499475,0.50875205,0.56679666,-0.31984338,0.5635721,2.6463189125061035,-0.0473485141992569,-7.0355095863342285,-102.69476318359375,318.4616394042969, -16.709983825683594
401,1567516142,0.5341722,0.53245276,-0.30920893,0.5792617,4.513868808746338,1.341976284980774,-12.092286109924316,-142.6326141357422,285.6058044433594, -9.207618713378906
402,1567532809,0.55181545,0.5031275,-0.2950106,0.59609663,4.461009502410889,-0.8837153911590576,-15.08719539642334,-79.18218994140625,266.8354797363281, 2.23769474029541
403,1567549476,0.5609091,0.4814381,-0.27575877,0.61445546,2.3144330978393555,0.04204489663243294,-14.81984806060791,3.0936167240142822,243.18675231933594, 10.046137809753418
404,1567566143,0.5648294,0.46685004,-0.25622195,0.6303722,1.571357250213623,1.4756089448928833,-18.09049415588379,44.08964157104492,196.8746337890625, 8.075711250305176
405,1567582810,0.565254,0.45928732,-0.23767424,0.64269286,-0.10820525884628296,1.3352460861206055,-17.943599700927734,71.83845520019531,145.4226531982422, 0.08650851249694824
406,1567599477,0.5601354,0.46257824,-0.21788125,0.6517649,-1.6477328538894653,1.4661760330200195,-21.207090377807617,131.59341430664062,83.46793365478516, -9.702503204345703
407,1567616144,0.55481106,0.47072676,-0.20628147,0.65425456,-1.7748994827270508,2.8627967834472656,-22.207094192504883,104.21487426757812,9.416629791259766, -15.34709358215332
408,1567632811,0.5498398,0.4813233,-0.2044712,0.6513031,-3.5549540519714355,-0.6127955913543701,-17.563396453857422,60.46254348754883,-55.53539276123047, -9.437943458557129
409,1567649478,0.5439585,0.49639767,-0.21057495,0.6429283,-1.4191073179244995,-1.1625111103057861,-16.6387996673584,37.240482330322266,-124.39915466308594, -5.9754791259765625
410,1567666145,0.540457,0.5126947,-0.22458749,0.6281808,3.7403476238250732,2.505432367324829,-18.30501937866211,-10.583086013793945,-177.36219787597656, -15.106680870056152
411,1567682812,0.54761434,0.5303789,-0.25818443,0.5934286,17.03874969482422,27.8651180267334,-57.93089294433594,-158.70452880859375,-309.8720703125, -68.4551773071289
412,1567699479,0.55313355,0.5426695,-0.30485645,0.55372924,16.04041862487793,-24.355810165405273,25.40775489807129,-235.95440673828125,-356.51123046875, -22.151582717895508
413,1567716146,0.5516225,0.56337005,-0.3270446,0.5209306,21.959964752197266,2.2975666522979736,11.17920207977295,-69.39458465576172,-285.1219482421875, -78.7108383178711
414,1567732813,0.5404164,0.5879867,-0.34498757,0.49315873,8.881660461425781,-21.059701919555664,-3.5739541053771973,9.663949012756348,-285.76019287109375, -50.202816009521484
415,1567749480,0.53251827,0.60625535,-0.36106807,0.46744898,-1.0862704515457153,2.6575675010681152,-1.1530336141586304,-15.99457836151123,-241.11172485351562, -46.84404373168945
416,1567766147,0.52902865,0.61666924,-0.37421042,0.44700605,2.8717007637023926,-1.4608300924301147,-4.812265872955322,-40.6207160949707,-172.29478454589844, -34.315860748291016
417,1567782814,0.5226537,0.627646,-0.37968835,0.43443125,1.1395955085754395,5.102733135223389,-1.9332678318023682,17.442657470703125,-120.19193267822266, -30.800247192382812
418,1567799481,0.5159015,0.6367315,-0.38264027,0.42662063,2.602781295776367,2.3498051166534424,-3.011704683303833,32.26699447631836,-85.96100616455078, -18.387924194335938
419,1567816148,0.51055646,0.64180404,-0.38650683,0.421939,4.100966930389404,1.5077612400054932,-1.2682747840881348,17.433683395385742,-60.07015609741211, 3.1699674129486084
420,1567832815,0.50607216,0.6442072,-0.39103472,0.4194998,4.953893661499023,1.3787336349487305,-2.3410003185272217,8.351259231567383,-42.55961227416992, 18.5441951751709
421,1567849482,0.50027215,0.646373,-0.39452553,0.4198565,6.611276626586914,2.4478156566619873,-0.5953017473220825,23.903501510620117,-29.486886978149414, 28.08327865600586
422,1567866149,0.4901398,0.6514071,-0.39505696,0.42351142,10.90646743774414,3.5673811435699463,3.050525665283203,70.57720947265625,-24.809017181396484, 30.963809967041016
423,1567882816,0.47497678,0.6608475,-0.39148352,0.42943957,10.712684631347656,-0.15264560282230377,4.372082233428955,126.18466186523438,-27.54926872253418, 22.847150802612305
424,1567899483,0.45749357,0.67216074,-0.38630494,0.43550915,10.562959671020508,-2.4259958267211914,7.916013717651367,148.05166625976562,-33.74106979370117, 17.64307975769043
425,1567916150,0.43751892,0.6836327,-0.3822197,0.44173726,8.148366928100586,-1.3661375045776367,9.98598575592041,157.3123321533203,-43.95209503173828, 30.012760162353516
426,1567932817,0.4168724,0.6949155,-0.38151842,0.44469512,3.552536725997925,0.03605063259601593,11.662763595581055,141.130126953125,-71.14611053466797, 38.48491287231445
427,1567949484,0.39693737,0.7062165,-0.38420746,0.44281316,1.8484365940093994,4.8979058265686035,10.358954429626465,114.8161392211914,-102.62822723388672, 38.56606674194336
428,1567966151,0.38152653,0.7150026,-0.3926602,0.4347723,2.048560380935669,4.751357555389404,10.988476753234863,52.26373291015625,-129.0215606689453, 42.757957458496094
429,1567982818,0.36164874,0.72798455,-0.40658292,0.41705987,1.283984661102295,2.471719980239868,10.08271598815918,42.86672592163086,-215.90965270996094, 46.445369720458984
430,1567999485,0.33993113,0.7426263,-0.42266586,0.392819,6.122101306915283,3.2233564853668213,5.1246113777160645,31.823537826538086,-264.1961975097656, 41.73460006713867
431,1568016152,0.31944016,0.7566839,-0.4378905,0.3655674,9.16706657409668,2.4698569774627686,13.111959457397461,17.817840576171875,-272.6318664550781, 28.74591064453125
432,1568032819,0.29599744,0.7707242,-0.44859788,0.34224257,5.012738227844238,1.0958501100540161,18.094533920288086,56.396446228027344,-251.58865356445312, 21.3632869720459
433,1568049486,0.26863563,0.7851677,-0.4534814,0.32511738,6.206952095031738,3.7240753173828125,18.179367065429688,110.89839935302734,-220.41717529296875, 11.126327514648438
434,1568066153,0.24506825,0.79721576,-0.4565079,0.30982146,3.646392345428467,6.162182331085205,20.29922103881836,95.95598602294922,-190.4015655517578, 3.573371171951294
435,1568082820,0.2269046,0.8066124,-0.45859477,0.295942,3.6483097076416016,3.3406479358673096,19.36650848388672,68.47513580322266,-158.88082885742188, -2.212965965270996
436,1568099487,0.20879191,0.8148726,-0.45827532,0.28700584,4.9376935958862305,2.0785181522369385,17.384336471557617,87.01010131835938,-125.6181640625, -4.272396087646484
437,1568116154,0.19675507,0.8202197,-0.4578299,0.2809252,5.632419109344482,4.962261199951172,16.12395668029785,58.095726013183594,-84.88043212890625, -3.6212332248687744
438,1568132821,0.1972944,0.8212174,-0.45878097,0.2760378,5.2459001541137695,2.600155830383301,12.684053421020508,-17.54142951965332,-32.36503219604492, -4.65007209777832
439,1568149488,0.2071845,0.8188991,-0.45904067,0.27524614,3.801466703414917,2.8445427417755127,10.405329704284668,-60.55933380126953,27.260894775390625, -10.307572364807129
440,1568166155,0.22695228,0.81268334,-0.45863098,0.27874014,3.0549561977386475,1.2668142318725586,8.504329681396484,-106.89714050292969,90.75823974609375, -14.414825439453125
441,1568182822,0.25076544,0.8037317,-0.45520297,0.2896936,2.613154172897339,1.025321364402771,6.610680103302002,-104.46089935302734,155.0792694091797, -18.859041213989258
442,1568199489,0.2765203,0.79213977,-0.44817108,0.30853516,2.0617942810058594,0.8588259816169739,4.982504367828369,-87.87963104248047,216.21107482910156, -20.84600830078125
443,1568216156,0.30177173,0.7784528,-0.43626216,0.33558968,2.320373058319092,0.7677944898605347,2.694875478744507,-53.47113037109375,273.1574401855469, -24.28959846496582
444,1568232823,0.32659248,0.7627306,-0.41911876,0.3686721,2.5109739303588867,2.049238443374634,1.4003877639770508,-25.237529754638672,319.7933349609375, -32.68006896972656
445,1568249490,0.35268033,0.7444406,-0.39816952,0.4035916,2.9163219928741455,1.4278799295425415,0.16679377853870392,-22.715721130371094,348.26141357421875, -44.24391555786133
446,1568266157,0.38470447,0.7212778,-0.377293,0.4352138,4.418659210205078,0.9593456387519836,-1.2772783041000366,-74.18048858642578,361.1285095214844, -54.97183609008789
447,1568282824,0.42242417,0.69140214,-0.3595351,0.46287736,5.752654075622559,-2.9245307445526123,-2.581740140914917,-139.8485565185547,368.2781066894531, -49.652076721191406
448,1568299491,0.4581629,0.6577437,-0.3420606,0.49036172,5.777972221374512,-4.963428020477295,-3.8608858585357666,-142.82667541503906,373.92645263671875, -33.347984313964844
449,1568316158,0.48902455,0.621889,-0.32375777,0.5189316,5.214418888092041,-5.695065975189209,-5.044522762298584,-122.36409759521484,377.6179504394531, -12.289107322692871
450,1568332825,0.51294667,0.5863893,-0.30393612,0.5483212,5.038990020751953,-4.787052631378174,-7.250735282897949,-84.26211547851562,369.7839050292969, 7.748256206512451
451,1568349492,0.53007835,0.5547625,-0.2844648,0.57474816,7.398849010467529,0.6495259404182434,-14.434830665588379,-50.74388885498047,328.12481689453125, 16.084440231323242
452,1568366159,0.54063934,0.5278652,-0.26667213,0.598292,7.59353494644165,1.4269918203353882,-18.978761672973633,-20.830524444580078,280.0256652832031, 28.71147918701172
453,1568382826,0.54079175,0.5131399,-0.24597663,0.6194573,2.288553237915039,2.2171788215637207,-21.315645217895508,69.61788940429688,213.71568298339844, 29.87313461303711
454,1568399493,0.53640085,0.5084299,-0.22698869,0.63423127,0.7816629409790039,2.6650097370147705,-26.285648345947266,104.60790252685547,135.1677703857422, 14.62437629699707
455,1568416160,0.53282624,0.51005816,-0.21659341,0.63955003,-2.5010628700256348,4.29817533493042,-27.417098999023438,72.65037536621094,44.84951400756836, -3.599637746810913
456,1568432827,0.5321326,0.51637423,-0.21819308,0.63449544,-3.075489044189453,5.303540229797363,-26.98037338256836,11.241082191467285,-51.04830551147461, -19.069860458374023
457,1568449494,0.53037584,0.52884877,-0.22834805,0.621995,-1.9884600639343262,1.4648933410644531,-24.72125816345215,-11.23516845703125,-136.5664520263672, -20.36913299560547
458,1568466161,0.52770025,0.54431176,-0.24588813,0.60398364,-1.9691468477249146,-0.2693771421909332,-17.109333038330078,-37.43755340576172,-197.16615295410156, -14.273955345153809
459,1568482828,0.5241781,0.56354356,-0.2631346,0.58173543,4.445216178894043,6.564090728759766,-27.309978485107422,-26.637720108032227,-228.68846130371094, -33.52336883544922
460,1568499495,0.5440789,0.56781673,-0.31862545,0.52918833,19.62152862548828,10.333484649658203,-39.093482971191406,-379.72222900390625,-381.38482666015625, -60.781402587890625
461,1568516162,0.53389066,0.59315675,-0.3440473,0.49472988,0.6790300011634827,-14.380167007446289,21.62255096435547,-34.31966781616211,-339.52020263671875, -46.60449981689453
462,1568532829,0.52830404,0.6136162,-0.3675499,0.45746827,25.825389862060547,1.8438591957092285,3.869570255279541,-70.76439666748047,-317.3265075683594, -69.15288543701172
463,1568549496,0.51979357,0.6306128,-0.38659552,0.42741814,11.113737106323242,-12.620551109313965,2.2242188453674316,-38.62445068359375,-267.4604187011719, -43.89198303222656
464,1568566163,0.507928,0.64664686,-0.40054676,0.40425172,7.914762020111084,-6.7698163986206055,-4.915804386138916,5.851720809936523,-225.7276611328125, -29.374311447143555
465,1568582830,0.5001937,0.65730494,-0.4121688,0.38454324,5.362532138824463,3.240736722946167,-0.35027170181274414,-15.302830696105957,-175.91058349609375, -24.558656692504883
466,1568599497,0.49177372,0.6671797,-0.4191576,0.37058994,4.870092391967773,0.6097064018249512,-1.4586433172225952,13.706734657287598,-133.9943389892578, -21.6122989654541
467,1568616164,0.48325422,0.67529607,-0.4231132,0.36251333,3.3536548614501953,1.4777528047561646,-2.1715939044952393,32.910743713378906,-92.70701599121094, -10.37446117401123
468,1568632831,0.47506785,0.6816799,-0.42532125,0.3587828,3.697141647338867,2.6420624256134033,-2.0093982219696045,42.63235092163086,-61.51924133300781, 0.14432400465011597
469,1568649498,0.46672925,0.68676054,-0.42625678,0.35892773,5.5695881843566895,1.863141655921936,-0.7260514497756958,53.60576248168945,-36.51473617553711, 11.018589973449707
470,1568666165,0.45768628,0.6915745,-0.4265329,0.3609954,8.371506690979004,-0.5299265384674072,-0.15468744933605194,63.39376449584961,-26.864957809448242, 16.5405216217041
471,1568682832,0.44779038,0.6962006,-0.4255506,0.36564407,9.601051330566406,-1.4519360065460205,3.3147292137145996,77.59548950195312,-12.848718643188477, 21.199121475219727
472,1568699499,0.4363552,0.7003416,-0.42401436,0.37326682,8.637060165405273,-3.2664525508880615,5.001091957092285,93.636474609375,-0.48396873474121094, 32.81169128417969
473,1568716166,0.42119792,0.7059357,-0.42173845,0.38260144,6.862011432647705,-2.1114087104797363,7.7798309326171875,122.87808227539062,-4.930376052856445, 39.491634368896484
474,1568732833,0.4039338,0.7132903,-0.4178789,0.3917037,5.149196147918701,0.7308845520019531,9.423369407653809,141.77944946289062,-12.599869728088379, 31.423709869384766
475,1568749500,0.3873673,0.72152877,-0.4135077,0.39793745,2.8426849842071533,2.666661500930786,10.060702323913574,134.04141235351562,-26.029766082763672, 16.499677658081055
476,1568766167,0.3708837,0.7305191,-0.42056224,0.38976234,0.8607345223426819,0.8208913803100586,5.092281818389893,63.49742889404297,-130.14488220214844, 32.509769439697266
477,1568782834,0.3527529,0.74117833,-0.43255508,0.37298283,4.487277030944824,1.5446089506149292,2.6237757205963135,37.943485260009766,-195.38766479492188, 35.004249572753906
478,1568799501,0.3321017,0.75385696,-0.44517624,0.35103643,7.792431354522705,2.4068379402160645,3.8623929023742676,38.72169494628906,-236.090087890625, 26.177227020263672
479,1568816168,0.3060732,0.7674275,-0.45746663,0.32878375,8.22435188293457,0.32582488656044006,10.092289924621582,68.53826904296875,-255.79225158691406, 34.05315399169922
480,1568832835,0.27902773,0.77995354,-0.46956223,0.30549517,7.345039367675781,4.742569923400879,14.721124649047852,68.9139404296875,-262.1140441894531, 36.43759536743164
481,1568849502,0.2558414,0.79015076,-0.48105913,0.28069416,6.517875671386719,5.002904891967773,17.325241088867188,40.23246383666992,-252.2205047607422, 29.85271453857422
482,1568866169,0.23328856,0.7991905,-0.48995292,0.25849083,6.181119441986084,3.620074987411499,17.59107208251953,48.50359344482422,-229.70233154296875, 22.998239517211914
483,1568882836,0.20711786,0.80787915,-0.49499628,0.24374677,6.104958534240723,3.061213254928589,17.481689453125,99.90103912353516,-194.56341552734375, 21.522626876831055
484,1568899503,0.17986816,0.8153616,-0.4973088,0.23562051,6.16300630569458,3.730227470397949,16.54759407043457,131.36630249023438,-155.9811248779297, 21.811250686645508
485,1568916170,0.15373616,0.821245,-0.49752176,0.23322575,7.268067359924316,4.1093220710754395,15.044880867004395,146.20748901367188,-115.19863891601562, 20.950725555419922
486,1568932837,0.13414016,0.8243073,-0.49786055,0.23379228,8.172595977783203,7.561173439025879,13.921567916870117,116.31485748291016,-72.05247497558594, 24.13298225402832
487,1568949504,0.13559377,0.8232784,-0.50120944,0.22938263,6.94920015335083,7.175675392150879,12.429588317871094,-28.501535415649414,-24.71955680847168, 16.933368682861328
488,1568966171,0.1504071,0.8201635,-0.5035559,0.2261443,5.654668807983398,3.3595407009124756,11.630136489868164,-100.33728790283203,31.911685943603516, -1.4859017133712769
489,1568982838,0.17045048,0.8161255,-0.50189424,0.23019134,3.790522575378418,3.452054262161255,9.825936317443848,-99.2906265258789,96.48397064208984, -21.554973602294922
490,1568999505,0.1965105,0.810444,-0.49606165,0.24184118,2.945812940597534,3.2367682456970215,8.147753715515137,-102.09070587158203,167.3048095703125, -39.95057678222656
491,1569016172,0.22688387,0.80198133,-0.48696977,0.26117143,3.7913436889648438,1.6914383172988892,5.837516784667969,-98.21825408935547,233.8204345703125, -45.460105895996094
492,1569032839,0.25929224,0.7902254,-0.4746582,0.28811646,4.969222068786621,1.0444624423980713,3.466492176055908,-83.28531646728516,293.5699768066406, -44.00093078613281
493,1569049506,0.2907827,0.77560633,-0.4584691,0.3220044,5.578227519989014,1.8392544984817505,1.8804254531860352,-53.0626106262207,340.920166015625, -41.543968200683594
494,1569066173,0.32358715,0.757416,-0.44026923,0.3574566,5.78796911239624,1.0658386945724487,0.9369350671768188,-57.84124755859375,365.38330078125, -40.76521301269531
495,1569082840,0.35672843,0.7360085,-0.4203211,0.39289495,6.084105014801025,-1.4221549034118652,-0.8875859975814819,-62.52857208251953,378.1966552734375, -40.991432189941406
496,1569099507,0.39030397,0.7108252,-0.3998737,0.4271903,5.720400333404541,-2.9843807220458984,-2.6937220096588135,-76.0069580078125,385.2134704589844, -36.66072463989258
497,1569116174,0.42241165,0.6822329,-0.37990677,0.4602148,4.036901473999023,-5.104643821716309,-3.838836908340454,-82.94268035888672,383.874267578125, -24.17620086669922
498,1569132841,0.44955865,0.6525572,-0.35830057,0.49364665,2.3318991661071777,-4.586016654968262,-4.6576385498046875,-56.62249755859375,381.25189208984375, -12.315624237060547
499,1569149508,0.4709756,0.6241342,-0.33273065,0.5271897,2.511268377304077,-4.597383975982666,-9.616823196411133,-13.32318115234375,375.9154968261719, -13.505290031433105
500,1569166175,0.4884688,0.5981455,-0.3067594,0.55634433,3.65938138961792,1.1709743738174438,-15.0725736618042,2.769033193588257,340.9775695800781, -20.86676025390625
501,1569182842,0.5052567,0.57143754,-0.28610018,0.5799324,3.53812313079834,-0.8549920320510864,-17.402158737182617,-28.935205459594727,302.068115234375, -13.445661544799805
502,1569199509,0.515904,0.5511194,-0.26838467,0.59839815,2.4892024993896484,2.8679423332214355,-21.768657684326172,-4.540388584136963,234.7630615234375, -7.775274753570557
503,1569216176,0.5212101,0.53841347,-0.25403795,0.6114866,1.3807179927825928,-0.17789167165756226,-25.960906982421875,18.717512130737305,161.98626708984375, -6.080756187438965
504,1569232843,0.5179184,0.53799593,-0.23972547,0.6203649,-0.031969428062438965,0.7625612020492554,-28.71310043334961,86.89632415771484,80.427490234375, -6.369797229766846
505,1569249510,0.50972724,0.5464603,-0.23089124,0.62309605,-1.3083826303482056,-0.4966942369937897,-28.508712768554688,102.91734313964844,-6.915009021759033, -1.7460702657699585
506,1569266177,0.49827835,0.5615728,-0.22757547,0.6201323,-2.221482515335083,-1.3768199682235718,-24.145957946777344,80.44685363769531,-89.09256744384766, 2.480159044265747
507,1569282844,0.49094746,0.57719994,-0.23528934,0.60864604,-3.3598666191101074,-0.07560647279024124,-16.930700302124023,7.015237331390381,-154.46728515625, -1.609599232673645
508,1569299511,0.49355918,0.58856344,-0.25509316,0.58729905,1.2173750400543213,4.8038105964660645,-22.17180633544922,-89.77494812011719,-191.96017456054688, -22.586923599243164
509,1569316178,0.51337355,0.5938893,-0.30367348,0.53993124,27.88998794555664,17.24051856994629,-55.463462829589844,-342.203369140625,-340.04327392578125, -52.95346450805664
510,1569332845,0.5167097,0.60708857,-0.33611295,0.5014805,0.9334812760353088,-13.292379379272461,27.193098068237305,-168.89926147460938,-308.47796630859375, -41.87362289428711
511,1569349512,0.5141154,0.6258524,-0.35506293,0.4668241,26.414398193359375,6.0873003005981445,4.909444332122803,-68.6829833984375,-278.66680908203125, -77.3035659790039
512,1569366179,0.5051345,0.6447038,-0.3712248,0.43747947,7.2680206298828125,-14.096519470214844,0.8889447450637817,-18.859840393066406,-262.1510925292969, -50.20277786254883
513,1569382846,0.49265727,0.6607985,-0.3861636,0.41413987,4.608650207519531,-5.831110954284668,-4.5631632804870605,6.16151237487793,-232.09732055664062, -17.618385314941406
514,1569399513,0.48664874,0.66849434,-0.3990422,0.3963,4.408548831939697,1.946609616279602,-2.985006809234619,-31.198801040649414,-159.0360870361328, -4.621369361877441
515,1569416180,0.4813097,0.6746665,-0.4052004,0.38597766,2.6164321899414062,2.9134249687194824,-1.9939842224121094,-0.4065380394458771,-96.0817642211914, -7.9554619789123535
516,1569432847,0.47603267,0.67933375,-0.407693,0.38168716,2.497819423675537,0.1995088905096054,-5.361059665679932,20.900096893310547,-51.90009689331055, -0.9291109442710876
517,1569449514,0.47206134,0.6809998,-0.41008395,0.38108888,4.742131233215332,0.5369499325752258,-2.442343235015869,15.599940299987793,-22.775999069213867, 15.620763778686523
518,1569466181,0.46766162,0.68213123,-0.41140813,0.38305777,7.8705854415893555,2.1200408935546875,-1.0370060205459595,25.946584701538086,-7.197287082672119, 21.521677017211914
519,1569482848,0.4599006,0.68553215,-0.41077873,0.38703793,9.475777626037598,1.2718621492385864,0.33392471075057983,59.90793991088867,-7.130088806152344, 21.18718719482422
520,1569499515,0.44845837,0.69164556,-0.40702635,0.39349863,9.759095191955566,0.1913885623216629,3.752993583679199,101.22100830078125,-3.3906197547912598, 16.315454483032227
521,1569516182,0.4336611,0.6989082,-0.40001506,0.40429375,11.79471206665039,-0.5102006793022156,5.226378440856934,141.7564239501953,14.457612037658691, 19.867355346679688
522,1569532849,0.41471395,0.7061098,-0.38704753,0.42381102,7.154419422149658,0.3553488254547119,10.265494346618652,202.173583984375,62.515403747558594, 28.73898696899414
523,1569549516,0.39539975,0.7144319,-0.38071197,0.43394113,-1.6483416557312012,0.5543487071990967,7.979643821716309,162.95404052734375,-6.694326400756836, 32.13386154174805
524,1569566183,0.37461686,0.7252788,-0.3851037,0.43049777,2.649967908859253,3.752793550491333,-0.838894248008728,109.57377624511719,-114.21593475341797, 45.700504302978516
525,1569582850,0.35531217,0.7371841,-0.39527237,0.41722006,2.3424088954925537,5.658427715301514,2.754998207092285,61.82264709472656,-177.42494201660156, 42.083377838134766
526,1569599517,0.33081955,0.7522981,-0.40606692,0.3996445,5.683189868927002,4.648306369781494,2.985643148422241,82.56208801269531,-224.22479248046875, 41.059898376464844
527,1569616184,0.30419427,0.7682502,-0.4179803,0.37755805,6.000894069671631,5.050777912139893,10.193592071533203,79.9088363647461,-258.5877380371094, 40.196800231933594
528,1569632851,0.28220466,0.7823337,-0.4313359,0.34966296,5.077477931976318,6.67573881149292,15.05175495147705,31.17954444885254,-274.53436279296875, 29.106285095214844
529,1569649518,0.26566884,0.79427624,-0.44360217,0.3190027,4.748631000518799,3.9449384212493896,17.779634475708008,-7.738987922668457,-266.47686767578125, 11.249122619628906
530,1569666185,0.24912703,0.8053349,-0.45242107,0.29101032,5.247603416442871,2.0608911514282227,18.533044815063477,6.514789581298828,-244.21498107910156, 0.06289881467819214
531,1569682852,0.22916366,0.8158669,-0.45788413,0.26867768,5.833124160766602,1.794711709022522,18.977109909057617,48.99635696411133,-217.22760009765625, -0.3332410454750061
532,1569699519,0.20728102,0.8248558,-0.4615421,0.25224334,6.068304061889648,1.156366229057312,18.429065704345703,79.33834838867188,-184.9812469482422, 7.257301330566406
533,1569716186,0.18295974,0.8331424,-0.4624928,0.24186805,5.840418338775635,2.166032075881958,16.998815536499023,116.16950988769531,-153.7325439453125, 7.0310378074646
534,1569732853,0.1630098,0.8396701,-0.4621842,0.23402558,6.082522392272949,2.5055763721466064,15.547945022583008,99.1400146484375,-121.19284057617188, 1.4011167287826538
535,1569749520,0.14908461,0.8438092,-0.46153757,0.22965933,7.290045261383057,2.8602707386016846,12.708063125610352,73.33806610107422,-78.09205627441406, 1.325517177581787
536,1569766187,0.15072656,0.84389216,-0.4630923,0.22510673,6.633530616760254,4.0475358963012695,11.259834289550781,-25.139812469482422,-25.93703842163086, 2.2371323108673096
537,1569782854,0.16587263,0.8405869,-0.4654601,0.2219168,5.307870864868164,0.7056236267089844,10.281111717224121,-103.8517837524414,29.097036361694336, -1.7607917785644531
538,1569799521,0.186177,0.83541167,-0.46570498,0.2248214,3.8292410373687744,1.5041061639785767,8.892461776733398,-113.05393981933594,85.8963394165039, -9.076764106750488
539,1569816188,0.21076865,0.8280168,-0.4632335,0.2353285,3.371936321258545,0.3908347487449646,6.697072505950928,-111.95975494384766,150.07180786132812, -14.555432319641113
540,1569832855,0.23513547,0.81869024,-0.45728937,0.2556255,3.705152988433838,0.4181824326515198,5.354447364807129,-76.67945098876953,213.1869354248047, -13.693049430847168
541,1569849522,0.26035103,0.8065187,-0.448695,0.28358072,4.972060680389404,1.2064297199249268,3.6271016597747803,-57.325286865234375,268.2222595214844, -8.805728912353516
542,1569866189,0.28763348,0.79108447,-0.43785667,0.31580684,5.528019428253174,1.281200885772705,2.1178793907165527,-57.08489990234375,308.64471435546875, -7.5592427253723145
543,1569882856,0.31773466,0.77244824,-0.42532578,0.34852046,5.288252353668213,1.2188102006912231,0.6346145272254944,-73.61901092529297,330.09259033203125, -12.293885231018066
544,1569899523,0.35199508,0.75008875,-0.4121011,0.3789977,4.773797512054443,0.28409528732299805,-0.6776957511901855,-108.75499725341797,340.87322998046875, -19.969120025634766
545,1569916190,0.38749596,0.72436017,-0.39735636,0.40897086,4.265259742736816,-1.8739992380142212,-2.5596234798431396,-120.80580139160156,354.36639404296875, -22.788225173950195
546,1569932857,0.42019385,0.6965915,-0.38086173,0.4394794,2.9939236640930176,-2.6238858699798584,-3.213923931121826,-105.91753387451172,359.9613037109375, -16.74627685546875
547,1569949524,0.44723237,0.6687835,-0.36140922,0.47126997,2.339766025543213,-3.645388126373291,-4.893054962158203,-66.64009094238281,360.16461181640625, -10.10047435760498
548,1569966191,0.47066838,0.64056855,-0.343297,0.50029045,2.45282244682312,-0.16089698672294617,-7.905167579650879,-62.59829330444336,335.92041015625, 0.14639200270175934
549,1569982858,0.49484485,0.6085276,-0.329574,0.5255511,5.134763240814209,1.699737310409546,-10.995935440063477,-102.28633117675781,320.43389892578125, 13.782377243041992
550,1569999525,0.5108994,0.5796261,-0.31379792,0.55185723,5.405615329742432,0.08444783091545105,-14.211675643920898,-47.9144401550293,302.4789123535156, 31.01285743713379
551,1570016192,0.51652235,0.5589479,-0.2924686,0.57900274,4.265583515167236,0.06827772408723831,-17.447546005249023,45.333656311035156,272.1490783691406, 33.68827438354492
552,1570032859,0.5145209,0.54793715,-0.26772296,0.60279155,2.9677681922912598,-0.04402345418930054,-22.130014419555664,115.70523834228516,218.17416381835938, 19.584705352783203
553,1570049526,0.5084458,0.54498875,-0.24361856,0.62058073,0.5233274698257446,-0.1195422112941742,-22.949567794799805,145.70777893066406,153.10963439941406, 2.831526517868042
554,1570066193,0.50249153,0.5473817,-0.22583213,0.62998044,-1.6919887065887451,3.148749351501465,-23.23906135559082,97.1098403930664,69.3563003540039, -12.327260971069336
555,1570082860,0.50077075,0.5509599,-0.22164267,0.62971944,-1.7228107452392578,4.2243971824646,-23.041467666625977,4.551799774169922,-14.17140007019043, -14.78280258178711
556,1570099527,0.49788913,0.5590565,-0.22668213,0.623039,-2.1449227333068848,-2.2979485988616943,-22.216341018676758,-22.212684631347656,-89.98686981201172, -3.2736711502075195
557,1570116194,0.49229798,0.5728965,-0.23646814,0.61115897,-1.3253748416900635,-0.6721803545951843,-18.16961669921875,-16.164087295532227,-152.97796630859375, 0.5527873039245605
558,1570132861,0.48766783,0.5897111,-0.2505955,0.59297806,2.837804079055786,3.803605556488037,-21.71782112121582,-32.369911193847656,-201.00820922851562, -11.8952054977417
559,1570149528,0.5017384,0.6016982,-0.2924618,0.54834664,19.47477912902832,24.06528091430664,-50.74790573120117,-265.41326904296875,-342.9065246582031, -57.44798278808594
560,1570166195,0.5044686,0.6166739,-0.32675466,0.50838596,6.489950180053711,-19.232681274414062,23.23419189453125,-170.65293884277344,-330.0133972167969, -35.012245178222656
561,1570182862,0.50386304,0.63497597,-0.34607664,0.47239664,15.87139892578125,10.001420021057129,5.838553428649902,-83.3271713256836,-281.22698974609375, -80.8833236694336
562,1570199529,0.49441722,0.654982,-0.36308798,0.4412682,9.92531967163086,-13.935356140136719,4.945258140563965,-19.64273452758789,-278.9156494140625, -49.237361907958984
563,1570216196,0.48545715,0.6715617,-0.37817273,0.41270053,4.116395950317383,-1.355616807937622,-2.7283589839935303,-21.138397216796875,-249.52859497070312, -42.515380859375
564,1570232863,0.476409,0.6841133,-0.39090687,0.3901478,3.9453022480010986,-3.3898532390594482,-4.308948040008545,-11.848360061645508,-202.74630737304688, -22.58018684387207
565,1570249530,0.4685969,0.6933953,-0.39931956,0.37438467,1.9276440143585205,1.7523850202560425,-2.600220203399658,1.464457631111145,-144.5574951171875, -15.284339904785156
566,1570266197,0.45944,0.7028952,-0.40235373,0.36464378,4.419572830200195,0.593292236328125,-3.1648271083831787,38.982032775878906,-102.81138610839844, -18.638999938964844
567,1570282864,0.45233947,0.7096279,-0.40481287,0.3576925,5.421188831329346,0.35365355014801025,-1.4023635387420654,29.469200134277344,-74.93913269042969, -10.15786075592041
568,1570299531,0.44603226,0.7147751,-0.40691125,0.35295218,7.557892322540283,-0.16937479376792908,-2.1717965602874756,27.736391067504883,-57.03688430786133, -2.6490182876586914
569,1570316198,0.4371359,0.7202926,-0.40882996,0.35064095,10.806238174438477,2.3578906059265137,1.1532299518585205,48.85272979736328,-52.8044548034668, 9.054353713989258
570,1570332865,0.4261116,0.72627634,-0.41017473,0.35029808,12.146259307861328,0.359106183052063,2.2082126140594482,67.79032135009766,-48.68255615234375, 15.855039596557617
571,1570349532,0.41238523,0.7330463,-0.41022676,0.35255593,11.91642951965332,-1.6151745319366455,5.276670455932617,94.11228942871094,-41.7165641784668, 21.15123176574707
572,1570366199,0.39717972,0.7397641,-0.4083436,0.35812414,9.238221168518066,-2.213947057723999,7.775245189666748,115.53041076660156,-23.97049903869629, 24.31546401977539
573,1570382866,0.3782486,0.7467991,-0.40388286,0.36891425,7.6103739738464355,-0.8481367826461792,11.353719711303711,156.44903564453125,-2.0279018878936768, 33.57074737548828
574,1570399533,0.35729942,0.7545266,-0.3948953,0.38351622,0.05981077998876572,2.208359479904175,6.414717674255371,190.80615234375,21.46902084350586, 23.322805404663086
575,1570416200,0.33716026,0.7642083,-0.3976825,0.37968078,2.476898431777954,3.916511297225952,2.727025270462036,110.36213684082031,-106.29592895507812, 31.721769332885742
576,1570432867,0.31997746,0.7734637,-0.4085123,0.3639863,3.393686294555664,6.074016571044922,2.9391396045684814,40.4763069152832,-178.20684814453125, 40.033199310302734
577,1570449534,0.2998114,0.78464466,-0.41996422,0.3436222,5.637714385986328,2.4996132850646973,3.688943862915039,45.996952056884766,-217.7779541015625, 35.26758575439453
578,1570466201,0.2769686,0.7967377,-0.43056387,0.3211112,7.5680766105651855,3.233820915222168,11.21708869934082,58.186527252197266,-237.7091064453125, 29.977458953857422
579,1570482868,0.25338295,0.80888313,-0.44021443,0.29617012,5.8350324630737305,4.075172424316406,13.906271934509277,57.35755157470703,-251.969970703125, 21.68345069885254
580,1570499535,0.23264419,0.81969917,-0.44860032,0.2696811,5.275041103363037,3.5481276512145996,16.672893524169922,37.2181282043457,-247.48513793945312, 10.241793632507324
581,1570516202,0.2147874,0.8288665,-0.45511258,0.24437526,4.220896244049072,2.071739673614502,18.473094940185547,25.581600189208984,-226.31765747070312, 1.3699727058410645
582,1570532869,0.19540457,0.8374199,-0.45861468,0.22409326,5.020134925842285,0.7672641277313232,17.90342903137207,54.25766372680664,-197.39964294433594, -3.8582398891448975
583,1570549536,0.17237058,0.8452668,-0.4596621,0.2110052,5.330183506011963,1.7376282215118408,17.848215103149414,100.8740234375,-163.4915313720703, -0.4524303078651428
584,1570566203,0.14976539,0.8514615,-0.45992088,0.20262416,5.646819591522217,2.1222479343414307,15.93497085571289,112.52385711669922,-131.807373046875, 5.210577487945557
585,1570582870,0.12963568,0.8556542,-0.4598094,0.19906282,7.033123970031738,3.2222235202789307,13.98340892791748,111.78990173339844,-92.89836883544922, 10.982913970947266
586,1570599537,0.120194435,0.85672086,-0.46147525,0.19652851,7.204948902130127,5.122165203094482,12.549474716186523,47.00027084350586,-50.66507339477539, 17.696561813354492
587,1570616204,0.12502258,0.85504407,-0.46459377,0.19344698,6.128382205963135,2.0101146697998047,10.334036827087402,-42.924930572509766,-6.382359981536865, 15.281281471252441
588,1570632871,0.1337895,0.8527093,-0.46544632,0.19582443,4.566315174102783,1.8221592903137207,8.886123657226562,-46.175804138183594,40.91097640991211, 3.487657070159912
589,1570649538,0.14890817,0.84944844,-0.4640415,0.20230976,2.7786502838134766,3.189890146255493,7.193084239959717,-68.06055450439453,88.51688385009766, -11.591631889343262
590,1570666205,0.16918007,0.8449798,-0.4600957,0.21377394,1.9538778066635132,2.4012465476989746,5.496368408203125,-79.91744232177734,138.27198791503906, -24.669580459594727
591,1570682872,0.1924455,0.83895177,-0.45330262,0.23160672,2.105572462081909,2.670639991760254,4.155977249145508,-74.74773406982422,190.3548126220703, -33.28972625732422
592,1570699539,0.21803108,0.8308655,-0.44382456,0.25523466,2.1550350189208984,2.1895928382873535,3.6397931575775146,-68.46843719482422,237.8756866455078, -38.38164520263672
593,1570716206,0.24466738,0.8207312,-0.43187082,0.28288853,1.8719420433044434,1.6671550273895264,3.0327277183532715,-60.87406921386719,271.42193603515625, -42.059959411621094
594,1570732873,0.27339953,0.80791986,-0.4182112,0.31243828,1.9690382480621338,0.2560694217681885,2.0980489253997803,-68.23773193359375,296.47088623046875, -44.60028076171875
595,1570749540,0.3037478,0.79204017,-0.40339842,0.34304422,2.204555034637451,-1.8816696405410767,0.8622482419013977,-77.48052978515625,315.8080749511719, -43.673187255859375
596,1570766207,0.33496535,0.772564,-0.3877402,0.37496743,2.71766996383667,-3.112541437149048,-0.4585103988647461,-84.11992645263672,335.7330017089844, -37.661434173583984
597,1570782874,0.3660519,0.7494058,-0.37239742,0.4070841,2.7041006088256836,-4.236769676208496,-1.6048765182495117,-92.26573181152344,345.28289794921875, -25.4722900390625
598,1570799541,0.3945202,0.72390527,-0.35708407,0.43909684,2.578714370727539,-4.516787052154541,-2.6392223834991455,-85.06655883789062,344.6564636230469, -12.384867668151855
599,1570816208,0.41837883,0.69774944,-0.3409676,0.47100556,2.5900211334228516,-3.248535633087158,-5.157544136047363,-61.77690505981445,337.1307373046875, -1.2526596784591675
600,1570832875,0.4379637,0.67178327,-0.32378602,0.5020537,3.027925729751587,-1.0700346231460571,-9.113359451293945,-39.35911178588867,325.6547546386719, 4.49830436706543
601,1570849542,0.45292506,0.64759505,-0.30595365,0.5309162,3.053581476211548,0.8328580260276794,-13.158234596252441,-15.328272819519043,301.4338684082031, 6.901132583618164
602,1570866209,0.46504217,0.62618136,-0.29082447,0.5541246,3.3961334228515625,2.7088754177093506,-17.672073364257812,-15.906545639038086,252.17605590820312, 5.914490699768066
603,1570882876,0.47373354,0.61021006,-0.27862176,0.5706051,0.9265874624252319,3.379084348678589,-20.671308517456055,-8.520308494567871,186.8563995361328, -0.7634550333023071
604,1570899543,0.47834367,0.6015586,-0.26854837,0.5806863,-0.13371580839157104,2.739103317260742,-23.896026611328125,11.63923454284668,117.21256256103516, -10.600287437438965
605,1570916210,0.4763904,0.60213304,-0.2591169,0.5859578,-1.8440558910369873,0.8955785036087036,-24.693140029907227,57.46897506713867,47.01519012451172, -14.532222747802734
606,1570932877,0.4713056,0.60864675,-0.25504765,0.5851247,-2.5564708709716797,1.286253809928894,-23.24274444580078,57.1961669921875,-24.579814910888672, -10.281861305236816
607,1570949544,0.46665022,0.617649,-0.25922287,0.5775388,-3.7342867851257324,-0.025821752846240997,-19.322818756103516,18.25959014892578,-88.14241027832031, -3.7254221439361572
608,1570966211,0.46474454,0.6274108,-0.26974094,0.5635676,-2.1009926795959473,2.5289785861968994,-18.875822067260742,-27.695228576660156,-133.20806884765625, -9.51325798034668
609,1570982878,0.4754153,0.6415167,-0.29504114,0.5247737,19.895523071289062,39.780799865722656,-71.92159271240234,-171.6140594482422,-280.6533508300781, -81.70004272460938
610,1570999545,0.48829004,0.64800787,-0.33618885,0.47815877,7.865616321563721,-32.524131774902344,20.23634910583496,-280.0811462402344,-333.1084899902344, -28.61306381225586
611,1571016212,0.47731137,0.6717674,-0.35341358,0.4427204,22.183862686157227,0.08615680783987045,-0.7461328506469727,-10.804286003112793,-315.62548828125, -59.84986877441406
612,1571032879,0.46421656,0.6914574,-0.36997655,0.41171262,6.388700008392334,-11.813529014587402,0.03815227746963501,-1.5252842903137207,-285.92236328125, -32.14688491821289
613,1571049546,0.45160827,0.7060223,-0.3846608,0.38680574,6.388513565063477,-3.786371946334839,-2.8793158531188965,0.6903268694877625,-235.3076171875, -10.24709701538086
614,1571066213,0.4455828,0.7137193,-0.39695194,0.36672887,7.0521626472473145,1.0552668571472168,-1.2183531522750854,-33.435813903808594,-168.8209228515625, -6.306877136230469
615,1571082880,0.43569532,0.7230996,-0.40185753,0.3546931,6.397655963897705,2.744288206100464,1.597295880317688,31.293489456176758,-121.66688537597656, -12.789753913879395
616,1571099547,0.42689708,0.7301931,-0.40413848,0.34820855,5.081304550170898,0.5882794260978699,-1.3461976051330566,40.84123992919922,-77.84405517578125, -5.565945625305176
617,1571116214,0.41857716,0.7353779,-0.4056147,0.34567216,3.634347438812256,0.6289718747138977,-2.084888219833374,45.7703971862793,-49.88330841064453, 6.072376728057861
618,1571132881,0.4110024,0.73939914,-0.40677693,0.344817,4.7596588134765625,0.7049694657325745,-1.597205638885498,44.11735153198242,-35.716217041015625, 10.742291450500488
619,1571149548,0.40243104,0.74372584,-0.40659404,0.34583613,6.024351596832275,0.005395770538598299,0.6285914182662964,58.51410675048828,-26.00579261779785, 10.639833450317383
620,1571166215,0.39011955,0.749304,-0.40397757,0.350931,6.844931125640869,0.8648448586463928,2.118166923522949,98.3331069946289,-12.046833992004395, 14.756989479064941
621,1571182882,0.37412727,0.7548499,-0.40108165,0.35967216,6.036776542663574,-0.3300465941429138,4.4136643409729,128.087646484375,-2.8910186290740967, 31.959117889404297
622,1571199549,0.35716498,0.76004344,-0.39827067,0.36898232,4.286489963531494,1.0098025798797607,6.055856227874756,133.6536865234375,-2.242684841156006, 37.111328125
623,1571216216,0.3373938,0.7660819,-0.390012,0.38363355,6.0254998207092285,5.320781707763672,9.334481239318848,178.95651245117188,28.91444206237793, 26.500953674316406
624,1571232883,0.32677117,0.76876384,-0.39380968,0.38358432,-1.7092101573944092,0.42088618874549866,4.071956157684326,51.8873291015625,-43.51166915893555, 40.83332443237305
625,1571249550,0.31509313,0.7740492,-0.40350872,0.37248513,1.4653129577636719,4.689987659454346,2.90110445022583,17.877613067626953,-125.02621459960938, 42.957759857177734
626,1571266217,0.29795188,0.7827096,-0.41438118,0.35620052,3.165680408477783,-0.6205918192863464,-0.5124531984329224,36.95804977416992,-179.1167755126953, 42.711429595947266
627,1571282884,0.27294084,0.7950227,-0.4237929,0.33740503,6.941443920135498,1.955379843711853,3.4583683013916016,83.23233795166016,-221.09178161621094, 38.54081726074219
628,1571299551,0.24399629,0.8079842,-0.43383014,0.31530783,5.668356895446777,3.257992744445801,9.830299377441406,94.93810272216797,-253.55276489257812, 43.021541595458984
629,1571316218,0.21879554,0.81927806,-0.44501904,0.28787196,6.0042724609375,6.059379577636719,15.123259544372559,53.00826644897461,-270.748779296875, 37.372161865234375
630,1571332885,0.20198806,0.8278073,-0.45607328,0.25677487,4.258452892303467,4.583120822906494,19.849950790405273,-9.224130630493164,-260.5037841796875, 23.05846405029297
631,1571349552,0.18791877,0.8352198,-0.46369237,0.22821891,4.279180526733398,2.387760877609253,20.490337371826172,-12.179847717285156,-231.2145538330078, 5.759278774261475
632,1571366219,0.17147614,0.8420435,-0.4680546,0.20611604,4.94858455657959,2.5460541248321533,19.811254501342773,26.485769271850586,-197.05772399902344, 1.0059828758239746
633,1571382886,0.15424249,0.84743226,-0.47138587,0.18937583,5.540887832641602,2.7132773399353027,18.40746307373047,48.199607849121094,-165.7373046875, 7.118729114532471
634,1571399553,0.13776833,0.8515477,-0.47378352,0.17724532,6.679642677307129,2.211942672729492,15.896037101745605,58.673526763916016,-134.15501403808594, 9.746288299560547
635,1571416220,0.12175784,0.85479325,-0.47483957,0.17038554,7.371609210968018,1.4301996231079102,14.081100463867188,74.00630950927734,-99.80303955078125, 9.194661140441895
636,1571432887,0.10697504,0.85679215,-0.4749347,0.17000188,9.60315227508545,3.487090587615967,11.849803924560547,88.04998016357422,-55.78559112548828, 11.656299591064453
637,1571449554,0.105410054,0.85600376,-0.4765901,0.17031808,8.460870742797852,4.257579326629639,10.039968490600586,8.659381866455078,-6.731358051300049, 15.086295127868652
638,1571466221,0.11560398,0.8534454,-0.47817603,0.1720883,7.300810813903809,0.4191882610321045,7.7586350440979,-56.916324615478516,42.203697204589844, 7.786240100860596
639,1571482888,0.12869984,0.85055757,-0.47673762,0.18085743,5.722091197967529,1.1659095287322998,6.526968479156494,-47.63725662231445,95.41021728515625, -6.8002519607543945
640,1571499555,0.14591207,0.84680974,-0.47245583,0.19598073,4.397753715515137,1.31260085105896,4.573535919189453,-48.1002082824707,149.53060913085938, -20.13284683227539
641,1571516222,0.16758147,0.8413532,-0.46589154,0.21676368,4.572066783905029,1.229141116142273,3.0692622661590576,-54.29226303100586,201.51756286621094, -28.21356201171875
642,1571532889,0.1933604,0.83328795,-0.4575752,0.24262756,5.043743133544922,1.876108169555664,2.037172317504883,-62.174591064453125,249.9725799560547, -30.27835464477539
643,1571549556,0.2226373,0.8220944,-0.44762632,0.27244186,4.931500434875488,1.5341967344284058,1.4151259660720825,-71.20960998535156,291.00384521484375, -30.370309829711914
644,1571566223,0.25463477,0.8075217,-0.4361966,0.30463493,4.906888484954834,0.4906954765319824,0.33720096945762634,-81.66587829589844,321.4417724609375, -29.803743362426758
645,1571582890,0.28820333,0.7897082,-0.4235446,0.3375055,4.130599498748779,-0.8567339777946472,-1.4940993785858154,-91.49484252929688,338.88763427734375, -29.0102596282959
646,1571599557,0.3216577,0.7691841,-0.40913665,0.37080956,2.746054172515869,-1.6009953022003174,-3.1350772380828857,-90.9468765258789,350.7912292480469, -29.59840965270996
647,1571616224,0.3523256,0.74702203,-0.39225715,0.40491873,1.3275141716003418,-2.568207025527954,-5.3052978515625,-71.3098373413086,357.0354309082031, -29.238544464111328
648,1571632891,0.38002577,0.7236001,-0.37328857,0.4389067,-0.11153951287269592,-1.8349921703338623,-7.126282215118408,-53.676422119140625,357.25048828125, -28.670795440673828
649,1571649558,0.40721482,0.69752693,-0.35552353,0.4703566,-1.021023154258728,-0.48246511816978455,-8.502887725830078,-68.26903533935547,348.5064697265625, -21.006986618041992
650,1571666225,0.4338607,0.6687036,-0.3405247,0.4986414,0.11841282248497009,1.2794175148010254,-10.413945198059082,-90.13572692871094,333.5190734863281, -8.124451637268066
651,1571682892,0.45837277,0.6386414,-0.32715082,0.5244082,1.8244948387145996,2.2326767444610596,-12.576181411743164,-95.57853698730469,316.755859375, 2.0732581615448
652,1571699559,0.47798768,0.61047965,-0.3132242,0.5483913,1.5972273349761963,1.3697654008865356,-14.651299476623535,-70.21639251708984,293.24853515625, 7.449481010437012
653,1571716226,0.4921785,0.58662087,-0.29940265,0.56920516,1.8638944625854492,0.12249606102705002,-17.710952758789062,-40.65227127075195,252.19863891601562, 8.68590259552002
654,1571732893,0.50028634,0.56973076,-0.28616074,0.58586055,1.4058003425598145,0.5503026247024536,-19.63353157043457,-3.5048604011535645,194.26193237304688, 6.408926486968994
655,1571749560,0.50396335,0.560641,-0.2758953,0.5963091,-0.5823098421096802,4.022415637969971,-19.94510269165039,16.324811935424805,120.21778106689453, -0.7760282158851624
656,1571766227,0.50621885,0.5580306,-0.27109683,0.59904164,-2.020832061767578,4.210484027862549,-19.955059051513672,7.020204067230225,42.90143585205078, -12.80594253540039
657,1571782894,0.50842404,0.5608674,-0.27241555,0.59390473,-2.4318959712982178,3.4192466735839844,-18.510404586791992,-13.887153625488281,-30.51732063293457, -26.557401657104492
658,1571799561,0.5121106,0.5669294,-0.2801227,0.5812617,-2.3788089752197266,2.305311679840088,-15.507157325744629,-48.645423889160156,-91.6718978881836, -40.13108825683594
659,1571816228,0.51785016,0.5736699,-0.29223293,0.56332415,-2.777137041091919,0.7188360095024109,-10.690561294555664,-82.19389343261719,-126.1773910522461, -50.99378967285156
660,1571832895,0.52771693,0.5773585,-0.31024006,0.5402993,-2.1543736457824707,1.8857660293579102,-9.755824089050293,-142.49635314941406,-146.9185333251953, -55.5670051574707
661,1571849562,0.5283778,0.5881334,-0.33323544,0.51368314,22.9836368560791,5.6644287109375,-18.40241241455078,-106.49034881591797,-225.08265686035156, -29.518674850463867
662,1571866229,0.5176313,0.6116955,-0.35572454,0.4809849,26.52181053161621,-5.769628047943115,7.453695774078369,-26.134227752685547,-318.6324157714844, -42.569976806640625
663,1571882896,0.50960916,0.63498014,-0.3749299,0.4433131,13.143893241882324,1.9787603616714478,-11.340987205505371,-39.7134895324707,-320.6375732421875, -82.7283935546875
664,1571899563,0.50545484,0.6485029,-0.3964567,0.40838903,-4.163345813751221,-1.3157124519348145,-10.23266315460205,-90.86209869384766,-276.7966003417969, -49.50849533081055
665,1571916230,0.49827787,0.66183215,-0.4081816,0.38351694,-4.212548732757568,2.9186434745788574,-10.283227920532227,-23.16436195373535,-205.35113525390625, -49.148807525634766
666,1571932897,0.4912183,0.6729213,-0.41581225,0.36466694,0.875453531742096,4.9545745849609375,-1.6073356866836548,-3.7250359058380127,-157.4521484375, -41.00425338745117
667,1571949564,0.48314536,0.68268794,-0.42177522,0.35016215,7.041364669799805,-2.7804572582244873,0.24111445248126984,13.146208763122559,-131.3902130126953, -27.604293823242188
668,1571966231,0.4750565,0.69139457,-0.42642424,0.33831546,3.877986431121826,-0.23875604569911957,-0.5258535742759705,20.622360229492188,-112.24411010742188, -22.008989334106445
669,1571982898,0.46931058,0.697447,-0.43103373,0.32791048,3.7800774574279785,-0.4368740916252136,-4.854689121246338,5.179323673248291,-92.36251831054688, -15.232294082641602
670,1571999565,0.46392614,0.70212483,-0.43533424,0.319809,3.8119442462921143,-1.4466370344161987,-2.0180931091308594,6.532225608825684,-76.1639175415039, -6.091261386871338
671,1572016232,0.4595272,0.70527655,-0.43890074,0.3143026,6.448862552642822,1.5779681205749512,-0.05011080950498581,6.311299800872803,-55.08952713012695, 0.940310001373291
672,1572032899,0.45482108,0.7077138,-0.4416025,0.31187546,8.473462104797363,1.2205891609191895,0.5166443586349487,16.766887664794922,-36.998294830322266, 9.23196792602539
673,1572049566,0.44401902,0.71417093,-0.4398599,0.31516728,9.642682075500488,3.152750253677368,4.341516494750977,85.96083068847656,-22.622692108154297, 6.228049278259277
674,1572066233,0.42917484,0.7236827,-0.43525752,0.32037982,8.085981369018555,1.8995980024337769,4.768359661102295,127.25138092041016,-23.643875122070312, -2.5486395359039307
675,1572082900,0.40970263,0.7347318,-0.42811748,0.33019483,10.707772254943848,0.7952444553375244,10.797452926635742,174.2818145751953,-10.811897277832031, 3.8602423667907715
676,1572099567,0.38669494,0.74602205,-0.41787666,0.34539452,4.931569576263428,0.8775186538696289,13.98769760131836,215.86322021484375,13.641318321228027, 10.501565933227539
677,1572116234,0.36335725,0.7587865,-0.4156123,0.34566048,-1.4263311624526978,-0.3631186783313751,4.270843505859375,159.75830078125,-89.15019226074219, 8.181952476501465
678,1572132901,0.33992967,0.7726082,-0.42077264,0.33237743,5.976864337921143,5.181906700134277,2.781597852706909,106.54344177246094,-181.29632568359375, 10.24294662475586
679,1572149568,0.31583655,0.7868792,-0.42891926,0.31160367,5.092472076416016,1.7995563745498657,5.364045143127441,82.73058319091797,-231.24827575683594, 8.891404151916504
680,1572166235,0.28724685,0.8024984,-0.4363197,0.2882897,7.8880615234375,2.6549062728881836,10.66104793548584,104.1753921508789,-259.80169677734375, 4.996568202972412
681,1572182902,0.26316237,0.81503236,-0.44464734,0.26221493,4.660097122192383,1.2890844345092773,20.016687393188477,63.215675354003906,-257.6742858886719, 4.981452465057373
682,1572199569,0.24307695,0.8255098,-0.4498273,0.23896144,2.25260066986084,-1.0004878044128418,23.179101943969727,51.51539993286133,-220.79193115234375, -8.464856147766113
683,1572216236,0.22347541,0.83491486,-0.450364,0.22393842,0.6417145133018494,-1.4271292686462402,24.474210739135742,80.17518615722656,-163.57090759277344, -18.578149795532227
684,1572232903,0.20583306,0.8422875,-0.4490464,0.21573554,1.218538761138916,0.9915868043899536,24.02043914794922,89.8729248046875,-112.83161926269531, -15.462417602539062
685,1572249570,0.19202237,0.84705436,-0.4478786,0.21220581,2.0824522972106934,-0.5335469245910645,20.806509017944336,78.32662963867188,-70.71381378173828, -5.56320858001709
686,1572266237,0.17963429,0.85041004,-0.44604003,0.21350121,2.7106285095214844,-0.5759603381156921,18.239896774291992,84.07906341552734,-35.650543212890625, -0.7929668426513672
687,1572282904,0.16982432,0.8522272,-0.443893,0.21869542,4.995400905609131,0.22503018379211426,14.39925479888916,79.55160522460938,-2.6242334842681885, 3.2001287937164307
688,1572299571,0.16785164,0.8510543,-0.44328466,0.22590113,7.826386451721191,3.1914703845977783,10.908788681030273,33.989986419677734,35.47665023803711, 11.947014808654785
689,1572316238,0.18033627,0.8454798,-0.44614363,0.23151438,8.071615219116211,2.1545839309692383,8.192399024963379,-65.86368560791016,72.73165893554688, 21.388622283935547
690,1572332905,0.19725046,0.838389,-0.44782388,0.24010454,7.042605876922607,0.16319209337234497,6.122961521148682,-82.46483612060547,107.22537994384766, 15.780073165893555
691,1572349572,0.21367465,0.83108735,-0.44631875,0.25384426,6.215127468109131,2.5529627799987793,4.14656925201416,-58.827579498291016,139.8814697265625, 5.780475616455078
692,1572366239,0.23237321,0.82256913,-0.4424323,0.27136025,5.784048557281494,2.4769105911254883,2.1345765590667725,-57.83637619018555,173.9517059326172, -2.5219972133636475
693,1572382906,0.25217324,0.8129247,-0.43572724,0.29275274,5.588953971862793,2.7427282333374023,1.0106213092803955,-48.787471771240234,205.790283203125, -10.892267227172852
694,1572399573,0.27593347,0.8010553,-0.42730734,0.31556258,5.419121265411377,2.6229257583618164,-0.021125435829162598,-67.05425262451172,233.0342559814453, -19.315656661987305
695,1572416240,0.30350986,0.78627914,-0.41757002,0.33953276,4.932906627655029,0.8314049243927002,-1.0079058408737183,-87.30487823486328,259.4937744140625, -24.1113224029541
696,1572432907,0.33079237,0.7695926,-0.40521395,0.36620435,3.7257070541381836,-0.31376704573631287,-2.0117101669311523,-75.84282684326172,283.27569580078125, -26.493547439575195
