PacketCounter,SampleTimeFine,Quat_W,Quat_X,Quat_Y,Quat_Z,Acc_X,Acc_Y,Acc_Z,Gyr_X,Gyr_Y,Gyr_Z 
1,596108923,0.7749341,0.18746552,-0.5707279,0.19647793,-0.07662853598594666,-0.060694001615047455,-0.016588496044278145,-0.1138470321893692,0.3846011757850647, -0.18990203738212585
2,596125590,0.7754599,0.18845204,-0.5698461,0.19601846,15.980615615844727,1.1800836324691772,4.790909290313721,0.06916069984436035,4.396618843078613, 1.8267682790756226
3,596142257,0.7764583,0.18842791,-0.568606,0.1956903,16.13959312438965,1.203487515449524,4.66970682144165,0.4597031772136688,3.789738178253174, 1.7340757846832275
4,596158924,0.7769534,0.18819518,-0.5681347,0.1953177,15.957993507385254,1.296811819076538,4.836039066314697,0.5053322315216064,4.366473197937012, 1.8894425630569458
5,596175591,0.7775301,0.18825829,-0.56733507,0.1952868,15.911633491516113,1.0262733697891235,4.5101847648620605,0.9451407790184021,3.8169009685516357, 2.2891287803649902
6,596192258,0.77765614,0.18777381,-0.56734055,0.19523501,16.154685974121094,1.1486754417419434,4.791830539703369,0.6040562391281128,3.6802823543548584, 2.0151877403259277
7,596208925,0.7778115,0.18731272,-0.56723666,0.19536102,16.01585578918457,1.4023571014404297,4.819159030914307,0.6635417938232422,3.8312952518463135, 2.0307862758636475
8,596225592,0.77805287,0.18713336,-0.56696135,0.19537108,16.321428298950195,1.1950815916061401,4.586765289306641,-0.02506202645599842,3.5208303928375244, 2.1139378547668457
9,596242259,0.77818143,0.18691637,-0.5668705,0.19533014,16.09543800354004,1.374966025352478,4.94773530960083,0.5831820964813232,4.167782783508301, 2.1200084686279297
10,596258926,0.77844447,0.18672363,-0.5665993,0.19525392,16.10980796813965,1.1835143566131592,4.617459297180176,-0.2632473111152649,3.9272656440734863, 2.0423500537872314
11,596275593,0.7786071,0.1866041,-0.5664003,0.19529678,16.194948196411133,1.0797289609909058,4.72656774520874,0.9874657392501831,4.007177829742432, 2.16206431388855
12,596292260,0.77876633,0.18638285,-0.56622213,0.19538932,16.119421005249023,1.2490959167480469,4.903628349304199,0.8589028120040894,4.182394027709961, 2.072509527206421
13,596308927,0.779002,0.18612191,-0.56593746,0.1955235,16.101091384887695,1.2463995218276978,4.65506649017334,0.31011220812797546,4.478259086608887, 2.169389247894287
14,596325594,0.7791902,0.18570991,-0.56577766,0.1956282,16.536752700805664,1.1570900678634644,4.728512763977051,-0.599503755569458,4.120052337646484, 2.9504613876342773
15,596342261,0.7793855,0.18534355,-0.56553406,0.19590123,16.23319435119629,1.5599256753921509,5.207849979400635,-0.1833101063966751,5.060461521148682, 3.1163551807403564
16,596358928,0.77963924,0.18498144,-0.5652574,0.19603287,16.355365753173828,1.3653461933135986,4.59095573425293,-0.2823672294616699,4.306397914886475, 3.1917972564697266
17,596375595,0.7798316,0.18461949,-0.5650502,0.19620588,16.065200805664062,1.1304302215576172,4.665493488311768,-0.4972321689128876,4.302492618560791, 3.6441049575805664
18,596392262,0.77996254,0.1842767,-0.56490034,0.19643937,16.210468292236328,1.1899441480636597,4.87956428527832,-0.4227376878261566,3.913102388381958, 3.6825504302978516
19,596408929,0.7800247,0.18414815,-0.564731,0.1967989,16.51338768005371,1.1812585592269897,4.761293888092041,1.0120282173156738,3.432440996170044, 3.3714828491210938
20,596425596,0.78015316,0.18379559,-0.5645791,0.19705519,16.408390045166016,1.2389750480651855,4.869177341461182,-0.0032015875913202763,3.9759812355041504, 3.708763837814331
21,596442263,0.78033334,0.18331201,-0.5643697,0.19739161,16.569961547851562,1.2351086139678955,4.957343101501465,-0.8682449460029602,4.678192138671875, 4.349004745483398
22,596458930,0.78056765,0.18272677,-0.56409085,0.19780423,16.176668167114258,1.4039560556411743,4.519889831542969,-1.3278522491455078,5.395515441894531, 4.905134201049805
23,596475597,0.7807857,0.18196703,-0.5639091,0.19816189,16.33700942993164,1.210030436515808,4.601193904876709,-2.3879234790802,5.2541069984436035, 5.716031551361084
24,596492264,0.78085864,0.18135396,-0.56381065,0.198716,15.843793869018555,0.9215444326400757,4.573299884796143,-1.2699675559997559,4.432592391967773, 6.329802989959717
25,596508931,0.7807828,0.18089378,-0.563847,0.19932967,16.249561309814453,0.8686953783035278,4.727792739868164,-0.13901296257972717,3.029604911804199, 6.21596622467041
26,596525598,0.7807468,0.18046734,-0.5637419,0.20015252,16.68640899658203,1.1374539136886597,5.589284420013428,1.3732829093933105,4.1743011474609375, 6.856693744659424
27,596542265,0.7806678,0.18025114,-0.5636413,0.20093773,16.999330520629883,1.4477852582931519,5.286291599273682,2.082242250442505,3.1091580390930176, 5.807046413421631
28,596558932,0.780773,0.17982355,-0.5634696,0.20139322,16.984399795532227,1.4903963804244995,5.260647773742676,-0.3966766893863678,3.9387149810791016, 4.764877796173096
29,596575599,0.78091383,0.17932674,-0.5633391,0.20165463,16.322439193725586,1.2046890258789062,4.831094741821289,-1.6647871732711792,3.5962862968444824, 4.206636905670166
30,596592266,0.78103274,0.17888059,-0.5631987,0.20198348,16.0255069732666,0.62602698802948,4.482784271240234,-1.0823030471801758,3.089231014251709, 3.9468722343444824
31,596608933,0.78115535,0.17841925,-0.5629824,0.20251876,16.080209732055664,0.7103262543678284,4.767498970031738,-0.43825894594192505,3.2884209156036377, 4.359505653381348
32,596625600,0.7812096,0.17808355,-0.5628177,0.20306188,16.092857360839844,1.069620966911316,4.486144542694092,0.863564133644104,2.3840620517730713, 4.10788631439209
33,596642267,0.78129613,0.17760384,-0.56267637,0.20354018,16.26378631591797,0.8805674910545349,4.720029354095459,-0.5127021670341492,2.4363245964050293, 4.201014041900635
34,596658934,0.7813255,0.1771935,-0.56252545,0.20420147,16.367284774780273,0.9714846014976501,5.0240068435668945,0.8375930190086365,2.3731770515441895, 5.030366897583008
35,596675601,0.7813354,0.17682378,-0.56238765,0.20486212,16.671640396118164,1.1168689727783203,5.12111234664917,1.0254110097885132,2.1492326259613037, 4.9011640548706055
36,596692268,0.78142816,0.17643914,-0.56214964,0.20549312,16.625642776489258,1.2754614353179932,5.05439567565918,1.1228033304214478,2.9982805252075195, 4.6448445320129395
37,596708935,0.78150165,0.17599638,-0.5619733,0.20607413,16.64459800720215,1.1781316995620728,4.868004322052002,0.25582608580589294,2.59849214553833, 4.612687587738037
38,596725602,0.7816562,0.17548169,-0.56172764,0.20659594,16.088294982910156,1.1361244916915894,4.938526630401611,-0.19541208446025848,3.324125051498413, 4.427891731262207
39,596742269,0.7817526,0.17491987,-0.5615684,0.20713988,16.02692413330078,0.8659150004386902,4.517676830291748,-0.3295842409133911,2.730038642883301, 4.94455099105835
40,596758936,0.7818184,0.174405,-0.5613566,0.20789893,15.930749893188477,0.8130188584327698,4.498917579650879,0.7426851391792297,3.086733818054199, 5.856389045715332
41,596775603,0.7818871,0.17371821,-0.5612088,0.20861304,16.13429832458496,0.9124352335929871,4.601521968841553,-0.4118139147758484,2.950667142868042, 6.360998630523682
42,596792270,0.7819476,0.17295806,-0.5610654,0.20940277,16.185117721557617,0.7748782634735107,4.863306045532227,-0.5750692486763,3.0892441272735596, 7.047969341278076
43,596808937,0.78201026,0.1722436,-0.56090456,0.21018627,15.938430786132812,1.0486094951629639,4.694393634796143,-0.24321824312210083,3.1175460815429688, 6.8420562744140625
44,596825604,0.7821219,0.17130812,-0.56080234,0.21080762,16.301380157470703,0.8744158148765564,4.898545742034912,-2.2658920288085938,3.117008686065674, 6.804943561553955
45,596842271,0.78218395,0.17062365,-0.56064177,0.21155752,16.338773727416992,1.041501760482788,5.387289524078369,-0.4901502728462219,3.0193724632263184, 6.462193489074707
46,596858938,0.7822549,0.16998594,-0.5605265,0.21211326,16.54545783996582,1.0189995765686035,4.969162940979004,-0.7824168801307678,2.5137522220611572, 5.375459671020508
47,596875605,0.78232986,0.1694076,-0.5604384,0.21253203,16.356348037719727,1.0211750268936157,4.922234535217285,-1.1432228088378906,2.136784076690674, 4.403098106384277
48,596892272,0.78244406,0.16884024,-0.56030595,0.21291254,16.124399185180664,0.6896497011184692,4.777421474456787,-1.0727237462997437,2.4714908599853516, 4.095771312713623
49,596908939,0.78249824,0.16842288,-0.56015223,0.21344772,15.934432983398438,0.49991363286972046,4.333283424377441,0.3440746068954468,2.3149590492248535, 4.380828380584717
50,596925606,0.78259885,0.16784616,-0.5599657,0.21402138,15.852046966552734,0.41421476006507874,4.615250110626221,-0.3252044916152954,2.958888053894043, 5.105578422546387
51,596942273,0.78264517,0.16744462,-0.5597463,0.21473937,15.953689575195312,0.8421149849891663,4.595464706420898,1.0418286323547363,2.8315675258636475, 5.163424491882324
52,596958940,0.7826931,0.1669335,-0.55958295,0.2153874,16.20586585998535,0.6708359718322754,4.577527046203613,0.2978692948818207,2.6229519844055176, 5.344198703765869
53,596975607,0.78274846,0.1664428,-0.5593756,0.21610345,16.184120178222656,0.8602209687232971,4.790778636932373,0.756138265132904,2.9404921531677246, 5.581648349761963
54,596992274,0.78281873,0.16581903,-0.5592214,0.21672657,16.24033546447754,0.7847275733947754,4.712202548980713,-0.34954938292503357,2.802996873855591, 5.659081935882568
55,597008941,0.7828778,0.16511978,-0.55909353,0.2173763,16.16329002380371,0.7177356481552124,4.8154826164245605,-0.6914405226707458,2.762195587158203, 6.138538837432861
56,597025608,0.7829826,0.16437286,-0.5588911,0.21808471,16.216033935546875,0.793299674987793,4.890810489654541,-0.8624820709228516,3.474126100540161, 6.418370246887207
57,597042275,0.7830577,0.16372253,-0.5586957,0.21880415,16.29774284362793,0.8362670540809631,4.83955192565918,-0.17633065581321716,3.1895179748535156, 6.197256565093994
58,597058942,0.7830869,0.16319291,-0.55853456,0.21950458,16.27798080444336,0.7001869082450867,4.725404262542725,0.37547582387924194,2.626614809036255, 5.7350239753723145
59,597075609,0.78319967,0.16248247,-0.55836755,0.22005372,16.281169891357422,0.37477385997772217,4.7145819664001465,-1.1943715810775757,3.086362838745117, 5.507454872131348
60,597092276,0.78326964,0.16195509,-0.55816257,0.2207125,16.305892944335938,0.4721614718437195,4.7363481521606445,0.2659686803817749,2.972757339477539, 5.3935546875
61,597108943,0.7834152,0.16157912,-0.5578406,0.22128451,16.212312698364258,0.8959062099456787,4.707629680633545,0.9939329624176025,3.56523060798645, 4.149699687957764
62,597125610,0.7836306,0.16105169,-0.5575017,0.22176014,16.241167068481445,0.344312846660614,4.6212687492370605,-0.23210228979587555,4.045519828796387, 4.096002101898193
63,597142277,0.7838274,0.16066428,-0.5571194,0.22230579,15.93968391418457,0.4981575608253479,4.659902095794678,0.8771262764930725,4.071439743041992, 3.9117705821990967
64,597158944,0.7840062,0.16017318,-0.55683595,0.22273935,16.194076538085938,0.5010936260223389,4.584661483764648,-0.22525091469287872,3.5029919147491455, 3.8470468521118164
65,597175611,0.7841692,0.15980165,-0.5565382,0.22317556,16.30759620666504,0.5748152732849121,5.052479267120361,0.46798887848854065,3.3409016132354736, 3.4123482704162598
66,597192278,0.7843494,0.1593713,-0.5562579,0.22354889,16.326505661010742,0.7933355569839478,4.941893100738525,-0.21943683922290802,3.3296451568603516, 3.2631289958953857
67,597208945,0.7844873,0.15901376,-0.5560275,0.2238923,16.386367797851562,0.9015159010887146,4.627292633056641,0.26668581366539,2.7513608932495117, 3.033433437347412
68,597225612,0.7846809,0.15857421,-0.5557289,0.22426678,15.895596504211426,0.619419515132904,4.768983364105225,-0.05733402445912361,3.496204137802124, 3.345191240310669
69,597242279,0.78478456,0.15811986,-0.5555746,0.22460675,16.148664474487305,0.40849024057388306,4.346349716186523,-0.29368799924850464,2.358154535293579, 3.5478389263153076
70,597258946,0.7848743,0.15774387,-0.555312,0.22520636,16.299358367919922,0.38582438230514526,4.7710981369018555,1.2213352918624878,3.058572769165039, 4.521365642547607
71,597275613,0.78494895,0.15762061,-0.5549309,0.2259708,16.196517944335938,0.9827941656112671,4.811642646789551,3.330413341522217,3.428048610687256, 4.309945106506348
72,597292280,0.7851415,0.15716285,-0.5546291,0.22636087,16.3406982421875,0.7522090673446655,4.550374507904053,-0.01689157448709011,3.563321828842163, 3.5273616313934326
73,597308947,0.7853856,0.15655106,-0.5542798,0.22679316,16.23491668701172,0.6643748879432678,4.979121208190918,-0.7693285942077637,4.307524681091309, 4.179000377655029
74,597325614,0.7855796,0.15600924,-0.55397606,0.22723657,16.192493438720703,0.7353969812393188,4.843756198883057,-0.2132769674062729,3.7679550647735596, 4.158126354217529
75,597342281,0.78574896,0.15550472,-0.5537217,0.22761671,16.242029190063477,0.6536623239517212,4.7377142906188965,-0.2796907126903534,3.2808783054351807, 3.778852939605713
76,597358948,0.78583044,0.15510944,-0.55353594,0.22805646,16.313106536865234,0.5158481001853943,4.686241149902344,0.3215610086917877,2.476306200027466, 3.823380708694458
77,597375615,0.7859034,0.1549286,-0.55328935,0.2285258,16.127233505249023,0.6721000075340271,4.976037502288818,1.955997109413147,2.464588165283203, 3.2119927406311035
78,597392282,0.7859042,0.1548838,-0.553099,0.22901316,16.073110580444336,0.6275736093521118,4.614329814910889,2.7127625942230225,1.6911362409591675, 2.9554944038391113
79,597408949,0.7859411,0.15451512,-0.5529949,0.2293874,16.291643142700195,0.18575774133205414,4.584803104400635,0.32193246483802795,1.7567559480667114, 3.6000771522521973
80,597425616,0.78601736,0.15421145,-0.5527771,0.2298546,16.356128692626953,0.788144588470459,5.089576244354248,1.0690934658050537,2.525559902191162, 3.6320159435272217
81,597442283,0.7860768,0.15399522,-0.55259955,0.23022325,16.632551193237305,0.9685022234916687,4.607531547546387,1.2179926633834839,1.9962856769561768, 2.880282402038574
82,597458950,0.7862654,0.1534734,-0.5524205,0.23035695,16.514501571655273,0.7023374438285828,4.7933783531188965,-1.3924089670181274,2.7352893352508545, 2.6013479232788086
83,597475617,0.78640956,0.1531397,-0.5521887,0.23064265,16.179601669311523,0.7169640064239502,4.736720561981201,0.3078198730945587,2.717975378036499, 2.718116283416748
84,597492284,0.7864528,0.15281022,-0.5520835,0.23096564,16.34953498840332,0.49518588185310364,4.177783489227295,0.5674813389778137,1.678611397743225, 3.273437261581421
85,597508951,0.7866256,0.15238194,-0.5517667,0.2314162,16.129566192626953,0.7640580534934998,4.917094707489014,0.6104851365089417,3.6211307048797607, 3.870150089263916
86,597525618,0.78674185,0.15202436,-0.551527,0.2318275,16.042407989501953,1.022010087966919,4.314842700958252,0.7498054504394531,2.8343210220336914, 3.5549216270446777
87,597542285,0.7869463,0.15142904,-0.55122346,0.23224562,16.23777961730957,0.4083152115345001,4.527429580688477,-0.5109477043151855,3.908939838409424, 4.292912483215332
88,597558952,0.7870875,0.1510306,-0.55090773,0.23277472,16.007041931152344,0.697772741317749,4.85007381439209,1.0718594789505005,3.5402324199676514, 4.238754749298096
89,597575619,0.7871358,0.1504056,-0.55080366,0.23326188,16.611391067504883,0.2163255512714386,4.399576663970947,-0.4902142584323883,2.357475996017456, 5.268923282623291
90,597592286,0.78726035,0.1498859,-0.5505297,0.2338216,16.51896095275879,0.8028601408004761,5.091799259185791,0.6100753545761108,3.47676420211792, 4.983188152313232
91,597608953,0.7873548,0.14939573,-0.5503169,0.23431763,16.761964797973633,0.879802942276001,4.579470157623291,0.36475688219070435,2.9138476848602295, 4.604888439178467
92,597625620,0.7875389,0.14878944,-0.5500563,0.23469692,16.224742889404297,0.5395395755767822,4.710864067077637,-0.6650977730751038,3.577178716659546, 4.244978427886963
93,597642287,0.78767276,0.14827345,-0.5498213,0.23512426,16.23556137084961,0.5020809173583984,4.439101219177246,-0.08431702107191086,3.1518285274505615, 4.228714942932129
94,597658954,0.7877458,0.14785373,-0.5495874,0.2356899,16.27689552307129,0.3792257606983185,4.355266094207764,1.031468391418457,2.901477098464966, 4.7151384353637695
95,597675621,0.78782487,0.14754109,-0.54931605,0.23625264,16.37579345703125,0.49918296933174133,4.802016735076904,1.7559618949890137,2.9480538368225098, 4.283756256103516
96,597692288,0.78797466,0.14707817,-0.5491048,0.23653351,16.394094467163086,0.8054908514022827,4.6750569343566895,-0.41438791155815125,2.8500852584838867, 3.222417116165161
97,597708955,0.78809386,0.14668034,-0.54890186,0.23685429,16.240497589111328,0.5085275769233704,4.518799781799316,0.16890935599803925,2.619955062866211, 3.2825686931610107
98,597725622,0.7882673,0.14624155,-0.5486443,0.23714478,15.865144729614258,0.6575049161911011,4.712996482849121,-0.1331220120191574,3.159435272216797, 3.1302239894866943
99,597742289,0.7883212,0.14584361,-0.54852235,0.23749295,16.337646484375,0.2234894037246704,4.3069539070129395,0.3185451328754425,1.9543896913528442, 3.6699025630950928
100,597758956,0.7884195,0.1454451,-0.5483402,0.23783141,16.411008834838867,0.579399585723877,4.9183268547058105,0.15810078382492065,2.4573910236358643, 3.4128856658935547
101,597775623,0.7884827,0.14514744,-0.5481939,0.23814,16.675745010375977,0.7812021374702454,4.375731945037842,0.7523154020309448,1.9228540658950806, 3.042858839035034
102,597792290,0.7886656,0.14466277,-0.5479557,0.23837742,16.73798370361328,0.5768355131149292,4.708401203155518,-0.6650593876838684,3.1262283325195312, 3.01467227935791
103,597808957,0.7888823,0.14434066,-0.5475769,0.2387261,15.973077774047852,0.9448269009590149,4.585631847381592,0.6756951212882996,3.875131845474243, 2.749696731567383
104,597825624,0.78907585,0.1437254,-0.5473542,0.23896842,16.227991104125977,0.3515087366104126,4.146880626678467,-1.348841667175293,3.303327798843384, 3.5619263648986816
105,597842291,0.7892067,0.14349172,-0.54702026,0.23944122,15.840949058532715,0.639144241809845,4.611197471618652,1.8795560598373413,3.2776505947113037, 3.3877599239349365
106,597858958,0.7893141,0.1431402,-0.54679626,0.23980834,16.120222091674805,0.7665623426437378,4.4479079246521,0.5980501174926758,2.688533067703247, 3.373826503753662
107,597875625,0.78932697,0.14292334,-0.54665333,0.24022055,16.42169189453125,0.4598877727985382,4.465641021728516,1.6646013259887695,1.7041600942611694, 3.4422762393951416
108,597892292,0.7894256,0.14238146,-0.54651,0.24054457,16.21930503845215,0.529214084148407,4.66998815536499,-0.5080023407936096,2.4848737716674805, 4.047966480255127
109,597908959,0.78951824,0.14184755,-0.54641795,0.24076517,16.359601974487305,0.7168012857437134,4.44044828414917,-1.0294767618179321,2.0780415534973145, 3.4800422191619873
110,597925626,0.7896206,0.14137816,-0.546247,0.24109346,16.03924560546875,0.48469001054763794,4.395781517028809,-0.018261857330799103,2.5365607738494873, 3.7945027351379395
111,597942293,0.78978825,0.14071284,-0.5460461,0.24138771,15.920941352844238,0.47640717029571533,4.3017473220825195,-1.3039170503616333,3.2483630180358887, 4.1775407791137695
112,597958960,0.78989506,0.1404079,-0.54578406,0.24180855,16.042394638061523,0.6407119035720825,4.30563497543335,1.0849220752716064,2.9005939960479736, 3.470489025115967
113,597975627,0.78997797,0.14010848,-0.54554623,0.24224758,16.39181137084961,0.3276572525501251,4.41642427444458,1.397896409034729,2.673588275909424, 3.719022274017334
114,597992294,0.7900983,0.13977702,-0.54528964,0.24262394,16.258930206298828,0.5726184844970703,4.733975410461426,0.9735453128814697,2.9172677993774414, 3.415754556655884
115,598008961,0.79021823,0.13942514,-0.54510415,0.2428528,16.458539962768555,0.7506043910980225,4.552899360656738,0.2037554383277893,2.4215078353881836, 2.773080587387085
116,598025628,0.79039025,0.13913,-0.54485124,0.24302904,15.593134880065918,0.8644731044769287,4.460901737213135,0.33260011672973633,2.848829984664917, 2.1146934032440186
117,598042295,0.7904943,0.13870978,-0.54472643,0.24321106,15.7138032913208,0.2563323974609375,4.115041255950928,-0.5775663256645203,2.1255528926849365, 2.817633628845215
118,598058962,0.7905329,0.13847923,-0.54456466,0.24357958,15.366029739379883,0.5372857451438904,4.458720684051514,1.402788519859314,1.9389138221740723, 3.2503225803375244
119,598075629,0.7905527,0.13805832,-0.5445435,0.24380131,15.779739379882812,0.6159290671348572,4.099559307098389,-0.3526996672153473,1.279821753501892, 3.357011556625366
120,598092296,0.79045206,0.13775624,-0.54455644,0.24426872,16.379823684692383,0.14710794389247894,4.2371625900268555,1.2362291812896729,0.6889240741729736, 4.472304821014404
121,598108963,0.7904196,0.13747716,-0.54449004,0.24467883,16.390241622924805,0.7756798267364502,4.506843090057373,1.2149192094802856,1.2871981859207153, 3.8784351348876953
122,598125630,0.79055613,0.13701367,-0.54433674,0.24483855,16.20892333984375,0.9251592755317688,4.315339088439941,-0.636821448802948,2.4518849849700928, 2.8924105167388916
123,598142297,0.7907247,0.13660054,-0.5441136,0.24502127,15.723260879516602,0.7974689602851868,4.041769504547119,-0.3831404149532318,2.9080984592437744, 2.6299314498901367
124,598158964,0.79096866,0.13606113,-0.5437766,0.24528198,15.193933486938477,0.3285441994667053,4.24496603012085,-0.5462037324905396,4.081787586212158, 3.34543514251709
125,598175631,0.7910724,0.13574712,-0.5435378,0.24565035,15.582971572875977,0.40643078088760376,3.9920878410339355,1.0349899530410767,2.73884916305542, 3.4048564434051514
126,598192298,0.7910764,0.13553122,-0.5433847,0.24609463,15.963444709777832,0.31768491864204407,4.116937637329102,1.7434630393981934,1.8136159181594849, 3.670511245727539
127,598208965,0.7910842,0.13524486,-0.54322255,0.24658509,16.355058670043945,0.7568163275718689,4.803317546844482,1.5260238647460938,2.0443224906921387, 4.158714771270752
128,598225632,0.79111105,0.13489076,-0.5431728,0.24680197,15.928828239440918,0.9921206831932068,4.254618167877197,0.04998958483338356,1.3435076475143433, 3.059699296951294
129,598242299,0.79124326,0.13417855,-0.54308075,0.24696891,15.627464294433594,0.5937258005142212,4.112569332122803,-2.110755681991577,2.5295040607452393, 3.9186601638793945
130,598258966,0.79128295,0.13368806,-0.54295725,0.24737921,15.524581909179688,0.4675055742263794,4.300053596496582,0.09365925192832947,2.2122395038604736, 4.522914409637451
131,598275633,0.7913256,0.1333207,-0.5427967,0.24779315,15.756596565246582,0.7029004096984863,3.9781107902526855,0.8893306851387024,2.212188482284546, 4.069340229034424
132,598292300,0.7914812,0.13286406,-0.54256505,0.24804847,15.622650146484375,0.7132851481437683,4.333631992340088,-0.1793145388364792,3.034881114959717, 3.285244941711426
133,598308967,0.7915077,0.1326341,-0.54245895,0.24831934,15.726353645324707,0.3505899906158447,3.676452398300171,0.9943169951438904,1.501409888267517, 2.8564369678497314
134,598325634,0.7916363,0.13207428,-0.54225945,0.24864282,16.03762435913086,0.2514220178127289,4.3992600440979,-0.6686323881149292,3.033113718032837, 4.0522685050964355
135,598342301,0.7917994,0.1315681,-0.542042,0.24886595,15.52288818359375,1.2094229459762573,4.341302394866943,-0.5466647148132324,3.0496597290039062, 3.3284411430358887
136,598358968,0.79191566,0.13093942,-0.5419345,0.24906129,15.522439956665039,0.358376145362854,3.642723560333252,-1.4469770193099976,2.4582366943359375, 3.841015338897705
137,598375635,0.79197085,0.13050713,-0.54175234,0.24950886,15.46500015258789,0.320968896150589,3.999112129211426,0.6400550007820129,2.5576908588409424, 4.4709343910217285
138,598392302,0.79206574,0.12995386,-0.5415656,0.24990125,15.695712089538574,0.6424527764320374,4.174737930297852,-0.27607929706573486,2.898275852203369, 4.5392303466796875
139,598408969,0.79217654,0.12956019,-0.541311,0.25030607,15.69975471496582,0.7734329700469971,4.0764479637146,0.7068912982940674,3.074183464050293, 3.9178662300109863
140,598425636,0.79235625,0.12895261,-0.54106045,0.25059238,15.39603328704834,0.4486849904060364,4.026947498321533,-0.8883638381958008,3.5655124187469482, 4.004885673522949
141,598442303,0.79245883,0.1284435,-0.5408896,0.25089812,15.408309936523438,0.2711673080921173,3.8480350971221924,-0.3252685070037842,2.6943984031677246, 3.965390205383301
142,598458970,0.7925811,0.12801582,-0.5406484,0.25125045,15.524415969848633,0.6398796439170837,4.369802951812744,0.398872971534729,3.06085205078125, 3.824532985687256
143,598475637,0.79259735,0.12769952,-0.54053587,0.25160125,15.36728286743164,0.4316430985927582,3.887543201446533,0.8431892395019531,1.7792564630508423, 3.696110725402832
144,598492304,0.792726,0.1271749,-0.5403442,0.25187343,15.299970626831055,0.3293958902359009,3.9666519165039062,-0.6352975368499756,2.945300817489624, 3.740229606628418
145,598508971,0.7927678,0.12677824,-0.5402057,0.2522386,15.530477523803711,0.47074636816978455,4.083065032958984,0.5013238191604614,2.180492639541626, 4.029627323150635
146,598525638,0.7928216,0.12635924,-0.5400495,0.25261423,15.366186141967773,0.6314777731895447,4.104101657867432,0.44598761200904846,2.376711845397949, 4.146319389343262
147,598542305,0.7928127,0.1258718,-0.53998774,0.2530175,15.632128715515137,0.6530351042747498,3.804476499557495,-0.05703947693109512,1.8019492626190186, 4.692739009857178
148,598558972,0.7928216,0.12524822,-0.53991836,0.2534463,15.862491607666016,0.6542515754699707,4.132179260253906,-0.6416493654251099,2.171182155609131, 5.347041606903076
149,598575639,0.79287297,0.124709316,-0.5397564,0.25389594,15.4507474899292,0.8447902798652649,4.402500629425049,0.09410747140645981,2.6983301639556885, 5.044991493225098
150,598592306,0.7928622,0.1240571,-0.5397636,0.25423348,15.673137664794922,0.6262570023536682,3.8964312076568604,-1.2209190130233765,1.6532678604125977, 5.103810787200928
151,598608973,0.7928785,0.12343428,-0.53969604,0.25462902,15.153751373291016,0.7234225273132324,4.357319355010986,-0.8592932820320129,2.190840005874634, 5.141973495483398
152,598625640,0.79273957,0.1230428,-0.53978664,0.2550589,15.077046394348145,0.5187105536460876,3.7973222732543945,0.5851540565490723,0.3238917589187622, 4.987374782562256
153,598642307,0.7926326,0.122422144,-0.5399444,0.2553555,15.134687423706055,0.34902575612068176,3.8957080841064453,-1.492656946182251,0.405109703540802, 5.010708808898926
154,598658974,0.7924446,0.12193373,-0.5400963,0.2558509,15.00035285949707,0.43185919523239136,4.011297225952148,0.029166458174586296,0.07273366302251816, 5.727403163909912
155,598675641,0.79220855,0.12138572,-0.5403731,0.25625846,15.267495155334473,0.345660001039505,4.1252241134643555,-0.7328945994377136,-0.7758086919784546, 5.692749500274658
156,598692308,0.79194015,0.120802626,-0.54072607,0.25661823,15.630916595458984,0.22445844113826752,3.8838961124420166,-1.2767804861068726,-1.2775232791900635, 5.644136905670166
157,598708975,0.79177696,0.12021292,-0.5409682,0.25688896,15.303918838500977,0.8443517088890076,4.169463634490967,-1.7164095640182495,-0.2999887764453888, 4.806653022766113
158,598725642,0.79159606,0.11970453,-0.5412559,0.25707737,15.144777297973633,0.4479047656059265,3.561622142791748,-1.5371206998825073,-0.8561301827430725, 4.194406509399414
159,598742309,0.79144114,0.119250424,-0.54145765,0.25734022,14.77974796295166,0.2999587655067444,3.639437675476074,-0.8815634846687317,-0.3084665536880493, 4.2574262619018555
160,598758976,0.7912969,0.118937545,-0.541564,0.25770444,14.608739852905273,0.32942816615104675,3.7271101474761963,0.5100448727607727,0.0656389445066452, 4.231019020080566
161,598775643,0.7911117,0.118624516,-0.5417356,0.25805673,14.919466018676758,0.19633544981479645,3.6107964515686035,0.3241223096847534,-0.43590256571769714, 4.261831760406494
162,598792310,0.7909247,0.11838031,-0.5418969,0.25840285,14.632691383361816,0.3922816216945648,3.797994375228882,0.7168803811073303,-0.5128943920135498, 3.977992296218872
163,598808977,0.79072475,0.11811858,-0.542109,0.2586896,14.621947288513184,0.3960137665271759,3.7813854217529297,0.2742544710636139,-0.8430421352386475, 3.764984369277954
164,598825644,0.79048324,0.11791151,-0.54238075,0.25895238,14.446417808532715,0.3155156075954437,3.5182480812072754,0.2589379847049713,-1.3957768678665161, 3.476149559020996
165,598842311,0.79027003,0.11758642,-0.54264313,0.2592013,14.401655197143555,0.3210931122303009,3.441452980041504,-0.28943634033203125,-1.0756181478500366, 3.8700220584869385
166,598858978,0.7899946,0.11740816,-0.5428979,0.2595879,14.521787643432617,0.36602073907852173,3.6265132427215576,0.9833932518959045,-1.3812929391860962, 4.123663902282715
167,598875645,0.7897017,0.11727129,-0.5431658,0.25998035,14.590010643005371,0.5058351159095764,3.743854522705078,1.2437591552734375,-1.5881540775299072, 4.062437534332275
168,598892312,0.7894202,0.11704476,-0.5434578,0.2603265,14.610928535461426,0.5738976001739502,3.8085639476776123,0.5740254521369934,-1.56257963180542, 4.179384231567383
169,598908979,0.7891328,0.11674958,-0.5438038,0.2606082,14.5755033493042,0.5575082302093506,3.636202335357666,-0.18447548151016235,-1.7874592542648315, 4.123651027679443
170,598925646,0.78885865,0.116420805,-0.54415554,0.2608511,14.04100227355957,0.550337553024292,3.542513370513916,-0.5214617848396301,-1.7372199296951294, 4.0382843017578125
171,598942313,0.78854674,0.116137564,-0.5445384,0.26112083,13.892789840698242,0.21288280189037323,3.3454856872558594,-0.24548494815826416,-2.0885112285614014, 4.0921735763549805
172,598958980,0.7881835,0.115876935,-0.5449623,0.2614491,13.696280479431152,0.12736153602600098,3.473546266555786,-0.019465655088424683,-2.463749885559082, 4.407196998596191
173,598975647,0.7877552,0.115796685,-0.5454463,0.26176578,13.786344528198242,0.2511783540248871,3.3112330436706543,0.8847077488899231,-3.3688135147094727, 3.8500823974609375
174,598992314,0.7873705,0.11574681,-0.54591304,0.261972,13.836235046386719,0.2563391923904419,3.4160430431365967,0.6076037287712097,-3.2377781867980957, 3.0389277935028076
175,599008981,0.78703016,0.11562481,-0.5463738,0.26208842,13.938959121704102,0.29956361651420593,3.256006956100464,-0.15263889729976654,-2.9708943367004395, 2.7421536445617676
176,599025648,0.78678626,0.11556646,-0.54670644,0.26215276,13.726232528686523,0.5871579647064209,3.293193817138672,0.1325521171092987,-2.054445743560791, 1.9452011585235596
177,599042315,0.78660244,0.115521885,-0.54698193,0.26214963,13.656755447387695,0.35307735204696655,3.0887680053710938,-0.005801276303827763,-1.584875464439392, 1.3834251165390015
178,599058982,0.78651094,0.115486965,-0.54710484,0.26218286,13.55793571472168,0.36353597044944763,3.2118141651153564,0.446294903755188,-0.40909889340400696, 1.3011188507080078
179,599075649,0.78645986,0.1154473,-0.5471438,0.2622724,13.394399642944336,0.41380774974823,3.055086374282837,0.6363155245780945,0.29926520586013794, 1.4298609495162964
180,599092316,0.7863673,0.11547758,-0.547169,0.26248372,13.133681297302246,0.2585967779159546,3.055180072784424,1.510323166847229,0.20411400496959686, 1.887073040008545
181,599108983,0.7862364,0.115541026,-0.5472048,0.26277262,12.935893058776855,0.28611430525779724,3.057124614715576,1.995350956916809,0.005833292845636606, 2.260404109954834
182,599125650,0.78604984,0.11560753,-0.5473087,0.26308486,12.873395919799805,0.34175705909729004,3.1391565799713135,2.1256425380706787,-0.5992090702056885, 2.58685040473938
183,599142317,0.78581136,0.11557505,-0.5475301,0.2633512,12.804076194763184,0.497702032327652,3.393887519836426,1.1081782579421997,-1.2425873279571533, 2.8182482719421387
184,599158984,0.7855525,0.11536618,-0.5478984,0.263449,12.875993728637695,0.6992304921150208,3.206561326980591,-0.6783139705657959,-1.9577453136444092, 2.755523204803467
185,599175651,0.7853022,0.11509935,-0.5482908,0.26349556,12.858363151550293,0.5979315042495728,2.959130048751831,-1.2676111459732056,-1.9869948625564575, 2.688469171524048
186,599192318,0.785082,0.114828505,-0.5486521,0.2635178,12.532974243164062,0.41732752323150635,2.9377238750457764,-1.3613660335540771,-1.7138863801956177, 2.4889328479766846
187,599208985,0.7848039,0.11471658,-0.54899645,0.26367733,12.177618026733398,0.2023269683122635,2.670269012451172,0.08124990016222,-2.0194590091705322, 2.7148120403289795
188,599225652,0.7844908,0.11456445,-0.54937375,0.26388955,11.918255805969238,0.02127881720662117,2.514598846435547,0.0820695087313652,-2.233222723007202, 3.26161789894104
189,599242319,0.7841899,0.11444701,-0.5496579,0.2642432,11.861417770385742,0.24195680022239685,2.7539663314819336,0.9207060933113098,-1.6159052848815918, 3.763050079345703
190,599258986,0.78382516,0.11434233,-0.5499758,0.26470843,12.161643028259277,0.5343963503837585,2.960127115249634,1.3798778057098389,-1.968720555305481, 4.444552898406982
191,599275653,0.7834755,0.11411357,-0.5503457,0.26507315,12.204262733459473,0.7321149110794067,3.080049514770508,0.23718000948429108,-2.054445743560791, 4.399358749389648
192,599292320,0.7831667,0.11365299,-0.550747,0.2653502,11.971226692199707,0.5300553441047668,2.962031841278076,-1.4554417133331299,-1.7104289531707764, 4.75382661819458
193,599308987,0.7827842,0.11308029,-0.55129474,0.26558614,11.563797950744629,0.3615362048149109,2.729006767272949,-2.3927769660949707,-2.6231889724731445, 5.230837345123291
194,599325654,0.7822891,0.11265089,-0.5519388,0.26588985,11.065425872802734,0.30236414074897766,2.4266672134399414,-1.4475785493850708,-3.778846502304077, 5.337987422943115
195,599342321,0.7817117,0.1122623,-0.55268884,0.2661937,10.839275360107422,0.17707213759422302,2.259629487991333,-1.453559160232544,-4.690185070037842, 5.363241672515869
196,599358988,0.7810588,0.112012714,-0.55350333,0.26652253,10.64961051940918,0.10966772586107254,2.4295945167541504,-0.740834653377533,-5.521368980407715, 5.116477012634277
197,599375655,0.78027564,0.111894965,-0.5544484,0.2669017,10.870759010314941,-0.05573752894997597,2.3996472358703613,-0.023550882935523987,-6.899063587188721, 5.198424816131592
198,599392322,0.77949864,0.11176466,-0.5553704,0.26730937,10.85287094116211,0.2067737579345703,2.914182424545288,0.028218800202012062,-6.687925815582275, 5.351243019104004
199,599408989,0.77869666,0.11164275,-0.5563305,0.2677011,10.862051010131836,0.37754517793655396,2.3371119499206543,-0.020029133185744286,-7.030904293060303, 5.324707984924316
200,599425656,0.7779219,0.111457944,-0.5573044,0.26800457,10.719858169555664,0.47216445207595825,2.3627469539642334,-0.8119995594024658,-6.911588668823242, 5.02471923828125
201,599442323,0.77722657,0.11119917,-0.55826706,0.26812616,10.254478454589844,0.327985554933548,2.4455244541168213,-1.9110662937164307,-6.561437129974365, 4.212118148803711
202,599458990,0.77646625,0.1109782,-0.5593465,0.26817054,10.031721115112305,0.040988776832818985,2.1809914112091064,-2.2679667472839355,-7.516548156738281, 3.8201804161071777
203,599475657,0.7756446,0.11083348,-0.56046844,0.26826578,9.91549301147461,0.12682466208934784,2.1641430854797363,-1.694677472114563,-8.076159477233887, 3.9471545219421387
204,599492324,0.77483475,0.110682316,-0.5616314,0.26823655,9.611774444580078,0.34802600741386414,1.9999970197677612,-2.2692856788635254,-8.339741706848145, 3.335779905319214
205,599508991,0.77395326,0.110628314,-0.5628425,0.26826528,9.449455261230469,0.04149492457509041,1.7499544620513916,-1.7151035070419312,-8.924581527709961, 3.3690123558044434
206,599525658,0.773047,0.11062116,-0.564016,0.26841667,9.377071380615234,0.026065945625305176,1.9789118766784668,-0.852057933807373,-8.828405380249023, 3.8877205848693848
207,599542325,0.77211183,0.110525474,-0.5651822,0.26869404,9.240961074829102,0.258714497089386,1.889329433441162,-0.8970210552215576,-8.585174560546875, 4.902445316314697
208,599558992,0.7711335,0.11029805,-0.56639445,0.2690444,9.378551483154297,0.3470565676689148,1.7177202701568604,-1.3823049068450928,-8.682887077331543, 5.919551849365234
209,599575659,0.7702249,0.11016472,-0.5674382,0.26950195,9.2264986038208,0.47815534472465515,1.8897771835327148,-0.20867949724197388,-7.597637176513672, 5.878967761993408
210,599592326,0.76934654,0.11008753,-0.5684042,0.2700065,9.059371948242188,0.23529404401779175,1.8145778179168701,0.35999298095703125,-7.11336612701416, 5.796661853790283
211,599608993,0.7685456,0.10996706,-0.5692521,0.27054986,8.859414100646973,0.19800624251365662,1.757386326789856,0.4486640989780426,-6.0717597007751465, 5.952616214752197
212,599625660,0.7679026,0.11029564,-0.56936866,0.2719926,8.925394058227539,-0.3118949234485626,1.8762918710708618,7.53385591506958,-1.7102885246276855, 8.087090492248535
213,599642327,0.76764274,0.111477956,-0.56802505,0.2750367,8.242998123168945,0.02473853901028633,1.3943052291870117,20.82183074951172,7.085019111633301, 11.403983116149902
214,599658994,0.76737595,0.11186797,-0.5672372,0.27723953,7.706976413726807,0.3156610131263733,1.0621892213821411,12.38101863861084,4.949512004852295, 10.532367706298828
215,599675661,0.7668792,0.11194306,-0.56714946,0.27875924,7.725343704223633,-0.10177389532327652,1.3498153686523438,6.87522554397583,0.46529966592788696, 9.1307954788208
216,599692328,0.7662173,0.11199804,-0.5674973,0.27984732,7.922849655151367,-0.35314640402793884,1.8804653882980347,4.4214253425598145,-2.783550262451172, 7.6057634353637695
217,599708995,0.76560223,0.11274802,-0.56750894,0.28120276,8.198323249816895,-0.4411837160587311,2.0486927032470703,9.772318840026855,-1.982218861579895, 5.965809345245361
218,599725662,0.7653241,0.113300964,-0.5669956,0.28276855,7.793966770172119,0.08319547027349472,2.058697462081909,10.317243576049805,2.6341075897216797, 6.782329559326172
219,599742329,0.7650187,0.11329268,-0.56676817,0.28405195,7.343986988067627,-0.04463193193078041,1.592677354812622,5.69935941696167,1.9061170816421509, 7.756124496459961
220,599758996,0.76448923,0.11305868,-0.56721395,0.28467974,6.779522895812988,-0.1093447133898735,1.0327448844909668,0.9514799118041992,-2.6603147983551025, 6.218873500823975
221,599775663,0.7637288,0.113610104,-0.56784916,0.28523445,6.677523612976074,-0.5235231518745422,0.6041573882102966,4.483702659606934,-6.058314323425293, 3.3161733150482178
222,599792330,0.762895,0.114818655,-0.568411,0.28586182,6.695537090301514,-0.3361467719078064,1.1571639776229858,8.524518013000488,-7.231326103210449, 1.2566173076629639
223,599808997,0.76216286,0.11574102,-0.5691192,0.28603336,6.745357513427734,-0.07644496113061905,1.2236002683639526,4.8840413093566895,-7.396667003631592, -0.09810946136713028
224,599825664,0.76142436,0.11701966,-0.569824,0.28607696,6.918070316314697,-0.04955458641052246,1.3430901765823364,6.120841026306152,-8.105538368225098, -2.209864377975464
225,599842331,0.7607431,0.118394315,-0.5705567,0.2858635,7.014708518981934,0.33372288942337036,1.5109565258026123,5.631805896759033,-8.497861862182617, -3.959404706954956
226,599858998,0.76011217,0.11970398,-0.57149357,0.28512353,6.819276809692383,0.6400941014289856,1.4155069589614868,2.7174384593963623,-9.626422882080078, -6.397569179534912
227,599875665,0.75948507,0.12151919,-0.57234645,0.28431484,6.306196689605713,0.17815209925174713,0.6765315532684326,5.159073829650879,-10.161499977111816, -8.827000617980957
228,599892332,0.75882053,0.123656034,-0.5730796,0.2836907,5.79295015335083,-0.3221706449985504,0.6177842617034912,7.92024040222168,-10.204338073730469, -9.10448932647705
229,599908999,0.7581874,0.12575927,-0.573637,0.28333202,5.344917297363281,-0.7485769987106323,0.5013623237609863,9.181832313537598,-8.907745361328125, -7.773805618286133
230,599925666,0.75748384,0.12816012,-0.57390624,0.2835928,5.291512489318848,-0.5135648846626282,0.7615719437599182,13.715493202209473,-7.65242862701416, -5.887558460235596
231,599942333,0.75691485,0.13026296,-0.57392883,0.28410783,5.7688446044921875,0.05557228624820709,0.9568799138069153,13.645245552062988,-5.104051113128662, -3.8347487449645996
232,599959000,0.75654864,0.13195916,-0.5738309,0.28449833,6.348958492279053,1.107778787612915,1.2742462158203125,11.188124656677246,-3.05659556388855, -3.3372724056243896
233,599975667,0.75643474,0.13244693,-0.5740051,0.2842232,6.4353108406066895,1.3238919973373413,1.3722620010375977,1.503305435180664,-1.7172420024871826, -2.237128496170044
234,599992334,0.75639427,0.1321233,-0.57444245,0.283597,6.077786922454834,0.9727630019187927,1.0867960453033447,-4.728962421417236,-1.5110340118408203, -0.7281562685966492
235,600009001,0.75632447,0.13162555,-0.5750101,0.28286278,5.4797821044921875,0.11874067038297653,1.0670047998428345,-6.321534633636475,-2.0438551902770996, -0.3989562392234802
236,600025668,0.75613964,0.13144608,-0.57551605,0.28241116,4.866291522979736,-0.7746416330337524,0.7321021556854248,-3.3964102268218994,-2.4917185306549072, -0.03812450170516968
237,600042335,0.7557412,0.13226885,-0.5757346,0.28264815,4.6615777015686035,-1.0253996849060059,0.9366853833198547,5.291795253753662,-3.157252311706543, -0.29576265811920166
238,600059002,0.7552538,0.13378105,-0.5756353,0.28344023,4.852215766906738,-0.752939760684967,0.8025700449943542,11.80996322631836,-2.7178542613983154, -0.279421865940094
239,600075669,0.7549286,0.13558936,-0.5752926,0.28414255,5.1243414878845215,0.16303013265132904,0.6208055019378662,13.450332641601562,-1.5584442615509033, -2.4405205249786377
240,600092336,0.7549469,0.13729471,-0.57488745,0.28409475,5.269911289215088,0.5639193058013916,0.6439608931541443,9.732478141784668,-0.3469753861427307, -6.649380207061768
241,600109003,0.7553322,0.13874096,-0.5744457,0.28326052,4.973688125610352,0.18833933770656586,0.9626253843307495,5.01491117477417,1.0577473640441895, -10.429149627685547
242,600125670,0.75602627,0.14008717,-0.57384485,0.28196108,4.746222019195557,-0.19647398591041565,0.7533797025680542,2.7548460960388184,2.791600227355957, -13.169404983520508
243,600142337,0.75700784,0.14119522,-0.5730883,0.280309,4.680445671081543,-0.06530793011188507,0.615464985370636,0.17068958282470703,4.848853588104248, -14.766681671142578
244,600159004,0.7581653,0.14187832,-0.5723767,0.2782823,4.541393756866455,0.2853551208972931,1.0098285675048828,-3.834404230117798,5.814274311065674, -15.351934432983398
245,600175671,0.7593368,0.14248243,-0.57162,0.27632737,4.491666316986084,0.2635789215564728,0.8318771123886108,-3.901996612548828,6.323007106781006, -14.726613998413086
246,600192338,0.7604799,0.1430985,-0.5707818,0.274593,4.558332920074463,0.26535502076148987,0.9151788949966431,-2.7209677696228027,6.77679967880249, -13.621626853942871
247,600209005,0.7615203,0.14377943,-0.5699047,0.27317184,4.1806745529174805,0.1686563789844513,1.19725501537323,-0.9650103449821472,6.751876354217529, -12.067558288574219
248,600225672,0.7622637,0.1450118,-0.56880164,0.2727459,3.9016666412353516,-1.2753373384475708,1.9447435140609741,6.622774600982666,6.645967483520508, -8.661181449890137
249,600242339,0.7619091,0.14867595,-0.567233,0.2750214,4.125020980834961,-4.036274433135986,3.1414287090301514,31.902584075927734,2.894815444946289, -2.4700849056243896
250,600259006,0.76097625,0.15406428,-0.56551415,0.27816072,5.322620868682861,-1.537609577178955,3.1908161640167236,45.4870719909668,-1.2073018550872803, -3.828793525695801
251,600275673,0.7606399,0.15617299,-0.56524265,0.2784563,7.20306396484375,-1.2235910892486572,4.425915241241455,13.994078636169434,-3.326759099960327, -5.558472156524658
252,600292340,0.76103455,0.15326661,-0.5670363,0.27532873,9.577106475830078,-5.584559440612793,5.047540187835693,-30.31983184814453,-5.410265922546387, -3.1897528171539307
253,600309007,0.7618684,0.15241587,-0.56794465,0.27159694,10.345827102661133,-1.7104977369308472,8.033721923828125,-20.763126373291016,-3.5968639850616455, -16.349035263061523
254,600325674,0.7621346,0.1471076,-0.5730659,0.2628797,5.873950004577637,-3.521939516067505,2.8458104133605957,-71.02601623535156,-24.851802825927734, -19.662084579467773
255,600342341,0.7601992,0.1368436,-0.5826553,0.25275263,3.653348207473755,-5.8455610275268555,0.30892401933670044,-109.00143432617188,-49.04494857788086, 0.7308119535446167
256,600359008,0.75589126,0.124205485,-0.59387714,0.24599114,2.036278009414673,-6.558659553527832,-2.345810890197754,-108.86270141601562,-59.49064254760742, 33.22697448730469
257,600375675,0.7448717,0.12659287,-0.6002277,0.26242587,-0.5948372483253479,-17.619123458862305,-2.5490059852600098,77.8534164428711,-66.95638275146484, 99.38407897949219
258,600392342,0.73160464,0.14074987,-0.59842044,0.29468188,-2.720529556274414,-0.1679060310125351,4.741322994232178,220.3992919921875,-41.90998458862305, 128.11012268066406
259,600409009,0.72484004,0.13925819,-0.59476113,0.31854862,-4.316873550415039,2.0663719177246094,8.387174606323242,104.96744537353516,17.189538955688477, 135.3758544921875
260,600425676,0.724416,0.13420366,-0.5844061,0.34011835,-4.468534469604492,6.019903659820557,9.105674743652344,86.4828872680664,81.57152557373047, 118.31954956054688
261,600442343,0.7303831,0.121355966,-0.57104445,0.35457247,-2.0119168758392334,3.956400156021118,7.650607585906982,20.414257049560547,133.16567993164062, 96.79401397705078
262,600459010,0.73852336,0.10924537,-0.55474746,0.36729282,2.103767156600952,2.450470209121704,-0.005985230207443237,22.530221939086914,152.88172912597656, 77.61658477783203
263,600475677,0.7465117,0.099815995,-0.5385217,0.37782472,5.058844566345215,3.5880560874938965,-5.43497371673584,27.698204040527344,143.5845184326172, 56.85763931274414
264,600492344,0.75168353,0.09705162,-0.52382696,0.3887909,6.435419082641602,2.5343308448791504,-10.729458808898926,61.46933364868164,108.60842895507812, 42.99925994873047
265,600509011,0.75324714,0.09953497,-0.5133148,0.39902335,6.186766147613525,1.1201688051223755,-12.793184280395508,77.2441635131836,60.04230880737305, 32.93574142456055
266,600525678,0.75138927,0.10062486,-0.51075137,0.40548977,4.961156845092773,1.9294952154159546,-12.205029487609863,37.38884353637695,8.683941841125488, 33.29582977294922
267,600542345,0.7472243,0.09863932,-0.5150809,0.40818858,2.962982654571533,1.971016526222229,-11.283531188964844,-9.251300811767578,-28.477916717529297, 35.96783447265625
268,600559012,0.74172115,0.096649386,-0.52237564,0.40942943,1.281124472618103,2.297611713409424,-9.16139030456543,-21.753557205200195,-48.93303298950195, 34.379451751708984
269,600575679,0.73561764,0.096108995,-0.5304174,0.4102283,0.8023231625556946,2.868865489959717,-5.898870944976807,-17.577491760253906,-58.90605163574219, 29.218490600585938
270,600592346,0.7302024,0.09519925,-0.5376631,0.41068262,0.5712094902992249,2.6125595569610596,-3.334263801574707,-18.887319564819336,-51.35031509399414, 26.481975555419922
271,600609013,0.72617936,0.09379272,-0.54327005,0.41076052,1.0600101947784424,3.687382221221924,-2.588862657546997,-19.064281463623047,-36.754207611083984, 21.530603408813477
272,600625680,0.7235758,0.089989804,-0.5477862,0.41020802,1.9087245464324951,2.026820659637451,-2.4435667991638184,-31.25943374633789,-19.628128051757812, 22.77454948425293
273,600642347,0.7209063,0.0870265,-0.55009025,0.4124576,2.8417534828186035,-0.6848275661468506,-3.0049753189086914,-10.261042594909668,-9.500329971313477, 32.4499397277832
274,600659014,0.7173939,0.08462104,-0.55224985,0.41617978,4.2743239402771,-2.367658853530884,-7.712023735046387,-0.9652844071388245,-12.644208908081055, 39.91093063354492
275,600675681,0.70860296,0.08544092,-0.5623912,0.41748974,13.447263717651367,-3.647918701171875,-30.65061378479004,-13.840980529785156,-82.47127532958984, 35.433223724365234
276,600692348,0.6970081,0.09385106,-0.5753725,0.4175143,18.44872283935547,10.784878730773926,12.483596801757812,12.13530158996582,-128.48875427246094, 9.529926300048828
277,600709015,0.68452704,0.09519367,-0.59009737,0.41730815,3.9960639476776123,2.970263957977295,5.698721885681152,-27.442062377929688,-120.70890808105469, 40.67218780517578
278,600725682,0.6707448,0.10688553,-0.60029876,0.4222775,5.094139099121094,-0.0057261232286691666,0.11598469316959381,55.98908996582031,-131.41848754882812, 23.849533081054688
279,600742349,0.6587816,0.11475039,-0.60842794,0.42738146,0.49466589093208313,-0.0166454054415226,-1.4429314136505127,43.576717376708984,-103.29127502441406, 33.37711715698242
280,600759016,0.6490883,0.120794736,-0.6151198,0.43095315,-1.1460895538330078,-3.0175044536590576,0.33593615889549255,31.36454963684082,-83.28318786621094, 26.113801956176758
281,600775683,0.64166296,0.12248186,-0.6220975,0.4315805,-1.2123417854309082,-5.575175762176514,-0.8413287401199341,-3.2666988372802734,-64.71576690673828, 24.68400764465332
282,600792350,0.6344392,0.12585929,-0.6279055,0.4328755,1.3149794340133667,-1.614159345626831,-2.2630412578582764,10.367165565490723,-63.300594329833984, 18.52313232421875
283,600809017,0.62704617,0.1313098,-0.6337247,0.43354818,1.9527171850204468,1.0999345779418945,0.11709192395210266,16.835140228271484,-70.85956573486328, 7.276185989379883
284,600825684,0.6189146,0.13652012,-0.64007515,0.4342935,1.7838510274887085,-1.0508544445037842,1.1176023483276367,15.147872924804688,-75.72777557373047, 11.329475402832031
285,600842351,0.6105559,0.14232087,-0.64587426,0.4356753,2.728315830230713,0.8739287257194519,-0.6083474159240723,22.273895263671875,-75.70822143554688, 11.53683853149414
286,600859018,0.6026038,0.14786097,-0.6510336,0.43721983,2.607384204864502,1.3097093105316162,-1.3681060075759888,23.391462326049805,-70.36198425292969, 11.553803443908691
287,600875685,0.59530485,0.1524871,-0.65610445,0.43804902,2.102053642272949,0.22103984653949738,-0.5315857529640198,15.985074043273926,-65.10611724853516, 10.660697937011719
288,600892352,0.5885755,0.15633868,-0.6610315,0.43837726,1.127075433731079,-0.07015278190374374,-0.9153881669044495,10.367385864257812,-60.21935272216797, 10.23068904876709
289,600909019,0.58232856,0.15997039,-0.66569686,0.43834987,0.660973310470581,-0.7229345440864563,-1.6647343635559082,8.11402702331543,-56.74949264526367, 8.028671264648438
290,600925686,0.57635057,0.16342707,-0.670431,0.43776017,0.8560898303985596,-0.4794124364852905,-0.7539469599723816,3.820115804672241,-54.3425407409668, 5.619644641876221
291,600942353,0.5704851,0.16589203,-0.67586553,0.43615663,1.872434139251709,-1.1631665229797363,0.5872709155082703,-7.041750431060791,-54.747764587402344, 6.615556716918945
292,600959020,0.56475896,0.1657759,-0.68300664,0.4325132,3.3158178329467773,-0.17865537106990814,1.6057260036468506,-31.445924758911133,-57.10883712768555, 12.255413055419922
293,600975687,0.5591104,0.16345899,-0.69182324,0.42668164,3.580050468444824,-1.5795626640319824,1.0695631504058838,-55.3782844543457,-59.31755065917969, 15.797172546386719
294,600992354,0.55230707,0.16221517,-0.7014118,0.42031506,3.478811025619507,-0.5179697275161743,1.142234444618225,-55.430137634277344,-69.26364135742188, 12.881175994873047
295,601009021,0.54448396,0.16165113,-0.71139354,0.41391477,3.684497117996216,0.9144900441169739,0.45143139362335205,-53.01737976074219,-77.73429870605469, 12.963345527648926
296,601025688,0.5358513,0.16129243,-0.7220009,0.4068942,4.109526634216309,2.0216166973114014,0.4521925747394562,-56.15690994262695,-85.32920837402344, 12.786150932312012
297,601042355,0.52673846,0.16032502,-0.73315984,0.3991483,4.303043842315674,2.0626323223114014,0.9968224763870239,-62.96290588378906,-89.0028305053711, 15.266748428344727
298,601059022,0.51767534,0.15894413,-0.74434066,0.39077628,3.900075912475586,1.8789491653442383,-0.37285315990448,-67.690673828125,-88.52465057373047, 15.145918846130371
299,601075689,0.50855607,0.15878224,-0.75530344,0.38167515,3.528085708618164,0.308929443359375,0.8607003688812256,-66.365234375,-92.27696990966797, 6.366845607757568
300,601092356,0.49982843,0.1581425,-0.7663642,0.37127987,2.7275760173797607,-0.8799881935119629,1.3560404777526855,-75.4101791381836,-90.8768310546875, 3.4971182346343994
301,601109023,0.49192992,0.15568747,-0.7778798,0.35870522,2.648524284362793,-0.5361762642860413,1.9216901063919067,-94.878173828125,-87.97464752197266, 3.4165830612182617
302,601125690,0.48452094,0.15121594,-0.7903383,0.3431307,3.2231931686401367,-0.3187096118927002,2.175555944442749,-120.62374114990234,-86.884033203125, 3.831887722015381
303,601142357,0.47672525,0.14626454,-0.8031236,0.32608646,3.5501701831817627,0.7760551571846008,2.5116820335388184,-130.60633850097656,-90.57889556884766, 2.7803714275360107
304,601159024,0.46801168,0.14126888,-0.8162648,0.30776572,3.123969554901123,0.5847192406654358,3.694608688354492,-137.6937713623047,-98.11627197265625, 1.269345998764038
305,601175691,0.45742473,0.1390008,-0.8286433,0.2911908,2.808008909225464,-0.39542609453201294,4.257184982299805,-115.70845794677734,-110.38558959960938, -5.203855514526367
306,601192358,0.44516855,0.13958555,-0.8399696,0.2771138,2.9476399421691895,0.051445089280605316,5.285749435424805,-88.83629608154297,-120.04193878173828, -11.301589012145996
307,601209025,0.43228102,0.14031838,-0.85121053,0.26245883,4.2247114181518555,-0.31632840633392334,6.91547966003418,-90.98756408691406,-124.41095733642578, -12.829880714416504
308,601225692,0.4202708,0.13916412,-0.8623409,0.245711,6.765289783477783,-2.8788704872131348,10.611737251281738,-109.54083251953125,-117.75652313232422, -9.72334098815918
309,601242359,0.4099783,0.13630967,-0.87188786,0.2305405,6.212682723999023,-4.912864685058594,9.388506889343262,-104.1776123046875,-98.91510772705078, 0.4220447242259979
310,601259026,0.3976894,0.13494335,-0.8835414,0.20733604,6.9767303466796875,-6.11767578125,8.888477325439453,-149.74168395996094,-126.96231842041016, -26.144001007080078
311,601275693,0.38218245,0.13763218,-0.89457005,0.18638237,8.754046440124512,-10.207620620727539,1.0902493000030518,-121.21597290039062,-148.72193908691406, -40.7709846496582
312,601292360,0.36364976,0.14703766,-0.90168345,0.1819499,12.447261810302734,-10.284252166748047,3.7738935947418213,5.81417179107666,-150.08226013183594, -38.672340393066406
313,601309027,0.34811753,0.15753497,-0.9043349,0.19019838,6.131365776062012,-4.9703450202941895,17.423357009887695,89.5638427734375,-109.0740966796875, -22.088546752929688
314,601325694,0.34015638,0.16311115,-0.90564966,0.19361584,4.2950944900512695,-1.3019554615020752,12.832952499389648,41.16184997558594,-57.9437255859375, -14.404233932495117
315,601342361,0.33943993,0.16422315,-0.9057278,0.19356787,2.9797239303588867,-4.180702209472656,11.569101333618164,2.6311872005462646,-8.077377319335938, -5.71386194229126
316,601359028,0.3453254,0.16460314,-0.90235174,0.19853884,0.1399265080690384,-2.217656135559082,11.801336288452148,29.24178123474121,47.607425689697266, -2.1835319995880127
317,601375695,0.35843137,0.16216694,-0.89649403,0.20378345,1.0535317659378052,0.15740083158016205,10.97217082977295,19.4310302734375,102.37945556640625, 3.2348732948303223
318,601392362,0.37774348,0.1565667,-0.888299,0.20909765,1.354318618774414,-0.37795060873031616,8.5285062789917,8.42651081085205,150.8354949951172, 11.605610847473145
319,601409029,0.4004853,0.15084271,-0.8767977,0.2192808,1.3011376857757568,1.1594375371932983,6.734236717224121,38.917781829833984,185.76412963867188, 16.50588035583496
320,601425696,0.42500326,0.14453223,-0.8623464,0.23418264,1.7860023975372314,-0.8305210471153259,4.165194988250732,68.39774322509766,210.38157653808594, 27.340782165527344
321,601442363,0.44982463,0.13977161,-0.8444353,0.25505072,1.9176901578903198,-1.29133939743042,2.8399558067321777,113.59742736816406,225.77700805664062, 31.684053421020508
322,601459030,0.474402,0.13614891,-0.8238589,0.27868083,1.8709008693695068,-2.0046043395996094,1.9325248003005981,138.0836944580078,233.33090209960938, 31.52205467224121
323,601475697,0.498806,0.13394478,-0.8008141,0.30322975,2.009291410446167,-0.9528748989105225,0.659857988357544,152.8271026611328,238.62356567382812, 24.529226303100586
324,601492364,0.5245077,0.1309733,-0.7762331,0.3243457,1.7725306749343872,0.2913198173046112,-0.09391524642705917,133.33236694335938,249.5789337158203, 12.903799057006836
325,601509031,0.5519802,0.12642203,-0.75015503,0.34147206,1.5239602327346802,0.8522826433181763,-0.6429568529129028,108.13233184814453,264.4828796386719, 1.7017687559127808
326,601525698,0.5805336,0.11739204,-0.7241545,0.35327098,1.630088210105896,-0.2194969654083252,-1.0920497179031372,62.57598114013672,275.77947998046875, 2.151887893676758
327,601542365,0.60878783,0.10559006,-0.6980268,0.36192098,1.9552079439163208,-0.7744422554969788,-3.621201992034912,36.426090240478516,279.1253662109375, 3.998945713043213
328,601559032,0.6365912,0.09222932,-0.67093956,0.36889818,1.9385333061218262,-0.8139093518257141,-2.9631307125091553,24.655996322631836,283.8457946777344, 4.87399959564209
329,601575699,0.66336656,0.07816791,-0.64209807,0.37622455,3.1905086040496826,-2.526522159576416,-4.9860992431640625,28.36512565612793,288.9579162597656, 11.103930473327637
330,601592366,0.6881783,0.06769166,-0.6097441,0.38735127,4.165988922119141,-2.314815044403076,-6.8730950355529785,71.7406005859375,289.3130798339844, 15.757841110229492
331,601609033,0.7096386,0.06451736,-0.57477766,0.4023448,4.929086208343506,-2.0305798053741455,-9.245200157165527,131.146728515625,270.25341796875, 11.143760681152344
332,601625700,0.7275928,0.06666734,-0.539991,0.4178204,6.239124298095703,-2.339428186416626,-10.594605445861816,160.2208709716797,241.33192443847656, 2.246635675430298
333,601642367,0.7430734,0.068504326,-0.50803185,0.4301779,6.762645721435547,-1.3603566884994507,-10.733222007751465,140.2115478515625,217.82818603515625, -3.777691125869751
334,601659034,0.755939,0.066653356,-0.48222888,0.43768612,6.522793292999268,-0.9723505973815918,-12.448371887207031,87.54598999023438,186.2097930908203, -5.010195255279541
335,601675701,0.7654268,0.061297406,-0.46405414,0.44160905,5.328644752502441,-2.2177443504333496,-14.049121856689453,36.13161087036133,144.6376495361328, 1.6612097024917603
336,601692368,0.7703439,0.057787344,-0.4526303,0.44537276,3.9104814529418945,-2.872946262359619,-15.636713981628418,26.89952850341797,89.22364044189453, 11.642005920410156
337,601709035,0.7703223,0.06075908,-0.44665015,0.4510162,3.1036720275878906,-2.809011459350586,-15.803297996520996,52.526615142822266,26.276987075805664, 18.662179946899414
338,601725702,0.76558745,0.07063733,-0.44592446,0.45829892,2.4029388427734375,-3.042328357696533,-14.7385892868042,79.96324157714844,-36.44188690185547, 22.87183952331543
339,601742369,0.7567777,0.08304216,-0.45161998,0.46522146,2.6179637908935547,-1.7651573419570923,-13.233857154846191,74.03455352783203,-90.61712646484375, 29.086153030395508
340,601759036,0.74608076,0.093634605,-0.46242845,0.46984702,2.6642422676086426,0.5658627152442932,-9.8921537399292,42.27497100830078,-118.38551330566406, 31.645301818847656
341,601775703,0.7351777,0.10111254,-0.4758742,0.47205326,1.7491042613983154,1.4608161449432373,-8.254125595092773,10.226430892944336,-123.93426513671875, 31.498022079467773
342,601792370,0.72512287,0.105926685,-0.48977542,0.4723309,0.16951711475849152,1.9632172584533691,-6.117275238037109,-11.63377571105957,-116.0772933959961, 28.058298110961914
343,601809037,0.7160168,0.11023267,-0.5022848,0.47210038,-0.6625422239303589,2.128173351287842,-5.278681755065918,-12.084068298339844,-104.65569305419922, 23.18324089050293
344,601825704,0.70786726,0.114606395,-0.51282823,0.47201344,-1.5720980167388916,1.8640294075012207,-5.5622453689575195,-5.635430335998535,-91.80448150634766, 19.1021671295166
345,601842371,0.70027417,0.11642835,-0.5235294,0.4711451,2.774534225463867,-5.400815963745117,-0.3621104657649994,-21.784957885742188,-82.96332550048828, 22.645639419555664
346,601859038,0.69212604,0.11894819,-0.5343892,0.47036287,9.952014923095703,1.07603919506073,3.829040050506592,-18.155519485473633,-87.99885559082031, 22.38005828857422
347,601875705,0.68212694,0.1184546,-0.5500258,0.4670579,8.746794700622559,0.08824537694454193,1.8602683544158936,-55.794960021972656,-109.95099639892578, 31.478965759277344
348,601892372,0.6700078,0.12155001,-0.5658507,0.4648959,5.646658420562744,1.842807412147522,-0.3441995680332184,-33.57193374633789,-129.51283264160156, 30.327646255493164
349,601909039,0.65814394,0.1229033,-0.5813212,0.46239293,2.239290714263916,-1.8941618204116821,-2.506648063659668,-42.04922103881836,-121.64922332763672, 34.526920318603516
350,601925706,0.64732546,0.12561984,-0.59284973,0.4622972,-0.10192651301622391,-5.4801483154296875,-5.326432704925537,-14.589019775390625,-101.94983673095703, 33.28548049926758
351,601942373,0.6395432,0.12891047,-0.6002999,0.46260872,0.29913052916526794,-4.173812389373779,-4.364808559417725,0.03829815238714218,-72.85438537597656, 19.433259963989258
352,601959040,0.6343241,0.1313645,-0.6053176,0.46256602,1.1029675006866455,-2.0080368518829346,-2.68984055519104,0.40100234746932983,-49.21295928955078, 10.913686752319336
353,601975707,0.63069147,0.13307852,-0.6091702,0.4619851,1.2655028104782104,-0.8381142020225525,-0.4446867108345032,-2.7945761680603027,-35.6795539855957, 5.515970230102539
354,601992374,0.6273157,0.13505137,-0.61253905,0.4615541,0.872900128364563,-1.3568681478500366,-0.45832082629203796,0.22534781694412231,-33.26503372192383, 3.8276987075805664
355,602009041,0.62319803,0.13861851,-0.61553067,0.4620945,0.7559647560119629,-0.12443044036626816,-1.669320821762085,13.053227424621582,-38.9904899597168, 3.289695978164673
356,602025708,0.6183332,0.14339602,-0.6183906,0.4633519,0.5608108043670654,1.6090202331542969,-1.2933317422866821,22.382274627685547,-44.786075592041016, 3.4947752952575684
357,602042375,0.6134192,0.14742634,-0.6220076,0.46377683,0.40589016675949097,0.8068142533302307,-0.46076637506484985,13.267693519592285,-46.697696685791016, 4.083864212036133
358,602059042,0.60879034,0.15011571,-0.62660635,0.46282226,0.4071897864341736,-0.6442433595657349,-0.23173867166042328,-1.7409727573394775,-46.8031005859375, 4.116254806518555
359,602075709,0.6041428,0.15269624,-0.6313117,0.46167213,0.4780089259147644,-0.38812679052352905,0.09118054807186127,-3.3841941356658936,-47.24922180175781, 3.931586742401123
360,602092376,0.599405,0.15519764,-0.63625574,0.46022406,0.5080636739730835,0.32058483362197876,-0.5205348134040833,-5.697477340698242,-48.76311111450195, 3.5784637928009033
361,602109043,0.59466875,0.15697242,-0.64173937,0.45814794,0.6926612257957458,0.2716658413410187,-0.28148236870765686,-13.175665855407715,-49.40401077270508, 4.764626979827881
362,602125710,0.5898783,0.15836366,-0.6475099,0.45573676,0.9323473572731018,0.052133191376924515,0.43514448404312134,-17.095212936401367,-50.02819061279297, 5.59447717666626
363,602142377,0.58465344,0.15929972,-0.65419734,0.45258158,1.182913899421692,0.1166098341345787,1.837559700012207,-24.68553352355957,-55.14173126220703, 6.988919258117676
364,602159044,0.5788001,0.15939118,-0.6624641,0.44802496,0.9948915839195251,-1.7566859722137451,1.990120530128479,-38.65364456176758,-63.335723876953125, 8.871317863464355
365,602175711,0.57175314,0.16067028,-0.6715042,0.44313163,1.4336761236190796,-1.020419955253601,1.668493628501892,-36.571693420410156,-75.9880599975586, 6.625308513641357
366,602192378,0.5636926,0.16261777,-0.68130046,0.43776244,1.848471999168396,0.6168910264968872,1.742151141166687,-37.36201477050781,-86.2979736328125, 5.594827651977539
367,602209045,0.55443764,0.16485867,-0.69200337,0.43191683,2.4055590629577637,1.4389278888702393,0.7946956753730774,-39.88903045654297,-96.9179916381836, 7.033539772033691
368,602225712,0.54427046,0.16755341,-0.7031536,0.4257589,2.6199769973754883,1.9167838096618652,0.913973867893219,-39.96585464477539,-104.73099517822266, 6.975167751312256
369,602242379,0.53273046,0.17093241,-0.71535593,0.4186246,2.516941547393799,1.6640186309814453,1.2480056285858154,-44.179237365722656,-111.33358764648438, 8.179211616516113
370,602259046,0.5207094,0.17437693,-0.7278318,0.41075018,2.4963088035583496,0.6615027189254761,1.838600516319275,-47.71725082397461,-115.92496490478516, 7.040168762207031
371,602275713,0.5085634,0.17726675,-0.7406083,0.40179506,2.615406036376953,0.20796000957489014,2.481067180633545,-55.718170166015625,-117.648681640625, 6.77974796295166
372,602292380,0.49674866,0.1782501,-0.7543681,0.39038002,2.628638982772827,-0.16656340658664703,2.501840591430664,-77.93733215332031,-117.6160888671875, 8.22282600402832
373,602309047,0.48477453,0.17729846,-0.76961374,0.3758376,2.7653634548187256,0.46066880226135254,2.5734000205993652,-104.46620178222656,-122.71398162841797, 9.864838600158691
374,602325714,0.47237667,0.17539296,-0.785397,0.3595127,2.7813143730163574,1.6331048011779785,2.769706964492798,-117.85405731201172,-127.15299224853516, 10.710685729980469
375,602342381,0.46018928,0.17252067,-0.8005502,0.34290236,2.968351125717163,2.460437774658203,2.6434850692749023,-121.3726806640625,-127.44541931152344, 10.770071029663086
376,602359048,0.44800124,0.17026116,-0.8146541,0.32656538,3.4500584602355957,2.6065239906311035,1.9679124355316162,-115.44993591308594,-125.35459899902344, 7.090956687927246
377,602375715,0.43526322,0.16944242,-0.8276995,0.3110454,4.220682144165039,1.3558979034423828,3.866847515106201,-103.3973388671875,-127.54610443115234, 1.6051785945892334
378,602392382,0.4217084,0.16924141,-0.84021044,0.2959159,4.997725963592529,-0.21634472906589508,6.4907636642456055,-97.23771667480469,-131.60975646972656, 0.422540545463562
379,602409049,0.40752003,0.16817641,-0.8528928,0.27967516,5.728785514831543,-1.9439146518707275,8.168633460998535,-105.81501007080078,-135.52200317382812, 3.680307388305664
380,602425716,0.3928868,0.16574758,-0.8657699,0.2619359,6.306435585021973,-3.7721219062805176,10.564197540283203,-118.35700225830078,-138.04986572265625, 8.515277862548828
381,602442383,0.37997255,0.16099072,-0.87787527,0.24297765,6.891498565673828,-6.424625873565674,13.81685733795166,-132.5855712890625,-123.24044036865234, 15.01120376586914
382,602459050,0.36883494,0.15739235,-0.88899297,0.22108886,5.438675880432129,-6.269184112548828,11.232193946838379,-147.73696899414062,-115.49425506591797, -3.864961624145508
383,602475717,0.35695773,0.15637778,-0.8991543,0.19912094,5.23416805267334,-9.042906761169434,2.952479362487793,-139.5525665283203,-121.87577819824219, -19.943439483642578
384,602492384,0.34520093,0.1580201,-0.906855,0.1829763,6.469062805175781,-4.941030979156494,-2.082974672317505,-93.91172790527344,-112.5334243774414, -25.092632293701172
385,602509051,0.33697852,0.161577,-0.9110409,0.17419305,10.49059009552002,-6.989190101623535,11.89175033569336,-42.91209411621094,-76.55545806884766, -27.89468765258789
386,602525718,0.3340268,0.16499534,-0.9116151,0.17366913,-3.98234486579895,-0.46991658210754395,14.998579025268555,6.8442583084106445,-26.210830688476562, -18.297935485839844
387,602542385,0.33886224,0.16579458,-0.91105896,0.16630207,2.4016592502593994,0.7435125112533569,9.541583061218262,-49.569847106933594,20.4417667388916, -28.218992233276367
388,602559052,0.34628105,0.1661654,-0.9082891,0.16580081,-0.7372258305549622,-6.393162250518799,7.380585193634033,-7.939746856689453,49.956905364990234, -15.00397777557373
389,602575719,0.35570714,0.17033392,-0.9012021,0.1797051,-0.23552292585372925,-2.080202579498291,9.128767013549805,93.6095962524414,84.8709487915039, -11.757100105285645
390,602592386,0.36939788,0.17160724,-0.8929139,0.19183625,0.3624512851238251,-0.13954085111618042,8.857606887817383,72.02245330810547,115.64859771728516, -4.820663928985596
391,602609053,0.38585538,0.17154753,-0.8829329,0.20522368,-0.11948061734437943,-1.7204310894012451,6.966843128204346,75.34288024902344,140.09144592285156, 0.9525635838508606
392,602625720,0.4032869,0.17188409,-0.87102175,0.22166823,0.16471970081329346,-1.6100003719329834,4.228318214416504,96.53599548339844,154.1449432373047, 3.018507957458496
393,602642387,0.4219296,0.1714812,-0.85701513,0.24102916,1.135788083076477,-2.1565847396850586,2.3013694286346436,113.73606872558594,171.8147430419922, 11.24112319946289
394,602659054,0.44243872,0.16872716,-0.84167176,0.25955352,1.1351691484451294,-0.36515265703201294,2.1083829402923584,102.01710510253906,189.66162109375, 18.018922805786133
395,602675721,0.46426573,0.16398431,-0.8252143,0.27674595,1.8965994119644165,-1.1919100284576416,0.5447993874549866,88.75225067138672,202.74838256835938, 21.882728576660156
396,602692388,0.48701593,0.15794587,-0.8074088,0.2931895,2.573814630508423,-0.42436909675598145,0.27245762944221497,81.92444610595703,214.00845336914062, 23.591142654418945
397,602709055,0.5101177,0.15071066,-0.78844815,0.30889514,2.811316967010498,-0.40023109316825867,0.1994086503982544,75.80445861816406,221.5364990234375, 25.843706130981445
398,602725722,0.53361803,0.1429946,-0.7681731,0.32359684,2.756399631500244,1.2314327955245972,0.08475975692272186,71.0879135131836,228.38458251953125, 22.759531021118164
399,602742389,0.5583496,0.13411295,-0.74642277,0.33632258,2.7186455726623535,2.3885273933410645,0.583124577999115,58.48403549194336,241.0557861328125, 17.549287796020508
400,602759056,0.58450735,0.121087216,-0.7245094,0.34463832,3.951333522796631,2.3877460956573486,-0.7277315258979797,19.023910522460938,254.60858154296875, 18.52347755432129
401,602775723,0.6108511,0.104738764,-0.701916,0.35100597,4.596409320831299,0.6584080457687378,-2.564563512802124,-2.560422897338867,264.647705078125, 26.31333351135254
402,602792390,0.63522315,0.090031005,-0.6779346,0.35887474,4.4789509773254395,-0.5363237261772156,-5.029305458068848,16.37636375427246,258.2535400390625, 28.486955642700195
403,602809057,0.6582519,0.079321906,-0.6510132,0.36958745,5.7046709060668945,0.30282437801361084,-4.697999477386475,55.24446105957031,256.9724426269531, 23.770227432250977
404,602825724,0.6802767,0.07155563,-0.6216409,0.3816628,5.986118793487549,0.8515209555625916,-5.537693500518799,81.48686218261719,257.0743713378906, 18.031354904174805
405,602842391,0.7004838,0.06833201,-0.5902275,0.39532936,6.3374834060668945,0.5435544848442078,-7.543271064758301,115.83617401123047,247.97471618652344, 9.893491744995117
406,602859058,0.7178057,0.06927455,-0.55881464,0.40949073,6.229207992553711,-1.097955584526062,-9.111059188842773,139.3229217529297,225.47866821289062, 3.2693746089935303
407,602875725,0.7312038,0.07353054,-0.5295321,0.4237104,5.220591068267822,-2.4747331142425537,-10.88584041595459,151.85543823242188,190.9243621826172, 2.8932862281799316
408,602892392,0.7398912,0.079642825,-0.5055822,0.43658355,3.9553873538970947,-1.5605998039245605,-14.77653980255127,143.24403381347656,141.22866821289062, 5.73331880569458
409,602909059,0.7444197,0.08467805,-0.4894846,0.44617745,2.3806769847869873,-1.2035112380981445,-17.388586044311523,105.20116424560547,88.68244171142578, 9.519744873046875
410,602925726,0.744777,0.08894744,-0.48209447,0.45274824,0.9736372232437134,-1.6588455438613892,-18.303234100341797,66.97085571289062,31.107547760009766, 14.417235374450684
411,602942393,0.74087375,0.09374019,-0.4836087,0.45655438,0.3257881999015808,-2.8877511024475098,-17.678760528564453,35.5350227355957,-31.51251983642578, 17.141624450683594
412,602959060,0.7330243,0.10160384,-0.4913878,0.45922825,0.08499924838542938,-2.321373462677002,-15.882925033569336,30.458782196044922,-86.543701171875, 17.464920043945312
413,602975727,0.722486,0.10989178,-0.5036355,0.4607489,0.048480793833732605,-1.6903326511383057,-13.083691596984863,16.60231590270996,-119.98580932617188, 21.71988868713379
414,602992394,0.71010095,0.11738401,-0.51836985,0.46181247,-0.6844672560691833,-2.0923900604248047,-12.000264167785645,4.676623821258545,-136.3271026611328, 29.84550666809082
415,603009061,0.6972007,0.12369771,-0.5333397,0.46277344,3.1633052825927734,-3.903909206390381,0.8925614953041077,-1.6869561672210693,-135.46087646484375, 35.274078369140625
416,603025728,0.6856003,0.12852184,-0.5463318,0.46363372,7.829048156738281,1.502088189125061,8.394350051879883,-4.002615451812744,-116.65389251708984, 34.362510681152344
417,603042395,0.6739793,0.12852961,-0.5640675,0.45941305,10.82519817352295,1.3850053548812866,-3.5712780952453613,-61.02895736694336,-128.47161865234375, 32.904422760009766
418,603059062,0.66076404,0.13015714,-0.58186203,0.45594627,6.653542995452881,-1.73746657371521,-3.223022699356079,-49.40725326538086,-139.2605438232422, 35.35438919067383
419,603075729,0.6472712,0.1325649,-0.5969785,0.45506424,3.7639858722686768,-3.640827178955078,-4.689417362213135,-26.857542037963867,-128.27891540527344, 42.47209548950195
420,603092396,0.6347725,0.13683385,-0.607842,0.4570217,1.987431287765503,-3.502598285675049,-5.55037784576416,5.536375999450684,-108.44379425048828, 40.40882873535156
421,603109063,0.62568545,0.13989173,-0.6154129,0.45849273,1.5174591541290283,-2.468510389328003,-3.953476905822754,5.408012866973877,-76.40274810791016, 29.437498092651367
422,603125730,0.61942214,0.14248139,-0.6201631,0.45979714,2.40999174118042,-1.1507993936538696,-2.788524866104126,8.885376930236816,-50.9958381652832, 19.031431198120117
423,603142397,0.61512995,0.14374532,-0.62394357,0.4600513,2.1192429065704346,-0.3602607846260071,-1.9222564697265625,-0.11107002943754196,-35.321590423583984, 13.032966613769531
424,603159064,0.6120771,0.14483114,-0.6269066,0.45975435,1.5666003227233887,-0.4613957405090332,-1.4831384420394897,-1.892040491104126,-26.57744598388672, 6.766400337219238
425,603175731,0.60978854,0.14522387,-0.62990427,0.4585725,1.0007630586624146,-0.6572994589805603,-1.7054961919784546,-9.521693229675293,-22.181615829467773, 3.6731178760528564
426,603192398,0.6072543,0.14616354,-0.63274753,0.45772204,0.5469397902488708,0.01854688860476017,-2.5095374584198,-5.084477424621582,-24.04738998413086, 3.327282428741455
427,603209065,0.6044331,0.14781633,-0.63553816,0.45705864,0.2245313823223114,-0.1805817037820816,-1.1466137170791626,-0.8596411943435669,-27.166688919067383, 1.8769094944000244
428,603225732,0.6014034,0.1495051,-0.63857037,0.45627913,-0.2544991374015808,-1.0753068923950195,-0.8549591302871704,-1.7942646741867065,-29.384658813476562, 2.1492388248443604
429,603242399,0.59803104,0.1514423,-0.64201146,0.45524272,-0.35234466195106506,-1.6569602489471436,-0.4136497378349304,-2.8500900268554688,-33.70210266113281, 1.4745416641235352
430,603259066,0.59456414,0.15354152,-0.64584833,0.4536506,0.032967131584882736,-0.8566833138465881,0.011949704959988594,-5.802982807159424,-36.91740798950195, -0.8500129580497742
431,603275733,0.5904047,0.15624169,-0.6502398,0.45188427,0.41556262969970703,-0.24506741762161255,0.5049508213996887,-5.153452396392822,-44.40970230102539, -1.4892610311508179
432,603292400,0.5853482,0.15911677,-0.65541875,0.44997346,0.6798735857009888,0.2856408357620239,0.2776796221733093,-6.613943099975586,-52.4154052734375, 0.7919332385063171
433,603309067,0.5791883,0.1622363,-0.6615501,0.44785273,0.8239828944206238,0.9177447557449341,0.9874212145805359,-8.355817794799805,-62.294700622558594, 3.3334755897521973
434,603325734,0.5719667,0.1656163,-0.66860485,0.44541353,0.876060426235199,0.32065343856811523,1.2494769096374512,-10.472281455993652,-72.06169891357422, 5.229231357574463
435,603342401,0.5630166,0.17018919,-0.6773839,0.4418139,0.7784655690193176,-0.7184454202651978,1.345145344734192,-15.823053359985352,-82.90413665771484, 6.772482872009277
436,603359068,0.55329216,0.17476073,-0.6871042,0.43728104,0.7994028925895691,-1.1480754613876343,1.343088984489441,-22.03907585144043,-91.48871612548828, 6.654112815856934
437,603375735,0.54311174,0.17911837,-0.69762987,0.43157795,1.683158278465271,-1.395401954650879,1.8244085311889648,-30.17225456237793,-97.5933837890625, 5.655895709991455
438,603392402,0.5337184,0.18059056,-0.71001977,0.4223791,2.177665948867798,-1.9514557123184204,2.1099793910980225,-64.17704772949219,-96.2584457397461, 6.7950439453125
439,603409069,0.524347,0.18196398,-0.72303027,0.4113112,3.0527186393737793,0.07485517114400864,0.6522095799446106,-75.41145324707031,-100.55207061767578, 1.419182538986206
440,603425736,0.51484305,0.18310386,-0.7367318,0.39829177,3.2954916954040527,1.237923502922058,0.8853611350059509,-87.6325454711914,-105.72887420654297, -2.9208362102508545
441,603442403,0.50442547,0.18360615,-0.7513933,0.38373458,3.5671722888946533,2.056157112121582,0.632116436958313,-99.01327514648438,-114.48009490966797, -1.2339529991149902
442,603459070,0.4929511,0.18443644,-0.7667996,0.3674249,3.910177230834961,2.734494924545288,2.1475415229797363,-107.38813781738281,-126.32486724853516, -5.19044303894043
443,603475737,0.48038664,0.18500806,-0.78287333,0.34944317,4.623075008392334,2.212308406829834,2.957033634185791,-117.21145629882812,-136.57955932617188, -5.812582015991211
444,603492404,0.4662223,0.18491769,-0.799589,0.330303,4.844440460205078,1.373122215270996,4.515063762664795,-124.96076965332031,-148.10179138183594, -1.4546737670898438
445,603509071,0.4506062,0.18294571,-0.81688225,0.3101431,5.648181915283203,1.6212525367736816,5.405641078948975,-136.23916625976562,-161.5969696044922, 4.576295375823975
446,603525738,0.43323717,0.1802078,-0.83474326,0.2881576,6.3626813888549805,1.0004279613494873,6.720111846923828,-147.89065551757812,-174.09768676757812, 7.763378143310547
447,603542405,0.41395319,0.17786214,-0.8523547,0.26551747,7.1160149574279785,-1.0089601278305054,6.842809200286865,-147.63253784179688,-186.20724487304688, 7.111022472381592
448,603559072,0.39215505,0.17797066,-0.8685805,0.24517176,8.327274322509766,-2.949406623840332,7.668539047241211,-121.62377166748047,-198.94952392578125, 2.1604292392730713
449,603575739,0.37003765,0.1805059,-0.8830726,0.2251064,8.829656600952148,-2.0976462364196777,11.596565246582031,-110.14425659179688,-200.23471069335938, -13.196064949035645
450,603592406,0.35094836,0.18424785,-0.8946847,0.20598015,11.275382041931152,-10.800178527832031,16.613893508911133,-100.72257232666016,-175.61366271972656, -26.414379119873047
451,603609073,0.3335314,0.1918946,-0.9007204,0.20158444,6.403077602386475,-9.42908000946045,7.675098419189453,4.898473262786865,-139.24766540527344, -24.492101669311523
452,603625740,0.3147555,0.19847971,-0.90841734,0.19056036,6.498868465423584,-9.150434494018555,3.9901769161224365,-39.2456169128418,-158.9547119140625, -29.194971084594727
453,603642407,0.29819185,0.20599069,-0.9137624,0.18354349,6.7086029052734375,-6.9323859214782715,2.2750606536865234,-12.277106285095215,-135.90615844726562, -32.54892349243164
454,603659074,0.28748605,0.2135114,-0.91522515,0.18473777,3.5134310722351074,-5.428016662597656,17.137615203857422,35.8524284362793,-79.6139144897461, -28.72553825378418
455,603675741,0.28503448,0.21763575,-0.91504353,0.18462391,1.4210865497589111,-0.18872904777526855,11.396056175231934,10.765463829040527,-22.321313858032227, -22.885677337646484
456,603692408,0.28924602,0.21819226,-0.9137668,0.18373808,0.07724346965551376,-3.7143595218658447,11.041123390197754,-9.656888008117676,24.99310874938965, -12.035956382751465
457,603709075,0.2976551,0.21951856,-0.9087492,0.19336037,-1.6169837713241577,-0.8414690494537354,11.291987419128418,56.26072692871094,73.52349090576172, -6.946054935455322
458,603725742,0.31210145,0.21770395,-0.9021982,0.20306884,-0.9375455975532532,1.3471949100494385,10.563822746276855,43.28837203979492,118.64830017089844, 2.5147511959075928
459,603742409,0.33108127,0.21305576,-0.89414227,0.21331383,-0.7670859694480896,-1.118939757347107,6.740592956542969,35.8764533996582,154.7122802734375, 12.69517993927002
460,603759076,0.35242492,0.20826732,-0.8829987,0.2296416,-0.16995671391487122,-0.6949504017829895,4.854669094085693,74.01586151123047,185.4196319580078, 19.403108596801758
461,603775743,0.37592193,0.20290971,-0.8690351,0.2495774,0.3533688187599182,0.12063245475292206,3.704026937484741,95.9221420288086,211.43954467773438, 24.183921813964844
462,603792410,0.40083742,0.19757657,-0.85241336,0.27144974,1.0253734588623047,1.110610008239746,2.2246859073638916,110.16242980957031,229.49842834472656, 22.950864791870117
463,603809077,0.4271019,0.19155253,-0.8337073,0.29295772,1.8387987613677979,1.3883825540542603,1.222133755683899,108.21387481689453,244.01010131835938, 20.724777221679688
464,603825744,0.45489857,0.18364833,-0.8136104,0.31205627,2.3625547885894775,1.3351712226867676,0.6145707964897156,89.69194030761719,257.56353759765625, 19.588958740234375
465,603842411,0.483667,0.1736216,-0.7923671,0.3287506,2.741267681121826,0.8815240859985352,-0.3120599389076233,70.85619354248047,268.18414306640625, 20.475706100463867
466,603859078,0.51343447,0.16188149,-0.7697181,0.34309515,2.650081157684326,2.339434862136841,-0.6359665393829346,54.35603713989258,279.4717712402344, 18.099008560180664
467,603875745,0.5444429,0.14866078,-0.74527025,0.35504186,3.5251200199127197,2.483613967895508,-1.1583670377731323,39.317928314208984,293.3272399902344, 12.600678443908691
468,603892412,0.57536876,0.13428639,-0.7191754,0.36565733,4.455808162689209,0.8872655630111694,-2.8528192043304443,32.293128967285156,300.6445007324219, 12.107990264892578
469,603909079,0.60430247,0.120319776,-0.69190055,0.37631872,5.419941425323486,-0.5916960835456848,-5.5482964515686035,38.95698165893555,294.6355285644531, 14.214945793151855
470,603925746,0.63173383,0.1090021,-0.66215235,0.38805392,6.170376777648926,0.5950766205787659,-6.923740386962891,62.76242446899414,292.04095458984375, 7.90884256362915
471,603942413,0.6573562,0.09877062,-0.63216245,0.39811864,6.043552875518799,1.5890958309173584,-8.113484382629395,61.922611236572266,280.9768371582031, 0.3838350474834442
472,603959080,0.6801366,0.09226969,-0.6019358,0.4081354,6.954169273376465,0.6907023191452026,-11.187850952148438,81.20527648925781,259.749267578125, -8.3805513381958
473,603975747,0.6988733,0.09056577,-0.5725807,0.41895813,6.847856521606445,-0.8091865181922913,-13.054959297180176,107.17717742919922,226.375, -12.537108421325684
474,603992414,0.71228826,0.092182204,-0.54739493,0.42954323,6.042097091674805,-2.4871010780334473,-15.549012184143066,113.60928344726562,176.1036376953125, -8.844157218933105
475,604009081,0.7194026,0.09563774,-0.53002405,0.43862095,4.502997398376465,-3.277678966522217,-19.100526809692383,98.0090560913086,108.20513153076172, 0.33243298530578613
476,604025748,0.7202198,0.1017553,-0.52155554,0.4459929,3.315472364425659,-2.530046224594116,-21.827733993530273,82.45743560791016,32.611541748046875, 6.908161640167236
477,604042415,0.715229,0.1108727,-0.521948,0.4513598,2.324904680252075,-2.2092347145080566,-20.81357192993164,67.22946166992188,-42.127845764160156, 10.09320068359375
478,604059082,0.7051085,0.12066901,-0.53128326,0.45387182,2.1132888793945312,-4.454538822174072,-18.130523681640625,36.67109298706055,-108.2945785522461, 16.2132625579834
479,604075749,0.6915309,0.12964205,-0.5476777,0.45280004,2.1441755294799805,-3.96338152885437,-14.671606063842773,0.6110370755195618,-155.13504028320312, 18.310138702392578
480,604092416,0.6784174,0.13568959,-0.5656723,0.44872463,4.763273239135742,-0.8157367706298828,1.689125657081604,-29.879131317138672,-154.24026489257812, 14.883981704711914
481,604109083,0.66883755,0.13292706,-0.5835307,0.4409979,3.383760929107666,1.8599265813827515,4.4994893074035645,-88.10543823242188,-116.1792221069336, 21.14373016357422
482,604125750,0.6567245,0.13282397,-0.60087013,0.43592018,6.9157395362854,-1.8923903703689575,-5.187966823577881,-61.449588775634766,-129.79489135742188, 29.996572494506836
483,604142417,0.642838,0.13672602,-0.61605513,0.43421417,4.178545951843262,2.178393840789795,-0.2215721309185028,-21.32734489440918,-136.22024536132812, 32.03262710571289
484,604159084,0.6305865,0.13645409,-0.63159066,0.4299243,3.825979471206665,0.8001754283905029,-2.611076831817627,-53.35002136230469,-120.88760375976562, 33.84748458862305
485,604175751,0.6167803,0.13915846,-0.6439801,0.43070555,4.768096446990967,-5.213954925537109,-6.322161674499512,-7.6666460037231445,-118.05372619628906, 44.60954284667969
486,604192418,0.6048462,0.14207935,-0.6538035,0.43187532,2.315922498703003,1.412886381149292,-2.2784676551818848,0.8542236089706421,-99.05360412597656, 37.17934036254883
487,604209085,0.59619653,0.14067931,-0.66345644,0.42963377,2.0036044120788574,-1.815529227256775,-2.981289863586426,-35.16265106201172,-74.12239074707031, 32.55744171142578
488,604225752,0.5903731,0.1374065,-0.67186,0.42565706,1.2879384756088257,0.2576850652694702,-1.908017635345459,-49.78375244140625,-52.269432067871094, 24.420509338378906
489,604242419,0.58541083,0.13494793,-0.6795664,0.42103848,1.0282138586044312,-1.5454373359680176,-1.9095419645309448,-50.16836166381836,-40.429080963134766, 20.66325569152832
490,604259086,0.58086777,0.13401447,-0.68536186,0.41822553,0.773520827293396,-0.789675235748291,-1.4699112176895142,-30.212726593017578,-34.2494010925293, 17.4611759185791
491,604275753,0.57662475,0.13363086,-0.69026405,0.41615248,0.5183271765708923,-0.3534852862358093,-0.9966757893562317,-22.0844783782959,-30.663127899169922, 15.908085823059082
492,604292420,0.5724769,0.13366944,-0.69497365,0.4140231,0.16688477993011475,-0.9962186217308044,-1.0987447500228882,-20.25434684753418,-30.370805740356445, 13.616005897521973
493,604309087,0.568547,0.13370422,-0.69976366,0.41135034,-0.5787889361381531,-1.7739237546920776,-1.3353257179260254,-23.254486083984375,-30.17304039001465, 11.033134460449219
494,604325754,0.56456,0.13442262,-0.7043732,0.4087316,-0.7870916724205017,-2.0248193740844727,-0.7932412624359131,-19.684831619262695,-31.83198356628418, 7.866076946258545
495,604342421,0.5604008,0.13600534,-0.70877975,0.406307,-0.5976174473762512,-2.1410858631134033,0.44441378116607666,-14.6058931350708,-34.28773880004883, 4.6678290367126465
496,604359088,0.5559423,0.13827369,-0.7134369,0.40350598,0.35293713212013245,-0.9457343220710754,0.2619437277317047,-14.251542091369629,-38.74826431274414, 1.2122114896774292
497,604375755,0.55074215,0.14132619,-0.718382,0.40079674,0.6276803612709045,-0.2388792335987091,0.6249952912330627,-10.85510540008545,-45.75898361206055, 0.021034592762589455
498,604392422,0.54454166,0.14520624,-0.7236414,0.39841366,0.8401429057121277,0.5008899569511414,-0.0831042230129242,-6.015690803527832,-53.634910583496094, 0.543231725692749
499,604409089,0.5375243,0.14936337,-0.72947586,0.3957571,0.8118849992752075,0.382880836725235,0.41243165731430054,-7.0532546043396,-60.83817672729492, 1.1252511739730835
500,604425756,0.5299238,0.15371612,-0.7357873,0.39264467,0.9170910120010376,-0.3748500645160675,1.1153230667114258,-9.218887329101562,-66.82430267333984, 0.4393608868122101
501,604442423,0.52162594,0.15863532,-0.7424117,0.38931593,0.9204524159431458,-1.5913809537887573,1.3972288370132446,-8.314936637878418,-73.03174591064453, -0.6713600158691406
502,604459090,0.5134819,0.161403,-0.7504577,0.38353518,0.9106430411338806,-2.4350292682647705,1.8796775341033936,-32.41136169433594,-74.62767028808594, 2.51515531539917
503,604475757,0.5048755,0.16474724,-0.75852853,0.37761658,1.5864938497543335,-1.7301745414733887,0.16609635949134827,-30.530433654785156,-79.23328399658203, 0.10479062050580978
504,604492424,0.49542218,0.1690683,-0.7670595,0.37093556,1.8425960540771484,0.3208356201648712,0.7689444422721863,-31.26230812072754,-88.401123046875, -4.5183491706848145
505,604509091,0.48457056,0.17454575,-0.7756519,0.36481524,2.084423303604126,1.0501281023025513,0.7531511783599854,-22.770509719848633,-98.41923522949219, -4.9436211585998535
506,604525758,0.47235796,0.18159477,-0.78427243,0.3589131,2.920114040374756,1.1235878467559814,0.14996337890625,-14.659184455871582,-109.70936584472656, -9.148256301879883
507,604542425,0.45960817,0.18855497,-0.7936924,0.35108498,3.6520016193389893,1.4848973751068115,1.697110891342163,-26.458038330078125,-117.21179962158203, -12.193719863891602
508,604559092,0.44752756,0.19239047,-0.80475295,0.33923215,3.9622726440429688,1.1099514961242676,2.457706928253174,-62.93858337402344,-116.5889663696289, -7.097846984863281
509,604575759,0.43586183,0.19294642,-0.81773365,0.32265866,4.328803539276123,1.7324609756469727,2.844536542892456,-103.99119567871094,-119.25819396972656, -1.7639741897583008
510,604592426,0.42347568,0.19278255,-0.8312558,0.304167,4.626445770263672,2.1217775344848633,3.6974384784698486,-116.99114227294922,-126.58663940429688, -1.1490803956985474
511,604609093,0.40993717,0.19261259,-0.8453768,0.2831795,5.429418087005615,3.074500560760498,4.35465669631958,-130.83546447753906,-139.12905883789062, -5.383533954620361
512,604625760,0.39518112,0.19220203,-0.8593459,0.2615635,6.4804487228393555,2.7890357971191406,5.708103656768799,-134.3739776611328,-152.02874755859375, -10.107626914978027
513,604642427,0.378836,0.1922691,-0.8730519,0.2393676,7.823469161987305,0.9418493509292603,6.4146552085876465,-133.9156494140625,-162.58790588378906, -11.88461971282959
514,604659094,0.3614178,0.19310021,-0.8857646,0.21797088,7.883562088012695,-1.1392548084259033,7.47003173828125,-124.06969451904297,-166.93199157714844, -13.872706413269043
515,604675761,0.34410253,0.19541235,-0.8971399,0.1963371,7.223176002502441,-0.844624936580658,10.539922714233398,-119.9817123413086,-165.8141326904297, -25.408842086791992
516,604692428,0.32869786,0.1962514,-0.9081095,0.169649,8.004606246948242,-8.503477096557617,12.79509162902832,-156.68617248535156,-158.21932983398438, -31.422510147094727
517,604709095,0.31483033,0.19814268,-0.91503733,0.1559763,6.548407554626465,-12.280916213989258,11.712047576904297,-70.5155029296875,-123.4955825805664, -15.978662490844727
518,604725762,0.3005113,0.20092598,-0.9218922,0.1394171,3.259697198867798,-9.932106018066406,4.868733882904053,-86.24468231201172,-131.34072875976562, -27.67134666442871
519,604742429,0.2849606,0.20621803,-0.92719316,0.12878339,1.9924299716949463,-7.771929740905762,-2.428617000579834,-40.45013427734375,-130.20974731445312, -32.46955871582031
520,604759096,0.27107495,0.21363965,-0.9298735,0.12732765,8.127445220947266,-7.2819437980651855,5.581529140472412,22.093656539916992,-103.2314682006836, -33.35692596435547
521,604775763,0.26327348,0.21929568,-0.9301003,0.13232711,-2.5157203674316406,-4.391910552978516,17.681413650512695,53.19788360595703,-48.93303298950195, -19.00113868713379
522,604792430,0.26277643,0.2224938,-0.92887616,0.13650979,0.40723100304603577,-0.34398967027664185,9.71828556060791,33.760440826416016,1.2756272554397583, -13.621100425720215
523,604809097,0.26793814,0.22315937,-0.92680997,0.13940255,-0.799602210521698,-4.1399359703063965,8.664989471435547,13.099764823913574,39.261924743652344, -6.350310325622559
524,604825764,0.2759081,0.22544223,-0.9217525,0.15304798,-1.4539984464645386,-2.6497788429260254,8.76491928100586,83.10783386230469,77.59867858886719, -4.161792755126953
525,604842431,0.28791693,0.22690381,-0.9152397,0.16719908,-0.280796617269516,1.2379422187805176,8.16932201385498,80.00543212890625,107.58942413330078, -4.500692844390869
526,604859098,0.30445686,0.22563437,-0.90789145,0.17924555,-0.06305430084466934,-1.238618016242981,6.895541191101074,55.291969299316406,137.56671142578125, 2.067803144454956
527,604875765,0.32356727,0.22392309,-0.8986528,0.19387221,0.039874836802482605,0.2721056640148163,6.62529182434082,68.82014465332031,162.09591674804688, 4.134604454040527
528,604892432,0.34447062,0.22104755,-0.88824767,0.20855416,0.5440534353256226,-0.3952455222606659,3.468855142593384,65.3896713256836,177.37579345703125, 7.303288459777832
529,604909099,0.36627424,0.2192779,-0.87510985,0.22791213,0.6428134441375732,0.3519050180912018,2.4238083362579346,99.14262390136719,194.88958740234375, 6.212850570678711
530,604925766,0.38953692,0.21608944,-0.860498,0.24720472,0.8839235901832581,0.3219625651836395,2.2670834064483643,95.31373596191406,209.53831481933594, 10.131814002990723
531,604942433,0.41431013,0.21187954,-0.84402096,0.2666153,1.2179181575775146,0.5428048968315125,1.6703648567199707,94.22308349609375,225.41400146484375, 11.203518867492676
532,604959100,0.44082993,0.20552258,-0.82615334,0.28443107,1.6264232397079468,0.3806283175945282,1.080986738204956,78.87214660644531,241.160400390625, 13.942238807678223
533,604975767,0.46855262,0.19750321,-0.80670404,0.30113167,1.710249900817871,1.2509396076202393,0.6380329132080078,68.90235900878906,254.5081024169922, 15.454936027526855
534,604992434,0.49765402,0.1873386,-0.78577936,0.3159053,2.345679759979248,1.5121928453445435,0.40869203209877014,52.4956169128418,268.7874755859375, 16.333087921142578
535,605009101,0.52737033,0.1780255,-0.76247555,0.32987767,4.208949089050293,1.1324684619903564,-1.6808931827545166,54.71684265136719,283.05645751953125, 12.885710716247559
536,605025768,0.5570763,0.16855684,-0.73724866,0.34310326,5.0474772453308105,-0.11042902618646622,-3.166632652282715,53.84244155883789,290.04248046875, 9.123246192932129
537,605042435,0.58568317,0.15867151,-0.71168333,0.35398614,5.813040256500244,0.4558000862598419,-3.3946287631988525,41.634700775146484,284.567626953125, 4.630058288574219
538,605059102,0.61280876,0.14769657,-0.68633753,0.36275718,6.5125017166137695,-0.48569995164871216,-5.385516166687012,27.330646514892578,276.92047119140625, 4.9353461265563965
539,605075769,0.6380836,0.138394,-0.659822,0.3719302,7.402510643005371,0.8101497888565063,-7.381538391113281,40.478206634521484,269.5744934082031, 1.754750370979309
540,605092436,0.6611614,0.12881999,-0.6338435,0.38015032,6.85382604598999,0.3471020460128784,-8.43391227722168,35.5197868347168,256.75042724609375, 3.856348752975464
541,605109103,0.6798066,0.12203093,-0.6090136,0.3899672,5.989866256713867,-1.8078073263168335,-10.951083183288574,56.84744644165039,225.0198974609375, 9.402379989624023
542,605125770,0.69242847,0.12044036,-0.5865642,0.40246746,4.791749000549316,-2.2675580978393555,-15.08029842376709,94.2311782836914,172.9159698486328, 13.607368469238281
543,605142437,0.6989545,0.123846225,-0.5686392,0.41566187,3.2108893394470215,-1.5594029426574707,-18.248546600341797,113.4961929321289,113.98350524902344, 17.281631469726562
544,605159104,0.69943106,0.1300482,-0.55830765,0.4268221,1.8511221408843994,-1.6247206926345825,-20.499792098999023,102.60098266601562,44.605621337890625, 20.216121673583984
545,605175771,0.6938688,0.13897368,-0.5569449,0.43479347,1.1838310956954956,-2.180333137512207,-21.505142211914062,82.7249755859375,-32.04025650024414, 20.024904251098633
546,605192438,0.68269616,0.14906558,-0.5649506,0.43879023,1.0169870853424072,-3.413905143737793,-20.582653045654297,50.61451721191406,-105.0024185180664, 22.148099899291992
547,605209105,0.66649604,0.16058014,-0.5800347,0.43995175,2.832365036010742,-4.024028301239014,-16.920019149780273,30.250362396240234,-164.50320434570312, 25.53394889831543
548,605225772,0.6491892,0.17221004,-0.5950349,0.4413971,6.138195514678955,0.8840524554252625,6.983272552490234,33.509822845458984,-168.20318603515625, 29.43580436706543
549,605242439,0.6356261,0.17526177,-0.61184436,0.43693262,4.899273872375488,5.7719597816467285,2.7367324829101562,-39.003684997558594,-142.15231323242188, 29.033105850219727
550,605259106,0.6207973,0.17889346,-0.63029844,0.43050262,9.512603759765625,1.5445096492767334,-7.077956676483154,-48.26883316040039,-158.9248504638672, 24.00122833251953
551,605275773,0.6050745,0.1815562,-0.6488078,0.4242305,4.28258752822876,0.36595234274864197,-1.8559823036193848,-50.78394317626953,-159.84329223632812, 31.680805206298828
552,605292440,0.58967334,0.18459931,-0.6643804,0.42048526,2.805245876312256,-2.715121030807495,-3.195946216583252,-29.777551651000977,-144.16494750976562, 35.940757751464844
553,605309107,0.57437027,0.18967493,-0.67638505,0.4202695,2.27427339553833,-5.029445648193359,-4.404520511627197,4.792479038238525,-130.62796020507812, 36.09463882446289
554,605325774,0.5618654,0.19453193,-0.6858134,0.41967267,1.3135244846343994,-1.7134017944335938,-3.892670154571533,4.641124248504639,-103.07760620117188, 27.68953514099121
555,605342441,0.5533476,0.1960085,-0.69409186,0.41668248,1.9081377983093262,-0.6231240034103394,-3.033094882965088,-21.573863983154297,-73.32496643066406, 21.286548614501953
556,605359108,0.5477075,0.1951306,-0.70173675,0.41171202,2.1559102535247803,0.4722055494785309,-2.425252676010132,-42.17550277709961,-52.346656799316406, 16.681583404541016
557,605375775,0.5435238,0.19338793,-0.7084524,0.40654522,1.7124433517456055,0.5199190974235535,-2.3686680793762207,-45.67339324951172,-39.55984115600586, 15.023327827453613
558,605392442,0.5396128,0.19315688,-0.71358323,0.4028748,1.3940874338150024,0.6072980761528015,-1.698523759841919,-28.72966194152832,-34.12884521484375, 10.96529483795166
559,605409109,0.53599375,0.19308965,-0.71794665,0.39997536,0.5684131383895874,-0.37695401906967163,-1.2661207914352417,-22.420015335083008,-29.928688049316406, 10.735818862915039
560,605425776,0.5327533,0.19261953,-0.722166,0.39692423,-0.030343031510710716,-1.44056236743927,-1.2666850090026855,-24.724205017089844,-26.6780948638916, 11.005905151367188
561,605442443,0.52999693,0.1913375,-0.7268209,0.3927151,-1.1543500423431396,-2.1961729526519775,-0.5105361342430115,-35.218807220458984,-25.35946273803711, 9.985814094543457
562,605459110,0.5267709,0.19081163,-0.7312405,0.38909048,-1.3085500001907349,-2.293379783630371,-0.7336176633834839,-28.304786682128906,-27.96564483642578, 9.555865287780762
563,605475777,0.5228174,0.19152537,-0.73525923,0.38649002,-0.756442129611969,-1.2683627605438232,-0.11046478152275085,-16.528928756713867,-32.575103759765625, 8.062129020690918
564,605492444,0.51836324,0.19237085,-0.73979694,0.3833986,-0.12474409490823746,-0.576363205909729,0.6321879029273987,-19.225725173950195,-38.020225524902344, 7.68961763381958
565,605509111,0.51347023,0.1927683,-0.74546343,0.37877902,0.0842788815498352,-0.2918746769428253,0.7762414813041687,-30.932100296020508,-45.34657669067383, 7.099693775177002
566,605525778,0.5077704,0.19333267,-0.7518673,0.37348107,0.035080645233392715,-1.1798341274261475,0.10854221135377884,-34.646697998046875,-53.387489318847656, 7.17573881149292
567,605542445,0.50146276,0.19449918,-0.75863093,0.3676753,0.0327710285782814,-0.6255029439926147,0.8310466408729553,-35.21940994262695,-60.14596176147461, 4.347209453582764
568,605559112,0.49473038,0.19603428,-0.7656941,0.36128345,0.4755403697490692,-0.5494170188903809,0.2961687445640564,-37.13509750366211,-65.20616912841797, 1.9877707958221436
569,605575779,0.48695242,0.19884825,-0.7727668,0.3552027,1.5634618997573853,0.19314412772655487,0.8541290760040283,-29.69477653503418,-73.51988983154297, -0.8897279500961304
570,605592446,0.47821236,0.20232406,-0.7799341,0.34940174,2.1413705348968506,0.39481329917907715,0.8062015771865845,-24.828596115112305,-80.1966781616211, -0.7475252747535706
571,605609113,0.46876496,0.20624359,-0.78741026,0.34308746,2.50665020942688,1.1583218574523926,1.0266960859298706,-25.777027130126953,-87.09392547607422, -2.7970778942108154
572,605625780,0.4586631,0.21025465,-0.7954036,0.33578995,2.6231143474578857,1.0606670379638672,1.1967495679855347,-30.986310958862305,-94.01054382324219, -3.98280930519104
573,605642447,0.44774488,0.21410036,-0.804179,0.32708195,2.4790964126586914,0.7852343916893005,1.682360291481018,-39.720516204833984,-102.78374481201172, -4.397927284240723
574,605659114,0.43545946,0.21820801,-0.8138071,0.3169848,2.5740232467651367,0.5200831890106201,1.9665130376815796,-46.34355926513672,-115.68490600585938, -5.510746002197266
575,605675781,0.42190328,0.22255898,-0.8241254,0.30542323,3.093883752822876,1.3474299907684326,2.6616809368133545,-53.22396469116211,-127.73304748535156, -7.221874237060547
576,605692448,0.40800372,0.2257092,-0.8353756,0.29109567,3.605936288833618,1.4855834245681763,3.7402191162109375,-73.60796356201172,-134.3513641357422, -6.122198104858398
577,605709115,0.39347976,0.22758639,-0.84767854,0.27353242,4.305486679077148,1.4457552433013916,3.7617928981781006,-96.66497802734375,-143.6663818359375, -4.757229328155518
578,605725782,0.37827972,0.22790715,-0.8605315,0.25386822,4.238555908203125,2.2351348400115967,4.533970355987549,-114.26148223876953,-153.28359985351562, -5.019480228424072
579,605742449,0.36192402,0.22785264,-0.8736933,0.23185083,5.1039557456970215,2.0663838386535645,5.24411678314209,-127.8819580078125,-164.15101623535156, -6.326713562011719
580,605759116,0.34419796,0.22854449,-0.8861468,0.20985627,6.064808368682861,0.8146493434906006,5.694555282592773,-122.59324645996094,-171.9932861328125, -9.598015785217285
581,605775783,0.3256083,0.22982097,-0.8975524,0.18857865,7.428102016448975,-0.7528831958770752,7.236230373382568,-113.95748138427734,-174.725341796875, -11.813305854797363
582,605792450,0.3072948,0.2298311,-0.90850455,0.16543199,7.043725490570068,-2.9549217224121094,9.94733715057373,-128.17796325683594,-173.5973663330078, -9.234719276428223
583,605809117,0.2896639,0.22916846,-0.9186833,0.13999394,6.209332466125488,-4.455809593200684,12.906148910522461,-144.1444854736328,-170.85809326171875, -11.901582717895508
584,605825784,0.27685094,0.22785234,-0.9261081,0.11730902,6.557628154754639,-9.513476371765137,13.501524925231934,-133.03770446777344,-130.27394104003906, -11.331038475036621
585,605842451,0.26370668,0.22858313,-0.9323187,0.09482206,4.68602180480957,-9.609713554382324,6.736381530761719,-126.4990234375,-131.7012939453125, -25.758907318115234
586,605859118,0.24841814,0.23123857,-0.93746215,0.077349074,4.251828670501709,-10.276016235351562,-1.421358585357666,-86.91400146484375,-137.00062561035156, -29.422334671020508
587,605875785,0.23349042,0.23644152,-0.94062597,0.0692914,8.047322273254395,-7.8746771812438965,1.3435360193252563,-21.525466918945312,-117.64947509765625, -33.21769714355469
588,605892452,0.22213241,0.2432478,-0.9413517,0.0731118,2.0218000411987305,-5.109394550323486,16.200300216674805,53.14866638183594,-72.23221588134766, -30.219524383544922
589,605909119,0.21813607,0.2487115,-0.94037926,0.07903605,0.7963947057723999,0.920494794845581,10.902827262878418,53.22569274902344,-17.984233856201172, -24.846017837524414
590,605925786,0.22097456,0.25116467,-0.93889725,0.08098925,1.0666688680648804,-3.0950679779052734,8.322104454040527,11.681303024291992,21.720054626464844, -15.8733549118042
591,605942453,0.22599117,0.2547321,-0.93543905,0.09483748,-0.3917039632797241,-4.5559916496276855,7.128496170043945,87.48590850830078,58.656620025634766, -9.60871410369873
592,605959120,0.23393233,0.2598636,-0.9296484,0.116194494,-0.200179323554039,1.3861873149871826,7.640337944030762,134.5714874267578,93.23452758789062, -13.971277236938477
593,605975787,0.2485632,0.2611625,-0.9236836,0.12969173,-0.16807806491851807,0.3574093282222748,7.218677997589111,66.39698791503906,125.25914001464844, -7.69072151184082
594,605992454,0.26650262,0.26098192,-0.91659003,0.14397335,-0.540664553642273,-1.15243661403656,5.442561626434326,63.93963623046875,150.90789794921875, -1.8892306089401245
595,606009121,0.28599155,0.2603413,-0.9081606,0.16023843,-0.16926023364067078,0.084967702627182,3.6215434074401855,74.1336441040039,167.15231323242188, 0.7318474650382996
596,606025788,0.30637342,0.26005727,-0.89794403,0.17945163,-0.26341482996940613,0.4587821662425995,1.9508466720581055,93.62834167480469,181.15362548828125, 0.16048067808151245
597,606042455,0.3273738,0.2596491,-0.8862469,0.19993949,-0.2256634682416916,0.8719784021377563,1.4722187519073486,101.97223663330078,190.57342529296875, 0.2505526542663574
598,606059122,0.34914526,0.25876367,-0.87304986,0.2211876,-0.23910939693450928,1.1305087804794312,1.275467038154602,106.2314224243164,200.71353149414062, 1.1884210109710693
599,606075789,0.37229803,0.2565971,-0.8587313,0.2411085,-0.22056013345718384,1.2063634395599365,1.0240811109542847,94.44574737548828,211.3355255126953, 1.6515432596206665
600,606092456,0.39683074,0.2534923,-0.84291476,0.26031247,-0.047439299523830414,0.8866317272186279,0.22470471262931824,87.86640167236328,223.6639862060547, 0.4730284512042999
601,606109123,0.42316732,0.25026566,-0.825511,0.2771803,0.11319644004106522,0.8784498572349548,0.3799242079257965,75.55134582519531,237.69577026367188, -1.9436490535736084
602,606125790,0.45081997,0.2449259,-0.80697554,0.29251298,0.9207191467285156,0.07146549969911575,-0.42580655217170715,59.88887023925781,249.98751831054688, 1.0108548402786255
603,606142457,0.47922176,0.23812926,-0.78689706,0.30730233,1.9986323118209839,0.5193553566932678,-1.9126278162002563,53.47154998779297,260.8885803222656, 2.6286802291870117
604,606159124,0.50857353,0.22968903,-0.765207,0.32102144,2.8908023834228516,0.034763939678668976,-2.7773854732513428,43.475303649902344,272.94744873046875, 2.5139167308807373
605,606175791,0.5382548,0.22046387,-0.74159914,0.33422923,4.015475749969482,-0.14761780202388763,-3.455768585205078,41.22425079345703,282.1877136230469, 0.21264635026454926
606,606192458,0.56788206,0.21009655,-0.7161785,0.34707123,5.465497016906738,-0.5308644771575928,-4.407105922698975,39.1477165222168,290.2095642089844, 0.25241902470588684
607,606209125,0.59644824,0.19890301,-0.68966526,0.35923508,6.6842546463012695,0.2691105008125305,-5.845418930053711,36.9204216003418,289.5416259765625, 0.3639056980609894
608,606225792,0.6228899,0.18707672,-0.6635432,0.36975884,7.310459613800049,-0.047488048672676086,-8.130558013916016,29.026832580566406,276.5093688964844, 0.3715173602104187
609,606242459,0.645565,0.17703219,-0.63821554,0.38024598,7.462589263916016,-1.0309282541275024,-10.536158561706543,40.068641662597656,250.82591247558594, 1.0335155725479126
610,606259126,0.6630853,0.17049651,-0.6151382,0.3909663,6.603964805603027,-1.6561976671218872,-13.214265823364258,56.62663269042969,210.12112426757812, 3.8968734741210938
611,606275793,0.6743242,0.16849045,-0.59592056,0.40221554,4.980208396911621,-1.7951759099960327,-16.46464729309082,76.60779571533203,154.76368713378906, 8.470114707946777
612,606292460,0.6789907,0.17084798,-0.58279973,0.4124656,3.2667500972747803,-1.6039891242980957,-19.784446716308594,83.63546752929688,86.773193359375, 11.075430870056152
613,606309127,0.67698103,0.17735432,-0.57742906,0.42049786,1.947243571281433,-1.5330252647399902,-21.225601196289062,80.14324951171875,9.95590877532959, 11.982598304748535
614,606325794,0.6690631,0.18593277,-0.58086956,0.4247057,1.5738743543624878,-2.1623246669769287,-20.276552200317383,56.50025939941406,-64.6763687133789, 13.608242988586426
615,606342461,0.656569,0.19505338,-0.5919441,0.42482284,1.8899463415145874,-2.5344576835632324,-18.003873825073242,26.359878540039062,-124.44071960449219, 15.563106536865234
616,606359128,0.6412305,0.20375346,-0.60755044,0.42212683,2.180626392364502,-1.9321986436843872,-13.776345252990723,3.697314977645874,-158.64129638671875, 18.787460327148438
617,606375795,0.62605405,0.21205643,-0.62220335,0.4194664,1.8779305219650269,0.1552576720714569,-0.2463890165090561,4.692476272583008,-152.28793334960938, 18.669103622436523
618,606392462,0.6179131,0.21208537,-0.6333781,0.4147726,0.8096696138381958,2.4585280418395996,20.51111602783203,-39.89409637451172,-86.38410949707031, 19.98252296447754
619,606409129,0.6104504,0.21000871,-0.64568543,0.40784514,6.621450901031494,0.6842989325523376,-7.103260517120361,-62.970970153808594,-86.07373809814453, 19.620309829711914
620,606425796,0.59755445,0.21411988,-0.6590705,0.40337116,12.165983200073242,-1.1450471878051758,-4.482024192810059,-21.271596908569336,-128.41098022460938, 19.27347183227539
621,606442463,0.5841075,0.21625209,-0.67345196,0.39814162,2.971588611602783,0.31136229634284973,0.8941039443016052,-34.78061294555664,-130.5727081298828, 28.1673641204834
622,606459130,0.56999093,0.22012317,-0.6855359,0.3958501,2.526850938796997,-0.13780651986598969,-2.5698060989379883,-5.817809104919434,-126.81686401367188, 27.109561920166016
623,606475797,0.55780643,0.22200796,-0.6969099,0.39227757,-0.009374691173434258,-0.18317744135856628,-2.3921122550964355,-20.97716522216797,-111.05004119873047, 25.79671287536621
624,606492464,0.5475364,0.22219083,-0.7068686,0.38880938,1.1888619661331177,-5.922733306884766,-5.310893535614014,-26.518251419067383,-90.99784851074219, 28.220739364624023
625,606509131,0.53797835,0.22508255,-0.7132048,0.3889177,1.1508480310440063,-2.1452393531799316,-2.423583745956421,9.602059364318848,-75.47793579101562, 21.09770393371582
626,606525798,0.53132576,0.22622333,-0.7188801,0.38694698,1.5103312730789185,-0.6997501254081726,-2.7513623237609863,-9.860371589660645,-57.23751449584961, 13.304290771484375
627,606542465,0.52623606,0.22667395,-0.7238005,0.38445845,1.103469729423523,-0.05296700820326805,-1.992422342300415,-15.473249435424805,-45.45732879638672, 9.960753440856934
628,606559132,0.52207553,0.22690156,-0.72817284,0.38173026,0.7889508008956909,-0.012993093580007553,-1.595589280128479,-17.493932723999023,-38.62983322143555, 6.944051265716553
629,606575799,0.5176278,0.22800647,-0.73194116,0.37991786,0.2776109576225281,-0.705810010433197,-0.7440528869628906,-7.7395477294921875,-38.80552673339844, 5.640683650970459
630,606592466,0.51259536,0.23003618,-0.7352926,0.37904495,-0.034295350313186646,-0.6201934814453125,-0.4297792315483093,2.276707649230957,-41.30220031738281, 5.093379020690918
631,606609133,0.5074301,0.23243155,-0.7385819,0.3781373,-0.3023947775363922,-0.8258239030838013,-0.6791762113571167,3.785281181335449,-43.02046203613281, 2.961571216583252
632,606625800,0.5023061,0.23512006,-0.74185836,0.37690046,-0.28675106167793274,-1.2524847984313965,-0.8370517492294312,3.0970513820648193,-44.214210510253906, -0.050713490694761276
633,606642467,0.49737546,0.2378412,-0.7453076,0.37492198,-0.08560366183519363,-1.089199423789978,-0.061727046966552734,-1.339694619178772,-45.30637741088867, -3.345221996307373
634,606659134,0.49254033,0.2402999,-0.7490415,0.37228668,0.5631636381149292,0.22008858621120453,0.12204791605472565,-6.543569564819336,-46.213314056396484, -4.001080513000488
635,606675801,0.48706993,0.24258392,-0.7533642,0.3692683,0.4841761589050293,0.8686938285827637,0.2702006995677948,-9.60511302947998,-51.791259765625, -1.9062697887420654
636,606692468,0.48073143,0.24477093,-0.75830424,0.36600515,0.65730220079422,0.6812251806259155,0.10077650845050812,-11.384654998779297,-58.412193298339844, 1.3795108795166016
637,606709135,0.4734475,0.24716301,-0.76366603,0.36273,0.9010912775993347,0.9092012047767639,0.3326076567173004,-10.288254737854004,-65.3062973022461, 3.4378600120544434
638,606725802,0.4656846,0.24887238,-0.7699175,0.35836908,0.3727820813655853,0.39769813418388367,0.5380586981773376,-19.665782928466797,-70.92455291748047, 6.233899116516113
639,606742469,0.4572701,0.250433,-0.77695245,0.35289234,0.25776731967926025,-0.60855633020401,1.0802687406539917,-26.91154670715332,-78.31224822998047, 6.766085624694824
640,606759136,0.44781196,0.2526388,-0.7843247,0.34709316,0.5376056432723999,-1.955283761024475,1.192450761795044,-25.662189483642578,-86.9281005859375, 5.847287654876709
641,606775803,0.43813533,0.25410768,-0.7927493,0.33914036,1.5580538511276245,-0.7917795777320862,2.4846293926239014,-41.70378875732422,-93.22305297851562, 5.875776290893555
642,606792470,0.4279091,0.25551674,-0.801867,0.32956803,2.23368763923645,-1.33522367477417,0.9021938443183899,-51.29512023925781,-100.62525939941406, 4.934514999389648
643,606809137,0.41737795,0.25722408,-0.81141764,0.31817254,2.520902395248413,0.6375729441642761,1.0726970434188843,-60.904361724853516,-107.49703216552734, -0.4753844141960144
644,606825804,0.4062552,0.2587387,-0.8213269,0.3056696,2.6869850158691406,1.7537033557891846,0.6549465656280518,-67.28614044189453,-113.3074951171875, -0.15048381686210632
645,606842471,0.3943996,0.2603313,-0.8316582,0.29158536,3.1101109981536865,2.1998350620269775,0.9242538809776306,-75.35525512695312,-121.41519165039062, -1.776266098022461
646,606859138,0.3819465,0.26118603,-0.84257895,0.27560893,3.3938753604888916,1.5192911624908447,2.303317070007324,-88.74465942382812,-129.21844482421875, -2.464219093322754
647,606875805,0.36853322,0.26124275,-0.85426426,0.25723314,3.6187074184417725,0.7076841592788696,3.873703956604004,-104.46717834472656,-139.72531127929688, -0.8660582900047302
648,606892472,0.35415453,0.26097864,-0.866225,0.2368959,4.2327494621276855,0.6496990323066711,4.33193826675415,-115.56255340576172,-149.2224578857422, -1.6799684762954712
649,606909139,0.33955592,0.26027384,-0.87795275,0.21484636,4.768651485443115,0.9891133904457092,4.9969305992126465,-126.06226348876953,-152.5101776123047, -3.221177577972412
650,606925806,0.32479998,0.26000005,-0.8887234,0.19255264,5.181888580322266,1.1145957708358765,5.932023048400879,-124.82565307617188,-152.51254272460938, -7.81233024597168
651,606942473,0.30930585,0.2599493,-0.8987993,0.17004946,5.618003845214844,-0.21209083497524261,5.441633701324463,-123.35057830810547,-156.3806915283203, -9.855855941772461
652,606959140,0.2912919,0.2606915,-0.9083335,0.14872803,6.334930896759033,-2.273098945617676,6.188320636749268,-109.21337890625,-169.84231567382812, -10.24795150756836
653,606975807,0.2718202,0.26200172,-0.91704583,0.12844001,6.7619781494140625,-3.3267807960510254,9.53930950164795,-98.17945861816406,-176.26866149902344, -11.722647666931152
654,606992474,0.25445923,0.2629986,-0.9246649,0.105251335,6.272220611572266,-3.734394073486328,11.807621955871582,-119.9154052734375,-166.15982055664062, -19.035137176513672
655,607009141,0.24142596,0.26380378,-0.9298084,0.087051615,6.663083076477051,-9.011189460754395,10.561714172363281,-94.58263397216797,-125.44680786132812, -16.74308967590332
656,607025808,0.22817405,0.26473638,-0.9346249,0.06578928,4.518760681152344,-9.010332107543945,6.395670413970947,-113.46067810058594,-132.1886749267578, -23.215572357177734
657,607042475,0.21463294,0.2664012,-0.9384469,0.047764536,3.247255325317383,-8.495885848999023,-0.2129395455121994,-90.63453674316406,-127.0409164428711, -24.639768600463867
658,607059142,0.2034463,0.26915336,-0.9407072,0.035167243,8.69257926940918,-7.506561279296875,3.873985528945923,-57.91998291015625,-99.9437255859375, -27.37852668762207
659,607075809,0.19531114,0.27217346,-0.9415797,0.034689736,-0.12852773070335388,-5.2271599769592285,13.607958793640137,15.464024543762207,-56.10468673706055, -15.51766586303711
660,607092476,0.19423088,0.2732509,-0.9415117,0.034127172,2.0210680961608887,-0.08496539294719696,9.63525390625,-0.714543342590332,-8.946134567260742, -6.517589092254639
661,607109143,0.19771507,0.27173468,-0.94121397,0.034438565,-1.0648776292800903,-6.480556488037109,6.8664069175720215,-7.004116535186768,23.052017211914062, 9.947785377502441
662,607125810,0.20146334,0.2727173,-0.93939257,0.05079593,-1.6989370584487915,-3.477907657623291,6.961507320404053,100.01226806640625,56.26701354980469, 12.664536476135254
663,607142477,0.20927347,0.2738005,-0.9362122,0.068886824,-1.2165642976760864,0.6565536856651306,7.685605525970459,104.17145538330078,87.64584350585938, 10.4832181930542
664,607159144,0.22183183,0.27339897,-0.9321445,0.08456337,-0.9000300168991089,-0.7212032079696655,5.931504726409912,78.00688171386719,115.64604949951172, 12.707907676696777
665,607175811,0.23703676,0.27388215,-0.9262607,0.10413459,-0.5559396743774414,0.32064902782440186,5.0086212158203125,100.40900421142578,142.20883178710938, 8.066449165344238
666,607192478,0.25525653,0.27350822,-0.9192051,0.122882545,0.0462263748049736,0.9628905653953552,4.726824760437012,88.95235443115234,162.3983154296875, 7.869653701782227
667,607209145,0.27495813,0.2728587,-0.91086924,0.142352,0.3623962998390198,1.0806264877319336,2.692290782928467,91.35272216796875,175.59783935546875, 7.2752366065979
668,607225812,0.2958703,0.27230278,-0.90092796,0.16322266,0.8132176399230957,1.2460944652557373,1.8553671836853027,99.63251495361328,188.77236938476562, 5.200489044189453
669,607242479,0.31756443,0.2715045,-0.889601,0.1845232,1.1187869310379028,1.3931430578231812,1.5977461338043213,101.91737365722656,197.53253173828125, 4.169314861297607
670,607259146,0.3402458,0.2698037,-0.8771824,0.20491551,1.2400033473968506,1.0169754028320312,1.302539587020874,93.95158386230469,205.42037963867188, 4.4829583168029785
671,607275813,0.36444193,0.26629788,-0.86383563,0.22373253,1.300116777420044,1.0911890268325806,0.6135260462760925,78.73035430908203,216.37095642089844, 7.882584571838379
672,607292480,0.3904788,0.2605974,-0.84950745,0.24073437,1.0785223245620728,1.6216156482696533,0.4787803292274475,60.58790969848633,229.85302734375, 11.783879280090332
673,607309147,0.4178207,0.25298992,-0.8342252,0.2559123,1.528695821762085,1.6083979606628418,-0.3837398886680603,44.05181121826172,239.96559143066406, 14.194220542907715
674,607325814,0.4462061,0.24442473,-0.817803,0.26898986,2.140946626663208,0.4780132472515106,-1.604886770248413,30.958635330200195,247.49111938476562, 17.866546630859375
675,607342481,0.47466153,0.23505938,-0.79979664,0.28243518,2.794440507888794,0.35760894417762756,-2.4309005737304688,32.75537872314453,254.97470092773438, 20.606374740600586
676,607359148,0.502706,0.22576092,-0.7800368,0.29641548,3.7785017490386963,0.8077605366706848,-2.4714770317077637,39.36214065551758,259.324462890625, 19.631521224975586
677,607375815,0.5300633,0.21679397,-0.7584073,0.3112109,4.861155986785889,0.6524859666824341,-3.2588248252868652,49.18947982788086,262.8402404785156, 18.623184204101562
678,607392482,0.5560704,0.20855495,-0.7353293,0.32646927,5.666661262512207,0.9961426854133606,-4.882076740264893,58.94820785522461,260.35052490234375, 16.147632598876953
679,607409149,0.5805501,0.20076694,-0.7116413,0.3409129,6.156336784362793,1.776286244392395,-6.34867525100708,60.10167694091797,252.83670043945312, 11.00895881652832
680,607425816,0.6030994,0.19337954,-0.688202,0.35391268,6.187812328338623,1.539106845855713,-7.792755603790283,57.0277099609375,239.4932098388672, 6.037352561950684
681,607442483,0.6215111,0.18887095,-0.6656806,0.36731708,5.56294059753418,-0.21549327671527863,-10.170891761779785,74.59063720703125,209.7016143798828, 3.867457151412964
682,607459150,0.6342707,0.1885336,-0.6456471,0.38117784,4.792636871337891,-1.1991320848464966,-13.043811798095703,95.60350799560547,163.56422424316406, 4.237101078033447
683,607475817,0.64113355,0.19166124,-0.629871,0.39430574,3.3954553604125977,-0.30023741722106934,-15.974020957946777,104.04273223876953,109.17058563232422, 6.537237644195557
684,607492484,0.6423209,0.19786493,-0.6195462,0.40550774,1.9070537090301514,0.005729079246520996,-18.342439651489258,102.08509063720703,50.1265869140625, 7.183814525604248
685,607509151,0.63797456,0.20731449,-0.6153386,0.4139665,1.1910219192504883,-0.22945138812065125,-18.763174057006836,95.3473129272461,-12.763623237609863, 4.851491928100586
686,607525818,0.62921995,0.21789879,-0.61791706,0.418069,0.9417506456375122,-1.2124232053756714,-17.59210777282715,69.0012435913086,-70.15351104736328, 3.0009565353393555
687,607542485,0.61761814,0.22650434,-0.627581,0.41639695,1.0586049556732178,-2.411588430404663,-15.59237289428711,19.924808502197266,-115.44696044921875, 5.052880764007568
688,607559152,0.6042086,0.23183209,-0.64271486,0.41000494,2.7869951725006104,-4.615303039550781,-9.98746109008789,-27.113086700439453,-144.07940673828125, 12.68362808227539
689,607575819,0.5922686,0.23385529,-0.6564119,0.40454137,5.196079730987549,-3.884190320968628,11.212921142578125,-34.97273254394531,-120.58518981933594, 24.567302703857422
690,607592486,0.5819199,0.23161173,-0.6715157,0.39597076,5.272575855255127,-0.2347516119480133,-0.8246558308601379,-72.93694305419922,-112.59869384765625, 29.07246208190918
691,607609153,0.5665332,0.23601474,-0.6857195,0.39131427,9.74110221862793,-1.8631746768951416,-6.473749160766602,-17.8212890625,-144.16917419433594, 26.378334045410156
692,607625820,0.550446,0.23923247,-0.7006749,0.38578853,4.3188796043396,2.2440383434295654,-0.47627684473991394,-26.33207893371582,-149.647216796875, 27.06793785095215
693,607642487,0.5350659,0.24159953,-0.7145966,0.38037682,2.439222574234009,-0.18735884130001068,-2.516080617904663,-27.998918533325195,-139.5127410888672, 29.91097640991211
694,607659154,0.52085453,0.24289812,-0.7266148,0.3764874,1.1805591583251953,-2.4690277576446533,-4.264708518981934,-21.6318416595459,-121.2809829711914, 35.23781967163086
695,607675821,0.50809264,0.24417888,-0.73593515,0.37499166,1.043013095855713,-4.6437530517578125,-5.071905612945557,-5.314604759216309,-100.1192398071289, 36.28286361694336
696,607692488,0.49740785,0.2467092,-0.7421603,0.37539145,1.5971159934997559,-0.9485329985618591,-3.2989654541015625,13.03744888305664,-78.5613021850586, 26.777170181274414
697,607709155,0.48982185,0.24720411,-0.7480244,0.37339658,1.6471771001815796,-0.8512060642242432,-1.7905669212341309,-10.436059951782227,-60.50093460083008, 19.57260513305664
698,607725822,0.48387554,0.24723169,-0.7530127,0.37109777,1.2670187950134277,-0.3265763521194458,-1.6326223611831665,-14.152717590332031,-48.42707824707031, 15.448814392089844
