PacketCounter,SampleTimeFine,Quat_W,Quat_X,Quat_Y,Quat_Z,Acc_X,Acc_Y,Acc_Z,Gyr_X,Gyr_Y,Gyr_Z 
1,2515333153,0.71854687,0.3229541,-0.5110775,0.34378904,0.10407882928848267,-0.045527324080467224,0.14154091477394104,-0.1587267369031906,0.591754138469696, -0.24248303472995758
2,2515349820,0.7193073,0.32285774,-0.5099562,0.34395468,14.679057121276855,1.9158790111541748,4.024766445159912,-0.8646592497825623,3.4766108989715576, 2.8147528171539307
3,2515366487,0.719524,0.3236311,-0.50965476,0.34322023,14.703533172607422,1.8865764141082764,3.941854476928711,-1.105136752128601,2.970682382583618, 2.8774397373199463
4,2515383154,0.71933573,0.32429832,-0.5100679,0.34237084,14.671466827392578,1.8706408739089966,4.122128486633301,-0.6242071986198425,3.0869455337524414, 3.2549774646759033
5,2515399821,0.71929365,0.32457215,-0.5100853,0.34217313,14.65075397491455,1.795982837677002,4.174586772918701,-0.5737373232841492,3.169194221496582, 3.5017752647399902
6,2515416488,0.7194103,0.3242907,-0.51006466,0.34222573,14.663437843322754,1.8144232034683228,3.9634222984313965,-0.3434535264968872,2.8620338439941406, 3.8603146076202393
7,2515433155,0.7193827,0.32388893,-0.5102741,0.34235215,14.555577278137207,1.850466251373291,4.295645713806152,-0.8673228621482849,3.0550382137298584, 4.490924835205078
8,2515449822,0.7195172,0.32333854,-0.51018703,0.3427193,14.499163627624512,1.7659687995910645,3.978591203689575,-1.6409159898757935,2.8301455974578857, 4.774584770202637
9,2515466489,0.7195168,0.32281607,-0.51024157,0.34313124,14.552726745605469,1.7692152261734009,3.966291904449463,-1.7614750862121582,2.5737497806549072, 4.900996208190918
10,2515483156,0.7194668,0.32228917,-0.51037556,0.34353185,14.537287712097168,1.7258511781692505,4.31792688369751,-1.7288191318511963,2.6846914291381836, 4.992254734039307
11,2515499823,0.71951354,0.32168406,-0.5103804,0.34399354,14.632710456848145,1.5972024202346802,4.145163536071777,-0.6745361089706421,2.7028887271881104, 5.059564590454102
12,2515516490,0.7194406,0.32121885,-0.5103336,0.34464958,14.643533706665039,1.7178105115890503,4.042386054992676,-0.04596199467778206,2.541593313217163, 4.684364318847656
13,2515533157,0.71943897,0.3206506,-0.5103525,0.3451537,14.567936897277832,1.6620571613311768,4.266857147216797,-0.4465446472167969,2.9281914234161377, 4.661966323852539
14,2515549824,0.7194728,0.32010084,-0.5103242,0.34563494,14.484264373779297,1.5564665794372559,4.128026962280273,-0.2677423655986786,2.7744250297546387, 4.304322719573975
15,2515566491,0.71948504,0.31955823,-0.5103358,0.34609422,14.430668830871582,1.6525921821594238,3.921654224395752,-0.1422913521528244,2.494107246398926, 4.156000137329102
16,2515583158,0.719459,0.31903943,-0.51040524,0.34652433,14.333337783813477,1.6684632301330566,4.082029819488525,-0.5504297614097595,2.3882498741149902, 4.202064037322998
17,2515599825,0.7194249,0.3184872,-0.5105605,0.34687427,14.399877548217773,1.6604853868484497,3.8789217472076416,-0.8241398930549622,1.8514974117279053, 4.429723262786865
18,2515616492,0.7193549,0.31800818,-0.5107052,0.3472456,14.411161422729492,1.7842938899993896,4.063764572143555,-0.5576652884483337,1.986066222190857, 4.417786598205566
19,2515633159,0.71923834,0.3176565,-0.510794,0.34767807,14.534311294555664,1.6415144205093384,4.083665370941162,-0.4876658022403717,1.8091211318969727, 4.302108287811279
20,2515649826,0.71911615,0.3173946,-0.51083416,0.34811085,14.627196311950684,1.5461153984069824,4.208031177520752,0.38638678193092346,1.8528931140899658, 4.016653537750244
21,2515666493,0.7189717,0.31719217,-0.51080346,0.3486388,14.676280975341797,1.6010892391204834,4.292983055114746,1.1183594465255737,2.0557332038879395, 4.0419602394104
22,2515683160,0.7188271,0.3169722,-0.51078063,0.3491699,14.560995101928711,1.5119291543960571,3.9438374042510986,1.0240663290023804,1.894885540008545, 4.12909460067749
23,2515699827,0.71872455,0.31662127,-0.51082605,0.3496325,14.363207817077637,1.6579772233963013,3.99328875541687,0.04123004525899887,2.073777437210083, 4.277122497558594
24,2515716494,0.7186197,0.3161446,-0.511041,0.3499651,14.159148216247559,1.5801526308059692,3.735553503036499,-1.2158732414245605,1.3205204010009766, 4.638031005859375
25,2515733161,0.7183719,0.3158781,-0.5112283,0.35044065,13.951321601867676,1.6911267042160034,3.6091737747192383,0.13034942746162415,0.905325710773468, 4.7852396965026855
26,2515749828,0.71802264,0.31568456,-0.511508,0.35092214,14.155922889709473,1.5904024839401245,3.8783812522888184,0.7501896023750305,0.16362033784389496, 5.244412422180176
27,2515766495,0.7176967,0.31553504,-0.5116876,0.35146138,14.708563804626465,1.7242285013198853,4.220797538757324,1.8286892175674438,0.8117368817329407, 5.285315036773682
28,2515783162,0.7173103,0.31547448,-0.51173306,0.3522375,15.322686195373535,1.5450903177261353,4.416999816894531,2.5221660137176514,1.3385646343231201, 5.79681396484375
29,2515799829,0.7170087,0.31542635,-0.5116338,0.353038,15.622940063476562,1.7372387647628784,4.691919326782227,3.054859161376953,2.2752087116241455, 5.348835468292236
30,2515816496,0.7169416,0.31503817,-0.5115211,0.35368344,15.35857105255127,1.7110365629196167,4.7460527420043945,1.2592804431915283,3.2206883430480957, 5.155344009399414
31,2515833163,0.71684265,0.31456932,-0.511465,0.35438168,15.043302536010742,1.5469679832458496,4.218878269195557,0.5396276116371155,2.6931304931640625, 5.436110496520996
32,2515849830,0.71673864,0.31400847,-0.5114712,0.35507995,14.506385803222656,1.6349729299545288,3.9981141090393066,0.07914965599775314,2.5455760955810547, 5.80644416809082
33,2515866497,0.7165653,0.31338087,-0.51161593,0.355775,14.083868980407715,1.509096384048462,3.4970414638519287,-0.2845058739185333,1.7733017206192017, 6.510524272918701
34,2515883164,0.71624285,0.31285146,-0.5118345,0.35657513,13.693009376525879,1.5857210159301758,3.1343207359313965,0.7049190998077393,0.874398410320282, 7.190234184265137
35,2515899831,0.7157609,0.31244364,-0.5120801,0.35754645,13.646615982055664,1.6869962215423584,3.727755308151245,1.999026894569397,0.23908820748329163, 7.9979448318481445
36,2515916498,0.71523017,0.3121377,-0.51229745,0.35856304,14.73414134979248,1.4117318391799927,4.3332743644714355,2.8964316844940186,0.04475179314613342, 7.94118595123291
37,2515933165,0.7145576,0.31213877,-0.51232344,0.3598631,15.71178150177002,1.3676056861877441,4.609288215637207,6.311464786529541,0.3361731767654419, 8.224272727966309
38,2515949832,0.7139741,0.3121408,-0.51221126,0.36117694,16.15077781677246,1.5506653785705566,4.987180709838867,6.249622344970703,1.3300743103027344, 7.688249588012695
39,2515966499,0.7137295,0.31157273,-0.5122373,0.36211306,15.885038375854492,1.3782401084899902,4.812641620635986,1.1958765983581543,2.4537038803100586, 7.340558052062988
40,2515983166,0.71367115,0.31068334,-0.51232845,0.36286244,15.299115180969238,1.3296421766281128,4.6169114112854,-1.6159822940826416,3.18668794631958, 7.225170612335205
41,2515999833,0.71372896,0.30952218,-0.5125202,0.36346984,14.636920928955078,1.2491384744644165,4.062525272369385,-4.016827583312988,3.4713473320007324, 7.390616416931152
42,2516016500,0.7137217,0.30847365,-0.51276535,0.36402905,14.111917495727539,1.239449381828308,3.663357734680176,-3.513537883758545,2.6098384857177734, 7.0683698654174805
43,2516033167,0.7135839,0.30770218,-0.5130108,0.36460587,13.87865924835205,1.3344388008117676,3.266319990158081,-1.8693431615829468,1.4962109327316284, 6.4912519454956055
44,2516049834,0.7132511,0.30730748,-0.5131812,0.36534914,13.878631591796875,1.1906026601791382,3.2878706455230713,1.2035601139068604,0.5974611043930054, 6.323373317718506
45,2516066501,0.71280587,0.3071204,-0.5133496,0.36613804,13.985921859741211,1.0174957513809204,3.1707396507263184,2.951396942138672,-0.1877027153968811, 6.190110206604004
46,2516083168,0.71222126,0.3071954,-0.5133691,0.36718404,14.013272285461426,1.003600835800171,3.386512041091919,5.7534403800964355,-0.06433912366628647, 6.541594982147217
47,2516099835,0.7116287,0.3073584,-0.51331604,0.36826926,14.232537269592285,0.9084261655807495,3.8357784748077393,6.39709997177124,0.11636493355035782, 6.250723838806152
48,2516116502,0.71113724,0.30751753,-0.51311934,0.36935857,14.902751922607422,1.0172697305679321,4.480448246002197,6.3961262702941895,1.1799837350845337, 5.678689002990723
49,2516133169,0.7108126,0.3075303,-0.51283497,0.3703658,15.649837493896484,0.9265127778053284,4.780539035797119,5.512538433074951,2.3980984687805176, 5.259369850158691
50,2516149836,0.7107086,0.3073281,-0.5125476,0.37113044,15.748563766479492,1.0744858980178833,4.703732490539551,3.142838478088379,3.215604305267334, 4.260308265686035
51,2516166503,0.7108465,0.30678916,-0.5123248,0.3716195,15.29772663116455,1.207937479019165,4.583643436431885,-0.41519466042518616,4.010634899139404, 3.542102098464966
52,2516183170,0.7110349,0.30616868,-0.5122179,0.3719182,14.8526611328125,1.0822780132293701,4.148778915405273,-1.6314008235931396,3.4408161640167236, 3.0957107543945312
53,2516199837,0.71113443,0.30569682,-0.5121212,0.37224898,14.400802612304688,1.1406736373901367,3.7801108360290527,-0.5674749612808228,2.7724337577819824, 2.9991188049316406
54,2516216504,0.71114016,0.30526975,-0.5120266,0.37271863,14.182562828063965,1.2806638479232788,3.5317118167877197,0.05557315796613693,2.601757526397705, 3.684624195098877
55,2516233171,0.71105623,0.30486283,-0.51195323,0.37331167,14.088677406311035,1.241515040397644,3.309908390045166,0.73930424451828,2.399327516555786, 4.50262975692749
56,2516249838,0.71097594,0.30436507,-0.5119001,0.37394336,14.200787544250488,1.2800421714782715,3.3714563846588135,0.5155260562896729,2.64459490776062, 5.0923237800598145
57,2516266505,0.7108076,0.30394948,-0.5118454,0.37467533,14.240964889526367,1.2481659650802612,3.465318441390991,1.4420782327651978,2.346898078918457, 5.515970706939697
58,2516283172,0.71054256,0.30362692,-0.5118022,0.37549818,14.285438537597656,1.0950673818588257,3.5946619510650635,2.4645886421203613,1.907153844833374, 5.93204927444458
59,2516299839,0.71016103,0.30348155,-0.5117134,0.37645674,14.529748916625977,1.034151554107666,4.095263481140137,4.25445556640625,1.5509965419769287, 6.203889846801758
60,2516316506,0.70974225,0.303485,-0.51154137,0.37747595,15.20872688293457,0.9965389966964722,4.747950077056885,5.196785926818848,1.547295331954956, 5.806303977966309
61,2516333173,0.70938855,0.30348724,-0.5113156,0.378444,15.7608003616333,0.9745838046073914,4.669421195983887,5.180765151977539,1.926696538925171, 5.3269877433776855
62,2516349840,0.7092384,0.30319297,-0.51115954,0.37917152,15.560198783874512,0.9638051986694336,4.741117477416992,2.3467957973480225,2.56760311126709, 4.828897476196289
63,2516366507,0.70927525,0.3025439,-0.51116514,0.37961298,15.193096160888672,0.7599604725837708,4.3017354011535645,-1.1756486892700195,2.7596981525421143, 4.536592960357666
64,2516383174,0.7093787,0.30191913,-0.51108855,0.3800199,14.701172828674316,0.9934815168380737,4.039246559143066,-1.3158016204833984,3.2525382041931152, 3.867588758468628
65,2516399841,0.70943314,0.30134624,-0.5110446,0.3804319,14.374579429626465,0.7513326406478882,3.4368643760681152,-0.9112870693206787,2.8020997047424316, 3.944887161254883
66,2516416508,0.70942956,0.3008889,-0.5109774,0.38089108,14.123180389404297,0.9232141971588135,3.3527164459228516,-0.04236340895295143,2.515353202819824, 3.8577404022216797
67,2516433175,0.7093935,0.30050015,-0.5108444,0.38144276,13.968090057373047,0.9295136332511902,3.280268430709839,0.8891000747680664,2.741922616958618, 4.029716491699219
68,2516449842,0.7092372,0.30029383,-0.51066834,0.38213113,14.186779022216797,0.7492885589599609,3.2419402599334717,2.6851141452789307,2.3409688472747803, 4.304592609405518
69,2516466509,0.7090152,0.30022496,-0.51040494,0.38294837,14.412278175354004,0.7254541516304016,3.5922446250915527,4.048926830291748,2.443317174911499, 4.402586460113525
70,2516483176,0.70881134,0.30017206,-0.51006454,0.38381967,14.665121078491211,0.6418377161026001,3.769655466079712,4.5582356452941895,2.9542653560638428, 4.4270339012146
71,2516499843,0.7086779,0.3000727,-0.509648,0.38469598,14.932433128356934,0.784169614315033,4.033613204956055,4.434115886688232,3.705191135406494, 4.279261112213135
72,2516516510,0.7086401,0.29973295,-0.50929004,0.3855041,14.891539573669434,0.8719855546951294,4.216410160064697,2.552337884902954,4.245746612548828, 4.619910717010498
73,2516533177,0.70865273,0.29934123,-0.50901765,0.38614395,14.911060333251953,0.8398640155792236,4.314305782318115,1.5106433629989624,3.7943358421325684, 4.070402145385742
74,2516549844,0.7086508,0.2990368,-0.50875443,0.38673013,14.968409538269043,0.8136520981788635,4.310710430145264,1.867748498916626,3.3540406227111816, 3.5999228954315186
75,2516566511,0.7086696,0.2987168,-0.50858885,0.38716057,14.925092697143555,0.6835395693778992,4.143407344818115,0.8399620652198792,2.6683499813079834, 3.0087430477142334
76,2516583178,0.7087512,0.29833403,-0.5084413,0.3875,14.654345512390137,0.7759370803833008,4.084303379058838,0.1434631496667862,2.782557725906372, 2.6884310245513916
77,2516599845,0.708762,0.2980524,-0.50826824,0.38792384,14.566058158874512,0.8001044988632202,3.559784412384033,1.010862946510315,2.562044858932495, 2.840839385986328
78,2516616512,0.7088346,0.29770496,-0.50805175,0.388341,14.354240417480469,1.0374493598937988,3.8059730529785156,0.7164705395698547,3.1607930660247803, 2.8068253993988037
79,2516633179,0.7088722,0.2973892,-0.50783914,0.38879222,14.347161293029785,0.8428624868392944,3.6378700733184814,1.056376576423645,3.0069758892059326, 2.971322774887085
80,2516649846,0.7088138,0.2972133,-0.5075744,0.38937843,14.593676567077637,0.8256165981292725,3.617959499359131,2.534165143966675,2.833385944366455, 3.2894325256347656
81,2516666513,0.70877254,0.2969601,-0.50730336,0.38999924,14.640570640563965,0.9381436705589294,4.030664443969727,2.235342264175415,3.207305908203125, 3.662712812423706
82,2516683180,0.70870286,0.296679,-0.50709707,0.39060816,14.886054992675781,0.8596771955490112,3.944699764251709,1.9019927978515625,2.841568946838379, 3.9005649089813232
83,2516699847,0.70868164,0.2963465,-0.5068731,0.39118898,14.970976829528809,0.9871284365653992,4.096711158752441,1.518212080001831,3.180757999420166, 3.784167766571045
84,2516716514,0.70874673,0.2959055,-0.5066807,0.3916538,14.836384773254395,0.8863283395767212,4.026764869689941,0.5807744264602661,3.384199857711792, 3.5204081535339355
85,2516733181,0.7088086,0.295468,-0.506495,0.3921122,14.809366226196289,0.8622169494628906,4.188282489776611,0.4717795252799988,3.318772077560425, 3.4707705974578857
86,2516749848,0.7089034,0.29499158,-0.50631744,0.3925286,14.745519638061523,0.8571425676345825,4.084720134735107,0.09907633811235428,3.4117462635040283, 3.3497636318206787
87,2516766515,0.70895195,0.29455924,-0.5061592,0.39296955,14.855134010314941,0.8103604316711426,3.796220064163208,0.3417951166629791,3.089193105697632, 3.448321580886841
88,2516783182,0.7090918,0.29395416,-0.50604165,0.39332137,14.76017951965332,0.9653352499008179,4.004245281219482,-0.9068432450294495,3.5001354217529297, 3.521266222000122
89,2516799849,0.70918113,0.29346657,-0.50588125,0.39373028,14.721906661987305,0.9073010683059692,3.8200631141662598,-0.13888487219810486,3.335177421569824, 3.369382858276367
90,2516816516,0.7092335,0.29307157,-0.50567377,0.3941966,14.72937297821045,0.9111704230308533,3.794451951980591,0.671853244304657,3.305607795715332, 3.319783926010132
91,2516833183,0.7093378,0.29264265,-0.5054679,0.39459202,14.636812210083008,0.9575076103210449,3.939502239227295,0.32303375005722046,3.4257049560546875, 3.0160939693450928
92,2516849850,0.70938706,0.29230452,-0.50523186,0.3950559,14.804956436157227,0.7858591675758362,3.8396379947662354,1.170967936515808,3.270390033721924, 3.1152281761169434
93,2516866517,0.7094618,0.2919462,-0.5049758,0.3955136,14.968332290649414,0.8767527341842651,4.005329132080078,0.9733917117118835,3.500110387802124, 3.0152106285095215
94,2516883184,0.70955133,0.29164496,-0.5046659,0.3959704,15.100846290588379,0.9598331451416016,4.077355861663818,1.4970048666000366,3.6533892154693604, 2.7114055156707764
95,2516899851,0.7096657,0.29129514,-0.5043676,0.39640296,15.15172290802002,1.0296694040298462,4.157712459564209,0.9607388973236084,3.7683017253875732, 2.6712324619293213
96,2516916518,0.70979273,0.29088613,-0.504081,0.3968399,14.968456268310547,1.0602145195007324,4.129673480987549,0.5824391841888428,3.924140453338623, 2.873610496520996
97,2516933185,0.70989215,0.2904084,-0.50388396,0.397262,14.997187614440918,0.9743443727493286,3.793181896209717,0.24518397450447083,3.543856382369995, 3.383046865463257
98,2516949852,0.7100461,0.28986624,-0.503693,0.39762503,14.892862319946289,1.2502162456512451,4.256625652313232,-0.4624501168727875,3.7668919563293457, 3.160818576812744
99,2516966519,0.7101327,0.28939486,-0.5035062,0.39804968,14.960638999938965,0.9563174247741699,3.841599941253662,0.058710720390081406,3.4431350231170654, 3.3572940826416016
100,2516983186,0.7102226,0.2890028,-0.5032802,0.3984601,15.023740768432617,1.1345562934875488,3.959625482559204,0.6754388809204102,3.4006688594818115, 2.993119478225708
101,2516999853,0.7103108,0.28859696,-0.50305176,0.39888543,14.999085426330566,1.0683826208114624,4.060402870178223,0.6862348318099976,3.476675271987915, 3.1247050762176514
102,2517016520,0.7103849,0.28819835,-0.5028464,0.39930022,15.146888732910156,0.9871187806129456,3.928856372833252,0.5435463786125183,3.278393507003784, 3.097362995147705
103,2517033187,0.7105237,0.28774643,-0.50257164,0.3997248,15.115974426269531,1.169427752494812,4.193539142608643,0.23930586874485016,4.016641139984131, 2.9637162685394287
104,2517049854,0.71063024,0.2873457,-0.502318,0.40014222,15.176501274108887,1.0768866539001465,3.9742233753204346,0.6188604235649109,3.642235517501831, 2.9438023567199707
105,2517066521,0.71078163,0.28686458,-0.5020663,0.40053415,15.025542259216309,1.1748892068862915,4.139068603515625,0.13206548988819122,3.9607930183410645, 3.014352321624756
106,2517083188,0.7109467,0.28632906,-0.5018763,0.40086243,14.996735572814941,1.1072666645050049,3.95158052444458,-0.47063344717025757,3.7286651134490967, 3.011599063873291
107,2517099855,0.7110845,0.28581822,-0.5016742,0.40123552,14.796192169189453,1.1191428899765015,3.923680067062378,-0.009732826612889767,3.7142961025238037, 3.239654302597046
108,2517116522,0.7112049,0.28528196,-0.501512,0.40160644,14.766647338867188,1.0222781896591187,3.807307720184326,-0.4797258675098419,3.539092540740967, 3.3472917079925537
109,2517133189,0.71132886,0.2847657,-0.5013441,0.40196285,14.723970413208008,1.1981271505355835,3.8743882179260254,-0.29156219959259033,3.495269775390625, 3.2409095764160156
110,2517149856,0.7113942,0.2843834,-0.50110275,0.4024185,14.702306747436523,1.0066970586776733,3.733999252319336,0.9179527759552002,3.4853827953338623, 3.2487339973449707
111,2517166523,0.71144634,0.28402984,-0.50089383,0.40283582,14.933867454528809,0.9767211675643921,3.9766383171081543,0.951723039150238,3.129033088684082, 3.1005899906158447
112,2517183190,0.7115278,0.28364915,-0.5006648,0.4032449,15.010353088378906,1.1431572437286377,4.163578033447266,0.6477516889572144,3.398991584777832, 2.9802749156951904
113,2517199857,0.7115873,0.28334582,-0.50039274,0.4036905,15.173127174377441,1.093847393989563,4.1167755126953125,1.2771836519241333,3.3925881385803223, 2.8618288040161133
114,2517216524,0.71172863,0.2829175,-0.50012046,0.4040785,15.151419639587402,1.259056806564331,4.126316070556641,0.4336550235748291,3.907876491546631, 2.837599039077759
115,2517233191,0.7118958,0.282439,-0.49991468,0.40437385,15.020479202270508,1.1377220153808594,4.002444267272949,-0.13541433215141296,3.6212069988250732, 2.7165277004241943
116,2517249858,0.7120612,0.2819321,-0.49971378,0.4046843,14.828783988952637,1.1900763511657715,4.052017688751221,-0.4397573471069336,3.716832399368286, 2.825497627258301
117,2517266525,0.71212894,0.28153095,-0.4995364,0.4050633,14.819920539855957,1.0626857280731201,3.754459857940674,0.5488994121551514,3.101153612136841, 3.168130874633789
118,2517283192,0.7122287,0.28110403,-0.49935037,0.40541366,14.738824844360352,1.1949397325515747,3.8869035243988037,0.20876272022724152,3.284041166305542, 2.9838860034942627
119,2517299859,0.7123115,0.2807024,-0.49916556,0.4057739,14.804020881652832,1.1754167079925537,3.8225948810577393,0.3463413119316101,3.176992654800415, 2.9826691150665283
120,2517316526,0.7124095,0.28030342,-0.4989179,0.40618184,14.77728271484375,1.1488362550735474,3.983670234680176,0.8082279562950134,3.6178770065307617, 3.1071724891662598
121,2517333193,0.7124789,0.2799453,-0.49870825,0.4065645,14.871068000793457,1.0882858037948608,3.8508951663970947,0.7719219326972961,3.175917148590088, 2.956557035446167
122,2517349860,0.7125803,0.27958098,-0.49845505,0.40694803,14.86704158782959,1.213380217552185,4.071750640869141,0.8357744812965393,3.5167839527130127, 2.8213350772857666
123,2517366527,0.71265644,0.27920693,-0.49825746,0.40731272,14.923540115356445,1.150823950767517,3.925065279006958,0.5591828227043152,3.1482040882110596, 2.916921377182007
124,2517383194,0.7127167,0.27887744,-0.49802375,0.4077192,14.974260330200195,1.1531978845596313,3.914592742919922,1.08693265914917,3.222865343093872, 2.9589390754699707
125,2517399861,0.71277285,0.27852798,-0.49781156,0.40811858,15.048686027526855,1.227746605873108,4.037774085998535,0.975299596786499,3.1408917903900146, 3.0730698108673096
126,2517416528,0.71287817,0.27812544,-0.49756378,0.40851104,15.002584457397461,1.2422921657562256,4.0482892990112305,0.6447806358337402,3.6222317218780518, 2.9943747520446777
127,2517433195,0.712933,0.27774945,-0.4973191,0.40896887,15.059256553649902,1.1553617715835571,3.727074146270752,1.0925289392471313,3.4837303161621094, 3.3779242038726807
128,2517449862,0.7130719,0.27728054,-0.49707857,0.4093373,14.90805435180664,1.4606484174728394,4.068581581115723,0.18540392816066742,3.8445239067077637, 3.0423340797424316
129,2517466529,0.7131481,0.27689588,-0.49684694,0.4097461,14.823925018310547,1.3209893703460693,3.6904540061950684,0.7126926183700562,3.4356303215026855, 3.1018970012664795
130,2517483196,0.71321434,0.27653164,-0.49662036,0.4101512,14.922967910766602,1.315427303314209,3.899258613586426,0.9089371562004089,3.308347702026367, 3.1036899089813232
131,2517499863,0.7132931,0.27611935,-0.49644363,0.41050565,14.910128593444824,1.3264695405960083,3.929004430770874,0.3559333086013794,3.14652681350708, 3.0934317111968994
132,2517516530,0.7133038,0.27581447,-0.49624693,0.41092965,15.173748970031738,1.1722557544708252,3.8256545066833496,1.2003711462020874,2.854260206222534, 3.1804890632629395
133,2517533197,0.7133703,0.27543914,-0.49600285,0.41136062,15.096219062805176,1.3419132232666016,4.052765846252441,1.0289838314056396,3.4843578338623047, 3.2666499614715576
134,2517549864,0.71343756,0.2750773,-0.49576178,0.41177657,15.22180461883545,1.2675937414169312,4.018686771392822,0.8402311205863953,3.426985740661621, 3.0695223808288574
135,2517566531,0.71355253,0.27466485,-0.4954917,0.4121772,15.33182430267334,1.3788297176361084,4.035638809204102,0.7309032678604126,3.8302578926086426, 3.0750672817230225
136,2517583198,0.7136618,0.27420902,-0.49523798,0.4125964,15.164569854736328,1.3010950088500977,4.024974346160889,0.40883633494377136,3.9077231884002686, 3.306030035018921
137,2517599865,0.71378994,0.27372038,-0.4950315,0.41294667,15.227543830871582,1.3604285717010498,3.9267776012420654,-0.15108932554721832,3.707636833190918, 3.1248581409454346
138,2517616532,0.7138802,0.27323514,-0.4948548,0.41332376,14.991914749145508,1.4298607110977173,3.770817756652832,-0.053043898195028305,3.479747772216797, 3.4187893867492676
139,2517633199,0.71395093,0.2727857,-0.49467576,0.41371244,14.80478286743164,1.264686942100525,3.726625680923462,0.16424785554409027,3.35801100730896, 3.395597457885742
140,2517649866,0.71397305,0.2723726,-0.49454764,0.4140997,14.876333236694336,1.197439193725586,3.502204418182373,0.22804905474185944,2.851301670074463, 3.4784157276153564
141,2517666533,0.71397173,0.2720229,-0.49437523,0.4145375,14.826627731323242,1.2114222049713135,3.676427125930786,1.081284999847412,2.8912832736968994, 3.5980916023254395
142,2517683200,0.7140102,0.2716182,-0.49425358,0.4148813,14.899295806884766,1.2891626358032227,3.6804025173187256,0.20559954643249512,2.7755908966064453, 3.2788162231445312
143,2517699867,0.7139859,0.27133486,-0.49406347,0.4153348,15.003035545349121,1.116191029548645,3.606210947036743,1.2747375965118408,2.792623281478882, 3.3609306812286377
144,2517716534,0.71402484,0.27099136,-0.49384564,0.41575086,14.89987564086914,1.2210603952407837,4.079329013824463,0.9154428839683533,3.244239091873169, 3.2053208351135254
145,2517733201,0.7139792,0.2707802,-0.49360192,0.41625613,15.23758316040039,1.067258596420288,4.040103435516357,2.1586191654205322,2.866413116455078, 3.425051689147949
146,2517749868,0.7139476,0.27057832,-0.49322605,0.41688654,15.47099781036377,1.4433990716934204,4.267634391784668,2.9476566314697266,3.7796595096588135, 3.7106714248657227
147,2517766535,0.71407795,0.2700973,-0.49298197,0.41726375,15.403061866760254,1.653600811958313,4.021745204925537,0.11656980961561203,4.004898548126221, 3.249579668045044
148,2517783202,0.71420854,0.2695901,-0.49275553,0.41763553,15.201111793518066,1.4979355335235596,3.791950225830078,-0.1335190236568451,3.9991352558135986, 3.336714029312134
149,2517799869,0.7143641,0.26897076,-0.49258685,0.41796768,14.841036796569824,1.4996693134307861,3.8929290771484375,-1.0415468215942383,4.062750816345215, 3.5670297145843506
150,2517816536,0.7143799,0.268462,-0.49249536,0.4183754,14.81546401977539,1.213300108909607,3.426755905151367,-0.1775856614112854,3.0316665172576904, 4.135356426239014
151,2517833203,0.7144412,0.26778236,-0.49245346,0.41875538,14.738083839416504,1.4422775506973267,3.6854052543640137,-1.3950340747833252,3.400604486465454, 4.509288787841797
152,2517849870,0.7144985,0.26715806,-0.492408,0.41910964,14.765350341796875,1.3910869359970093,3.626810073852539,-1.1513038873672485,3.1915793418884277, 4.2258076667785645
153,2517866537,0.7143899,0.2668933,-0.4922759,0.41961843,15.060066223144531,1.1664865016937256,3.527559995651245,1.7144051790237427,2.3001163005828857, 4.10030460357666
154,2517883204,0.71432966,0.2666801,-0.49207202,0.4200955,15.057013511657715,1.329734444618225,3.9197280406951904,1.98109769821167,2.61303973197937, 3.4964988231658936
155,2517899871,0.71427244,0.26650771,-0.49186775,0.420541,15.073990821838379,1.2066535949707031,3.654839515686035,2.0827417373657227,2.4437146186828613, 3.2015304565429688
156,2517916538,0.7142898,0.2661796,-0.49168688,0.42093104,14.959073066711426,1.2666040658950806,3.668365716934204,0.8268996477127075,2.948681354522705, 3.2273857593536377
157,2517933205,0.7143829,0.26565972,-0.49155504,0.42125502,14.685603141784668,1.2484816312789917,3.692995071411133,-0.5895658731460571,3.3947901725769043, 3.4380884170532227
158,2517949872,0.71440023,0.2651764,-0.4914923,0.42160344,14.588828086853027,1.1323153972625732,3.336085319519043,-0.36677390336990356,2.733112335205078, 3.7946691513061523
159,2517966539,0.71437913,0.26474825,-0.49148268,0.4219192,14.566644668579102,1.3258103132247925,3.5442306995391846,-0.1841937154531479,2.1088919639587402, 3.715230703353882
160,2517983206,0.71428376,0.26450604,-0.49140817,0.42231914,14.8419189453125,1.290083885192871,3.7254691123962402,1.2540168762207031,1.8088008165359497, 3.5563807487487793
161,2517999873,0.7141226,0.2643741,-0.49131316,0.4227845,15.26720905303955,1.2781457901000977,3.9394779205322266,2.2136483192443848,1.4840320348739624, 3.6742513179779053
162,2518016540,0.7140419,0.2640798,-0.49117845,0.42326093,15.426873207092285,1.587842583656311,4.20298433303833,1.4098316431045532,2.447082042694092, 3.9701921939849854
163,2518033207,0.71406454,0.26352724,-0.4910705,0.42369202,15.359720230102539,1.4647892713546753,3.8154373168945312,-0.3326065242290497,3.3445000648498535, 4.3488383293151855
164,2518049874,0.7141013,0.26279077,-0.4910088,0.42415926,15.117526054382324,1.2504512071609497,3.584420919418335,-1.3647345304489136,3.791532039642334, 5.147430419921875
165,2518066541,0.7141315,0.26191202,-0.49099973,0.42466217,14.814680099487305,1.3319957256317139,3.6159636974334717,-1.8867853879928589,3.957592248916626, 6.041211128234863
166,2518083208,0.714014,0.26107877,-0.49106178,0.4253005,14.783330917358398,1.1415470838546753,3.4107682704925537,-1.367026686668396,3.2755637168884277, 6.989931106567383
167,2518099875,0.71386814,0.2602148,-0.49114466,0.42597854,14.686718940734863,1.4604599475860596,3.567563772201538,-1.3575631380081177,3.241819381713867, 7.435976505279541
168,2518116542,0.71367675,0.25934917,-0.49137646,0.42655924,14.768113136291504,1.2413088083267212,3.5769202709198,-1.982717752456665,2.1800060272216797, 7.418226718902588
169,2518133209,0.71338475,0.2588181,-0.49156505,0.4271526,14.936910629272461,1.2150304317474365,3.8445217609405518,0.20728999376296997,1.053930640220642, 6.701313495635986
170,2518149876,0.71306163,0.25863174,-0.49166745,0.42768663,15.42535400390625,1.2014604806900024,4.174381732940674,1.800028920173645,0.30847299098968506, 5.065673828125
171,2518166543,0.7130035,0.2581765,-0.49183762,0.42786315,15.605111122131348,0.9728635549545288,4.239747524261475,-1.445094347000122,1.0422642230987549, 3.5447020530700684
172,2518183210,0.712979,0.2579182,-0.49188,0.42801073,15.706683158874512,0.7342553734779358,4.656502723693848,-0.2556403577327728,1.15465247631073, 2.421776533126831
173,2518199877,0.7130122,0.2574501,-0.49199033,0.4281106,15.81941032409668,0.32545867562294006,4.438352108001709,-1.8445754051208496,1.5734843015670776, 2.788999080657959
174,2518216544,0.7133192,0.2563748,-0.49218157,0.4280249,15.87484359741211,0.36204302310943604,4.368402481079102,-6.1118574142456055,3.5512335300445557, 3.303071975708008
175,2518233211,0.7138223,0.25480637,-0.49266654,0.42756438,15.726261138916016,0.41160327196121216,4.592968940734863,-10.986647605895996,3.566185712814331, 3.086164712905884
176,2518249878,0.7141932,0.25324756,-0.4930595,0.42741787,15.904518127441406,-0.35551589727401733,4.838905334472656,-9.587374687194824,4.155360698699951, 4.683571815490723
177,2518266545,0.71457815,0.2509762,-0.49380252,0.42725664,16.284212112426758,-0.6665554642677307,5.050560474395752,-14.164298057556152,4.547801971435547, 7.594653129577637
178,2518283212,0.71507025,0.24748845,-0.49480137,0.42731237,16.117652893066406,-0.5033551454544067,4.682097911834717,-20.38683319091797,7.620006561279297, 12.865485191345215
179,2518299879,0.71626776,0.2413807,-0.49691862,0.42634243,15.6790771484375,-0.08439543098211288,3.9881393909454346,-41.23632049560547,10.482368469238281, 16.560806274414062
180,2518316546,0.7177189,0.23376377,-0.4994197,0.42522287,15.07756233215332,-0.7251631021499634,3.6839470863342285,-51.04317092895508,13.763171195983887, 20.660799026489258
181,2518333213,0.719389,0.22602478,-0.5006844,0.42509705,14.495393753051758,-1.346702218055725,3.71278715133667,-45.26122283935547,22.704978942871094, 23.137723922729492
182,2518349880,0.72087526,0.21801056,-0.5009963,0.42639562,12.880592346191406,-1.1379979848861694,1.994147777557373,-38.764713287353516,29.87849235534668, 30.067989349365234
183,2518366547,0.7213885,0.20942794,-0.503685,0.4266616,11.492836952209473,0.058697398751974106,0.8205932974815369,-50.68694305419922,14.939408302307129, 33.26224136352539
184,2518383214,0.7210889,0.20052691,-0.50768346,0.42670518,11.414586067199707,0.7282021641731262,0.7356439232826233,-55.85151672363281,6.376274585723877, 37.43210220336914
185,2518399881,0.71979475,0.19285445,-0.51160496,0.42774218,11.441834449768066,0.8904620409011841,-0.6018251776695251,-44.7984733581543,1.173288106918335, 40.829620361328125
186,2518416548,0.7174781,0.18767282,-0.5151591,0.42966875,11.633977890014648,1.3943629264831543,-1.1761422157287598,-26.968942642211914,-6.620666980743408, 38.96849060058594
187,2518433215,0.7137295,0.18575707,-0.51795626,0.43336573,11.423864364624023,0.5227574110031128,-1.4808018207550049,-0.5227072238922119,-15.211143493652344, 39.40813446044922
188,2518449882,0.70903045,0.1860416,-0.52078444,0.4375477,11.421886444091797,-0.047345299273729324,-1.084045648574829,13.170403480529785,-24.613872528076172, 36.864559173583984
189,2518466549,0.70343745,0.18844049,-0.52298826,0.44288746,11.482279777526855,-0.8163598775863647,0.607342541217804,30.627971649169922,-29.55683135986328, 36.806053161621094
190,2518483216,0.69752735,0.19238643,-0.5249869,0.4481429,12.181416511535645,0.6910036206245422,2.0414037704467773,38.8618049621582,-34.495994567871094, 31.527179718017578
191,2518499883,0.69176453,0.19620232,-0.5277748,0.45212868,12.778562545776367,-0.1946440190076828,2.4054999351501465,30.982192993164062,-38.99306869506836, 26.494667053222656
192,2518516550,0.6867626,0.20097286,-0.5306075,0.454338,13.942323684692383,2.596057415008545,2.5401103496551514,27.90645980834961,-41.80665969848633, 12.294014930725098
193,2518533217,0.6840675,0.20222664,-0.5356485,0.451926,14.930429458618164,2.330880641937256,2.8482022285461426,-15.666717529296875,-39.2155876159668, -0.7563988566398621
194,2518549884,0.68325573,0.20298938,-0.54068667,0.44678277,15.220396995544434,4.800746917724609,4.0760178565979,-30.707683563232422,-34.50832748413086, -17.57573890686035
195,2518566551,0.68307775,0.203892,-0.5452507,0.44106075,15.786067008972168,0.529440701007843,2.6873254776000977,-31.735645294189453,-31.146638870239258, -23.31127166748047
196,2518583218,0.6787162,0.21669367,-0.5431963,0.4442139,14.185595512390137,0.5777530074119568,7.56796932220459,83.33670043945312,-39.38156509399414, -22.801193237304688
197,2518599885,0.6769249,0.22279719,-0.5436474,0.44337535,16.53753662109375,-2.6164803504943848,8.653212547302246,25.681180953979492,-27.091970443725586, -20.50160026550293
198,2518616552,0.67490625,0.23067129,-0.5407429,0.4459706,15.318329811096191,-0.04106895625591278,10.34099006652832,57.371253967285156,-12.604416847229004, -15.600488662719727
199,2518633219,0.6748163,0.23264323,-0.5397798,0.4462488,17.485759735107422,-0.703609824180603,3.726015329360962,12.407305717468262,-0.21929609775543213, -7.18829870223999
200,2518649886,0.6761057,0.22949377,-0.5417711,0.44350657,18.796485900878906,1.7919903993606567,2.8571901321411133,-33.86602783203125,2.1299798488616943, -1.7151869535446167
201,2518666553,0.6786061,0.22330585,-0.5454777,0.43827242,17.521129608154297,0.7055445313453674,5.2090277671813965,-64.4969711303711,4.116334915161133, -2.9322872161865234
202,2518683220,0.67967796,0.21904415,-0.548638,0.43480325,16.65852928161621,-2.6494762897491455,4.043707847595215,-45.11643600463867,-1.7448266744613647, 1.5652995109558105
203,2518699887,0.6783291,0.22101083,-0.5492209,0.43517867,14.196457862854004,-1.5437700748443604,2.1909708976745605,9.794604301452637,-11.589676856994629, -0.6748566627502441
204,2518716554,0.67489016,0.22942415,-0.54830366,0.43732253,12.196781158447266,-0.9756491184234619,1.3466057777404785,54.261314392089844,-29.09067153930664, -12.790750503540039
205,2518733221,0.6716354,0.2376206,-0.54713684,0.43941292,11.41312313079834,-1.8558300733566284,0.49724292755126953,53.540565490722656,-26.65537452697754, -13.177780151367188
206,2518749888,0.66918963,0.24266478,-0.5464934,0.44118515,10.311147689819336,-2.6304681301116943,0.10782887041568756,34.973514556884766,-17.044086456298828, -4.3767852783203125
207,2518766555,0.6676317,0.24417415,-0.54681635,0.4423109,9.710803031921387,-1.9838049411773682,0.4476751983165741,11.979854583740234,-8.540855407714844, 4.843703746795654
208,2518783222,0.6665728,0.24348353,-0.547716,0.44317475,10.070239067077637,-1.0705468654632568,-0.11024829745292664,-1.7974103689193726,-2.9269182682037354, 11.261159896850586
209,2518799889,0.6658029,0.24189611,-0.5488261,0.44382745,11.093559265136719,0.5702320337295532,-0.0010612861951813102,-7.791235446929932,-0.3922331929206848, 13.149372100830078
210,2518816556,0.66529614,0.24023762,-0.54979765,0.44428545,11.964982032775879,1.4483050107955933,0.4594781994819641,-8.87576675415039,1.189435362815857, 11.52531909942627
211,2518833223,0.6647163,0.23907807,-0.55052835,0.44487375,12.506946563720703,0.7396379113197327,1.086377501487732,-5.195064544677734,0.6959421038627625, 10.148056983947754
212,2518849890,0.6637097,0.23897544,-0.5504071,0.44657847,13.267247200012207,-0.26076212525367737,1.9151617288589478,7.074507236480713,1.6839781999588013, 11.1411771774292
213,2518866557,0.6619076,0.23971955,-0.54925764,0.45025417,13.447731971740723,-1.4767059087753296,2.238480567932129,22.97325897216797,3.9103987216949463, 17.745834350585938
214,2518883224,0.65968,0.24056844,-0.54835624,0.45415276,12.451799392700195,-0.6255591511726379,-0.6077769994735718,24.21005630493164,1.2463117837905884, 20.049861907958984
215,2518899891,0.6567515,0.24080585,-0.54930425,0.4571158,12.361679077148438,-2.072356939315796,-3.899235486984253,13.268329620361328,-9.317273139953613, 23.331703186035156
216,2518916558,0.6521082,0.2429183,-0.55134386,0.46018007,12.89700698852539,-0.21882160007953644,-3.5647060871124268,21.674030303955078,-26.426359176635742, 23.929611206054688
217,2518933225,0.6458252,0.24513124,-0.5546445,0.46388572,12.2174072265625,-3.293034553527832,-3.3938775062561035,23.187137603759766,-37.27959442138672, 33.66357421875
218,2518949892,0.63817185,0.24733344,-0.55895185,0.4681195,11.24256420135498,-3.242826223373413,-0.8871917128562927,24.321922302246094,-45.97567367553711, 42.079307556152344
219,2518966559,0.6285632,0.25118703,-0.5628698,0.47433224,10.60140323638916,-3.1127400398254395,0.030983619391918182,43.8099365234375,-53.726016998291016, 50.01116180419922
220,2518983226,0.6177628,0.2553591,-0.5667559,0.48161045,9.978107452392578,-2.6373679637908936,1.1571812629699707,51.534305572509766,-57.432167053222656, 57.18671798706055
221,2518999893,0.60678643,0.2579812,-0.57115173,0.48891896,9.684895515441895,-1.9486768245697021,1.0727430582046509,43.69163513183594,-55.094642639160156, 64.7958984375
222,2519016560,0.5959343,0.26029325,-0.57506967,0.4963917,9.399972915649414,-1.106203556060791,0.46607306599617004,44.351470947265625,-51.17261505126953, 65.38365936279297
223,2519033227,0.5852822,0.26316923,-0.57838506,0.50364447,9.391868591308594,-1.356614351272583,0.5070698261260986,47.58094024658203,-50.320316314697266, 60.54325485229492
224,2519049894,0.5757262,0.26529157,-0.58181554,0.5095592,9.099298477172852,-0.4279153645038605,1.4443786144256592,36.747825622558594,-46.07480239868164, 54.53316116333008
225,2519066561,0.5677303,0.26564327,-0.5859469,0.5135973,9.662883758544922,-0.5967127084732056,1.0073612928390503,16.95628547668457,-39.865638732910156, 50.057125091552734
226,2519083228,0.5614235,0.26637933,-0.58885354,0.51681465,10.21169376373291,1.7247024774551392,2.1331913471221924,16.375905990600586,-31.099292755126953, 37.1480598449707
227,2519099895,0.5576331,0.26598233,-0.5915067,0.51809126,10.561821937561035,1.0566627979278564,2.3016133308410645,0.35405203700065613,-19.36661148071289, 24.92310905456543
228,2519116562,0.55601597,0.26564044,-0.5919569,0.5194888,11.576123237609863,0.3967847526073456,2.4950835704803467,4.935947895050049,-2.1054420471191406, 13.498919486999512
229,2519133229,0.5563119,0.26611364,-0.5902217,0.5209023,13.260757446289062,0.9855572581291199,1.5522540807724,12.41020393371582,11.132577896118164, -0.5022527575492859
230,2519149896,0.555095,0.2685916,-0.5881799,0.5232327,16.183259963989258,-4.468296527862549,-2.153590202331543,27.6217098236084,0.7274602055549622, -0.18847155570983887
231,2519166563,0.55393404,0.2701938,-0.5880394,0.5237959,14.458012580871582,-0.7163257002830505,4.162444591522217,10.326335906982422,-6.495422840118408, -0.05299270525574684
232,2519183230,0.55322,0.27002546,-0.5895132,0.52298015,13.103262901306152,-2.378391981124878,3.0046913623809814,-8.691469192504883,-7.01802396774292, 3.3066208362579346
233,2519199897,0.55214494,0.26991624,-0.59105915,0.5224273,11.89676284790039,-2.266321897506714,0.7516108155250549,-6.984023571014404,-8.531773567199707, 5.53251838684082
234,2519216564,0.5506985,0.27098337,-0.59219205,0.5221186,10.613606452941895,-1.9038352966308594,0.23620304465293884,0.5890539884567261,-12.084064483642578, 2.2465808391571045
235,2519233231,0.5487759,0.2734046,-0.5929665,0.5220016,9.159920692443848,-1.862601399421692,-0.8002210259437561,8.684310913085938,-17.144662857055664, -1.478712558746338
236,2519249898,0.5466986,0.27568358,-0.5938663,0.52195984,7.974414348602295,-1.4276621341705322,-1.9932345151901245,8.3152437210083,-17.552366256713867, 0.18429002165794373
237,2519266565,0.5446029,0.2778706,-0.5944471,0.5223298,7.519690036773682,-0.9638945460319519,-2.518740653991699,10.864581108093262,-15.270040512084961, 1.5813748836517334
238,2519283232,0.54273224,0.28046423,-0.59437263,0.5229749,7.87106990814209,-0.2559378147125244,-2.3113527297973633,15.450594902038574,-12.73392105102539, -1.0968270301818848
239,2519299899,0.54140544,0.28290877,-0.5940984,0.5233449,8.885763168334961,-0.7634333372116089,-1.4306095838546753,13.51152515411377,-9.816155433654785, -3.8073699474334717
240,2519316566,0.54019254,0.28542462,-0.5937736,0.523601,9.919493675231934,-1.6895023584365845,-0.03680618479847908,13.285429000854492,-9.604400634765625, -4.999693393707275
241,2519333233,0.53864086,0.28853425,-0.5933291,0.52399874,10.696563720703125,-2.4536030292510986,0.7102978229522705,17.1984806060791,-12.4652738571167, -5.893723011016846
242,2519349900,0.5370493,0.2911273,-0.5934503,0.5240612,10.710959434509277,-2.312678813934326,0.7507221698760986,11.98106575012207,-13.590486526489258, -3.7561707496643066
243,2519366567,0.53556806,0.29305968,-0.594265,0.5235761,10.004799842834473,-1.7168442010879517,0.05841972678899765,4.557783126831055,-14.348743438720703, -2.0858871936798096
244,2519383234,0.534243,0.29471117,-0.59540784,0.5227038,8.873300552368164,-1.3174375295639038,-0.5424882769584656,0.5132724642753601,-14.842337608337402, -2.233236789703369
245,2519399901,0.53299534,0.29616678,-0.5966704,0.52171457,7.7706708908081055,-1.3202816247940063,-1.1519498825073242,-1.2535121440887451,-14.50861930847168, -1.8699592351913452
246,2519416568,0.5317522,0.2977067,-0.59772265,0.5209011,7.070053577423096,-1.3586574792861938,-1.5529464483261108,0.5261427760124207,-13.618446350097656, -1.9994181394577026
247,2519433235,0.53049415,0.29910275,-0.59860486,0.52037084,7.340167999267578,-1.650445580482483,-1.2107634544372559,1.8145390748977661,-11.919502258300781, -0.6563897728919983
248,2519449902,0.5291618,0.30052313,-0.59930795,0.52009964,8.247003555297852,-1.653267502784729,-0.5857662558555603,3.757173538208008,-11.051603317260742, 0.09146939963102341
249,2519466569,0.5278319,0.30173215,-0.6002287,0.519689,9.833795547485352,-1.3009369373321533,0.4805574119091034,1.6796751022338867,-11.469526290893555, 0.9078746438026428
250,2519483236,0.5265995,0.3024602,-0.60202205,0.5184404,10.457352638244629,-0.7664437294006348,0.6807999014854431,-6.832142353057861,-14.30905818939209, 1.3521019220352173
251,2519499903,0.52502203,0.30356392,-0.60413855,0.51693076,9.099105834960938,-1.0869827270507812,-0.06372478604316711,-7.050021171569824,-18.637950897216797, 0.8273105025291443
252,2519516570,0.5228564,0.30610088,-0.6056975,0.51580447,7.136735916137695,-1.6767728328704834,-1.0781481266021729,2.9594573974609375,-23.452531814575195, -2.7796237468719482
253,2519533237,0.5204219,0.3091069,-0.6068493,0.5151194,6.205876350402832,-1.940577745437622,-1.6095153093338013,8.577271461486816,-24.0407772064209, -3.066667318344116
254,2519549904,0.5178419,0.31245887,-0.60750425,0.51492506,6.812850475311279,-1.3179339170455933,-1.5624449253082275,13.897917747497559,-22.864622116088867, -3.2984890937805176
255,2519566571,0.51546556,0.31562233,-0.60802495,0.5147654,8.480591773986816,-0.6289427876472473,-0.7874268293380737,13.462058067321777,-20.888751983642578, -3.4028983116149902
256,2519583238,0.51352316,0.31806472,-0.60900426,0.5140453,9.286517143249512,-0.8328191041946411,0.036194413900375366,6.036645412445068,-19.461593627929688, -2.8828542232513428
257,2519599905,0.51194656,0.31973004,-0.61034673,0.5129915,8.327385902404785,-1.274232268333435,-0.6208733916282654,-0.2133668214082718,-17.127511978149414, -1.246558666229248
258,2519616572,0.51091915,0.32024696,-0.61186296,0.51188606,7.346290111541748,-1.2373558282852173,-1.651525855064392,-6.336662292480469,-11.321972846984863, 1.8937207460403442
259,2519633239,0.51060134,0.31977606,-0.61306196,0.51106215,7.53444766998291,-0.7002268433570862,-1.8117737770080566,-8.977548599243164,-3.393043279647827, 3.8069510459899902
260,2519649906,0.51101315,0.31816852,-0.6139953,0.5105333,7.9448723793029785,-0.7604902982711792,-1.671924352645874,-12.442161560058594,5.532238960266113, 6.584474086761475
261,2519666573,0.5120621,0.31587878,-0.61423564,0.5106151,7.817169666290283,-0.6848008632659912,-1.4439971446990967,-11.304770469665527,14.826834678649902, 8.01266860961914
262,2519683240,0.51401967,0.31290376,-0.61327505,0.5116335,8.2522611618042,-0.6765684485435486,-2.076992988586426,-7.479596138000488,27.164058685302734, 8.392570495605469
263,2519699907,0.5173364,0.30863246,-0.6111719,0.5133985,7.898279190063477,-0.36481451988220215,0.08258336782455444,-7.775147438049316,42.970218658447266, 9.256308555603027
264,2519716574,0.52125514,0.30374917,-0.60814685,0.5159332,8.91356372833252,-0.9101847410202026,-1.9547442197799683,-4.889822959899902,53.09549331665039, 10.669113159179688
265,2519733241,0.52643615,0.2976194,-0.6050492,0.5178833,8.193879127502441,-0.3537309467792511,-0.587378740310669,-14.130010604858398,61.65958023071289, 9.145509719848633
266,2519749908,0.5321457,0.29215688,-0.601018,0.51984894,10.941351890563965,-1.043243408203125,-0.034025125205516815,-9.440406799316406,64.95043182373047, 2.7032878398895264
267,2519766575,0.5387958,0.28714335,-0.597278,0.52010274,12.251523971557617,-0.5275422930717468,1.3581780195236206,-17.857280731201172,62.83115768432617, -8.104059219360352
268,2519783242,0.5473921,0.2806613,-0.5944663,0.51788133,12.24756145477295,-0.8848536014556885,1.5248266458511353,-40.709903717041016,67.82982635498047, -16.236919403076172
269,2519799909,0.5572106,0.2799847,-0.58108664,0.52293736,11.071925163269043,-3.1552913188934326,4.124967575073242,46.0814094543457,105.94937133789062, -37.261329650878906
270,2519816576,0.56245494,0.2793813,-0.57309616,0.5264518,-2.0179171562194824,-2.8491158485412598,-3.143892526626587,29.79838752746582,62.84446716308594, -16.89215087890625
271,2519833243,0.5625946,0.2833288,-0.5666509,0.53114855,-2.909054756164551,-3.5929510593414307,-7.109534740447998,56.363739013671875,22.403308868408203, -9.033692359924316
272,2519849910,0.5599727,0.28871164,-0.5634249,0.5344421,-0.26185011863708496,-2.3926141262054443,-3.7435805797576904,50.40172576904297,-9.429864883422852, -4.071996688842773
273,2519866577,0.5534997,0.29327366,-0.5675765,0.5343086,2.025425910949707,-3.9346094131469727,-5.891297817230225,14.552916526794434,-56.44183349609375, 14.59131145477295
274,2519883244,0.54105157,0.29927412,-0.5787514,0.53173786,1.3513541221618652,-4.005620956420898,-7.049674034118652,-3.146864175796509,-116.51115417480469, 35.6748046875
275,2519899911,0.5227859,0.30861974,-0.59339416,0.52851886,-0.9057998061180115,-3.28322696685791,-1.7974638938903809,6.112583637237549,-165.9268035888672, 48.20602035522461
276,2519916578,0.5030958,0.3199084,-0.60743105,0.52495795,-2.6834752559661865,0.8760451078414917,6.768873691558838,16.878087997436523,-176.92127990722656, 42.876468658447266
277,2519933245,0.48895755,0.32602215,-0.619616,0.52029425,-1.8521751165390015,2.5159335136413574,16.73686981201172,-11.280969619750977,-131.0162811279297, 36.630775451660156
278,2519949912,0.48179275,0.32455996,-0.6313562,0.5137374,5.096434116363525,0.38769370317459106,4.381882190704346,-59.051937103271484,-77.38565826416016, 36.73344039916992
279,2519966579,0.4669468,0.33551624,-0.63659567,0.5139409,17.626556396484375,-3.3515658378601074,-5.151499271392822,51.28798294067383,-116.70445251464844, 18.33162498474121
280,2519983246,0.4552482,0.34336317,-0.64346707,0.51068664,11.233023643493652,5.415198802947998,2.514676094055176,13.391091346740723,-106.13416290283203, 13.274882316589355
281,2519999913,0.44449076,0.35085055,-0.65189624,0.50434434,9.704554557800293,2.176212787628174,-0.7691954970359802,-9.105917930603027,-112.77735900878906, 6.0027923583984375
282,2520016580,0.4338653,0.35960984,-0.6568144,0.50103563,2.5318808555603027,0.9457758069038391,-3.9241995811462402,20.243732452392578,-98.14424896240234, 0.9907534122467041
283,2520033247,0.42613348,0.36671025,-0.6586317,0.5001383,1.3660318851470947,0.7226186394691467,-6.540255069732666,29.809175491333008,-64.2131576538086, -1.9628448486328125
284,2520049914,0.42389694,0.36996955,-0.6589234,0.49925366,2.087891101837158,-0.9863430857658386,-5.699116230010986,10.159177780151367,-22.213369369506836, -7.507393836975098
285,2520066581,0.42489916,0.3719877,-0.6558905,0.50089294,6.135989665985107,-4.122673988342285,-3.7653250694274902,21.186315536499023,13.169057846069336, -14.074514389038086
286,2520083248,0.4281034,0.37252808,-0.65112585,0.50396997,9.532649993896484,-3.2119367122650146,-1.4385067224502563,23.70094871520996,36.78862380981445, -15.391183853149414
287,2520099915,0.43419635,0.3694955,-0.64684606,0.50649464,9.909575462341309,-0.5932972431182861,-2.641779661178589,1.6387914419174194,58.82997131347656, -9.933305740356445
288,2520116582,0.44320956,0.36386883,-0.6416403,0.50937474,8.239758491516113,1.9760704040527344,-5.162193298339844,-8.727368354797363,84.56855010986328, -9.73526668548584
289,2520133249,0.45402858,0.35629416,-0.6346298,0.5139627,5.562093257904053,2.0301241874694824,-5.884521484375,-5.334494113922119,109.53213500976562, -6.480570316314697
290,2520149916,0.4662154,0.34777632,-0.6252936,0.5202911,7.519060134887695,2.2463202476501465,-3.5154314041137695,4.2191314697265625,130.27369689941406, -7.405561923980713
291,2520166583,0.48051617,0.3366304,-0.61646944,0.52511877,10.711923599243164,1.747017502784729,0.4452909529209137,-17.546157836914062,143.3502655029297, -7.166051864624023
292,2520183250,0.49615696,0.32476574,-0.60900086,0.52675766,13.628273010253906,-1.06864333152771,7.2495927810668945,-41.59550094604492,140.1763458251953, -15.945939064025879
293,2520199917,0.50838256,0.31709507,-0.60306376,0.5266042,4.673555374145508,-0.3669572174549103,2.390380859375,-32.85825729370117,100.96905517578125, -23.760969161987305
294,2520216584,0.5141315,0.31528714,-0.5978484,0.52805316,-0.20866909623146057,-2.9844112396240234,-4.136555194854736,5.730350017547607,53.59107971191406, -17.48702621459961
295,2520233251,0.5130283,0.32072908,-0.5926359,0.53171194,2.0066545009613037,-3.794156312942505,-5.90759801864624,55.43531799316406,3.4494497776031494, -15.01660442352295
296,2520249918,0.50381917,0.33098665,-0.5934975,0.5332684,1.679932951927185,-6.680305004119873,-9.097148895263672,59.725067138671875,-73.588134765625, 0.551145076751709
297,2520266585,0.4890006,0.34305906,-0.6023295,0.5295169,-1.6193151473999023,-5.474417686462402,-4.846621036529541,28.16889762878418,-143.2081298828125, 12.8452730178833
298,2520283252,0.47375467,0.3541323,-0.6135455,0.52317214,-8.232160568237305,-0.7642603516578674,4.41799259185791,6.474018573760986,-155.34158325195312, 15.099234580993652
299,2520299919,0.46457157,0.3582962,-0.6235658,0.51668453,-14.682291984558105,4.636280059814453,13.87032413482666,-27.178518295288086,-101.40594482421875, 18.931455612182617
300,2520316586,0.46324235,0.35533682,-0.63098156,0.51088613,-14.300230026245117,4.794976711273193,13.665657997131348,-57.30704879760742,-32.42574691772461, 17.5665225982666
301,2520333253,0.46649697,0.34911114,-0.6349358,0.50730544,-10.763749122619629,4.158755779266357,6.029298782348633,-57.377201080322266,15.645001411437988, 14.602306365966797
302,2520349920,0.46311715,0.34406283,-0.6422598,0.5046245,6.718383312225342,-11.54167366027832,-37.332584381103516,-45.61016845703125,-25.871994018554688, 43.80024719238281
303,2520366587,0.45199743,0.35298255,-0.6427266,0.50794125,9.894912719726562,7.614712715148926,12.637145042419434,67.92147064208984,-71.33734893798828, 11.208203315734863
304,2520383254,0.44403037,0.354003,-0.64964443,0.5054515,17.63759994506836,-8.415281295776367,5.419398307800293,-12.628171920776367,-64.5197525024414, 33.235435485839844
305,2520399921,0.4309738,0.36302277,-0.6500802,0.5097761,14.3319091796875,0.028049174696207047,4.815988063812256,77.0282974243164,-78.3778076171875, 20.404287338256836
306,2520416588,0.42200145,0.3687881,-0.6530865,0.50930196,15.678385734558105,-0.13008004426956177,1.3236340284347534,26.698442459106445,-69.88861846923828, 12.396598815917969
307,2520433255,0.41618437,0.37175542,-0.6569483,0.5069593,9.52431583404541,1.926801085472107,-2.4798943996429443,-0.8300519585609436,-52.680416107177734, 11.150813102722168
308,2520449922,0.41405818,0.37305743,-0.6586055,0.50559187,3.791837692260742,0.20985624194145203,-5.3343682289123535,-2.9052276611328125,-21.48856544494629, 3.0770061016082764
309,2520466589,0.416438,0.37252805,-0.65759176,0.5053469,1.8292559385299683,-0.08016946911811829,-6.4174957275390625,-5.265233993530273,15.596492767333984, -8.118208885192871
310,2520483256,0.4237639,0.36891204,-0.6552055,0.5050091,3.565882682800293,-0.2845284938812256,-5.177140712738037,-22.371795654296875,52.96418762207031, -14.967878341674805
311,2520499923,0.43535885,0.36107853,-0.6522171,0.5046761,6.998037338256836,-0.5887373089790344,-2.0960006713867188,-43.36455535888672,88.98649597167969, -12.17551040649414
312,2520516590,0.45025596,0.34944597,-0.64934444,0.503497,11.13991928100586,1.6693776845932007,0.5703730583190918,-67.1717758178711,114.6432113647461, -8.733399391174316
313,2520533257,0.46724662,0.33952087,-0.6402746,0.5064136,15.581337928771973,-0.5685393214225769,7.271408557891846,-27.297941207885742,147.9281463623047, -25.081886291503906
314,2520549924,0.48084715,0.33237663,-0.6291504,0.5123296,1.9325860738754272,-1.2777243852615356,0.8126635551452637,9.78257942199707,135.8474884033203, -21.016504287719727
315,2520566591,0.48905838,0.329477,-0.62204957,0.51509345,-1.426600694656372,-3.5803632736206055,-5.637942790985107,8.289411544799805,76.7939453125, -21.87572479248047
316,2520583258,0.49148107,0.33159998,-0.6165176,0.5180678,-3.797208547592163,-2.7416043281555176,-5.142446041107178,33.667606353759766,29.684438705444336, -18.792373657226562
317,2520599925,0.49217454,0.33223447,-0.61764157,0.5156584,-3.7515814304351807,-3.376771926879883,-5.481296539306641,-13.832063674926758,-7.567306041717529, -9.907514572143555
318,2520616592,0.49031016,0.33191273,-0.62371105,0.51030856,-6.768145561218262,-4.376063346862793,-5.292311191558838,-41.193477630615234,-38.362640380859375, 4.357364177703857
319,2520633259,0.48385623,0.33389583,-0.62887335,0.50883704,-9.41718864440918,-3.6908445358276367,-2.652437925338745,-3.142202854156494,-53.55516052246094, 21.67230796813965
320,2520649926,0.4754156,0.33765832,-0.6306934,0.51204777,-12.862299919128418,0.7020869851112366,5.347163200378418,39.290672302246094,-46.32586669921875, 28.676620483398438
321,2520666593,0.47005296,0.33912486,-0.63381666,0.5121729,-10.09975528717041,0.981903076171875,5.804934501647949,6.649720191955566,-36.9453239440918, 20.35092544555664
322,2520683260,0.46730244,0.3393445,-0.63779384,0.5096006,-8.099333763122559,3.3177947998046875,5.267306327819824,-18.296428680419922,-30.159404754638672, 9.972986221313477
323,2520699927,0.4656048,0.33964267,-0.6396034,0.5086872,-6.732840538024902,1.131410837173462,6.3758463859558105,-5.7079997062683105,-14.296638488769531, 6.823107719421387
324,2520716594,0.46384794,0.3332941,-0.64807904,0.50373983,1.5127143859863281,-9.359219551086426,-20.09636116027832,-67.93875122070312,-22.992403030395508, 38.399253845214844
325,2520733261,0.4509616,0.34434396,-0.64782834,0.5083103,11.004507064819336,4.959884166717529,4.551431179046631,85.85202026367188,-81.6833267211914, 10.14023494720459
326,2520749928,0.44253522,0.34772262,-0.65396637,0.5055491,11.110860824584961,0.49128228425979614,6.834033012390137,-3.514492988586426,-73.21697235107422, 20.854869842529297
327,2520766595,0.43078864,0.35540348,-0.65912664,0.5036485,13.612465858459473,-0.6864247918128967,3.8879201412200928,24.72533416748047,-98.23766326904297, 13.551971435546875
328,2520783262,0.41891497,0.3659682,-0.66001266,0.5049365,15.043996810913086,5.619433403015137,-0.5725467801094055,62.78619384765625,-88.82063293457031, -0.13776364922523499
329,2520799929,0.41062093,0.37294003,-0.6627932,0.50300235,9.484810829162598,1.459612488746643,-0.42735952138900757,22.22498893737793,-74.25164794921875, -0.7774899005889893
330,2520816596,0.40530428,0.37778524,-0.66410154,0.50197214,4.93180513381958,0.095926433801651,-3.3533501625061035,17.801050186157227,-46.97802734375, -2.538830280303955
331,2520833263,0.4047579,0.37952536,-0.6631221,0.5023949,1.4269883632659912,-0.3651546537876129,-5.533996105194092,11.308917045593262,-4.346132278442383, -6.7528181076049805
332,2520849930,0.40900382,0.3770021,-0.6607382,0.5039946,2.247019052505493,-0.30374911427497864,-5.058410167694092,-2.807154417037964,39.31460189819336, -4.3202714920043945
333,2520866597,0.4170425,0.372847,-0.6556449,0.5071395,4.819521903991699,0.4344083070755005,-3.6649928092956543,-0.7790770530700684,74.07140350341797, -12.666476249694824
334,2520883264,0.42902777,0.36522487,-0.65055203,0.50924283,9.05785083770752,0.548423707485199,0.48205435276031494,-25.545473098754883,100.8889389038086, -14.058730125427246
335,2520899931,0.4440251,0.35453552,-0.6470645,0.5083836,10.849448204040527,1.1702051162719727,2.863377332687378,-61.016143798828125,113.79194641113281, -14.875100135803223
336,2520916598,0.45818162,0.3490204,-0.639202,0.50958353,9.147625923156738,-1.1441221237182617,7.060000419616699,-18.77410316467285,110.4923095703125, -39.014373779296875
337,2520933265,0.46870467,0.34324318,-0.63330084,0.5113026,-0.7056413888931274,-3.7789764404296875,-0.5410727858543396,-15.553107261657715,89.88407135009766, -19.068700790405273
338,2520949932,0.47364312,0.34153256,-0.62813246,0.51426387,-3.3127670288085938,-2.4507858753204346,-3.575617790222168,13.559410095214844,51.88764572143555, -11.565075874328613
339,2520966599,0.47529194,0.34149334,-0.62579376,0.51561826,-4.481016159057617,-1.8418505191802979,-5.588057041168213,9.826756477355957,18.568166732788086, -6.127669334411621
340,2520983266,0.47461203,0.34128565,-0.6276693,0.5141002,-4.828483581542969,-2.46760892868042,-3.5267834663391113,-12.498446464538574,-11.426219940185547, 3.0727267265319824
341,2520999933,0.47247532,0.34031028,-0.6310383,0.5125885,-7.879417419433594,-1.4103609323501587,-1.3347032070159912,-16.81304931640625,-19.667055130004883, 14.996071815490723
342,2521016600,0.47056755,0.3389161,-0.63240147,0.51358604,-12.531012535095215,2.627873659133911,5.307346820831299,-0.7584826946258545,-4.0934014320373535, 19.873489379882812
343,2521033267,0.47129378,0.3342009,-0.63540834,0.5122973,-11.722611427307129,0.4058733582496643,4.25890588760376,-33.424400329589844,8.24051570892334, 21.35162925720215
344,2521049934,0.47061136,0.33198234,-0.63680494,0.5126329,-8.313844680786133,1.6963075399398804,0.8219766020774841,-9.353169441223145,2.8831043243408203, 17.48128890991211
345,2521066601,0.46864155,0.33208042,-0.63799566,0.51289314,-6.766820430755615,0.47535890340805054,-1.0136641263961792,1.47021484375,-10.0132417678833, 11.472890853881836
346,2521083268,0.4641972,0.33397266,-0.6401543,0.51301646,-4.773184299468994,0.11602043360471725,-1.8513909578323364,8.88749885559082,-31.166540145874023, 13.570032119750977
347,2521099935,0.45942646,0.33344498,-0.6470271,0.50901645,-1.6101279258728027,-2.890258550643921,-10.392118453979492,-32.83816909790039,-48.43873596191406, 23.08102798461914
348,2521116602,0.4470472,0.34183562,-0.64956886,0.51123136,6.276625633239746,-0.8944917321205139,-2.0214171409606934,55.6868896484375,-84.99942016601562, 19.892026901245117
349,2521133269,0.43831718,0.34521323,-0.654908,0.5097071,6.278903961181641,-1.6245065927505493,6.275526523590088,5.139272689819336,-69.28365325927734, 23.904464721679688
350,2521149936,0.4273209,0.34986812,-0.6631437,0.5052027,13.265205383300781,-2.59234619140625,6.2778239250183105,-9.194916725158691,-99.32955169677734, 24.543123245239258
351,2521166603,0.41556427,0.356721,-0.6695649,0.5017366,14.804342269897461,2.680889844894409,2.33805513381958,10.085100173950195,-102.86479949951172, 15.8973970413208
352,2521183270,0.40737268,0.36204663,-0.6739953,0.4986986,10.581214904785156,3.034924268722534,-0.8498368859291077,5.784276485443115,-74.85840606689453, 6.980284690856934
353,2521199937,0.40299356,0.3651477,-0.6761197,0.4971172,5.929389476776123,2.14920973777771,-2.6740336418151855,4.745028495788574,-39.523624420166016, 2.732384443283081
354,2521216604,0.4015831,0.36679488,-0.6754402,0.49796912,1.626182198524475,0.5657720565795898,-5.040574550628662,14.195960998535156,-6.811678409576416, -0.8292375802993774
355,2521233271,0.40431333,0.36493632,-0.6738515,0.4992761,0.4114850163459778,0.6582602858543396,-6.175598621368408,-0.6602843999862671,28.212909698486328, 0.2603602111339569
356,2521249938,0.41148394,0.36058143,-0.6703783,0.50125355,2.9121553897857666,-0.0666498914361,-3.995070695877075,-9.154998779296875,64.26626586914062, -6.403756618499756
357,2521266605,0.4223886,0.35344768,-0.6662105,0.50281835,6.158955097198486,-1.14157235622406,-0.23919716477394104,-25.689743041992188,92.74237823486328, -8.780592918395996
358,2521283272,0.43645367,0.34267876,-0.6640854,0.501069,9.210104942321777,0.06822013109922409,3.1340107917785645,-66.24563598632812,105.55738067626953, -7.838237285614014
359,2521299939,0.45139906,0.33127433,-0.6629502,0.4969842,9.059294700622559,0.26126423478126526,4.552633285522461,-84.33374786376953,103.7246322631836, -12.00277042388916
360,2521316606,0.4632613,0.3272425,-0.65488243,0.49943015,3.585505247116089,-2.8391544818878174,6.230750560760498,-1.057090401649475,101.20146942138672, -30.01174545288086
361,2521333273,0.4706936,0.32342595,-0.6511259,0.49987817,-3.9651341438293457,-1.7944843769073486,-2.6080996990203857,-14.335561752319336,61.532920837402344, -13.04192066192627
362,2521349940,0.47289667,0.3243557,-0.64788246,0.50140876,-5.096090793609619,-1.9746794700622559,-5.655150413513184,15.73659896850586,22.6846923828125, -11.761079788208008
363,2521366607,0.4728681,0.32587674,-0.64786994,0.50046456,-3.7420265674591064,-2.9473764896392822,-6.314082622528076,0.5144761800765991,-5.556485652923584, -8.066493034362793
364,2521383274,0.46966544,0.3291094,-0.6501532,0.49839988,-4.533167362213135,-0.38666340708732605,-5.677027702331543,0.35580676794052124,-35.2961311340332, -3.3222506046295166
365,2521399941,0.4637456,0.33279926,-0.6534915,0.49712545,-8.233211517333984,-1.0009639263153076,-2.083329916000366,7.949764728546143,-50.650634765625, 8.653250694274902
366,2521416608,0.45588204,0.33899224,-0.65419257,0.4992875,-11.956411361694336,2.316999673843384,5.0333638191223145,44.85592269897461,-51.77580261230469, 8.690439224243164
367,2521433275,0.4503645,0.34380448,-0.6564889,0.4979887,-11.3695068359375,1.5242760181427002,5.396753311157227,13.976170539855957,-49.97166061401367, -0.6208577752113342
368,2521449942,0.44622403,0.35012692,-0.6549721,0.49930668,-10.590617179870605,3.8699347972869873,4.866497993469238,40.214603424072266,-31.305707931518555, -13.361212730407715
369,2521466609,0.44660237,0.35180286,-0.6539825,0.4990873,-9.847431182861328,3.418355941772461,4.482156276702881,6.285150051116943,-0.977983295917511, -11.888041496276855
370,2521483276,0.4491711,0.34756434,-0.6568375,0.49599287,-6.16005277633667,-0.7488200664520264,-8.541175842285156,-43.296531677246094,10.623167037963867, 7.943995952606201
371,2521499943,0.44184765,0.34934345,-0.6604534,0.49651918,10.083354949951172,-10.6196928024292,-21.67437744140625,12.810943603515625,-47.154876708984375, 28.242450714111328
372,2521516610,0.4365942,0.3500318,-0.6643912,0.4954266,4.088527202606201,2.5708322525024414,17.197847366333008,-3.906156539916992,-39.75447082519531, 20.49846839904785
373,2521533277,0.43048406,0.34777883,-0.6745317,0.48861068,14.335175514221191,-6.470797538757324,6.908169269561768,-57.923404693603516,-65.11502838134766, 36.106475830078125
374,2521549944,0.41925168,0.35264444,-0.6798309,0.48754478,12.482088088989258,2.4993808269500732,2.397231340408325,18.339370727539062,-84.51795196533203, 26.168684005737305
375,2521566611,0.4122265,0.35619822,-0.6851659,0.48346677,11.306097984313965,4.714512348175049,-1.726364254951477,-9.90205192565918,-68.41498565673828, 9.395648002624512
376,2521583278,0.4075453,0.35812923,-0.6898955,0.47926444,5.255451202392578,2.706228017807007,-1.944314956665039,-18.6826229095459,-50.15266418457031, 8.103334426879883
377,2521599945,0.4056139,0.3577289,-0.6940451,0.47519353,3.0258686542510986,0.9111264944076538,-4.321739196777344,-29.41265869140625,-27.493783950805664, 9.146919250488281
378,2521616612,0.40681982,0.35580423,-0.69566154,0.47324008,3.0641543865203857,0.3510562479496002,-3.320902109146118,-22.899616241455078,5.059408664703369, 6.163100242614746
379,2521633279,0.41174218,0.3526018,-0.6940798,0.47370225,4.963547229766846,0.7857853770256042,-2.918764114379883,-13.506488800048828,42.29048538208008, -0.42203614115715027
380,2521649946,0.42062157,0.34910983,-0.6890282,0.47585726,6.990762710571289,1.7285335063934326,0.24213948845863342,-4.6133928298950195,75.84518432617188, -15.715492248535156
381,2521666613,0.43229043,0.3431896,-0.6842931,0.4765386,8.094632148742676,0.7315824627876282,1.7637892961502075,-26.442398071289062,92.34144592285156, -16.878551483154297
382,2521683280,0.44459382,0.33653414,-0.67900264,0.4775317,7.102286338806152,-0.9888911843299866,3.945607900619507,-26.906723022460938,100.15174102783203, -15.621048927307129
383,2521699947,0.45297348,0.3373543,-0.6658364,0.48751336,0.096821129322052,-3.189178228378296,3.4013588428497314,72.72529602050781,102.00028228759766, -28.418560028076172
384,2521716614,0.4566566,0.33846065,-0.659694,0.49164316,-3.12795090675354,-2.820824384689331,-3.0605530738830566,33.99644088745117,42.76362991333008, -17.459226608276367
385,2521733281,0.4562926,0.3426844,-0.65486336,0.49549842,-5.8900604248046875,-2.4743072986602783,-5.012028694152832,47.55257797241211,9.407302856445312, -15.668352127075195
386,2521749948,0.4547098,0.3469263,-0.6523154,0.49735874,-3.6049535274505615,-0.2608776390552521,-5.229460716247559,33.7127685546875,-8.717633247375488, -13.565321922302246
387,2521766615,0.45417306,0.34838778,-0.6532843,0.49555278,-5.135241985321045,2.1048505306243896,-2.2633681297302246,-5.925721645355225,-14.474493026733398, -8.18591594696045
388,2521783282,0.45067325,0.35027945,-0.65368253,0.49688745,-9.477707862854004,-0.09942853450775146,0.7412511110305786,18.594547271728516,-19.65069580078125, 8.654446601867676
389,2521799949,0.44466406,0.35474235,-0.6521229,0.50116646,-12.063220977783203,-0.05963282287120819,6.666419982910156,52.49945068359375,-26.855918884277344, 9.665182113647461
390,2521816616,0.43657318,0.36145094,-0.6498315,0.5064347,-8.167525291442871,-1.156772494316101,0.167813241481781,71.31608581542969,-39.8284912109375, 7.504167556762695
391,2521833283,0.43020335,0.3682915,-0.6474311,0.51001906,-7.876738548278809,2.7784264087677,2.3189585208892822,60.25092315673828,-36.76581954956055, -4.7934112548828125
392,2521849950,0.42581826,0.37362447,-0.64632076,0.51122737,-7.3503899574279785,2.2291955947875977,1.2490603923797607,35.6355094909668,-32.61289978027344, -8.848751068115234
393,2521866617,0.42468512,0.3762553,-0.64789647,0.5082371,-6.193216800689697,2.1121110916137695,0.17546412348747253,-8.785008430480957,-27.785064697265625, -14.096269607543945
394,2521883284,0.41950095,0.37704214,-0.6523182,0.5062997,-0.27256321907043457,-10.999990463256836,-17.993085861206055,-8.945759773254395,-44.813209533691406, 18.831560134887695
395,2521899951,0.4051589,0.38898167,-0.64999205,0.5119083,10.02076244354248,0.07285921275615692,3.5570526123046875,104.41261291503906,-84.86676025390625, 5.0154337882995605
396,2521916618,0.3980588,0.39014095,-0.65456975,0.5107619,9.111119270324707,-1.8516989946365356,8.15381908416748,0.25458699464797974,-53.26797866821289, 26.390289306640625
397,2521933285,0.38927668,0.39245948,-0.6610554,0.50739044,14.167732238769531,-1.1112219095230103,4.331182956695557,-8.83584213256836,-75.92094421386719, 26.562292098999023
398,2521949952,0.38060483,0.3955702,-0.6665378,0.5043726,11.60975456237793,4.661509037017822,-0.08220431953668594,-1.99675714969635,-74.65158081054688, 21.013608932495117
399,2521966619,0.37453184,0.39798644,-0.67108524,0.50097644,6.552741050720215,3.769336462020874,-3.37225079536438,-9.337575912475586,-58.67866134643555, 12.178605079650879
400,2521983286,0.371388,0.39827195,-0.67543226,0.49723414,3.842491865158081,2.430506467819214,-4.355722904205322,-23.721866607666016,-38.14830017089844, 10.679608345031738
401,2521999953,0.37210435,0.39776447,-0.6754477,0.49708387,3.301459312438965,0.03188783675432205,-3.6943230628967285,-4.7433953285217285,3.675518274307251, -1.2640635967254639
402,2522016620,0.3776747,0.3941644,-0.6735154,0.49837065,2.5628504753112793,-1.4162156581878662,-2.720499277114868,-12.538118362426758,45.87197494506836, -5.049468994140625
403,2522033287,0.38755986,0.38724217,-0.67080957,0.49985552,3.9593164920806885,-0.8596940040588379,-1.656711220741272,-29.17923355102539,80.15443420410156, -5.782304763793945
404,2522049954,0.40111396,0.37658548,-0.6692186,0.49943736,6.0444560050964355,0.652531623840332,0.6734685897827148,-61.423606872558594,102.14618682861328, -3.0505738258361816
405,2522066621,0.41684613,0.36394522,-0.66725546,0.49855134,6.765352249145508,0.6139553189277649,1.9518946409225464,-73.2527084350586,119.51412200927734, -2.8062446117401123
406,2522083288,0.4318658,0.35408273,-0.6608666,0.5013708,4.058002471923828,-1.119635820388794,2.758551597595215,-31.278642654418945,129.1444549560547, -12.883459091186523
407,2522099955,0.44280183,0.34900042,-0.64895535,0.51086444,-1.8490747213363647,-2.992403507232666,1.0274877548217773,42.154048919677734,126.55195617675781, -14.303296089172363
408,2522116622,0.44914132,0.34598988,-0.6426486,0.5153309,-4.126708984375,-2.6772804260253906,-3.642828941345215,17.295652389526367,68.78068542480469, -10.32735538482666
409,2522133289,0.4503505,0.34773347,-0.6374546,0.5195359,-5.831438064575195,-2.9204304218292236,-6.664484024047852,39.12948989868164,25.38824462890625, -11.375090599060059
410,2522149956,0.4478933,0.3521111,-0.6334503,0.52359354,-4.5095696449279785,-2.623685836791992,-7.279409408569336,51.20723342895508,-4.15235710144043, -7.808975696563721
411,2522166623,0.4462178,0.3542064,-0.6333385,0.5237461,-7.17865514755249,1.466623306274414,-0.818166971206665,11.300406455993652,-14.276522636413574, -3.918184280395508
412,2522183290,0.44518986,0.35288724,-0.63646275,0.5217203,-10.406890869140625,0.04323998838663101,1.3085473775863647,-21.891077041625977,-14.371208190917969, 9.786209106445312
413,2522199957,0.44425738,0.35118115,-0.640484,0.5187365,-11.357784271240234,0.8452683687210083,5.850483417510986,-30.715667724609375,-17.382078170776367, 10.556036949157715
414,2522216624,0.44230652,0.35121065,-0.6448804,0.51492274,-8.187297821044922,-0.15820591151714325,-0.8613282442092896,-27.971485137939453,-30.970966339111328, 5.218959331512451
415,2522233291,0.4410213,0.3521058,-0.6494375,0.50965947,-6.850297451019287,2.6398189067840576,-0.7413061857223511,-33.94105529785156,-35.01933288574219, -5.070550441741943
416,2522249958,0.43961924,0.3528543,-0.6562916,0.5015079,-6.121818542480469,2.9931657314300537,-1.4504026174545288,-55.01873016357422,-48.5765495300293, -6.778106689453125
417,2522266625,0.43549576,0.35495037,-0.6617858,0.49638018,-3.9995436668395996,-0.4385339319705963,-0.8300462961196899,-25.997713088989258,-53.933780670166016, 2.479910135269165
418,2522283292,0.43034852,0.3546725,-0.6669175,0.49419504,3.954200267791748,-5.740355968475342,-9.072921752929688,-16.01246452331543,-42.40591812133789, 24.408796310424805
419,2522299959,0.4257862,0.3547438,-0.6724955,0.4905232,7.57692289352417,1.4933764934539795,8.885085105895996,-24.63898277282715,-45.2775764465332, 17.824569702148438
420,2522316626,0.41851467,0.35237736,-0.6862458,0.47931454,10.014678001403809,-2.728749990463257,5.78927755355835,-87.54383087158203,-91.57544708251953, 37.00566101074219
421,2522333293,0.4064444,0.35551,-0.6963409,0.47278425,14.401290893554688,-1.9161078929901123,5.768468856811523,-25.865732192993164,-110.12017059326172, 32.29381561279297
422,2522349960,0.395686,0.3596112,-0.7020266,0.47039467,12.430777549743652,2.4161674976348877,0.2749382257461548,7.830805778503418,-84.61327362060547, 24.542938232421875
423,2522366627,0.38870814,0.36172506,-0.7073088,0.46666402,6.191629886627197,1.9725327491760254,-2.9277541637420654,-11.991984367370605,-62.094444274902344, 17.685667037963867
424,2522383294,0.38459975,0.36179045,-0.711198,0.4640994,3.0122952461242676,1.3313171863555908,-3.5565924644470215,-14.416618347167969,-34.981014251708984, 18.14171028137207
425,2522399961,0.38365862,0.36098868,-0.71205044,0.46419552,1.9531491994857788,0.9156489968299866,-4.369483470916748,-1.8228439092636108,-1.97454833984375, 11.879323959350586
426,2522416628,0.38649595,0.35893047,-0.71013576,0.466366,2.2418477535247803,-0.0436040423810482,-3.895063638687134,3.9783778190612793,31.667165756225586, 2.721980333328247
427,2522433295,0.39352793,0.35522744,-0.7062794,0.4691684,4.42376708984375,0.3963218629360199,-2.0248472690582275,-1.412701964378357,64.21092224121094, -5.818688869476318
428,2522449962,0.40435386,0.34931257,-0.70206463,0.47072726,7.245828628540039,0.1484701782464981,0.9852129817008972,-21.543216705322266,87.7087631225586, -11.521249771118164
429,2522466629,0.4172406,0.34217685,-0.69669664,0.47269338,8.35191535949707,0.182918518781662,2.5498359203338623,-24.213266372680664,105.71257019042969, -13.861623764038086
430,2522483296,0.4315152,0.33502945,-0.69044876,0.47416303,5.6953020095825195,0.35904523730278015,2.504061460494995,-27.069372177124023,113.63859558105469, -21.724939346313477
431,2522499963,0.44509205,0.33214244,-0.67610496,0.48420745,2.347991704940796,-3.7836198806762695,5.517307281494141,54.24345779418945,140.131591796875, -32.82771682739258
432,2522516630,0.45160273,0.33267626,-0.6675367,0.48966953,-6.341379642486572,-1.8634088039398193,-2.3179526329040527,40.4050407409668,68.83145141601562, -24.421958923339844
433,2522533297,0.45366362,0.33539236,-0.66232055,0.49298358,-4.82330846786499,-4.681878566741943,-5.390236854553223,36.176910400390625,25.539648056030273, -19.070398330688477
434,2522549964,0.45019254,0.34204924,-0.6583537,0.49688995,-3.941693067550659,-3.9916563034057617,-8.20152473449707,59.64827346801758,-16.32210350036621, -15.0695219039917
435,2522566631,0.44468933,0.34873247,-0.6571682,0.49876565,-4.845240116119385,0.7827112078666687,-2.2930517196655273,45.85969161987305,-38.96342468261719, -8.424446105957031
436,2522583298,0.43766606,0.35323912,-0.6590392,0.49933764,-8.059476852416992,-1.2684543132781982,-1.2225216627120972,26.456153869628906,-51.09987258911133, 9.521129608154297
437,2522599965,0.42801988,0.35988316,-0.65827596,0.5039406,-11.206302642822266,1.4399679899215698,4.641648769378662,66.52518463134766,-52.874290466308594, 14.07579517364502
438,2522616632,0.41962585,0.36515144,-0.65923494,0.5059526,-10.717617988586426,0.4958278238773346,4.805133819580078,41.628170013427734,-54.06552505493164, 12.503862380981445
439,2522633299,0.41108942,0.37200886,-0.65821254,0.50928485,-8.450791358947754,2.892547845840454,0.9937484264373779,59.35691452026367,-51.546295166015625, 4.288356781005859
440,2522649966,0.4063536,0.37647146,-0.6588532,0.508978,-8.459056854248047,3.2871651649475098,1.9001294374465942,20.49818992614746,-40.29962158203125, -4.556033134460449
441,2522666633,0.40369132,0.38014513,-0.6596996,0.5072668,-7.452875137329102,5.05171012878418,1.9677265882492065,5.805713176727295,-32.481895446777344, -11.725953102111816
442,2522683300,0.40157163,0.3800295,-0.6641546,0.5032063,-4.907430171966553,-4.076152324676514,-13.976085662841797,-29.337797164916992,-32.7170295715332, 6.842652797698975
443,2522699967,0.3892629,0.38900685,-0.6633768,0.5070299,10.380462646484375,-3.9610133171081543,-11.060264587402344,76.58138275146484,-75.19496154785156, 8.607697486877441
444,2522716634,0.38390863,0.38940406,-0.6673392,0.5056057,2.9818782806396484,1.910119652748108,10.09934139251709,-5.66513729095459,-41.14164733886719, 20.99384880065918
445,2522733301,0.37486348,0.3909367,-0.6769727,0.49835145,14.924100875854492,-4.847990036010742,5.259045124053955,-39.11412048339844,-91.83238983154297, 29.686697006225586
446,2522749968,0.365709,0.39287767,-0.6826127,0.49592757,14.087259292602539,0.6788893342018127,3.451228380203247,-1.7340799570083618,-70.74452209472656, 29.8563175201416
447,2522766635,0.3607906,0.39376116,-0.6873267,0.49230522,12.907946586608887,3.2599077224731445,-0.12708042562007904,-18.37883949279785,-48.383460998535156, 15.018653869628906
448,2522783302,0.3584203,0.3934589,-0.69209856,0.48757017,7.682249069213867,2.28238844871521,-1.0954272747039795,-33.540016174316406,-35.1777229309082, 10.086004257202148
449,2522799969,0.35916197,0.39260578,-0.69376534,0.48533815,5.204901218414307,0.7266893982887268,-3.0446527004241943,-20.869874954223633,-3.8175277709960938, 0.5426122546195984
450,2522816636,0.36446086,0.3900306,-0.69265884,0.4850447,2.9943795204162598,-0.35551342368125916,-2.8601958751678467,-18.894922256469727,35.784095764160156, -9.097186088562012
451,2522833303,0.3747165,0.38466337,-0.6903049,0.48487198,4.341277122497559,-1.8599940538406372,-0.6612228155136108,-34.30851364135742,72.52594757080078, -14.987226486206055
452,2522849970,0.38909003,0.3763101,-0.6871374,0.48460513,5.20736837387085,-1.2201257944107056,0.781390368938446,-50.53464126586914,104.16997528076172, -16.57607078552246
453,2522866637,0.40532514,0.36608028,-0.6833433,0.48449847,5.108438968658447,-0.3402334451675415,1.8265681266784668,-57.48048400878906,121.51212310791016, -14.757207870483398
454,2522883304,0.41937768,0.3598489,-0.67268604,0.49206182,3.8336074352264404,-2.349860906600952,4.063283443450928,18.129039764404297,136.81825256347656, -21.420772552490234
455,2522899971,0.42834806,0.35602897,-0.6636894,0.49927726,-4.552885055541992,-1.1887786388397217,-2.3879640102386475,30.210134506225586,98.62886047363281, -13.364219665527344
456,2522916638,0.43337768,0.35509348,-0.6571045,0.50428784,-4.838016986846924,-3.3666903972625732,-3.3145623207092285,30.01036262512207,58.195472717285156, -13.901471138000488
457,2522933305,0.43407306,0.3581216,-0.6513107,0.5090424,-6.773210525512695,-3.4317822456359863,-5.096901893615723,48.509429931640625,21.772829055786133, -16.092632293701172
458,2522949972,0.4328351,0.3633384,-0.64624316,0.5128441,-4.900345325469971,0.7854973673820496,-4.3162102699279785,52.99673080444336,0.6512808203697205, -20.939067840576172
459,2522966639,0.43618596,0.36287087,-0.64657587,0.50990814,-8.771236419677734,3.881222724914551,0.8806016445159912,-24.359375,7.868894577026367, -19.002140045166016
460,2522983306,0.44018102,0.35792604,-0.64981997,0.5058297,-10.594841957092285,1.7040133476257324,1.6270164251327515,-54.646026611328125,15.146400451660156, 2.855764865875244
461,2522999973,0.440715,0.35439107,-0.65029234,0.5072449,-12.27886962890625,-1.077366828918457,4.551398754119873,-7.628109931945801,17.261476516723633, 19.08980369567871
462,2523016640,0.43882865,0.35072982,-0.65121675,0.5102301,-10.360629081726074,-3.412602186203003,-0.4912892282009125,3.2965927124023438,9.108266830444336, 33.60511016845703
463,2523033307,0.4333695,0.35160452,-0.64926505,0.51674,-7.713522911071777,1.1902159452438354,-2.7926366329193115,51.51912307739258,-5.178376197814941, 29.861173629760742
464,2523049974,0.42856324,0.35348454,-0.6493726,0.5193241,-5.889386177062988,2.521214723587036,-3.2864432334899902,28.10736656188965,-21.483585357666016, 16.16872215270996
465,2523066641,0.42514938,0.35420358,-0.65365857,0.5162542,-2.848463535308838,1.3529788255691528,-3.0868303775787354,-18.857446670532227,-37.218475341796875, 9.73088550567627
466,2523083308,0.42197344,0.3516492,-0.6626106,0.509145,2.4581642150878906,-8.816141128540039,-14.8006010055542,-63.65395736694336,-47.52881622314453, 23.683027267456055
467,2523099975,0.4148296,0.3572815,-0.66465616,0.50842756,6.149062633514404,3.0108723640441895,8.583609580993652,23.12810707092285,-58.16093444824219, 2.2187626361846924
468,2523116642,0.40893397,0.35849583,-0.6729368,0.5014079,8.129219055175781,0.07656228542327881,7.180053234100342,-43.25218963623047,-70.7352294921875, 15.355947494506836
469,2523133309,0.39871022,0.36531854,-0.678973,0.49655637,17.343862533569336,-0.8723257780075073,7.550095558166504,0.9021806120872498,-98.58897399902344, 5.142354488372803
470,2523149976,0.38667694,0.37541232,-0.67907584,0.4984002,14.767838478088379,5.191006183624268,2.812635898590088,65.85546875,-85.4159927368164, -0.29183027148246765
471,2523166643,0.379742,0.3815133,-0.680595,0.49702525,5.57210636138916,2.4196290969848633,-2.522433280944824,21.916797637939453,-61.090030670166016, -4.854242324829102
472,2523183310,0.37625378,0.38280216,-0.6832063,0.49510074,0.5282087326049805,1.0176142454147339,-4.4207048416137695,-5.944705963134766,-32.6807975769043, 7.563223838806152
473,2523199977,0.37697086,0.3803148,-0.68513566,0.4938045,1.4315627813339233,0.19999396800994873,-4.9122772216796875,-21.314842224121094,3.9602437019348145, 11.45864486694336
474,2523216644,0.38114005,0.37619624,-0.68486977,0.49412766,2.860517978668213,0.34684431552886963,-3.7165367603302,-19.43468475341797,35.852134704589844, 5.949333667755127
475,2523233311,0.38807875,0.37158403,-0.6835264,0.49407703,5.97771692276001,1.3216578960418701,-0.10106424987316132,-25.963001251220703,52.5102653503418, -4.860311985015869
476,2523249978,0.397038,0.36585096,-0.68322796,0.49164382,8.513972282409668,1.4216827154159546,2.304123878479004,-48.758724212646484,57.27922058105469, -9.52719497680664
477,2523266645,0.40805545,0.35959688,-0.68124586,0.48998466,8.039104461669922,2.029109477996826,4.035858631134033,-46.03462600708008,75.26992797851562, -15.820977210998535
478,2523283312,0.41950577,0.35469106,-0.67575115,0.49149758,3.521928310394287,-0.01664544641971588,2.9247593879699707,-16.661962509155273,90.4469985961914, -23.014562606811523
479,2523299979,0.42705297,0.35471117,-0.6631634,0.502016,-3.5095887184143066,-2.7361340522766113,1.2656826972961426,72.76907348632812,97.80138397216797, -24.321056365966797
480,2523316646,0.4302122,0.35549265,-0.6560584,0.5080651,-4.731590270996094,-3.8620684146881104,-6.332500457763672,46.2783203125,47.51637649536133, -13.460420608520508
481,2523333313,0.42720774,0.36157924,-0.64846474,0.51599175,-4.980264663696289,-2.7029762268066406,-10.155959129333496,87.20762634277344,6.908389091491699, -12.365612983703613
482,2523349980,0.42165965,0.36883724,-0.6414721,0.5240955,-4.473516941070557,0.40620899200439453,-3.569715738296509,95.64734649658203,-10.230151176452637, -7.427875995635986
483,2523366647,0.41752824,0.37148145,-0.6409509,0.5261691,-6.936337471008301,-1.9133937358856201,-1.6392139196395874,28.743595123291016,-21.690509796142578, 6.29316520690918
484,2523383314,0.4133244,0.37289196,-0.64272356,0.52632797,-9.465926170349121,0.12897568941116333,1.7422163486480713,8.655851364135742,-28.924388885498047, 12.281689643859863
485,2523399981,0.41130483,0.37175956,-0.64845324,0.5216623,-10.20548152923584,0.8110839128494263,4.689115047454834,-39.79570770263672,-33.38290023803711, 12.318071365356445
486,2523416648,0.40843108,0.3709524,-0.65503764,0.5162406,-7.956569194793701,-0.5177217125892639,-0.6203390955924988,-43.1247673034668,-42.424198150634766, 14.314562797546387
487,2523433315,0.40530604,0.3709791,-0.6608799,0.5112138,-8.145028114318848,1.2124255895614624,0.9659328460693359,-35.71221160888672,-43.20356750488281, 10.758565902709961
488,2523449982,0.40046555,0.37305334,-0.66491157,0.5082823,-7.332714557647705,1.840528964996338,0.4882594645023346,-9.700328826904297,-47.47123718261719, 9.061004638671875
489,2523466649,0.39600822,0.3757442,-0.6680783,0.50563335,-7.4965338706970215,3.64428973197937,2.989161252975464,-4.689487934112549,-44.78470993041992, 3.404662847518921
490,2523483316,0.39244196,0.37755552,-0.66956055,0.505104,-6.2217512130737305,2.5390408039093018,0.00884140282869339,6.1369171142578125,-27.80522918701172, 5.571361541748047
491,2523499983,0.38398534,0.37877643,-0.67315006,0.50591785,5.767005920410156,-11.54773235321045,-22.474443435668945,16.120275497436523,-50.35432052612305, 34.49748611450195
492,2523516650,0.37579408,0.3825613,-0.67194176,0.5108034,4.76027774810791,2.4966561794281006,13.70776081085205,57.72315979003906,-34.72860336303711, 19.10344123840332
493,2523533317,0.3692829,0.3801844,-0.68263346,0.50309217,12.502262115478516,-7.117539405822754,4.371340274810791,-62.644466400146484,-69.26421356201172, 41.02642822265625
494,2523549984,0.36112353,0.38086167,-0.6892982,0.49940202,14.368977546691895,-1.046279788017273,6.374488353729248,-17.631128311157227,-66.30553436279297, 32.93453598022461
495,2523566651,0.35463294,0.3824414,-0.6935546,0.49694687,13.885876655578613,5.046667098999023,0.04281983524560928,-5.632334232330322,-52.34382629394531, 20.123491287231445
496,2523583318,0.35164633,0.3829143,-0.6977661,0.4927922,8.221395492553711,3.6709249019622803,-0.904931902885437,-25.520448684692383,-36.42922592163086, 9.365205764770508
497,2523599985,0.35189414,0.3824926,-0.6993835,0.4906452,5.4215803146362305,1.58868408203125,-2.884894609451294,-17.688138961791992,-6.211650848388672, 1.125186562538147
498,2523616652,0.35694817,0.37996417,-0.6984828,0.49024191,3.7134792804718018,0.39293885231018066,-2.8431904315948486,-18.501422882080078,34.75324249267578, -7.209169864654541
499,2523633319,0.36795,0.37340447,-0.6983521,0.4873257,4.89655065536499,-1.648762583732605,0.314621239900589,-58.45528030395508,68.8101577758789, -11.579339981079102
500,2523649986,0.38261366,0.36385724,-0.6972112,0.48488277,5.419548034667969,-0.8382295966148376,1.4093304872512817,-69.66265106201172,100.48550415039062, -10.366868019104004
501,2523666653,0.39879975,0.35369173,-0.6938964,0.48411635,4.095688343048096,0.9671860337257385,0.9824439287185669,-59.722503662109375,120.15792083740234, -12.717634201049805
502,2523683320,0.41355187,0.3454672,-0.6858323,0.48914367,0.9998273253440857,-1.4832724332809448,3.2514822483062744,-7.569458961486816,133.8969268798828, -12.786652565002441
503,2523699987,0.42023528,0.34370455,-0.6777617,0.49589196,-5.86065673828125,0.15030422806739807,-3.499817132949829,37.96184158325195,78.0054702758789, -11.516407012939453
504,2523716654,0.4230468,0.34498966,-0.67166865,0.5008741,-5.76132869720459,-3.563493013381958,-5.275537014007568,40.92445755004883,39.76663589477539, -13.167224884033203
505,2523733321,0.42058405,0.3514066,-0.665066,0.50725716,-5.320574760437012,-3.722513437271118,-7.399682998657227,76.51055145263672,2.1499571800231934, -16.91669464111328
506,2523749988,0.41585076,0.3590712,-0.6588552,0.5138542,-5.854882717132568,-0.307554692029953,-3.7923743724823,85.13341522216797,-13.801554679870605, -14.493692398071289
507,2523766655,0.4134358,0.36302832,-0.65597606,0.51669806,-9.748778343200684,2.1379270553588867,1.036177635192871,39.991539001464844,-9.342161178588867, -9.079180717468262
508,2523783322,0.4119587,0.36478063,-0.6544025,0.5186353,-11.334745407104492,1.360633134841919,3.496469736099243,22.66048812866211,-3.230074644088745, -1.7885380983352661
509,2523799989,0.41204366,0.36343077,-0.65643,0.5169504,-10.779918670654297,0.3994646966457367,2.922295331954956,-19.231565475463867,-4.664822101593018, 5.051068305969238
510,2523816656,0.40938294,0.3644159,-0.65726674,0.5173075,-7.8068156242370605,0.18185369670391083,-3.1013128757476807,7.757988452911377,-16.434219360351562, 7.592453956604004
511,2523833323,0.40657443,0.36639124,-0.6590452,0.51586246,-7.29632043838501,2.089618444442749,-2.1211225986480713,-0.5694870948791504,-27.770172119140625, 0.7410541772842407
512,2523849990,0.40396315,0.36750197,-0.6639969,0.510749,-6.428879261016846,3.130415678024292,-2.807865858078003,-31.372541427612305,-41.95969009399414, 1.5328258275985718
513,2523866657,0.4010064,0.36806723,-0.6692796,0.5057521,-5.132364273071289,0.21851474046707153,-1.12877357006073,-32.57379150390625,-41.88713455200195, 6.763145923614502
514,2523883324,0.39534563,0.36737213,-0.67405844,0.5043661,2.506342887878418,-5.776281833648682,-12.876057624816895,-10.820528984069824,-39.30168914794922, 30.70526695251465
515,2523899991,0.38999084,0.36787823,-0.67719734,0.503961,7.143187046051025,1.4031656980514526,12.033486366271973,1.9742580652236938,-34.84390640258789, 22.4183349609375
516,2523916658,0.38241595,0.36645252,-0.6880137,0.49609256,11.133380889892578,-4.712717056274414,7.876105785369873,-58.96582794189453,-78.01038360595703, 39.11483383178711
517,2523933325,0.3696847,0.3695901,-0.69667107,0.49131048,13.654439926147461,-0.9948168396949768,6.030712127685547,-11.926488876342773,-104.28205108642578, 38.533206939697266
518,2523949992,0.35971862,0.37324172,-0.70190257,0.48849362,12.377446174621582,4.9606451988220215,0.29041558504104614,3.2063326835632324,-79.53787231445312, 22.89691734313965
519,2523966659,0.35416338,0.37390396,-0.70834833,0.4827081,4.989808559417725,1.1506843566894531,-1.898292064666748,-33.83762741088867,-58.82822036743164, 18.747840881347656
520,2523983326,0.35141906,0.37296402,-0.7126922,0.4790329,2.439861297607422,0.5237773060798645,-4.145196914672852,-27.40325927734375,-28.691600799560547, 17.87050437927246
521,2523999993,0.35271704,0.37047124,-0.7151204,0.47638702,1.79757821559906,-0.9641952514648438,-3.2377684116363525,-30.105745315551758,3.599832773208618, 9.825007438659668
522,2524016660,0.35764244,0.36759222,-0.71443665,0.4759709,3.3696653842926025,-1.9476820230484009,-1.8968535661697388,-19.046405792236328,36.1187744140625, -2.4778640270233154
523,2524033327,0.36678255,0.36383048,-0.71108603,0.47692215,6.110644817352295,-0.4474954307079315,0.6166965961456299,-16.41793441772461,69.81311798095703, -15.19806957244873
524,2524049994,0.37931785,0.3578015,-0.7074471,0.47709003,6.9992570877075195,1.2862629890441895,1.7702716588974,-33.607749938964844,92.47476959228516, -17.953203201293945
525,2524066661,0.39349294,0.35079327,-0.7038326,0.47615877,5.054732799530029,1.9539697170257568,2.058847427368164,-45.65245819091797,100.90496063232422, -21.026662826538086
526,2524083328,0.4065633,0.3491154,-0.6917592,0.4840393,3.398395538330078,-2.4669649600982666,6.112154006958008,41.68960952758789,122.2297592163086, -39.54425811767578
527,2524099995,0.41348273,0.35001984,-0.6829657,0.48997575,-6.842022895812988,-0.9116984605789185,-1.6976960897445679,43.23148727416992,69.89315795898438, -29.76894187927246
528,2524116662,0.41639835,0.35287216,-0.67671186,0.49412033,-3.684478759765625,-5.496255874633789,-4.984288692474365,41.3629264831543,32.83849334716797, -24.973783493041992
529,2524133329,0.4143895,0.35942265,-0.6716427,0.49798912,-4.083343029022217,-3.614006996154785,-6.160768032073975,58.51880645751953,-6.99505615234375, -24.30204963684082
530,2524149996,0.41226205,0.36552608,-0.66982716,0.49775743,-4.958251953125,1.2538422346115112,-2.998542547225952,27.403491973876953,-25.731143951416016, -26.37155532836914
531,2524166663,0.41232458,0.36634362,-0.6728033,0.49306855,-9.138012886047363,0.30021634697914124,0.6060935854911804,-30.034982681274414,-22.48276710510254, -10.493104934692383
532,2524183330,0.4096383,0.3668472,-0.673545,0.4939198,-11.383942604064941,-1.1440136432647705,2.9316353797912598,9.268332481384277,-13.49771785736084, 10.718255043029785
533,2524199997,0.4055436,0.3673481,-0.6724164,0.4984436,-13.096297264099121,-1.8154271841049194,6.487485408782959,36.161739349365234,-5.467116355895996, 21.034387588500977
534,2524216664,0.3991175,0.3698909,-0.66875434,0.50661016,-8.957857131958008,-1.3499034643173218,-0.4709872603416443,73.2137680053711,-7.131979942321777, 23.104990005493164
535,2524233331,0.39356318,0.3731846,-0.66485494,0.51362365,-6.642765045166016,3.3322722911834717,-0.19283735752105713,68.54108428955078,-8.17900562286377, 12.464166641235352
536,2524249998,0.38902566,0.37612113,-0.66357523,0.5165849,-5.0507965087890625,2.5185930728912354,-2.69083571434021,37.11687469482422,-20.07244110107422, 5.884498119354248
537,2524266665,0.38527972,0.37874198,-0.6661242,0.51419127,-3.814883232116699,0.44575679302215576,-3.510678291320801,-3.819117784500122,-39.46867370605469, -0.028558319434523582
538,2524283332,0.37840956,0.38171437,-0.67123336,0.5104373,2.971130609512329,-7.747077465057373,-15.198639869689941,-10.044447898864746,-65.2794189453125, 12.399759292602539
539,2524299999,0.36658588,0.39138362,-0.6698178,0.51359314,5.7908453941345215,4.189096927642822,8.640779495239258,75.17572021484375,-76.35379028320312, -0.6497179865837097
540,2524316666,0.36102226,0.3931417,-0.6760244,0.5080292,7.369924068450928,-1.7430179119110107,5.90535831451416,-28.896310806274414,-62.873477935791016, 12.067880630493164
541,2524333333,0.35022277,0.3978915,-0.68315905,0.502315,10.990531921386719,-0.6383857131004333,3.0858731269836426,-11.241023063659668,-100.1806869506836, 19.133298873901367
542,2524350000,0.3408681,0.40288422,-0.68745226,0.4989016,9.554084777832031,4.548148155212402,-0.9295370578765869,5.970378398895264,-81.14790344238281, 11.055438995361328
543,2524366667,0.3357136,0.405763,-0.6915509,0.49437866,6.632859706878662,2.9108033180236816,-2.1391940116882324,-15.285934448242188,-56.91654586791992, 3.5232043266296387
544,2524383334,0.3332888,0.4061627,-0.6959631,0.48947522,4.107022285461426,1.5010221004486084,-2.716562032699585,-31.47996711730957,-37.26999282836914, 6.21597957611084
545,2524400001,0.33344916,0.40514728,-0.69877946,0.4861839,3.9720091819763184,-0.14063134789466858,-2.4023149013519287,-28.69292449951172,-11.62419605255127, 3.9962284564971924
546,2524416668,0.33751222,0.4021819,-0.6993097,0.4850787,4.196022033691406,-0.055450666695833206,-1.6867225170135498,-25.76399803161621,25.231552124023438, -0.717991292476654
547,2524433335,0.34527925,0.39735946,-0.6984361,0.48484525,5.967122554779053,-0.4580953121185303,-0.057987261563539505,-31.472049713134766,54.80860137939453, -6.109817028045654
548,2524450002,0.35602525,0.39064002,-0.6959133,0.48615962,7.0224409103393555,-0.5680370330810547,2.2723264694213867,-30.944250106811523,84.05419921875, -7.015966415405273
549,2524466669,0.36922574,0.38225642,-0.6917565,0.48890233,6.534933090209961,-0.7513650059700012,2.482653856277466,-29.27263069152832,109.25096893310547, -7.861597537994385
550,2524483336,0.38196272,0.37795705,-0.6816642,0.49657533,2.757671356201172,-1.0015228986740112,3.82025408744812,25.70563316345215,121.30792999267578, -28.670019149780273
551,2524500003,0.39182964,0.37308553,-0.6732185,0.5040377,-4.749123573303223,-3.5050771236419678,-0.22572289407253265,24.909255981445312,104.50179290771484, -12.95011043548584
552,2524516670,0.39771515,0.36985558,-0.6685743,0.50797474,-4.171292304992676,-2.953826904296875,-5.639986038208008,10.103995323181152,61.3143424987793, -6.443129062652588
553,2524533337,0.40019566,0.36930564,-0.666129,0.50963616,-5.836108684539795,-2.683933973312378,-6.6466593742370605,7.963490009307861,24.53199005126953, -7.870713710784912
554,2524550004,0.40392518,0.36886227,-0.6666983,0.5062593,-3.9568300247192383,3.530651807785034,-3.9872446060180664,-28.49620246887207,8.987286567687988, -19.124103546142578
555,2524566671,0.40737695,0.36614433,-0.6698607,0.50126755,-8.273914337158203,1.3731292486190796,-1.2240402698516846,-50.43478012084961,4.738335132598877, -5.181265354156494
556,2524583338,0.4063925,0.36434042,-0.67181134,0.5007702,-10.233691215515137,-1.3161096572875977,-0.36484184861183167,-11.806805610656738,-4.03418493270874, 15.425610542297363
557,2524600005,0.40129247,0.36542693,-0.6712244,0.504862,-11.919524192810059,-0.4681796729564667,4.0482306480407715,36.551780700683594,-14.230276107788086, 22.737884521484375
558,2524616672,0.39372835,0.36808679,-0.67037207,0.5099917,-8.5523042678833,-1.51577627658844,-1.3653463125228882,52.735530853271484,-27.918487548828125, 25.876298904418945
559,2524633339,0.38660583,0.37207386,-0.6692647,0.51398623,-6.670059680938721,4.6938982009887695,-0.929506778717041,50.87083435058594,-32.70431137084961, 14.28516960144043
560,2524650006,0.38323972,0.3736499,-0.67278665,0.5107558,-6.639912128448486,3.5961556434631348,-0.9826667308807373,-14.847357749938965,-38.02062225341797, 4.302004337310791
561,2524666673,0.38241848,0.37402943,-0.67843574,0.5035703,-7.456932067871094,3.9123828411102295,0.7949509024620056,-50.19928741455078,-37.44573974609375, -3.596585512161255
562,2524683340,0.38224924,0.37149867,-0.68437475,0.49749947,-6.063966274261475,-3.8584177494049072,-8.93724536895752,-55.216129302978516,-21.85658836364746, 11.936781883239746
563,2524700007,0.37495863,0.37387356,-0.6864173,0.49845365,9.357256889343262,-5.740246772766113,-11.790224075317383,22.395488739013672,-43.479583740234375, 21.87894058227539
564,2524716674,0.3725333,0.37242606,-0.6942493,0.4904446,0.5632660388946533,4.444244384765625,13.113893508911133,-62.203147888183594,-45.604488372802734, 14.353521347045898
565,2524733341,0.36462685,0.37209517,-0.7058147,0.48001897,13.547908782958984,-7.989722728729248,6.60996675491333,-69.20416259765625,-90.8469467163086, 32.2691650390625
566,2524750008,0.3527936,0.37801877,-0.7080843,0.48088995,17.54869842529297,0.22381892800331116,6.600604057312012,41.994693756103516,-78.52763366699219, 19.532657623291016
567,2524766675,0.34417176,0.38373503,-0.7103484,0.47926876,13.60253620147705,4.807762145996094,2.653736114501953,20.782203674316406,-69.39761352539062, 3.486433506011963
568,2524783342,0.3401198,0.38569134,-0.71425,0.47477114,4.536630630493164,1.8743689060211182,-2.881471872329712,-19.661535263061523,-46.44985580444336, 4.462764739990234
569,2524800009,0.33986095,0.38523617,-0.71627825,0.47226414,1.6323964595794678,-0.5143075585365295,-4.343876838684082,-19.2907772064209,-10.014184951782227, 4.0948309898376465
570,2524816676,0.34335676,0.38300458,-0.7158265,0.47223538,0.8664987087249756,1.4964518547058105,-4.625418663024902,-13.134654998779297,26.628379821777344, -0.22646816074848175
571,2524833343,0.3517839,0.37808543,-0.71457976,0.471885,3.2816920280456543,0.5519776940345764,-2.0665953159332275,-31.437244415283203,60.74819564819336, -5.8215179443359375
572,2524850010,0.36308426,0.37165692,-0.71166676,0.4728334,5.1968560218811035,0.2546674311161041,0.523311972618103,-30.654735565185547,87.42215728759766, -8.458223342895508
573,2524866677,0.37667206,0.36347762,-0.7076186,0.47463492,6.501326560974121,1.961159348487854,1.6569139957427979,-32.958126068115234,109.47190856933594, -7.636035442352295
574,2524883344,0.39069656,0.35813347,-0.69722235,0.48267755,5.740294933319092,0.9853124022483826,4.618715763092041,24.30801010131836,134.3483428955078, -22.30821990966797
575,2524900011,0.399751,0.3552642,-0.6867262,0.49233487,-4.358908176422119,0.04406663402915001,1.1603007316589355,51.053077697753906,106.16574096679688, -13.929553985595703
576,2524916678,0.40511256,0.35304275,-0.6818319,0.49633646,-3.8822884559631348,-2.531466007232666,-6.370734691619873,16.0899658203125,57.19219207763672, -6.6921067237854
577,2524933345,0.40456834,0.35714993,-0.6759032,0.5019196,-4.552266597747803,-2.0194272994995117,-8.722331047058105,58.97515106201172,14.618321418762207, -14.835092544555664
578,2524950012,0.40100762,0.36397386,-0.671777,0.5054025,-2.6857478618621826,-0.6868013739585876,-7.907878398895264,57.91545486450195,-19.131155014038086, -19.321666717529297
579,2524966679,0.39858764,0.36819056,-0.6743289,0.5008437,-5.655022621154785,1.1961134672164917,-3.800621271133423,-12.545358657836914,-43.64034652709961, -17.558523178100586
580,2524983346,0.39445168,0.37233347,-0.6800144,0.49331146,-8.087483406066895,1.0307934284210205,-2.1777305603027344,-32.906463623046875,-67.1533432006836, -11.282341003417969
581,2525000013,0.38863644,0.3772672,-0.68655324,0.48505253,-9.95267105102539,1.3934500217437744,3.3977980613708496,-32.82197189331055,-82.01229858398438, -9.521119117736816
582,2525016680,0.3801694,0.38234437,-0.6927505,0.47893736,-8.629170417785645,-1.7937811613082886,0.19435930252075195,-14.302228927612305,-88.4494400024414, 3.6010870933532715
583,2525033347,0.37125874,0.3872666,-0.6969404,0.47588438,-8.681344032287598,1.2095379829406738,2.5824742317199707,7.653653144836426,-76.6412353515625, 8.483304023742676
584,2525050014,0.3637817,0.39004502,-0.70085305,0.4736379,-8.609251022338867,1.0824223756790161,3.0332436561584473,3.007579803466797,-60.14506912231445, 14.965286254882812
585,2525066681,0.35711914,0.39309096,-0.70229864,0.47404882,-6.858482360839844,1.8521342277526855,3.7058017253875732,22.443628311157227,-43.495025634765625, 11.508021354675293
586,2525083348,0.3519146,0.3931422,-0.7070038,0.47089392,-1.7018656730651855,-6.013156890869141,-12.7109375,-16.858274459838867,-44.66682434082031, 20.80211067199707
587,2525100015,0.3406809,0.39954016,-0.7091226,0.4705842,7.421474933624268,-3.7446179389953613,5.060938358306885,37.063636779785156,-80.21746063232422, 9.255309104919434
588,2525116682,0.33217162,0.39955398,-0.72144014,0.45775846,3.3252644538879395,-6.478132247924805,9.11551570892334,-79.61076354980469,-104.94230651855469, 29.981313705444336
589,2525133349,0.3211412,0.4023065,-0.72697866,0.45444465,12.238390922546387,-5.238972187042236,3.9594810009002686,2.2954163551330566,-84.11984252929688, 28.256031036376953
590,2525150016,0.31367612,0.40354875,-0.72894114,0.45541257,8.08003044128418,3.2810444831848145,-0.2160472422838211,21.632898330688477,-42.00920867919922, 24.366657257080078
591,2525166683,0.3095709,0.40431628,-0.7308662,0.45445466,5.903722763061523,5.077696800231934,-2.9427242279052734,1.6573715209960938,-29.208965301513672, 11.901488304138184
592,2525183350,0.30818537,0.40476125,-0.7314956,0.45398718,4.171809196472168,3.423302173614502,-2.4399988651275635,0.23446513712406158,-10.089064598083496, 3.248901844024658
593,2525200017,0.3085287,0.40428722,-0.7305929,0.45562705,4.259249687194824,0.5665496587753296,-1.3324435949325562,8.763216972351074,10.395464897155762, 2.504059314727783
594,2525216684,0.31160194,0.4020678,-0.7286378,0.45862043,4.588932991027832,-0.0627395361661911,-1.375377893447876,7.397461891174316,35.299644470214844, 2.3072731494903564
595,2525233351,0.3184751,0.39778805,-0.72629535,0.4613387,4.244723796844482,0.014592301100492477,-0.6075105667114258,-7.406906604766846,61.23701095581055, -0.3523457944393158
596,2525250018,0.32851726,0.3914926,-0.7242587,0.4628816,5.052914619445801,0.5224992632865906,0.518693208694458,-27.252912521362305,79.64896392822266, -1.8303163051605225
597,2525266685,0.34167242,0.383383,-0.72235185,0.46312565,6.485067844390869,1.6991918087005615,1.5968960523605347,-46.589996337890625,97.12318420410156, -5.107470989227295
598,2525283352,0.3571423,0.3739882,-0.72035253,0.46224967,4.988498687744141,1.1072008609771729,1.7892776727676392,-60.772804260253906,110.24234008789062, -8.11172866821289
599,2525300019,0.3711857,0.36861047,-0.7104482,0.47075593,3.4538841247558594,-2.7869796752929688,6.481583595275879,23.963022232055664,133.27227783203125, -21.82978057861328
600,2525316686,0.37782022,0.36705622,-0.7029552,0.4778867,-8.30578327178955,-0.5425305962562561,-3.7746407985687256,38.111236572265625,75.33841705322266, -13.09360122680664
601,2525333353,0.3805617,0.36785656,-0.6991895,0.48061258,-5.042574882507324,-4.435716152191162,-6.69323205947876,20.56218910217285,28.23427963256836, -13.741345405578613
602,2525350020,0.37923592,0.37219167,-0.6952162,0.4840744,-4.458744049072266,-2.6519827842712402,-5.678037643432617,44.17466735839844,-0.8068064451217651, -16.946407318115234
603,2525366687,0.3781832,0.37566468,-0.69391865,0.48407713,-4.886613368988037,0.9445765018463135,-2.1192626953125,15.748395919799805,-12.475335121154785, -16.41228485107422
604,2525383354,0.377117,0.37662432,-0.69627184,0.48077273,-6.910134315490723,-0.41244110465049744,-1.3758281469345093,-18.68527603149414,-22.1846981048584, -3.696397304534912
605,2525400021,0.37201,0.379544,-0.6962279,0.482516,-10.211282730102539,-1.4554699659347534,2.2146010398864746,28.972187042236328,-28.60474967956543, 7.127281665802002
606,2525416688,0.3655941,0.38205332,-0.6974652,0.48365146,-10.581345558166504,-0.48886212706565857,4.590348720550537,24.049293518066406,-38.59344482421875, 14.626806259155273
607,2525433355,0.35665113,0.38728154,-0.6964899,0.48756045,-7.124555587768555,0.4377821385860443,-1.7634316682815552,58.21541213989258,-46.776859283447266, 11.338822364807129
608,2525450022,0.35017043,0.3910011,-0.6974132,0.48796904,-7.067570209503174,3.027604103088379,-0.20438751578330994,24.71759033203125,-44.07628631591797, 6.280989646911621
609,2525466689,0.34623906,0.39353946,-0.7003452,0.48452234,-6.4164814949035645,4.433387756347656,-0.516512393951416,-10.16413688659668,-42.96570587158203, -0.3394218385219574
610,2525483356,0.34402338,0.39373648,-0.7042248,0.48029894,-5.6747660636901855,-0.6362667679786682,-2.710137128829956,-27.229219436645508,-31.145423889160156, 6.100655555725098
611,2525500023,0.33589232,0.3972035,-0.70473737,0.4824429,7.612408638000488,-8.774761199951172,-12.056882858276367,38.54378890991211,-45.159210205078125, 15.884636878967285
612,2525516690,0.33094433,0.3987144,-0.7056251,0.48331767,3.678556203842163,2.055821657180786,12.012276649475098,17.580385208129883,-28.069000244140625, 11.587190628051758
613,2525533357,0.32503486,0.3989006,-0.7116313,0.47834265,12.047690391540527,-2.7061378955841064,4.766007423400879,-28.09113883972168,-55.99333572387695, 22.686796188354492
614,2525550024,0.31604913,0.40155998,-0.7178216,0.47285807,13.845479965209961,2.1969783306121826,5.371997833251953,-17.184640884399414,-81.01191711425781, 20.533260345458984
615,2525566691,0.3075647,0.4055269,-0.7222684,0.46827388,11.092231750488281,4.00424337387085,0.21266400814056396,-5.630403995513916,-76.7308349609375, 9.960622787475586
616,2525583358,0.30282608,0.4069623,-0.7278654,0.4613999,5.105499267578125,1.1399577856063843,-2.5024139881134033,-36.57366943359375,-59.03773880004883, 8.897114753723145
617,2525600025,0.30069134,0.4067442,-0.73255867,0.4555235,3.397953510284424,0.4626527428627014,-2.433537721633911,-39.122493743896484,-35.70389175415039, 9.225179672241211
618,2525616692,0.30164385,0.40554217,-0.73499006,0.45203555,3.3012306690216064,-0.8794155716896057,-1.9611715078353882,-30.67656135559082,-5.727761745452881, 3.1123952865600586
619,2525633359,0.3071905,0.4029506,-0.7354793,0.44981667,3.8324365615844727,-0.9234600067138672,-1.2621062994003296,-33.90838623046875,29.387859344482422, -6.914556980133057
620,2525650026,0.31645328,0.39884216,-0.7343336,0.4489282,4.848376274108887,-0.3014102280139923,0.036473486572504044,-35.57514572143555,60.05634307861328, -12.332490921020508
621,2525666693,0.32899082,0.3926496,-0.7319419,0.44928008,4.871613025665283,1.3223965167999268,0.23236331343650818,-38.99219512939453,89.0818862915039, -12.595431327819824
622,2525683360,0.34162334,0.38957724,-0.72359735,0.45599344,3.05167818069458,1.0456712245941162,1.3908668756484985,18.204225540161133,110.49600219726562, -30.205799102783203
623,2525700027,0.3517084,0.38650686,-0.7147838,0.464756,-2.6898066997528076,-2.4422202110290527,0.6145933866500854,36.681583404541016,104.35104370117188, -18.61958122253418
624,2525716694,0.35739172,0.38471046,-0.7083005,0.47178322,-4.323218822479248,-2.2455391883850098,-2.706371545791626,35.63077163696289,68.72135162353516, -8.340633392333984
625,2525733361,0.3597503,0.3855016,-0.7033368,0.47674468,-4.815061092376709,-3.0770139694213867,-4.666252613067627,35.676368713378906,34.853271484375, -11.790993690490723
626,2525750028,0.35845342,0.3893144,-0.69912326,0.48080376,-4.495817184448242,-2.0340640544891357,-4.288001537322998,45.98778533935547,3.0935146808624268, -15.038965225219727
627,2525766695,0.3602937,0.3915695,-0.69865555,0.47827014,-5.264989852905273,3.6642062664031982,1.0250236988067627,-10.425419807434082,-3.667606830596924, -24.7818603515625
628,2525783362,0.36276376,0.3912431,-0.6999127,0.47481945,-7.846648216247559,0.9391904473304749,1.4557446241378784,-28.62990951538086,1.0233653783798218, -12.234383583068848
629,2525800029,0.36224258,0.39073884,-0.6994784,0.47627056,-9.959253311157227,-1.467993140220642,4.4905266761779785,8.14689826965332,4.7763543128967285, 6.244641304016113
630,2525816696,0.35879672,0.3900651,-0.69907945,0.4800024,-10.270501136779785,-3.469867467880249,3.731448173522949,26.399803161621094,-2.717454671859741, 22.247713088989258
631,2525833363,0.35028917,0.39367905,-0.6941786,0.49033722,-7.185478687286377,-1.2871029376983643,-0.5516576766967773,97.18025970458984,-12.251591682434082, 22.61207389831543
632,2525850030,0.34334958,0.3973986,-0.6899194,0.49819368,-6.250647068023682,2.6093626022338867,0.24762386083602905,78.94135284423828,-13.840128898620605, 11.530616760253906
633,2525866697,0.34037873,0.39801508,-0.69091237,0.49836388,-5.768086910247803,2.1192543506622314,-0.7786712050437927,6.466108322143555,-17.492347717285156, 9.371694564819336
634,2525883364,0.34006593,0.39481416,-0.69898033,0.48979974,-2.650479316711426,-3.635274887084961,-11.574551582336426,-75.47966003417969,-32.20267105102539, 17.268875122070312
635,2525900031,0.3294257,0.39948085,-0.7006398,0.4909152,6.188047409057617,-6.420624732971191,-6.209991931915283,39.319976806640625,-66.39696502685547, 20.00865936279297
636,2525916698,0.32168022,0.40150756,-0.7038461,0.48981032,4.375232219696045,0.6887059211730957,11.417839050292969,9.190812110900879,-53.541202545166016, 21.24306297302246
637,2525933365,0.31202883,0.40482515,-0.70987475,0.48459515,11.756529808044434,-1.5789737701416016,3.047079563140869,-12.115832328796387,-84.87210083007812, 20.536937713623047
638,2525950032,0.30137107,0.41011134,-0.71414226,0.48060924,10.840740203857422,4.419281482696533,1.00284743309021,6.728630542755127,-89.30807495117188, 12.235443115234375
639,2525966699,0.29316598,0.41498792,-0.7179158,0.47585264,8.75151538848877,3.8420135974884033,-1.3354085683822632,-3.254866361618042,-77.3057632446289, 3.3036022186279297
640,2525983366,0.2876647,0.4179002,-0.722666,0.46942765,4.564663887023926,1.838037371635437,-1.6936895847320557,-26.412269592285156,-64.43389892578125, 3.6499686241149902
641,2526000033,0.2851538,0.4190452,-0.7253904,0.46572223,4.51757287979126,-0.05298975855112076,-2.7882320880889893,-18.368297576904297,-31.986339569091797, 2.585287570953369
642,2526016700,0.28700417,0.41807035,-0.7261361,0.46429756,5.19464111328125,1.059749722480774,-1.9489976167678833,-17.287900924682617,7.099791526794434, -1.8347936868667603
643,2526033367,0.29391572,0.4143606,-0.72645605,0.46279642,6.550773620605469,0.47290724515914917,-0.052069976925849915,-36.142982482910156,41.80231475830078, -5.438198566436768
644,2526050034,0.30445173,0.4085932,-0.72559303,0.46246704,6.926126956939697,1.1032999753952026,0.6269397139549255,-40.941585540771484,72.18669891357422, -7.45664119720459
645,2526066701,0.31748444,0.40356278,-0.7205206,0.46603727,6.826779842376709,-0.06785981357097626,2.0674140453338623,-13.34939956665039,102.26050567626953, -22.0550594329834
646,2526083368,0.3287565,0.40098342,-0.7110841,0.47485885,-1.2604153156280518,-0.6588067412376404,0.996870219707489,36.72642135620117,109.5086898803711, -29.443323135375977
647,2526100035,0.33614585,0.39816868,-0.7072431,0.4777812,-2.6633965969085693,-2.9653983116149902,-1.8627687692642212,-0.36761152744293213,62.180423736572266, -13.992545127868652
648,2526116702,0.33957362,0.39753655,-0.7034163,0.48151863,-5.6390485763549805,-3.3161816596984863,-2.9272382259368896,19.589946746826172,38.2819938659668, -9.339593887329102
649,2526133369,0.34151047,0.397802,-0.70086044,0.48365167,-5.593177318572998,-1.4055681228637695,-2.610401153564453,13.62685489654541,20.59088706970215, -9.801953315734863
650,2526150036,0.34730628,0.39623317,-0.7009019,0.4807435,-6.199512481689453,3.0217652320861816,1.9766968488693237,-34.06028366088867,25.66657257080078, -18.384937286376953
651,2526166703,0.35468638,0.3920683,-0.7022362,0.47680658,-8.254634857177734,1.2819408178329468,2.184084177017212,-53.71642303466797,36.15216827392578, -9.740978240966797
652,2526183370,0.35876316,0.38815454,-0.7012819,0.47836083,-9.571066856384277,-1.501750111579895,2.482933521270752,-10.065213203430176,40.012691497802734, 7.500795841217041
653,2526200037,0.35896027,0.38553146,-0.69900095,0.48364332,-10.346792221069336,-1.5598317384719849,3.9047391414642334,25.747282028198242,30.24249267578125, 19.3552188873291
654,2526216704,0.3547969,0.3858674,-0.69447964,0.49287283,-6.712772846221924,-1.9944483041763306,-2.7504632472991943,71.08023071289062,15.593466758728027, 23.580671310424805
655,2526233371,0.35067892,0.38711393,-0.6909055,0.4998168,-6.270442962646484,3.0904064178466797,-2.3821468353271484,58.94369125366211,4.208804607391357, 15.31969928741455
656,2526250038,0.34879422,0.38706627,-0.69187385,0.49983302,-5.688702583312988,2.1779561042785645,-3.7418606281280518,1.3246065378189087,-10.182438850402832, 8.903563499450684
657,2526266705,0.34870738,0.38533935,-0.6978335,0.49289495,-4.8042144775390625,-0.9907857179641724,-4.083364009857178,-57.536468505859375,-25.924236297607422, 7.8538432121276855
658,2526283372,0.34379464,0.3836411,-0.7049023,0.48758376,0.8330583572387695,-9.517378807067871,-14.599106788635254,-40.48989486694336,-47.18814468383789, 31.229612350463867
659,2526300039,0.33343253,0.3885476,-0.706098,0.48916152,6.625155925750732,1.5022510290145874,7.929771423339844,42.64712142944336,-63.357749938964844, 17.95252799987793
660,2526316706,0.32589927,0.3894796,-0.7130219,0.48342028,8.32580852508545,-1.6833511590957642,6.645687103271484,-28.93790054321289,-69.30843353271484, 26.27806854248047
661,2526333373,0.31323704,0.39425454,-0.7202229,0.47720551,13.053079605102539,0.7947627902030945,3.982959508895874,-9.804272651672363,-109.22970581054688, 24.567163467407227
662,2526350040,0.30224523,0.39994273,-0.7243415,0.47331086,11.754175186157227,5.565536975860596,0.367578387260437,9.213658332824707,-91.27509307861328, 11.444117546081543
663,2526366707,0.29539144,0.4035479,-0.7292426,0.46700978,5.116962432861328,1.925050139427185,-2.193315267562866,-21.108186721801758,-72.45355224609375, 5.527889251708984
664,2526383374,0.29183054,0.40485868,-0.7326206,0.4628083,2.1470515727996826,0.5536960363388062,-4.9297027587890625,-19.251853942871094,-39.454795837402344, 7.057007312774658
665,2526400041,0.29340792,0.40326694,-0.73441565,0.46034914,2.041264772415161,0.4606454074382782,-4.194757461547852,-25.603761672973633,3.6674723625183105, 4.2468461990356445
666,2526416708,0.2991491,0.39959735,-0.73476046,0.45930278,3.986534833908081,0.041323188692331314,-2.349785804748535,-29.52863311767578,38.23374938964844, 0.5510105490684509
667,2526433375,0.30894178,0.39452565,-0.7333121,0.45951942,6.474873065948486,0.9409215450286865,-0.14699596166610718,-31.315540313720703,70.48932647705078, -6.978762626647949
668,2526450042,0.322392,0.38728175,-0.73129463,0.4596571,7.598874092102051,1.7835794687271118,1.3578065633773804,-45.04049301147461,96.04944610595703, -10.58753490447998
669,2526466709,0.33750454,0.3816678,-0.72393095,0.46512845,7.648001670837402,0.2581854462623596,4.04362678527832,-2.1655502319335938,125.17156219482422, -26.326021194458008
670,2526483376,0.34921154,0.37852192,-0.7136558,0.4748346,-2.3030388355255127,-0.4357450604438782,1.013662338256836,42.83856964111328,118.02619171142578, -25.413236618041992
671,2526500043,0.3582769,0.37540823,-0.70900315,0.47751555,-3.2215588092803955,-2.0290322303771973,-3.786803722381592,-2.6683342456817627,73.83002471923828, -17.807836532592773
672,2526516710,0.36193275,0.37635654,-0.70360243,0.4819795,-4.877309322357178,-3.6198041439056396,-6.685492515563965,32.41255569458008,40.66733169555664, -17.64039421081543
673,2526533377,0.36266354,0.37893876,-0.69981474,0.48491234,-3.7154524326324463,-2.1705245971679688,-6.7507476806640625,31.202083587646484,13.130274772644043, -16.21996307373047
674,2526550044,0.36343023,0.38104454,-0.7002996,0.48197952,-4.450434684753418,1.2805804014205933,-4.6777544021606445,-12.543845176696777,-10.920418739318848, -17.869157791137695
675,2526566711,0.3618698,0.38240644,-0.70499086,0.47518814,-5.992178440093994,-0.992534875869751,-4.534824371337891,-40.84856033325195,-40.269859313964844, -5.522841930389404
676,2526583378,0.35597628,0.3860035,-0.71009463,0.4690927,-8.370407104492188,-1.3713624477386475,-0.3614228665828705,-21.685272216796875,-67.35677337646484, 1.076040506362915
677,2526600045,0.34601673,0.3923638,-0.714041,0.46526203,-9.658682823181152,-0.47235342860221863,2.2751004695892334,10.548114776611328,-87.39082336425781, 2.5889828205108643
678,2526616712,0.3341515,0.40026587,-0.7159165,0.46432066,-7.889631271362305,-0.3366148769855499,1.1610971689224243,40.02564239501953,-89.11161804199219, 1.8701421022415161
679,2526633379,0.32354686,0.40705454,-0.7172912,0.46380776,-7.72210168838501,2.7536416053771973,1.8503434658050537,37.58705520629883,-77.12152099609375, 2.542325019836426
680,2526650046,0.3168938,0.41133827,-0.7197574,0.46079132,-7.843757629394531,3.569852828979492,2.739896297454834,4.973158836364746,-59.25646209716797, -0.6201552748680115
681,2526666713,0.31266138,0.41450852,-0.7206104,0.45950657,-6.578361511230469,4.237241744995117,1.9714291095733643,9.380929946899414,-35.32590103149414, -3.516921281814575
682,2526683380,0.30911544,0.41480398,-0.72526205,0.4542911,6.944849491119385,-7.935293197631836,-16.851512908935547,-30.30344581604004,-42.2971305847168, 10.794574737548828
683,2526700047,0.30814448,0.41442582,-0.72919625,0.44896665,3.039893388748169,2.6388862133026123,12.001514434814453,-37.33295822143555,-25.825382232666016, 3.6795151233673096
684,2526716714,0.30385137,0.41280195,-0.73895967,0.43727297,9.098555564880371,-6.930226802825928,5.602997303009033,-80.27417755126953,-69.19977569580078, 24.078777313232422
685,2526733381,0.29383373,0.41555804,-0.7429602,0.43472221,10.365737915039062,-4.332241058349609,4.4456095695495605,8.937246322631836,-73.56084442138672, 22.08639144897461
686,2526750048,0.28797582,0.41681182,-0.74453586,0.43474633,9.633590698242188,2.249033212661743,-0.5972052812576294,14.358753204345703,-35.79716873168945, 15.68854808807373
687,2526766715,0.28624827,0.4165089,-0.74675345,0.4323675,8.353943824768066,3.0661280155181885,-0.8787299394607544,-14.88868236541748,-18.419363021850586, 8.309835433959961
688,2526783382,0.2866039,0.41552454,-0.7479764,0.43096292,6.021459579467773,1.9685969352722168,-1.3997043371200562,-14.067655563354492,-0.9513972401618958, 5.169332027435303
689,2526800049,0.28803316,0.41439065,-0.7479111,0.43121484,5.810685157775879,1.030718445777893,-1.6186872720718384,-5.006428241729736,12.267871856689453, 2.5973410606384277
690,2526816716,0.29197344,0.41229978,-0.7468945,0.43232998,5.780104160308838,0.3577496409416199,-1.406339168548584,-6.796265602111816,32.2945671081543, -0.8641117215156555
691,2526833383,0.29996014,0.4084594,-0.745162,0.43349564,5.833418369293213,0.6714744567871094,-0.04527828097343445,-19.39560317993164,59.79523849487305, -5.7788825035095215
692,2526850050,0.3127564,0.40168798,-0.7443377,0.43219417,5.85700798034668,0.21339625120162964,1.8138878345489502,-54.07080841064453,84.48908996582031, -6.984511375427246
693,2526866717,0.32729685,0.39554125,-0.73889846,0.43640938,5.566005229949951,-0.9830141663551331,2.6191160678863525,-15.942660331726074,116.3274154663086, -16.951004028320312
694,2526883384,0.33815238,0.39230436,-0.7294011,0.44690523,-2.2358126640319824,-0.8133268356323242,1.3749463558197021,44.67715072631836,114.98046112060547, -17.521514892578125
695,2526900051,0.34586322,0.38837364,-0.7264291,0.44927222,-4.367867469787598,-1.2237932682037354,-4.006755352020264,-8.99477767944336,64.59950256347656, -4.760614395141602
