PacketCounter,SampleTimeFine,Quat_W,Quat_X,Quat_Y,Quat_Z,Acc_X,Acc_Y,Acc_Z,Gyr_X,Gyr_Y,Gyr_Z 
1,1820314305,0.5861179,0.322572,-0.43651155,0.60155696,-0.02798900008201599,-0.008737416006624699,-0.016606666147708893,0.007519622333347797,0.1420898586511612, -0.08147536218166351
2,1820330972,0.58668935,0.32218117,-0.43500963,0.60229695,16.51892852783203,-2.5411345958709717,7.429420471191406,0.22986756265163422,4.14111852645874, 2.4939279556274414
3,1820347639,0.5869388,0.3228544,-0.43447682,0.602078,15.821649551391602,-2.5908925533294678,7.262320518493652,0.6006625890731812,3.927572727203369, 2.812767505645752
4,1820364306,0.58715355,0.3225598,-0.43444383,0.60205024,15.897591590881348,-2.4838128089904785,7.331120014190674,-0.7318956851959229,4.036248207092285, 2.167276382446289
5,1820380973,0.5873134,0.3223709,-0.434069,0.60226595,16.434688568115234,-2.5063395500183105,7.3926520347595215,1.8170866966247559,3.886439085006714, 2.8613035678863525
6,1820397640,0.5872923,0.32249346,-0.43389294,0.6023477,15.903868675231934,-2.5467076301574707,7.310313701629639,1.1444073915481567,3.696956157684326, 2.9756643772125244
7,1820414307,0.5872588,0.32232758,-0.4338159,0.6025246,16.022302627563477,-2.5819385051727295,7.296735763549805,0.1652083545923233,3.6101558208465576, 3.0215113162994385
8,1820430974,0.5872997,0.32205412,-0.43377462,0.6026608,16.281696319580078,-2.4513230323791504,7.453444957733154,1.2186843156814575,3.8532581329345703, 2.8473832607269287
9,1820447641,0.5874439,0.3217155,-0.43382317,0.6026663,16.042341232299805,-2.8259785175323486,7.31158447265625,-0.8200163245201111,3.544855833053589, 2.943559169769287
10,1820464308,0.58738226,0.3213827,-0.433686,0.60300225,15.913996696472168,-2.2781546115875244,7.285144329071045,2.6082756519317627,4.332010269165039, 2.919649362564087
11,1820480975,0.58742374,0.3211284,-0.43350583,0.6032269,16.128009796142578,-2.413004159927368,7.372063159942627,0.39261066913604736,4.302645683288574, 2.46339750289917
12,1820497642,0.58764744,0.32076743,-0.43349054,0.6032122,16.184911727905273,-2.6401426792144775,7.388363361358643,-0.3593846261501312,3.7680447101593018, 2.6369106769561768
13,1820514309,0.58757627,0.32063115,-0.43320298,0.6035602,16.09771156311035,-2.2542872428894043,7.347252368927002,2.152113914489746,4.092672824859619, 2.9006834030151367
14,1820530976,0.5877458,0.3203136,-0.43321246,0.60355717,15.827930450439453,-2.5506696701049805,7.305531978607178,-1.1578093767166138,3.489173650741577, 2.6567862033843994
15,1820547643,0.5878164,0.32006043,-0.43302143,0.60375977,16.422027587890625,-2.359386920928955,7.505640029907227,1.107512354850769,3.9473717212677, 2.9975757598876953
16,1820564310,0.5878358,0.31986803,-0.43281183,0.60399306,16.093219757080078,-2.542048215866089,7.307377815246582,1.1868094205856323,3.75038480758667, 3.308616876602173
17,1820580977,0.58785063,0.31962043,-0.43270043,0.6041895,15.977588653564453,-2.392720937728882,7.387324810028076,0.05171845480799675,3.666618585586548, 3.0996432304382324
18,1820597644,0.5878969,0.31932095,-0.43264663,0.6043413,16.316789627075195,-2.4750895500183105,7.355653285980225,-0.31443437933921814,3.438370943069458, 3.2692503929138184
19,1820614311,0.5877898,0.31920308,-0.4324952,0.60461605,16.106779098510742,-2.5088446140289307,7.455626487731934,0.9405689239501953,3.1549792289733887, 3.3410937786102295
20,1820630978,0.5877041,0.31905365,-0.4323407,0.6048886,15.927239418029785,-2.5196218490600586,7.282726764678955,0.6834429502487183,3.2375032901763916, 3.17116641998291
21,1820647645,0.5874797,0.319308,-0.43168178,0.6054429,16.157276153564453,-2.548396348953247,7.355913162231445,6.584277153015137,3.636101245880127, 2.904999256134033
22,1820664312,0.5871899,0.31957287,-0.4310931,0.6060033,16.03472900390625,-2.565263032913208,7.456412315368652,6.036101341247559,3.247556686401367, 2.9785592555999756
23,1820680979,0.5869297,0.31973708,-0.43052006,0.60657597,16.10594940185547,-2.255612373352051,7.336437702178955,5.36796760559082,3.632758140563965, 3.009012222290039
24,1820697646,0.58673555,0.31976223,-0.43017578,0.60699487,16.3466854095459,-2.6616697311401367,7.387409687042236,3.445657730102539,3.144554615020752, 3.3149561882019043
25,1820714313,0.5865592,0.31965047,-0.4298542,0.60745144,16.148113250732422,-2.2657277584075928,7.30491304397583,2.903256893157959,3.8528990745544434, 3.6517879962921143
26,1820730980,0.58644277,0.31947407,-0.42952475,0.60788965,15.688121795654297,-2.616793394088745,7.216322422027588,2.084585666656494,4.407594203948975, 3.455672025680542
27,1820747647,0.5861215,0.31964982,-0.4286197,0.6087452,16.866193771362305,-2.6086063385009766,7.502844333648682,8.079317092895508,5.463504791259766, 3.6983025074005127
28,1820764314,0.58595365,0.319732,-0.4276905,0.6095168,15.394660949707031,-2.4926018714904785,7.205665111541748,7.328006744384766,6.354750156402588, 2.9415619373321533
29,1820780981,0.5856976,0.31979564,-0.42680046,0.610353,16.638463973999023,-2.605319023132324,7.554311752319336,7.778405666351318,6.009131908416748, 3.73915433883667
30,1820797648,0.58558327,0.31958446,-0.42606324,0.61108774,16.22772216796875,-2.290200710296631,7.520716667175293,5.1721978187561035,6.160528659820557, 3.3172359466552734
31,1820814315,0.5855766,0.31912524,-0.42559502,0.6116601,15.974544525146484,-2.621030330657959,7.451785564422607,2.3675291538238525,5.352753639221191, 3.185035467147827
32,1820830982,0.5855387,0.31858596,-0.4251941,0.61225605,16.13606834411621,-2.324416399002075,7.392490863800049,2.1617183685302734,5.083768844604492, 3.734107494354248
33,1820847649,0.58554155,0.31798613,-0.4250066,0.61269534,15.85816478729248,-2.5005295276641846,7.401111125946045,0.2719876766204834,4.220173358917236, 3.4519331455230713
34,1820864316,0.585529,0.31746808,-0.42477664,0.61313516,16.290576934814453,-2.37917160987854,7.581435203552246,0.9682819843292236,3.9484610557556152, 3.2433173656463623
35,1820880983,0.585519,0.31693196,-0.42464262,0.61351484,15.71341609954834,-2.5629472732543945,7.347661972045898,-0.22801709175109863,3.59523606300354, 2.9868316650390625
36,1820897650,0.5854046,0.31662077,-0.42427492,0.61403877,16.134925842285156,-2.506802558898926,7.637215614318848,2.5635945796966553,3.5497474670410156, 2.9593749046325684
37,1820914317,0.5854403,0.31620905,-0.4241401,0.61431015,16.258750915527344,-2.290160655975342,7.494858741760254,0.23834536969661713,2.899658441543579, 2.1731033325195312
38,1820930984,0.58532006,0.31588313,-0.42401868,0.61467594,16.000486373901367,-2.7163166999816895,7.509191036224365,0.42921125888824463,2.357450485229492, 2.6412904262542725
39,1820947651,0.58529454,0.31550702,-0.42390335,0.614973,15.810892105102539,-2.169576644897461,7.395712852478027,0.10518494993448257,2.6184310913085938, 2.272134304046631
40,1820964318,0.58515805,0.31521392,-0.42379814,0.61532557,16.21429443359375,-2.469480514526367,7.448304176330566,0.7434661984443665,2.033616304397583, 2.724480390548706
41,1820980985,0.5850005,0.31493336,-0.423661,0.61571336,16.076772689819336,-2.22944974899292,7.351515769958496,1.2005376815795898,2.1059083938598633, 2.911017894744873
42,1820997652,0.584857,0.31461263,-0.42358312,0.6160672,15.962869644165039,-2.371626138687134,7.412721157073975,0.25010156631469727,2.078195333480835, 2.7593648433685303
43,1821014319,0.58468026,0.3142855,-0.42342672,0.61650914,16.3444881439209,-2.282212018966675,7.43018102645874,1.2079782485961914,2.4593122005462646, 3.265894651412964
44,1821030986,0.5843991,0.31410488,-0.42304534,0.6171293,16.11797523498535,-2.3633368015289307,7.382892608642578,3.2509498596191406,2.869410276412964, 3.3927032947540283
45,1821047653,0.584266,0.3136897,-0.42258185,0.6177837,15.735299110412598,-2.1510629653930664,7.396556377410889,2.4714016914367676,4.694468975067139, 3.4243862628936768
46,1821064320,0.5841569,0.3132551,-0.42206782,0.61845833,16.228363037109375,-2.2502596378326416,7.363204479217529,2.7678046226501465,5.064136981964111, 3.4324541091918945
47,1821080987,0.5839839,0.31287083,-0.4215784,0.6191498,15.942209243774414,-2.6100854873657227,7.31845760345459,3.111271381378174,4.596347332000732, 3.7113254070281982
48,1821097654,0.5838359,0.31242216,-0.42112452,0.61982447,15.583553314208984,-2.222400426864624,7.364084720611572,2.228286027908325,4.832521915435791, 3.6047511100769043
49,1821114321,0.5836457,0.31199738,-0.42080736,0.62043285,16.6763858795166,-2.6269586086273193,7.583724021911621,1.5626758337020874,3.929673910140991, 3.706613063812256
50,1821130988,0.5835147,0.31158465,-0.42047167,0.6209905,15.86660099029541,-2.388875961303711,7.460497856140137,1.8585407733917236,3.9411864280700684, 3.401437282562256
51,1821147655,0.5834382,0.31108847,-0.4202506,0.6214606,15.535323143005371,-2.4726927280426025,7.219311237335205,0.3986552953720093,3.8551785945892334, 3.168374538421631
52,1821164322,0.5833285,0.31067148,-0.41990742,0.62200403,15.923550605773926,-2.356123924255371,7.516289710998535,1.3932349681854248,4.092583179473877, 3.0465221405029297
53,1821180989,0.5833237,0.31026784,-0.4196116,0.6224097,16.065296173095703,-2.281935453414917,7.427076816558838,0.940658450126648,3.796154260635376, 2.2768986225128174
54,1821197656,0.58321095,0.30993,-0.41927367,0.62291104,15.734604835510254,-2.5517725944519043,7.3620452880859375,1.6537543535232544,3.622973918914795, 2.7233660221099854
55,1821214323,0.58312494,0.30950683,-0.41911232,0.62331027,16.110227584838867,-2.3914763927459717,7.454152584075928,0.03845106437802315,3.1721646785736084, 2.7320616245269775
56,1821230990,0.58304805,0.30908638,-0.4189827,0.6236778,15.695294380187988,-2.3891921043395996,7.328790664672852,-0.07756806910037994,2.973820447921753, 2.6910433769226074
57,1821247657,0.5829696,0.30868545,-0.41879785,0.62407386,15.938742637634277,-2.3231241703033447,7.472728252410889,0.5630248188972473,3.124807119369507, 2.7654225826263428
58,1821264324,0.5829232,0.30815142,-0.41875044,0.624413,15.649043083190918,-2.364074230194092,7.268062591552734,-0.9648175835609436,3.1506118774414062, 2.98783016204834
59,1821280991,0.5828111,0.30777866,-0.41856346,0.62482655,16.125595092773438,-2.353334665298462,7.424391746520996,0.6823670864105225,2.979992628097534, 2.834538221359253
60,1821297658,0.5827859,0.30725434,-0.41855687,0.6251125,15.701272964477539,-2.3793692588806152,7.311083793640137,-1.191118597984314,2.878528118133545, 2.8012032508850098
61,1821314325,0.58269846,0.30684957,-0.41843224,0.62547606,16.304622650146484,-2.403927803039551,7.480245113372803,-0.038380637764930725,2.855912685394287, 2.683807849884033
62,1821330992,0.5827067,0.30628166,-0.4184159,0.6257577,15.131532669067383,-2.309844732284546,7.208083152770996,-1.3689348697662354,3.1820642948150635, 2.7624258995056152
63,1821347659,0.58262783,0.30586255,-0.41829073,0.6261195,16.18566131591797,-2.356081962585449,7.3655686378479,0.024709856137633324,2.9079320430755615, 2.75291109085083
64,1821364326,0.5826293,0.3053119,-0.41827855,0.6263951,15.952080726623535,-2.194737434387207,7.4159345626831055,-1.5331249237060547,3.0983235836029053, 2.6106576919555664
65,1821380993,0.58271474,0.30457014,-0.41839144,0.6266014,15.027920722961426,-2.4787192344665527,7.084303855895996,-3.26619553565979,3.5261330604553223, 2.757662296295166
66,1821397660,0.5825138,0.30430844,-0.41803414,0.6271535,16.7984676361084,-2.4279115200042725,7.619327068328857,2.3589489459991455,3.225170373916626, 3.050889015197754
67,1821414327,0.58248407,0.30384716,-0.41784295,0.6275322,15.5281982421875,-2.3491735458374023,7.24357795715332,-0.1598232537508011,3.5834152698516846, 2.4635512828826904
68,1821430994,0.582363,0.30358455,-0.41739917,0.62806684,14.956068992614746,-2.34240984916687,7.164999961853027,2.451385498046875,3.78501296043396, 2.4300756454467773
69,1821447661,0.58221275,0.3032841,-0.41710442,0.62854683,16.699840545654297,-2.187866449356079,7.530264854431152,1.585816740989685,3.1466548442840576, 2.7704684734344482
70,1821464328,0.5820508,0.30296355,-0.41689372,0.62899107,14.735573768615723,-2.4214906692504883,7.081228256225586,0.9388397932052612,2.820284605026245, 2.84950852394104
71,1821480995,0.5818937,0.30264708,-0.4166369,0.6294587,16.23555564880371,-2.1870765686035156,7.576176643371582,1.1354045867919922,3.063438892364502, 2.7693538665771484
72,1821497662,0.581846,0.30209556,-0.41676378,0.6296838,15.538443565368652,-2.493194341659546,7.224154472351074,-2.1814465522766113,2.3155221939086914, 2.915999412536621
73,1821514329,0.58154225,0.3019243,-0.41650826,0.6302152,15.707350730895996,-2.3936374187469482,7.287298679351807,2.1928250789642334,2.147977113723755, 3.2478888034820557
74,1821530996,0.5814871,0.30140877,-0.4165828,0.63046366,15.474969863891602,-2.197460412979126,7.181002140045166,-1.9975086450576782,2.459299325942993, 2.678800106048584
75,1821547663,0.581277,0.3011275,-0.41640943,0.63090634,16.23594093322754,-2.5846965312957764,7.4620537757873535,1.1141844987869263,2.350855827331543, 3.069535255432129
76,1821564330,0.5812236,0.3007155,-0.41633508,0.63120085,15.08368968963623,-2.1937613487243652,7.10402774810791,-0.6800556182861328,2.6882641315460205, 2.324589490890503
77,1821580997,0.5811796,0.30037242,-0.41618127,0.631506,15.888678550720215,-2.46417498588562,7.285393714904785,-0.13610588014125824,2.7748475074768066, 1.9191913604736328
78,1821597664,0.581079,0.30003673,-0.4159717,0.6318963,15.458013534545898,-2.3082196712493896,7.096065044403076,0.435947448015213,2.9965391159057617, 2.336320400238037
79,1821614331,0.5810642,0.29960328,-0.4159662,0.632119,15.246131896972656,-2.468430280685425,7.173318862915039,-1.3823044300079346,2.4855523109436035, 2.060394525527954
80,1821630998,0.5809294,0.2991721,-0.4159999,0.63242495,16.126188278198242,-2.3013994693756104,7.388660430908203,-1.1035104990005493,2.158773183822632, 2.9625251293182373
81,1821647665,0.5807862,0.29883948,-0.41586888,0.6327997,15.447552680969238,-2.3005568981170654,7.161301136016846,0.238012433052063,2.507054328918457, 2.6685168743133545
82,1821664332,0.58078974,0.2983599,-0.4157951,0.63307124,15.10892105102539,-2.293123960494995,7.103424549102783,-1.0661927461624146,3.1013846397399902, 2.2302708625793457
83,1821680999,0.58060116,0.29815957,-0.41533792,0.6336385,16.36186981201172,-2.2226643562316895,7.323893070220947,2.6117336750030518,3.5498883724212646, 2.47009539604187
84,1821697666,0.5805113,0.2978672,-0.41500294,0.6340779,14.878494262695312,-2.506662368774414,6.991420269012451,1.1517198085784912,3.4896984100341797, 2.0539400577545166
85,1821714333,0.58028483,0.297808,-0.4143947,0.6347101,16.597261428833008,-2.353820323944092,7.480894088745117,4.28481912612915,3.5318186283111572, 2.292445659637451
86,1821731000,0.58025557,0.297432,-0.41402462,0.63515455,14.928618431091309,-2.4057726860046387,6.9636549949646,1.049423098564148,4.148931980133057, 2.083164691925049
87,1821747667,0.5801162,0.29724196,-0.41331494,0.6358327,15.327433586120605,-2.1077921390533447,7.187206745147705,3.9220921993255615,4.910601615905762, 2.13140606880188
88,1821764334,0.58007675,0.29686537,-0.4128165,0.6363685,15.419194221496582,-2.1668927669525146,7.003498554229736,1.8857288360595703,4.82675838470459, 2.2326784133911133
89,1821781001,0.5799701,0.29656515,-0.4122305,0.63698506,14.378649711608887,-2.434588670730591,7.074437618255615,2.887197732925415,4.834928512573242, 2.427629232406616
90,1821797668,0.5797502,0.29635328,-0.41168192,0.63763815,16.29222297668457,-2.116316795349121,7.4458723068237305,3.3490467071533203,4.0597734451293945, 2.8534023761749268
91,1821814335,0.5795029,0.2961847,-0.41120213,0.6382507,15.732409477233887,-2.554720163345337,7.4552741050720215,3.210341215133667,3.4282279014587402, 2.8631350994110107
92,1821831002,0.579348,0.29600656,-0.41082445,0.6387169,15.10131549835205,-2.228790044784546,7.174185276031494,2.257023334503174,2.9942338466644287, 2.180582046508789
93,1821847669,0.5792393,0.2958192,-0.41038883,0.6391821,15.585639953613281,-2.2550904750823975,7.178520202636719,2.2004318237304688,3.4289066791534424, 1.7765674591064453
94,1821864336,0.5791773,0.2954821,-0.41001108,0.6396366,14.872320175170898,-2.2832224369049072,7.0432891845703125,1.310966968536377,3.948601484298706, 2.118919849395752
95,1821881003,0.5791163,0.29525098,-0.40957284,0.64007914,15.900520324707031,-2.1761245727539062,7.209273815155029,2.1469271183013916,3.6592037677764893, 1.7501864433288574
96,1821897670,0.5791328,0.29483545,-0.40931466,0.6404208,15.489422798156738,-2.3797621726989746,7.307368278503418,-0.12531012296676636,3.8390679359436035, 1.7152119874954224
97,1821914337,0.5790541,0.29451346,-0.40900427,0.6408382,15.139203071594238,-2.1829674243927,7.1362080574035645,0.954361081123352,3.5055267810821533, 2.1075856685638428
98,1821931004,0.578896,0.294434,-0.40850216,0.64133775,15.389687538146973,-2.105006456375122,7.191346168518066,3.305081844329834,3.1100924015045166, 1.8039214611053467
99,1821947671,0.5787307,0.29426512,-0.40810272,0.6418185,14.72541618347168,-2.3208627700805664,7.00793981552124,2.2217929363250732,3.0933547019958496, 2.082075357437134
100,1821964338,0.57844526,0.2942567,-0.4076031,0.6423971,15.11770248413086,-1.951134204864502,7.056983470916748,3.8292341232299805,2.6428534984588623, 2.351252794265747
101,1821981005,0.5781593,0.2941119,-0.40730822,0.64290744,15.404748916625977,-2.4231934547424316,7.235568523406982,2.2359437942504883,2.284966468811035, 2.910031795501709
102,1821997672,0.57808405,0.29381576,-0.40710786,0.6432374,15.486538887023926,-2.073653221130371,7.3275065422058105,0.38842302560806274,2.7839276790618896, 1.9374536275863647
103,1822014339,0.57799596,0.29343542,-0.4069171,0.6436108,15.44562816619873,-2.357780694961548,7.1442084312438965,0.07382222265005112,3.1921942234039307, 2.375559091567993
104,1822031006,0.5778768,0.29318604,-0.40657663,0.6440465,15.310595512390137,-2.2617619037628174,7.048330783843994,1.6573784351348877,3.216038942337036, 2.1911728382110596
105,1822047673,0.57781667,0.29276848,-0.40644625,0.6443727,14.955072402954102,-2.238978147506714,7.161984920501709,-0.5931262373924255,3.127906560897827, 2.2524900436401367
106,1822064340,0.57765484,0.29251042,-0.40600413,0.64491343,15.590019226074219,-1.8789721727371216,7.211910724639893,2.144352912902832,3.8278887271881104, 2.4332385063171387
107,1822081007,0.57760495,0.29203483,-0.40588227,0.64525026,14.425847053527832,-2.499324321746826,6.968317031860352,-0.6085321307182312,3.354412078857422, 2.587836980819702
108,1822097674,0.57745904,0.29183075,-0.40555623,0.64567804,15.735541343688965,-2.0593159198760986,7.377159595489502,1.8792228698730469,2.8631091117858887, 2.2362637519836426
109,1822114341,0.57727945,0.2915878,-0.40543485,0.64602464,14.757904052734375,-2.533484935760498,6.95150089263916,0.437650591135025,2.023793935775757, 2.455751895904541
110,1822131008,0.5770209,0.2916139,-0.40510967,0.64644754,15.275724411010742,-2.2339746952056885,7.332251071929932,2.719165802001953,1.589953064918518, 1.907102346420288
111,1822147675,0.5769231,0.29131442,-0.40501115,0.6467316,15.239251136779785,-2.1017425060272217,6.8712029457092285,-0.026637213304638863,2.2491347789764404, 2.170759916305542
112,1822164342,0.5768505,0.29116732,-0.40473697,0.64703417,14.343768119812012,-2.2054543495178223,6.9464850425720215,1.0977922677993774,2.4478249549865723, 1.1983221769332886
113,1822181009,0.5766687,0.2910733,-0.40422574,0.647558,15.575530052185059,-2.066218614578247,7.034176826477051,3.193730592727661,3.2924163341522217, 1.9382474422454834
114,1822197676,0.5765054,0.2910146,-0.40380213,0.6479936,15.019813537597656,-2.4133479595184326,7.0609211921691895,2.7605814933776855,2.6510870456695557, 1.6527169942855835
115,1822214343,0.57632464,0.29089513,-0.40341687,0.64844793,15.153253555297852,-2.290269374847412,7.149171829223633,2.4090731143951416,2.771146774291992, 2.032322883605957
116,1822231010,0.5761293,0.2908188,-0.40304098,0.6488895,14.902841567993164,-2.0328240394592285,6.933276176452637,2.508309841156006,2.487217426300049, 1.9334197044372559
117,1822247677,0.5759839,0.290666,-0.40273765,0.6492752,15.053845405578613,-2.0676727294921875,6.969677925109863,1.834349513053894,2.524829626083374, 1.9851058721542358
118,1822264344,0.5758642,0.29044738,-0.40251565,0.649617,14.818238258361816,-2.0473453998565674,6.846318244934082,0.9343703985214233,2.5130603313446045, 1.9822372198104858
119,1822281011,0.57579166,0.29013157,-0.40231997,0.6499433,14.610774993896484,-2.069208860397339,6.89539909362793,0.13186059892177582,2.989315986633301, 1.9339061975479126
120,1822297678,0.5756217,0.2899955,-0.40197518,0.6503677,15.1340970993042,-2.3248274326324463,6.8947529792785645,2.192389726638794,2.653110980987549, 2.103539228439331
121,1822314345,0.5753932,0.28989506,-0.40163046,0.6508276,15.1506929397583,-2.277486801147461,7.028156280517578,2.463563919067383,2.4271810054779053, 2.3500866889953613
122,1822331012,0.5752247,0.28976426,-0.40134284,0.6512121,14.747852325439453,-2.1303396224975586,6.84371280670166,1.7739291191101074,2.3491647243499756, 1.98660409450531
123,1822347679,0.5751127,0.28962654,-0.40099344,0.6515875,15.106541633605957,-2.1848912239074707,7.028475284576416,1.974348545074463,2.738222122192383, 1.648747205734253
124,1822364346,0.575042,0.28933468,-0.40070435,0.65195733,14.075272560119629,-2.111626148223877,6.676596641540527,0.9950344562530518,3.292109489440918, 1.9840176105499268
125,1822381013,0.5748804,0.2892221,-0.4003194,0.65238607,15.159161567687988,-2.1187164783477783,7.0224456787109375,2.350522756576538,2.7601723670959473, 1.8546606302261353
126,1822397680,0.5747928,0.28896013,-0.4002274,0.65263563,15.311857223510742,-2.2464475631713867,7.0368194580078125,-0.19182629883289337,2.1202895641326904, 1.8115414381027222
127,1822414347,0.57461655,0.28886726,-0.39994895,0.65300286,14.71367073059082,-2.150047540664673,6.856348514556885,1.7263662815093994,2.112516164779663, 1.7810494899749756
128,1822431014,0.57442063,0.28876954,-0.399623,0.6534177,15.020330429077148,-2.048720121383667,6.892166614532471,2.126769781112671,2.354326009750366, 2.0000765323638916
129,1822447681,0.5744018,0.2884118,-0.3995532,0.653635,14.132794380187988,-2.2281405925750732,6.682897090911865,-0.8745328783988953,2.5915634632110596, 1.6970398426055908
130,1822464348,0.5741457,0.2884537,-0.39903465,0.6541581,15.029102325439453,-1.9118980169296265,6.770338535308838,3.9262664318084717,2.5485339164733887, 1.9105089902877808
131,1822481015,0.5740604,0.28816482,-0.3989546,0.6544091,14.342374801635742,-2.3737802505493164,6.755772590637207,-0.28199583292007446,2.202404022216797, 1.9550749063491821
132,1822497682,0.573944,0.287997,-0.3987543,0.6547069,14.812104225158691,-1.9039242267608643,6.8941826820373535,0.8947989344596863,2.149808406829834, 1.6835548877716064
133,1822514349,0.5737898,0.28780788,-0.39861134,0.65501225,15.163797378540039,-2.2311315536499023,6.84954309463501,0.5644335150718689,1.9556770324707031, 2.0076451301574707
134,1822531016,0.5737411,0.2875771,-0.3985278,0.65520686,14.152322769165039,-2.0826058387756348,6.7392258644104,-0.1712721288204193,1.9357887506484985, 1.4684081077575684
135,1822547683,0.5736548,0.28737608,-0.3983751,0.6554636,14.493577003479004,-2.02878737449646,6.542784690856934,0.3166433870792389,2.1420094966888428, 1.542019009590149
136,1822564350,0.573474,0.28736624,-0.3979966,0.655856,14.949485778808594,-2.166602611541748,6.890569686889648,2.8007428646087646,2.149667739868164, 1.6410764455795288
137,1822581017,0.573378,0.28718257,-0.39775184,0.6561687,14.3302640914917,-1.944764256477356,6.727679252624512,1.0595396757125854,2.504979372024536, 1.64268958568573
138,1822597684,0.5732502,0.287064,-0.39747694,0.6564987,14.857455253601074,-2.1732780933380127,6.746232509613037,1.5670424699783325,2.279370069503784, 1.6259645223617554
139,1822614351,0.57311255,0.28694886,-0.39720404,0.6568344,14.447461128234863,-2.0391194820404053,6.6040167808532715,1.5958056449890137,2.2533092498779297, 1.6829017400741577
140,1822631018,0.57297903,0.28683966,-0.3969625,0.65714455,14.235797882080078,-2.086029291152954,6.630042552947998,1.474875569343567,2.05242919921875, 1.664345383644104
141,1822647685,0.5728311,0.28668186,-0.39678475,0.6574496,14.484996795654297,-2.036961793899536,6.615109443664551,0.8721060752868652,2.0119738578796387, 1.8774299621582031
142,1822664352,0.57266456,0.2865854,-0.3965221,0.6577953,14.16443920135498,-2.1035327911376953,6.678704261779785,1.7348440885543823,2.0845983028411865, 1.8533157110214233
143,1822681019,0.57248706,0.2864618,-0.3963123,0.6581298,14.555521965026855,-2.005192756652832,6.678080081939697,1.3566983938217163,1.9578415155410767, 2.0236403942108154
144,1822697686,0.57235944,0.28635427,-0.396138,0.65839237,14.660392761230469,-2.0097193717956543,6.705705642700195,0.7496132850646973,1.804843544960022, 1.3991256952285767
145,1822714353,0.5721793,0.28627414,-0.39591578,0.6587175,14.16476058959961,-2.2624096870422363,6.4995856285095215,1.3247721195220947,1.8659428358078003, 1.7050182819366455
146,1822731020,0.57202536,0.28621224,-0.3956398,0.659044,14.555872917175293,-1.8105201721191406,6.607453346252441,1.843416452407837,2.012998104095459, 1.6091114282608032
147,1822747687,0.57196134,0.28596964,-0.39559716,0.65923005,14.253410339355469,-2.037705183029175,6.4960713386535645,-0.7578285336494446,1.9641289710998535, 1.4213576316833496
148,1822764354,0.57189864,0.28574064,-0.3954148,0.65949345,14.217872619628906,-1.9628164768218994,6.455667972564697,0.3770509660243988,2.555629014968872, 1.5800025463104248
149,1822781021,0.57181114,0.2855814,-0.39525202,0.6597358,14.233893394470215,-2.061091899871826,6.543336868286133,0.4966878294944763,2.0791172981262207, 1.4250327348709106
150,1822797688,0.57159483,0.28553578,-0.39502615,0.66007835,14.693575859069824,-2.0630342960357666,6.546729564666748,1.7059019804000854,1.678342580795288, 1.939515471458435
151,1822814355,0.5714404,0.28547415,-0.39486393,0.66033524,13.842243194580078,-2.070234775543213,6.389177322387695,1.0155627727508545,1.503727912902832, 1.5028188228607178
152,1822831022,0.5712658,0.285434,-0.39467075,0.66061926,14.575263023376465,-1.9117958545684814,6.5241804122924805,1.1995517015457153,1.5640844106674194, 1.4692918062210083
153,1822847689,0.5711843,0.28520116,-0.3946176,0.6608221,13.738800048828125,-1.8725440502166748,6.3185648918151855,-0.5214874148368835,1.9645005464553833, 1.5805277824401855
154,1822864356,0.5711313,0.2849955,-0.39453337,0.66100687,14.24231243133545,-1.9453624486923218,6.467944145202637,-0.17735515534877777,1.9472119808197021, 1.3870365619659424
155,1822881023,0.57097334,0.284839,-0.3943871,0.66129804,14.742210388183594,-2.0169451236724854,6.563784599304199,0.5564550161361694,1.9527312517166138, 1.8599621057510376
156,1822897690,0.57089865,0.2846006,-0.39436597,0.6614777,13.583962440490723,-2.0724475383758545,6.377529621124268,-0.6645215153694153,1.808890700340271, 1.607318639755249
157,1822914357,0.57076913,0.2845131,-0.3941561,0.66175205,14.933353424072266,-1.782575011253357,6.565101623535156,1.264505386352539,1.8642010688781738, 1.526689887046814
158,1822931024,0.570676,0.2843217,-0.3941425,0.6619228,13.85714340209961,-1.9987211227416992,6.290709495544434,-0.3456690311431885,1.457894206047058, 1.6584032773971558
159,1822947691,0.5704913,0.28435078,-0.3938339,0.6622532,13.859230995178223,-1.7373260259628296,6.252222061157227,2.37243390083313,1.7031867504119873, 1.454052209854126
160,1822964358,0.57039076,0.28418985,-0.39376417,0.66245013,14.24787712097168,-1.9792336225509644,6.368353843688965,0.04272838681936264,1.5926170349121094, 1.5544028282165527
161,1822981025,0.5702036,0.28418878,-0.39357543,0.6627239,14.147159576416016,-1.8272703886032104,6.3926568031311035,1.5214519500732422,1.270703673362732, 1.5370246171951294
162,1822997692,0.57010293,0.2840608,-0.3935876,0.6628582,13.821548461914062,-1.9372410774230957,6.230632305145264,-0.5036225914955139,1.0444539785385132, 1.2897981405258179
163,1823014359,0.57001466,0.28399286,-0.39350173,0.6630143,14.549439430236816,-1.7380620241165161,6.437312126159668,0.37290170788764954,1.1917909383773804, 1.0819381475448608
164,1823031026,0.5699519,0.28390774,-0.3934525,0.66313386,13.660595893859863,-1.8330559730529785,6.1636271476745605,-0.013689989224076271,1.133714199066162, 0.9477148056030273
165,1823047693,0.5698158,0.28388515,-0.39328516,0.66335964,14.175471305847168,-1.7311675548553467,6.183603763580322,1.1964012384414673,1.3263601064682007, 1.298749566078186
166,1823064360,0.56974465,0.28380197,-0.39313415,0.66354597,14.005224227905273,-1.6756259202957153,6.347253799438477,0.6927658915519714,1.6357996463775635, 1.0816305875778198
167,1823081027,0.56970763,0.28356764,-0.39311978,0.66368634,14.088321685791016,-1.8022222518920898,6.2093825340271,-0.8082984089851379,1.8234641551971436, 1.3607834577560425
168,1823097694,0.5695544,0.2835233,-0.39300007,0.6639078,14.046608924865723,-1.8148125410079956,6.360257148742676,0.8625653386116028,1.2228078842163086, 1.496454119682312
169,1823114361,0.5694668,0.28339535,-0.39302164,0.6640246,13.993802070617676,-1.7759231328964233,6.196855545043945,-0.49200719594955444,1.024117350578308, 1.3145015239715576
170,1823131028,0.5693207,0.28329676,-0.39298487,0.6642137,13.908943176269531,-1.7542423009872437,6.219679355621338,-0.02379419282078743,1.1728758811950684, 1.514792561531067
171,1823147695,0.5692947,0.28306648,-0.3930681,0.6642849,13.776762962341309,-1.5740723609924316,6.123828411102295,-1.4088904857635498,1.343482255935669, 1.2724965810775757
172,1823164362,0.569203,0.28286147,-0.39318693,0.6643805,13.956925392150879,-1.7943609952926636,6.094691276550293,-1.3345370292663574,0.9835981726646423, 1.6386942863464355
173,1823181029,0.56914437,0.28267404,-0.39332816,0.6644268,13.655519485473633,-1.678676962852478,6.016958236694336,-1.6559635400772095,0.8467749953269958, 1.2300819158554077
174,1823197696,0.56898904,0.2826598,-0.39332318,0.66456896,13.763678550720215,-1.7928659915924072,6.077840328216553,0.11630085855722427,0.569287121295929, 1.286980390548706
175,1823214363,0.5687405,0.28286487,-0.39316985,0.66478515,13.625981330871582,-1.8002761602401733,6.1012444496154785,2.2511959075927734,-0.011833067052066326, 1.2903101444244385
176,1823231030,0.5684138,0.28341636,-0.39274928,0.66507816,13.592658996582031,-1.890357494354248,6.083688259124756,5.157220840454102,-0.5940867066383362, 0.4749491512775421
177,1823247697,0.5681186,0.28405643,-0.39232057,0.6653103,13.61811351776123,-1.9127976894378662,5.964155673980713,5.168822765350342,-0.9489314556121826, -0.2686452567577362
178,1823264364,0.56784785,0.28470656,-0.39175284,0.66559815,13.345755577087402,-1.8485393524169922,5.883721828460693,6.3088250160217285,-0.3664281666278839, -0.18653731048107147
179,1823281031,0.5676873,0.28522506,-0.3912423,0.6658134,13.855192184448242,-1.4688671827316284,6.023515224456787,4.785085678100586,0.2740110456943512, -0.7585969567298889
180,1823297698,0.5677427,0.28544155,-0.3909459,0.66584754,13.695199966430664,-1.4825114011764526,5.979867458343506,1.744084119796753,1.049032211303711, -1.1858808994293213
181,1823314365,0.5678234,0.2856256,-0.39063513,0.66588205,13.263006210327148,-1.6321486234664917,5.912041187286377,1.8901597261428833,1.255515456199646, -1.0388767719268799
182,1823331032,0.5678243,0.2858033,-0.39033508,0.665981,13.453758239746094,-1.3658937215805054,5.903096675872803,2.021667957305908,1.1880385875701904, -0.4781634509563446
183,1823347699,0.5677905,0.2859194,-0.39008272,0.6661078,13.380040168762207,-1.18603515625,5.817872047424316,1.8835644721984863,1.1941345930099487, 0.18983493745326996
184,1823364366,0.567778,0.28590104,-0.39001107,0.6661683,13.268380165100098,-1.1092710494995117,5.803299427032471,0.36455196142196655,1.0139235258102417, 0.5989593863487244
185,1823381033,0.56771034,0.28589627,-0.38994274,0.66626805,13.20097827911377,-1.0948200225830078,5.691442012786865,0.526283323764801,0.8905726075172424, 0.9157372117042542
186,1823397700,0.56750727,0.28595966,-0.38980994,0.6664914,13.293395042419434,-1.2898716926574707,5.805891990661621,1.614746332168579,0.7274967432022095, 1.6632568836212158
187,1823414367,0.56731695,0.2859708,-0.38973394,0.6666932,13.171396255493164,-1.233374834060669,5.753561019897461,1.2200546264648438,0.6932397484779358, 1.8917858600616455
188,1823431034,0.56711394,0.28598467,-0.38979873,0.66682196,12.769537925720215,-1.4445921182632446,5.5315070152282715,0.3884229362010956,-0.039571613073349, 1.9184741973876953
189,1823447701,0.56680506,0.28609324,-0.38979974,0.66703737,13.153369903564453,-1.5034846067428589,5.661668300628662,1.3078804016113281,-0.2867213785648346, 2.2177844047546387
190,1823464368,0.5664675,0.28624886,-0.38983107,0.66723895,12.974120140075684,-1.501530408859253,5.630802631378174,1.4593666791915894,-0.7464565634727478, 2.294699192047119
191,1823481035,0.5662943,0.28629878,-0.3899746,0.66728073,12.81939697265625,-1.3516936302185059,5.668776988983154,-0.10660005360841751,-0.6026540398597717, 1.5080692768096924
192,1823497702,0.5661646,0.2863484,-0.3901369,0.66727465,12.828200340270996,-1.5785603523254395,5.444752216339111,-0.3398549258708954,-0.670975923538208, 1.214983344078064
193,1823514369,0.5660193,0.28651562,-0.39026994,0.6672484,12.431499481201172,-1.6211484670639038,5.36273193359375,0.25244516134262085,-1.1788115501403809, 0.8498613238334656
194,1823531036,0.56578994,0.28689218,-0.39030868,0.6672585,12.911423683166504,-1.584770679473877,5.545468330383301,1.5322093963623047,-1.8565237522125244, 0.44546252489089966
195,1823547703,0.565572,0.28732723,-0.39044476,0.66717654,12.303033828735352,-1.5970126390457153,5.355434417724609,1.087316870689392,-2.66086483001709, 0.10405799001455307
196,1823564370,0.56529385,0.28792462,-0.3905017,0.6671213,12.360637664794922,-1.4464937448501587,5.37904691696167,2.3958957195281982,-3.2386112213134766, -0.014573628082871437
197,1823581037,0.565065,0.2885168,-0.3906073,0.6669975,12.26211166381836,-1.2689450979232788,5.235016345977783,1.7785011529922485,-3.3761637210845947, -0.4668810963630676
198,1823597704,0.5648318,0.28915456,-0.39061725,0.66691303,12.148866653442383,-1.2599519491195679,5.05256986618042,2.554117441177368,-3.154869794845581, -0.5635562539100647
199,1823614371,0.56458837,0.28973734,-0.39069715,0.66681945,12.155412673950195,-1.2964407205581665,5.017837047576904,1.967868685722351,-3.198322057723999, -0.29658225178718567
200,1823631038,0.5642932,0.2902727,-0.39076316,0.6667978,11.922672271728516,-1.1637635231018066,4.9775471687316895,2.2873871326446533,-2.953900098800659, 0.43667733669281006
201,1823647705,0.5640164,0.29070425,-0.39092353,0.6667499,11.696542739868164,-1.0687870979309082,4.892213821411133,1.3877663612365723,-2.852473497390747, 0.7585521340370178
202,1823664372,0.5636914,0.29119965,-0.3910472,0.6667361,11.626965522766113,-1.1156742572784424,4.89683198928833,1.9995769262313843,-3.0596930980682373, 0.8818644285202026
203,1823681039,0.56326115,0.29180038,-0.39114276,0.66678107,11.541851043701172,-1.1826717853546143,4.747262477874756,2.9094557762145996,-3.5933339595794678, 1.2622644901275635
204,1823697706,0.5626183,0.29259935,-0.3911431,0.66697323,11.481261253356934,-1.4017658233642578,4.735881805419922,4.8985514640808105,-4.390452861785889, 2.0585763454437256
205,1823714373,0.56170255,0.29365394,-0.39103618,0.66734433,11.164417266845703,-1.6889033317565918,4.671854496002197,7.4645490646362305,-5.527978420257568, 3.1403424739837646
206,1823731040,0.56063855,0.2949735,-0.39072528,0.667839,11.129115104675293,-1.3515006303787231,4.639680862426758,10.071808815002441,-6.100090026855469, 3.17348575592041
207,1823747707,0.55977196,0.29622057,-0.39053762,0.66812366,11.037681579589844,-1.213258147239685,4.501832485198975,8.239755630493164,-6.1235504150390625, 1.884730339050293
208,1823764374,0.55888355,0.2975659,-0.39024064,0.6684432,10.942479133605957,-1.3598650693893433,4.4033122062683105,9.338785171508789,-6.15408182144165, 1.6978859901428223
209,1823781041,0.5580646,0.29889265,-0.39010364,0.66861546,10.640460014343262,-1.2257124185562134,4.34453010559082,7.958515167236328,-6.77599573135376, 1.1595064401626587
210,1823797708,0.5569728,0.30027792,-0.39005303,0.66893435,10.814881324768066,-1.7877001762390137,4.483450889587402,8.803454399108887,-7.81904935836792, 3.0448458194732666
211,1823814375,0.55532306,0.3020485,-0.38990265,0.66959625,10.74200439453125,-2.225764274597168,4.578021049499512,12.820391654968262,-9.996978759765625, 5.6725077629089355
212,1823831042,0.5532426,0.3043256,-0.38928118,0.6706481,10.552717208862305,-1.8184022903442383,4.1941375732421875,19.073835372924805,-10.932955741882324, 6.933351993560791
213,1823847709,0.5513469,0.30650225,-0.38917017,0.6712821,10.844294548034668,-1.1961971521377563,4.3369059562683105,14.697822570800781,-12.753232955932617, 5.703052520751953
214,1823864376,0.5500132,0.30793065,-0.38961115,0.6714667,10.799856185913086,-1.8556492328643799,4.5536346435546875,7.135440826416016,-10.892755508422852, 4.725680828094482
215,1823881043,0.548903,0.30879608,-0.3905224,0.6714484,10.929457664489746,-2.6682631969451904,4.362310409545898,1.7496488094329834,-9.89239501953125, 5.356724739074707
216,1823897710,0.5480358,0.30937985,-0.39146063,0.6713417,11.740327835083008,-2.213710308074951,5.087669849395752,-0.2923562526702881,-8.203582763671875, 4.599638938903809
217,1823914377,0.54946464,0.30513254,-0.3957735,0.6695864,11.724872589111328,-6.5711750984191895,7.6762800216674805,-43.18804931640625,3.986163854598999, 8.107646942138672
218,1823931044,0.5490903,0.3006173,-0.39851782,0.670308,10.647804260253906,-5.703775882720947,2.5499491691589355,-26.96856117248535,11.522818565368652, 22.704851150512695
219,1823947711,0.55060303,0.2931677,-0.40451118,0.66877484,11.661599159240723,-2.5384817123413086,5.058852195739746,-63.30270767211914,13.404680252075195, 19.997983932495117
220,1823964378,0.5529114,0.28178412,-0.41414282,0.6658622,8.411558151245117,-4.963825225830078,2.771864652633667,-100.85440826416016,17.318235397338867, 29.053945541381836
221,1823981045,0.55313873,0.2710475,-0.4275657,0.6616333,7.017594337463379,-5.228261947631836,-2.765547752380371,-115.88273620605469,-8.348504066467285, 38.716033935546875
222,1823997712,0.5503988,0.26442808,-0.43989587,0.65850633,8.80021858215332,-2.8011465072631836,-4.819558620452881,-86.40864562988281,-29.46352767944336, 42.23944854736328
223,1824014379,0.5467443,0.2613762,-0.45281208,0.6539989,9.854378700256348,2.1559243202209473,-5.404080390930176,-77.95587158203125,-52.96054458618164, 31.52682876586914
224,1824031046,0.541403,0.26163137,-0.4667821,0.6484956,9.754100799560547,-0.023114211857318878,-6.500669479370117,-69.3449935913086,-79.1076889038086, 27.768056869506836
225,1824047713,0.5323353,0.26850876,-0.4766752,0.64598984,9.15605354309082,-0.8862557411193848,-4.655172824859619,-10.154349327087402,-99.86772155761719, 27.022357940673828
226,1824064380,0.5211468,0.27923366,-0.48445868,0.64477473,8.774669647216797,0.04342203587293625,-3.0255892276763916,21.47672462463379,-113.7041244506836, 24.689638137817383
227,1824081047,0.50808454,0.292409,-0.49085337,0.6445233,8.270666122436523,-0.7262585163116455,-1.6459722518920898,43.23324966430664,-123.93013763427734, 25.653945922851562
228,1824097714,0.49364677,0.3077078,-0.49541602,0.64512926,8.006957054138184,0.30809682607650757,-0.7628175020217896,64.43788146972656,-129.8446502685547, 23.89765167236328
229,1824114381,0.480006,0.32160646,-0.50108665,0.6442638,7.621830940246582,0.4961954653263092,1.0891168117523193,48.06377029418945,-127.8004379272461, 22.50475311279297
230,1824131048,0.4682094,0.33310288,-0.50864464,0.6411731,7.094420433044434,0.6813162565231323,2.1092538833618164,20.005117416381836,-122.00899505615234, 19.474124908447266
231,1824147715,0.45868975,0.34217653,-0.51778454,0.6359388,6.93179988861084,0.9188201427459717,2.4446558952331543,-7.512167453765869,-113.4487075805664, 14.672383308410645
232,1824164382,0.45102626,0.34959427,-0.5267862,0.6299647,7.452391624450684,0.8355330228805542,3.318701982498169,-19.16543197631836,-100.99475860595703, 9.844512939453125
233,1824181049,0.44405904,0.35707325,-0.5328421,0.62561166,7.126608371734619,0.4567853808403015,5.104160308837891,-2.057572841644287,-85.81002044677734, 4.605443477630615
234,1824197716,0.43742114,0.36465102,-0.535618,0.623543,7.1865129470825195,0.005329062230885029,5.997769355773926,19.861482620239258,-69.5467300415039, 1.7863714694976807
235,1824214383,0.4322245,0.3713496,-0.5351923,0.62357897,7.95256233215332,0.6205500960350037,6.7525482177734375,35.02152633666992,-45.717403411865234, -2.8277387619018555
236,1824231050,0.43075448,0.3751391,-0.5315247,0.6254621,8.46832275390625,1.0719523429870605,13.622982025146484,37.49173355102539,-5.3401103019714355, -10.840441703796387
237,1824247717,0.43112883,0.3770202,-0.5275323,0.62745,7.946965217590332,-1.6111915111541748,5.841867923736572,28.73665428161621,10.526429176330566, -12.262625694274902
238,1824264384,0.4280415,0.38195136,-0.5202791,0.6326164,11.698301315307617,-4.657276630401611,-1.635549545288086,72.30740356445312,2.6160147190093994, -7.431202411651611
239,1824281051,0.42374805,0.38808492,-0.51511896,0.63598776,11.879864692687988,-2.986785411834717,-1.2464560270309448,63.531517028808594,-17.69483184814453, -6.323143005371094
240,1824297718,0.42198163,0.39202952,-0.5138075,0.63580376,8.694894790649414,-1.9548101425170898,3.003251791000366,19.616662979125977,-19.077598571777344, -9.916101455688477
241,1824314385,0.42180023,0.39344856,-0.5143937,0.63457257,7.518757343292236,-4.018628120422363,3.138923168182373,-3.9444854259490967,-10.830092430114746, -5.830247402191162
242,1824331052,0.42087942,0.3945566,-0.5146971,0.63424987,7.709533214569092,-3.8627471923828125,0.7736280560493469,1.7959433794021606,-8.957043647766113, 0.33569931983947754
243,1824347719,0.4203394,0.39502513,-0.5161854,0.6331056,6.771910667419434,-2.264531373977661,-0.06038995459675789,-8.930769920349121,-10.57100772857666, 1.7525948286056519
244,1824364386,0.4204873,0.39490953,-0.51829976,0.63134974,5.846384048461914,-1.4932457208633423,-0.21416039764881134,-17.42911720275879,-8.993168830871582, 0.7506259679794312
245,1824381053,0.42077947,0.39490458,-0.5201579,0.62962765,5.884390830993652,-1.4321266412734985,-0.6910732984542847,-16.538803100585938,-7.947616100311279, -0.8809113502502441
246,1824397720,0.4208742,0.3955068,-0.52137583,0.6281772,5.6489081382751465,-1.460044503211975,-0.8199556469917297,-9.244819641113281,-9.312579154968262, -3.0748963356018066
247,1824414387,0.42022556,0.39667797,-0.52182454,0.62750024,5.6244049072265625,-1.7841532230377197,-0.4621390998363495,-0.5523380041122437,-9.485897064208984, -1.8005732297897339
248,1824431054,0.41868517,0.39849827,-0.5213294,0.62778807,5.146999835968018,-1.1587224006652832,-0.8102508187294006,11.297149658203125,-10.094114303588867, -0.07145948708057404
249,1824447721,0.41724128,0.400612,-0.52049327,0.6280976,4.917898654937744,-0.8187916278839111,-1.148214340209961,13.661783218383789,-10.057425498962402, -2.401052236557007
250,1824464388,0.41584557,0.40293473,-0.5193401,0.62849194,5.215942859649658,-1.2227429151535034,-0.7119718194007874,15.781495094299316,-9.583362579345703, -3.9732773303985596
251,1824481055,0.41413686,0.40557766,-0.51782876,0.6291668,5.175172805786133,-1.5913945436477661,-0.4342137277126312,20.215173721313477,-10.303598403930664, -3.9509968757629395
252,1824497722,0.41225997,0.40800688,-0.5161841,0.63017946,5.254668235778809,-1.966341495513916,-0.17258378863334656,22.187307357788086,-8.815191268920898, -1.8887354135513306
253,1824514389,0.4104362,0.4100562,-0.5144186,0.63148224,5.192645072937012,-1.9816646575927734,-0.36433860659599304,22.821578979492188,-5.9801926612854, -0.3202105760574341
254,1824531056,0.4088143,0.41186032,-0.5126064,0.63283247,5.389493942260742,-2.010033130645752,-0.1330173909664154,21.7945556640625,-3.8346245288848877, -0.3412001430988312
255,1824547723,0.4075494,0.4136648,-0.5108175,0.6339168,5.68434476852417,-1.5060535669326782,0.4088880717754364,19.79618263244629,-3.4101309776306152, -2.5988733768463135
256,1824564390,0.40641126,0.41527176,-0.5091719,0.63492,6.260571479797363,-2.114609956741333,0.2473013550043106,18.25617027282715,-2.9045348167419434, -2.298640012741089
257,1824581057,0.40520746,0.4170397,-0.50755566,0.63582414,6.5777177810668945,-1.1686046123504639,0.31883394718170166,18.317222595214844,-4.1379547119140625, -2.7740256786346436
258,1824597724,0.40407285,0.41916648,-0.50607306,0.63632923,7.794654846191406,-0.901883602142334,1.0195297002792358,17.205860137939453,-7.016736030578613, -5.045772552490234
259,1824614391,0.40308034,0.42145905,-0.5052677,0.6360844,5.484532356262207,-1.0481131076812744,0.6592408418655396,11.930976867675781,-11.455676078796387, -6.367887020111084
260,1824631058,0.40178624,0.42395982,-0.5040785,0.63618463,3.7861998081207275,-2.038357973098755,-0.7604897618293762,16.154739379882812,-11.301362991333008, -5.910073757171631
261,1824647725,0.40041956,0.42636257,-0.50250477,0.6366853,4.052517414093018,-1.488114595413208,-0.4973736107349396,19.048879623413086,-8.789536476135254, -5.290234565734863
262,1824664392,0.39921027,0.42869073,-0.5008847,0.6371576,5.3152289390563965,-1.0140740871429443,-0.1532655507326126,18.697574615478516,-7.978636741638184, -5.98454475402832
263,1824681059,0.39810768,0.4310921,-0.49942228,0.63737535,4.591927528381348,-0.9156358242034912,-0.02082950435578823,17.09463882446289,-9.148959159851074, -6.943445682525635
264,1824697726,0.3971453,0.4334763,-0.49796602,0.6374981,4.316694259643555,-1.1649036407470703,-0.28063568472862244,16.372562408447266,-8.9433012008667, -7.7559332847595215
265,1824714393,0.39617762,0.43594626,-0.49630874,0.63770837,4.573716163635254,-1.190767526626587,-0.41173917055130005,18.050447463989258,-8.665444374084473, -8.442831039428711
266,1824731060,0.39527905,0.43845668,-0.49445575,0.63798434,4.345999717712402,-1.0673986673355103,-0.5147413015365601,19.17344093322754,-7.941103458404541, -9.328929901123047
267,1824747727,0.39451244,0.4408902,-0.49260285,0.63821507,4.065189361572266,-0.7918698191642761,-0.3161090910434723,18.420961380004883,-7.274646759033203, -9.780559539794922
268,1824764394,0.39395583,0.44300798,-0.49095717,0.6383604,4.139735698699951,-0.7439255714416504,-0.2284371554851532,15.856374740600586,-6.064711093902588, -9.268492698669434
269,1824781061,0.39353043,0.44485742,-0.48941833,0.6385182,4.2573323249816895,-0.8671626448631287,-0.4466356337070465,14.18896770477295,-4.61475944519043, -8.55490493774414
270,1824797728,0.39327317,0.44650972,-0.48792928,0.6386631,3.977261543273926,-0.9339480996131897,-0.33946213126182556,13.002279281616211,-3.418337821960449, -8.548284530639648
271,1824814395,0.39295033,0.44813922,-0.48630401,0.63895994,3.630985975265503,-0.9314231872558594,0.09043976664543152,14.322066307067871,-2.74294376373291, -8.223759651184082
272,1824831062,0.39271957,0.44960678,-0.48472834,0.63926804,3.6423470973968506,-0.8148782253265381,0.0031150318682193756,13.454329490661621,-1.8614171743392944, -7.933194637298584
273,1824847729,0.39264527,0.45090348,-0.48320818,0.6395513,3.590054988861084,-0.8531016111373901,0.2587476670742035,12.028878211975098,-0.733855664730072, -7.919912815093994
274,1824864396,0.3930662,0.45172897,-0.48195586,0.639655,3.274414300918579,-0.17341051995754242,0.7805013060569763,7.766484260559082,1.4732238054275513, -8.299939155578613
275,1824881063,0.39383334,0.4521523,-0.48095104,0.6396404,3.3491721153259277,0.26568278670310974,0.6252405643463135,4.019575119018555,3.36942195892334, -8.012486457824707
276,1824897730,0.3953038,0.45195666,-0.4802504,0.6393981,3.327153444290161,0.5063154697418213,0.9870815873146057,-2.01328706741333,6.894435882568359, -8.694131851196289
277,1824914397,0.39785895,0.45013908,-0.48077714,0.6386992,4.25202751159668,-0.025344597175717354,0.06344456970691681,-16.617328643798828,12.74860668182373, -5.54478645324707
278,1824931064,0.4015674,0.44678584,-0.48323652,0.63687396,4.5798797607421875,0.12430533021688461,-2.2019708156585693,-36.71147537231445,14.596662521362305, -2.588343858718872
279,1824947731,0.40602535,0.44270158,-0.48612553,0.63469726,4.597978591918945,0.10234926640987396,-1.383528232574463,-44.26774215698242,18.214920043945312, -3.0074801445007324
280,1824964398,0.4113529,0.4373287,-0.48894888,0.6328203,5.4371256828308105,-0.7182539701461792,0.16183258593082428,-49.240535736083984,27.889299392700195, -1.835990071296692
281,1824981065,0.41655776,0.43183905,-0.49022835,0.6321955,7.992620944976807,0.10391596704721451,0.6248168349266052,-38.29510498046875,36.11496353149414, -2.007120132446289
282,1824997732,0.42238027,0.42660123,-0.4915879,0.63083106,9.632061958312988,1.819811224937439,3.051088333129883,-42.48073959350586,34.798805236816406, -7.292705535888672
283,1825014399,0.42728364,0.42304876,-0.49221656,0.62942934,8.4810209274292,-0.7863876819610596,5.635605335235596,-32.08031463623047,26.434017181396484, -11.075834274291992
284,1825031066,0.42921543,0.42379272,-0.4924093,0.62746066,1.9754818677902222,0.2532784640789032,0.34513726830482483,-10.578878402709961,-2.917738437652588, -15.808792114257812
285,1825047733,0.4274168,0.4289302,-0.48897192,0.6278855,-5.876587867736816,-0.7605800032615662,-3.9940481185913086,36.84205627441406,-16.713876724243164, -18.048742294311523
286,1825064400,0.42378253,0.43545997,-0.48374194,0.6299021,-2.8353006839752197,-2.4583041667938232,-6.208680629730225,59.874961853027344,-19.079692840576172, -15.688379287719727
287,1825081067,0.4166863,0.44438136,-0.48034257,0.6310061,1.4925116300582886,-5.317527770996094,-3.912499189376831,66.7011489868164,-49.096622467041016, -6.131843090057373
288,1825097734,0.4061522,0.45553923,-0.4824572,0.628299,1.4401782751083374,-5.975683689117432,-7.005610466003418,47.070228576660156,-97.45783233642578, 7.168915271759033
289,1825114401,0.3944675,0.46684495,-0.49149117,0.62039316,-0.24172180891036987,-5.558645248413086,-5.469608783721924,4.174199104309082,-137.4614715576172, 18.49266815185547
290,1825131068,0.38251093,0.47808814,-0.504814,0.60850656,-1.6006412506103516,-3.672926425933838,0.32100504636764526,-26.822555541992188,-162.4441680908203, 22.57843017578125
291,1825147735,0.3718395,0.4880992,-0.51887244,0.5952025,-4.7877607345581055,-0.6557115316390991,7.734255313873291,-42.28948211669922,-159.5219268798828, 19.94537353515625
292,1825164402,0.36373675,0.49507478,-0.5301188,0.5844406,-8.308088302612305,1.8978731632232666,11.948431968688965,-38.21869659423828,-122.4737777709961, 17.218162536621094
293,1825181069,0.3590877,0.49776977,-0.5357502,0.57987326,-8.884800910949707,2.8925507068634033,13.855669021606445,-15.595362663269043,-57.974552154541016, 15.215117454528809
294,1825197736,0.36235666,0.4923422,-0.54245716,0.57622665,-2.758279800415039,-1.1573389768600464,-16.319774627685547,-63.831443786621094,3.7380213737487793, 19.575870513916016
295,1825214403,0.35825795,0.49555814,-0.5407382,0.5776467,15.541918754577637,1.788655161857605,-6.826601028442383,34.706512451171875,-19.081708908081055, 0.8877475261688232
296,1825231070,0.35787874,0.49686986,-0.54399294,0.5736856,1.9351532459259033,4.646255016326904,4.965811729431152,-23.180505752563477,-27.510787963867188, -2.1380298137664795
297,1825247737,0.35848638,0.49689543,-0.54702246,0.5703939,10.780038833618164,-2.333913564682007,-2.0942764282226562,-26.362260818481445,-16.077924728393555, -0.18208128213882446
298,1825264404,0.35374784,0.5007119,-0.5428198,0.57401824,9.067071914672852,-0.482854425907135,1.2201999425888062,55.625701904296875,-9.574812889099121, -1.1153943538665771
299,1825281071,0.34929183,0.5046597,-0.538192,0.577636,8.923437118530273,3.2752468585968018,-0.24924524128437042,56.61037826538086,-8.098944664001465, -4.143183708190918
300,1825297738,0.35059786,0.5034991,-0.5384813,0.57758796,6.107247352600098,0.03192386403679848,-0.17696411907672882,-7.543159484863281,7.961831092834473, -1.049198865890503
301,1825314405,0.3524391,0.50174576,-0.53674835,0.5796027,3.0437734127044678,0.19279249012470245,-2.5977272987365723,4.709334850311279,24.405508041381836, -2.8379576206207275
302,1825331072,0.35530433,0.4994473,-0.5327745,0.5834917,1.4073612689971924,1.0602058172225952,-3.0321667194366455,15.632665634155273,42.39124298095703, -7.982794761657715
303,1825347739,0.3601375,0.49595356,-0.527244,0.58851075,4.061197757720947,0.7305474281311035,-1.242719054222107,16.532730102539062,62.02107620239258, -14.240800857543945
304,1825364406,0.36837703,0.48933694,-0.5242864,0.5915841,6.154048442840576,0.0032471553422510624,1.6916656494140625,-20.456071853637695,74.17992401123047, -12.490799903869629
305,1825381073,0.37692082,0.48280707,-0.52023786,0.59513104,5.872818470001221,-2.288437604904175,3.543534517288208,-15.116720199584961,79.21505737304688, -16.482845306396484
306,1825397740,0.3817441,0.48017672,-0.5152955,0.5984751,0.2433551698923111,-1.8657139539718628,-0.30041274428367615,10.215550422668457,51.51669692993164, -18.69309425354004
307,1825414407,0.3804138,0.4824734,-0.50696045,0.6045627,-4.564239978790283,-1.6224325895309448,-1.9860984086990356,67.09988403320312,27.454702377319336, -14.830668449401855
308,1825431074,0.37719342,0.48691878,-0.49807167,0.6103771,-2.334120035171509,1.1131776571273804,-4.166718006134033,80.56444549560547,12.366722106933594, -17.305477142333984
309,1825447741,0.37339327,0.49198154,-0.4937254,0.612182,-0.24650102853775024,-1.1026571989059448,-4.718027591705322,51.42409896850586,-17.38046646118164, -12.259599685668945
310,1825464408,0.36875486,0.49711564,-0.49560222,0.609323,-2.3435256481170654,-1.6633416414260864,-4.35405158996582,12.432512283325195,-52.159114837646484, 0.04599447548389435
311,1825481075,0.3614622,0.5037259,-0.49844265,0.60593766,-6.062782287597656,-2.3787002563476562,0.34713804721832275,19.490999221801758,-71.5920181274414, 7.915765762329102
312,1825497742,0.3533763,0.5113179,-0.4989299,0.6039439,-8.864522933959961,1.1974295377731323,4.805016040802002,38.05083465576172,-66.78123474121094, 4.373082160949707
313,1825514409,0.35170484,0.51451486,-0.50275886,0.599009,-7.888479232788086,3.407041549682617,4.918426990509033,-19.17913246154785,-45.14646911621094, -2.6043214797973633
314,1825531076,0.3578376,0.5128141,-0.50999486,0.59066,-7.514218330383301,5.695671081542969,4.157844543457031,-84.4998550415039,-18.4641056060791, -13.969402313232422
315,1825547743,0.36950216,0.5060336,-0.522196,0.5785409,-6.38447380065918,1.8789318799972534,2.2308812141418457,-149.91986083984375,-4.065430164337158, -10.282678604125977
316,1825564410,0.37690714,0.49883577,-0.5331779,0.5699344,-6.046383380889893,-3.084587335586548,-2.9510531425476074,-117.57901763916016,-3.3140103816986084, 11.29118824005127
317,1825581077,0.37342435,0.49690753,-0.5351564,0.5720532,-0.1012287363409996,-5.281829833984375,-17.88214683532715,6.923441410064697,-2.776427984237671, 32.97677230834961
318,1825597744,0.37294117,0.49634975,-0.53527945,0.5727373,11.775205612182617,7.191887378692627,8.78013801574707,2.32919979095459,3.246428966522217, 5.97012186050415
319,1825614411,0.37866902,0.4888885,-0.54474735,0.56643474,9.29442024230957,-2.5207040309906006,4.423036575317383,-98.18328094482422,4.4244232177734375, 19.753793716430664
320,1825631078,0.37748826,0.48761177,-0.5496157,0.5636134,12.74250316619873,-4.239987373352051,4.219668865203857,-28.90229034423828,-21.274272918701172, 18.526954650878906
321,1825647745,0.373289,0.48849788,-0.552215,0.563102,10.719566345214844,-0.6074553728103638,0.7415573596954346,4.315110683441162,-27.581430435180664, 20.40947723388672
322,1825664412,0.37243056,0.4878173,-0.55508745,0.5614336,6.967403888702393,3.125053644180298,-1.1188238859176636,-16.385950088500977,-13.46142292022705, 11.430183410644531
323,1825681079,0.37680605,0.48324233,-0.55976427,0.55781555,4.580649375915527,1.4126771688461304,-3.063852071762085,-58.31022644042969,10.405448913574219, 7.278854846954346
324,1825697746,0.3827814,0.47779718,-0.5613288,0.5568649,3.697805643081665,0.7760341763496399,-3.0738179683685303,-43.6580810546875,36.90419387817383, 1.120254635810852
325,1825714413,0.39057133,0.47100133,-0.5600179,0.5585623,4.315769195556641,0.40743526816368103,-1.7114202976226807,-31.92993927001953,65.424072265625, -3.0586745738983154
326,1825731080,0.40103945,0.4619417,-0.55779076,0.56093395,4.878094673156738,0.6410908699035645,0.5846425294876099,-40.56647491455078,89.1097640991211, -5.756930828094482
327,1825747747,0.4122335,0.4524136,-0.5521869,0.5661055,5.197179794311523,-1.3044530153274536,4.849021911621094,-20.42232322692871,111.87284088134766, -9.729390144348145
328,1825764414,0.42045712,0.44512194,-0.5469137,0.57093585,-0.3966192305088043,-1.5459638833999634,-0.421021431684494,-7.47321891784668,89.7373046875, -6.616949558258057
329,1825781081,0.426662,0.44041103,-0.54131246,0.5753074,-5.123443126678467,-3.007897138595581,-5.664092063903809,5.088909149169922,71.9410629272461, -9.907060623168945
330,1825797748,0.42684457,0.4419064,-0.53174436,0.5828985,-4.399493217468262,-3.436161994934082,-9.289873123168945,69.49576568603516,46.40052032470703, -12.245495796203613
331,1825814415,0.42400947,0.44601306,-0.5254334,0.58754414,-1.2649613618850708,-2.3251311779022217,-8.087201118469238,62.69817352294922,6.604924201965332, -8.753559112548828
332,1825831082,0.4155397,0.45459008,-0.5233832,0.58885026,-2.5853469371795654,-4.298083305358887,-10.421476364135742,64.19709014892578,-54.48796844482422, 0.5698902606964111
333,1825847749,0.40084928,0.46791613,-0.5227252,0.58917964,-5.428858280181885,-2.4861016273498535,-5.609800338745117,88.52717590332031,-103.12533569335938, 9.518985748291016
334,1825864416,0.38254866,0.48385608,-0.5212101,0.5898135,-7.221578598022461,-0.7480948567390442,0.9373683929443359,112.23458862304688,-123.50117492675781, 12.228767395019531
335,1825881083,0.36540553,0.4983934,-0.52004325,0.58960855,-9.024449348449707,1.348589301109314,5.888310432434082,100.56865692138672,-117.81103515625, 10.839301109313965
336,1825897750,0.35185435,0.50916034,-0.5193929,0.58922446,-7.717451095581055,3.2289648056030273,6.3664751052856445,76.08926391601562,-92.01617431640625, 10.77879810333252
337,1825914417,0.34574234,0.51435024,-0.52240443,0.58566177,-7.439002990722656,4.549343585968018,6.587660312652588,9.100057601928711,-61.944454193115234, 7.809926986694336
338,1825931084,0.34545553,0.5151146,-0.5284133,0.57973886,-6.071413040161133,3.3753669261932373,5.269367694854736,-42.61810302734375,-38.876243591308594, 5.340163230895996
339,1825947751,0.34613094,0.5144294,-0.53426826,0.5745548,-5.258001327514648,0.5446136593818665,4.0250349044799805,-46.20820236206055,-26.76959228515625, 8.051006317138672
340,1825964418,0.34640196,0.5125566,-0.5381473,0.57244116,-4.494724750518799,1.1330904960632324,-5.998804569244385,-28.545541763305664,-8.102519035339355, 14.320743560791016
341,1825981085,0.34204692,0.51572204,-0.534343,0.5757713,10.654687881469727,1.4138692617416382,-4.777764320373535,50.1854362487793,-7.36987829208374, -0.2159554660320282
342,1825997752,0.3418923,0.5170649,-0.53577316,0.57332426,5.2237019538879395,4.756221771240234,8.438358306884766,-10.91221809387207,-17.421825408935547, -5.0443267822265625
343,1826014419,0.33896768,0.5199164,-0.53854465,0.569875,9.607267379760742,-1.649362325668335,2.775286912918091,-6.5590667724609375,-40.56797409057617, 2.9089603424072266
344,1826031086,0.3319647,0.5249893,-0.53766245,0.5701798,10.700512886047363,-0.939418375492096,3.023268461227417,41.3875846862793,-42.54899978637695, 6.376188278198242
345,1826047753,0.32406622,0.52976286,-0.534605,0.57317525,11.047812461853027,-1.402043104171753,0.857128381729126,62.3843879699707,-30.126480102539062, 9.338313102722168
346,1826064420,0.3211437,0.531839,-0.5323127,0.57502794,5.706454753875732,1.191354751586914,-0.245893195271492,31.024932861328125,-7.122673511505127, -0.07414902746677399
347,1826081087,0.32422212,0.5296884,-0.53287417,0.57476556,5.25820255279541,0.7378029823303223,-2.6397430896759033,-19.27110481262207,17.518634796142578, -2.5000617504119873
348,1826097754,0.3292633,0.52590126,-0.5313005,0.5768304,5.633862018585205,2.362654447555542,-3.291633367538452,-13.085615158081055,44.484981536865234, -6.8068060874938965
349,1826114421,0.33814982,0.51924837,-0.5291452,0.57969064,6.36464786529541,2.191011428833008,-1.0259491205215454,-28.2462215423584,74.17688751220703, -11.804647445678711
350,1826131088,0.34943834,0.51083374,-0.5270554,0.5823697,5.663045406341553,0.9770715832710266,1.2237039804458618,-41.84366989135742,89.15176391601562, -15.07321548461914
351,1826147755,0.36116326,0.50290865,-0.5242385,0.5846522,3.772533416748047,-1.3758302927017212,6.0655694007873535,-40.749752044677734,89.07714080810547, -22.061614990234375
352,1826164422,0.36943477,0.4942221,-0.5246023,0.58656204,-1.6901707649230957,-3.4665958881378174,1.1552549600601196,-44.878456115722656,70.31979370117188, 4.594409465789795
353,1826181089,0.3758066,0.48758125,-0.5237134,0.58886194,-6.100811004638672,-1.9452874660491943,-6.446666717529297,-26.77341079711914,59.71052551269531, 1.4702104330062866
354,1826197756,0.3770504,0.4864109,-0.518795,0.59337133,-4.065109729766846,-2.9038593769073486,-7.603297710418701,28.8780460357666,37.139705657958984, -5.385035037994385
355,1826214423,0.3779521,0.48594943,-0.5179997,0.59387016,-3.3017005920410156,-0.8534324765205383,-3.5750389099121094,0.7978807091712952,9.171316146850586, -3.2518022060394287
356,1826231090,0.37587157,0.48749283,-0.5207333,0.59153044,-5.03717041015625,-2.2441816329956055,-5.3636088371276855,-7.698241233825684,-28.867525100708008, 4.6597137451171875
357,1826247757,0.37130317,0.49118042,-0.5252783,0.5873319,-6.7731781005859375,-1.6529730558395386,-3.3497700691223145,-8.610630989074707,-56.56307601928711, 9.748647689819336
358,1826264424,0.3635534,0.4971196,-0.52811027,0.5846373,-8.320597648620605,-0.8336271643638611,0.31275951862335205,21.20307731628418,-68.44635772705078, 10.5491361618042
359,1826281091,0.35628128,0.5020147,-0.5318983,0.5814887,-8.56188678741455,-0.05932822450995445,2.9618313312530518,11.436447143554688,-66.49315643310547, 14.438292503356934
360,1826297758,0.35035154,0.5053919,-0.5365554,0.57787657,-7.003164291381836,1.1438076496124268,2.1697850227355957,-3.0149364471435547,-58.47653579711914, 18.33539390563965
361,1826314425,0.34644878,0.5074828,-0.5420136,0.5732849,-6.456351280212402,2.5714054107666016,3.3051111698150635,-19.971961975097656,-51.28543472290039, 15.445576667785645
362,1826331092,0.3445506,0.5082283,-0.5486622,0.5674141,-6.077922821044922,1.5132746696472168,4.307692527770996,-39.656524658203125,-45.90414810180664, 13.705817222595215
363,1826347759,0.34303993,0.50802886,-0.5547569,0.56256133,-6.406774997711182,0.8279514908790588,4.251822471618652,-37.279571533203125,-36.002471923828125, 16.245454788208008
364,1826364426,0.3439333,0.5044515,-0.560885,0.5591484,-6.260883331298828,-0.1190711185336113,-4.1992011070251465,-48.31044387817383,-8.919523239135742, 23.330486297607422
365,1826381093,0.33850425,0.5030454,-0.56237,0.5622281,7.136309623718262,-8.52366828918457,-8.928451538085938,21.680952072143555,-7.988466262817383, 38.470542907714844
366,1826397760,0.33305073,0.50364053,-0.56266546,0.5646513,7.217477321624756,3.994741201400757,11.028216361999512,28.541622161865234,-15.090209007263184, 25.019241333007812
367,1826414427,0.3321928,0.5025979,-0.5755519,0.5529768,9.866148948669434,-1.2589657306671143,2.9966354370117188,-94.64657592773438,-68.98782348632812, 25.039491653442383
368,1826431094,0.32934543,0.5033181,-0.5851783,0.54384667,13.18168830871582,0.9671104550361633,2.8582403659820557,-61.319252014160156,-67.45285034179688, 20.239282608032227
369,1826447761,0.32291713,0.50812566,-0.5917405,0.53607494,13.492138862609863,4.179129123687744,-0.8573641777038574,-22.78083038330078,-85.654052734375, 9.811304092407227
370,1826464428,0.3199341,0.5121224,-0.59507495,0.53033835,11.540748596191406,3.273700475692749,-0.26432567834854126,-16.42222023010254,-54.41387176513672, -6.109633922576904
371,1826481095,0.31876713,0.51511085,-0.592346,0.5312011,8.850784301757812,0.22819194197654724,-0.4871875047683716,24.087541580200195,-6.784440040588379, -15.256902694702148
372,1826497762,0.3190359,0.5173715,-0.5840512,0.5379843,7.583804130554199,0.4820805490016937,0.7546674013137817,61.84920883178711,34.86685562133789, -24.205419540405273
373,1826514429,0.3227899,0.5172016,-0.5751944,0.5453996,5.018734455108643,0.8382167220115662,1.6073871850967407,48.72515106201172,61.291473388671875, -27.888710021972656
374,1826531096,0.32926285,0.5137696,-0.56714725,0.55314636,3.3363687992095947,-0.4363754093647003,3.3042962551116943,30.072988510131836,83.61192321777344, -21.527210235595703
375,1826547763,0.3349562,0.5108435,-0.56109756,0.55858123,-3.403731107711792,0.22886760532855988,-0.9482078552246094,17.325754165649414,65.87391662597656, -18.72402000427246
376,1826564430,0.33837658,0.5094102,-0.55632997,0.5625831,-4.586565971374512,-2.3559648990631104,-1.6395633220672607,18.307096481323242,43.468650817871094, -14.603270530700684
377,1826581097,0.33700058,0.5118538,-0.54818815,0.5691452,-5.482504367828369,-2.755747079849243,-1.7145901918411255,66.9899673461914,27.04840850830078, -16.8686580657959
378,1826597764,0.33210868,0.517337,-0.537989,0.57674456,-4.599278926849365,-0.7523703575134277,-1.7387768030166626,98.38934326171875,10.423776626586914, -19.53790283203125
379,1826614431,0.33208987,0.51966804,-0.5320313,0.58017606,-4.8438801765441895,3.355699300765991,2.858926773071289,42.60516357421875,15.30792236328125, -24.32961082458496
380,1826631098,0.33393377,0.51901096,-0.52962494,0.5819052,-7.004456996917725,-1.7418020963668823,3.244410276412964,7.7652668952941895,21.01384735107422, -9.350497245788574
381,1826647765,0.33282372,0.5176134,-0.52524936,0.5877226,-10.023442268371582,-3.613798141479492,4.969385147094727,39.35618591308594,32.270172119140625, 7.412493705749512
382,1826664432,0.32784238,0.5171328,-0.5157741,0.59922475,-9.82989501953125,-1.2268112897872925,6.024643898010254,96.34844970703125,46.383968353271484, 14.430395126342773
383,1826681099,0.3253713,0.5153863,-0.5076958,0.6088971,-6.950486183166504,1.6904923915863037,3.2056918144226074,72.29542541503906,50.70595169067383, 9.326168060302734
384,1826697766,0.32694742,0.511627,-0.50387794,0.61437,-5.619686603546143,1.826166033744812,0.6604250073432922,20.942951202392578,48.78866195678711, 5.118409633636475
385,1826714433,0.33189785,0.50638026,-0.5050769,0.6150776,-5.353989124298096,0.03168065845966339,-1.738775372505188,-31.965110778808594,38.74027633666992, 2.963127374649048
386,1826731100,0.3349339,0.50250965,-0.5073395,0.61474377,-3.934598684310913,-1.5443589687347412,-3.2044365406036377,-30.2469539642334,20.31147575378418, 7.56212854385376
387,1826747767,0.3322048,0.50249785,-0.50862396,0.6151729,-2.938466787338257,-1.8257819414138794,-4.344803333282471,5.391269683837891,-11.088766098022461, 16.77448081970215
388,1826764434,0.32481635,0.50577784,-0.5105363,0.6148464,-2.3503870964050293,-1.064947485923767,-10.17955493927002,23.75206184387207,-45.19349670410156, 25.346548080444336
389,1826781101,0.3180591,0.50895494,-0.51491326,0.6121011,7.572276592254639,-3.140214204788208,-12.797648429870605,2.5050902366638184,-56.12726974487305, 26.162260055541992
390,1826797768,0.30730015,0.5151744,-0.515219,0.6121367,10.470843315124512,1.9838106632232666,9.995094299316406,50.2429313659668,-64.08126831054688, 24.047576904296875
391,1826814435,0.30454183,0.51494765,-0.52462226,0.6056853,10.73495101928711,-1.974530577659607,0.12407815456390381,-53.09638595581055,-51.16581344604492, 31.909711837768555
392,1826831102,0.29743358,0.51937795,-0.5263399,0.60394216,10.96395492553711,2.3998796939849854,-0.3518149256706238,21.03076934814453,-53.52141571044922, 15.931716918945312
393,1826847769,0.29413748,0.5222851,-0.52909154,0.60063607,9.738183975219727,3.122332811355591,-2.6089835166931152,-5.659097194671631,-41.12425231933594, 6.292945384979248
394,1826864436,0.29451528,0.5229428,-0.53268373,0.59669083,8.20130443572998,2.4622538089752197,-0.7197869420051575,-29.185068130493164,-22.42241096496582, 1.2110702991485596
395,1826881103,0.29836807,0.5225412,-0.5361602,0.5919963,7.605143070220947,0.9340196847915649,-0.6767413020133972,-46.09690856933594,-7.827932357788086, -10.959853172302246
396,1826897770,0.30520755,0.520278,-0.5374661,0.5893127,6.384151935577393,0.9401482343673706,0.15681222081184387,-44.4051513671875,22.417545318603516, -19.844768524169922
397,1826914437,0.31733352,0.5112035,-0.5370861,0.5911929,6.650421142578125,-0.8008354902267456,3.890255928039551,-53.93219757080078,89.37520599365234, -12.48425579071045
398,1826931104,0.32865733,0.5024453,-0.5351041,0.59430355,-0.9660273194313049,0.16577275097370148,-0.6737270951271057,-40.610618591308594,94.39482116699219, -10.063965797424316
399,1826947771,0.33906665,0.49632642,-0.53455573,0.59409106,-3.5574193000793457,-2.846010208129883,-1.789322018623352,-49.564735412597656,65.38304901123047, -18.883819580078125
400,1826964438,0.34209603,0.49511346,-0.52831477,0.59892946,-5.7497406005859375,-4.364253997802734,-1.7729264497756958,28.760021209716797,48.862613677978516, -14.40328311920166
401,1826981105,0.3431182,0.4958133,-0.5226718,0.60270494,-5.086572170257568,-2.6881799697875977,-3.6327731609344482,34.330238342285156,28.104816436767578, -15.12567138671875
402,1826997772,0.34458673,0.49674648,-0.52102315,0.6025265,-4.014375686645508,0.21434828639030457,-3.146484136581421,2.8256144523620605,5.741724967956543, -14.121380805969238
403,1827014439,0.34726694,0.4957235,-0.5247578,0.59857607,-6.7335591316223145,-0.8299807906150818,-0.1293388456106186,-42.1375617980957,-6.9220805168151855, -1.7913507223129272
404,1827031106,0.3448934,0.49513584,-0.5240556,0.6010449,-10.545175552368164,-2.3789572715759277,2.8596460819244385,17.813278198242188,5.232423305511475, 16.968238830566406
405,1827047773,0.3405127,0.49430186,-0.51686966,0.61037934,-11.333155632019043,0.6269983649253845,6.151043891906738,75.64671325683594,37.62549591064453, 20.04448699951172
406,1827064440,0.3389454,0.49133787,-0.508677,0.62044406,-9.298227310180664,3.173025369644165,5.713394641876221,67.7203598022461,61.401145935058594, 14.31727123260498
407,1827081107,0.34204608,0.4862675,-0.5049048,0.625795,-5.57680082321167,2.2101714611053467,-1.536227822303772,11.195432662963867,60.821250915527344, 6.616228103637695
408,1827097774,0.34760198,0.48085794,-0.50599957,0.62602973,-5.27597188949585,1.4003137350082397,-4.264678001403809,-35.257545471191406,40.894588470458984, -1.0838637351989746
409,1827114441,0.35100487,0.4779298,-0.51023716,0.62292624,-5.298331260681152,-1.2560116052627563,-6.966395854949951,-48.83198165893555,5.931946277618408, 4.981565475463867
410,1827131108,0.34946492,0.47862327,-0.5163594,0.61819655,-3.9979279041290283,-1.6313481330871582,-8.470986366271973,-37.59296417236328,-36.576515197753906, 15.764674186706543
411,1827147775,0.34482014,0.48091403,-0.5232604,0.6132044,-0.36824673414230347,-0.2798371911048889,-1.837937355041504,-27.526453018188477,-57.026615142822266, 24.914871215820312
412,1827164442,0.34282327,0.47961384,-0.53178966,0.60798246,1.1497764587402344,-0.7953323721885681,4.634649753570557,-52.432865142822266,-36.9632682800293, 31.557493209838867
413,1827181109,0.33812776,0.48069188,-0.54053885,0.6020157,7.8006367683410645,-4.967167377471924,5.419229507446289,-41.85313034057617,-59.61988067626953, 33.8312873840332
414,1827197776,0.3290736,0.48560464,-0.5459045,0.5982368,10.9641695022583,-0.0351937897503376,1.6177233457565308,3.7307403087615967,-76.91500091552734, 31.257904052734375
415,1827214443,0.3237445,0.4892924,-0.5540111,0.59063894,10.549745559692383,3.7636165618896484,2.898240566253662,-37.021095275878906,-76.9521713256836, 21.15433120727539
416,1827231110,0.32004288,0.49248934,-0.5612479,0.58311903,9.25699520111084,2.8566970825195312,-1.4503564834594727,-39.760101318359375,-66.6749038696289, 14.00814151763916
417,1827247777,0.31688175,0.494877,-0.5627193,0.5814034,6.204236030578613,2.182651996612549,-3.6944003105163574,3.30515718460083,-30.572999954223633, 4.871853351593018
418,1827264444,0.31632832,0.49436766,-0.5610105,0.58378446,4.00322151184082,2.4513280391693115,-3.3078320026397705,16.715946197509766,12.053451538085938, 3.868042469024658
419,1827281111,0.3200605,0.49129742,-0.55960757,0.58568573,4.969826698303223,2.0742273330688477,-2.1986074447631836,-6.47163200378418,36.64877700805664, -3.3696107864379883
420,1827297778,0.32824698,0.4855775,-0.5590589,0.5864485,6.399247646331787,1.4796477556228638,-1.4530305862426758,-36.33781433105469,60.36553192138672, -7.069460391998291
421,1827314445,0.3396817,0.47813413,-0.5590401,0.5860702,6.652100086212158,3.1334927082061768,0.40077704191207886,-57.737037658691406,74.82614135742188, -14.098821640014648
422,1827331112,0.3539834,0.4688216,-0.5614499,0.58281744,5.1729326248168945,2.3357067108154297,2.1638107299804688,-91.0924072265625,76.58787536621094, -20.808189392089844
423,1827347779,0.3684277,0.46056196,-0.5601351,0.58171505,3.4276514053344727,-1.664642333984375,7.059535503387451,-65.8082504272461,88.81243133544922, -32.1341552734375
424,1827364446,0.37732372,0.45634416,-0.5568348,0.582505,-3.9552485942840576,-1.2648963928222656,-0.7101722955703735,-22.852163314819336,62.05958557128906, -27.044218063354492
425,1827381113,0.3834787,0.45537516,-0.5514784,0.5843365,-7.406251430511475,-4.364004611968994,-6.654476165771484,6.411029815673828,47.196712493896484, -32.35115432739258
426,1827397780,0.3796484,0.46203634,-0.5393214,0.5928931,-4.841763019561768,-5.115285396575928,-7.394035816192627,110.696533203125,17.906150817871094, -24.93076515197754
427,1827414447,0.37466866,0.46939686,-0.5312621,0.5975372,-2.411844491958618,0.09102426469326019,-5.766669750213623,84.28987884521484,-11.433455467224121, -18.641151428222656
428,1827431114,0.36963382,0.476156,-0.5305806,0.59592843,-4.686775207519531,-0.521355152130127,-6.475990295410156,29.9401798248291,-48.26189041137695, -8.806349754333496
429,1827447781,0.36374664,0.48297456,-0.5345495,0.5904921,-6.9177703857421875,-0.5884146094322205,-3.803046464920044,0.19306603074073792,-76.01529693603516, -0.6590538024902344
430,1827464448,0.35495433,0.49176696,-0.5378056,0.585609,-7.909188270568848,-1.7994556427001953,1.1466727256774902,20.001344680786133,-91.24549865722656, 2.222245216369629
431,1827481115,0.34335384,0.5023186,-0.5367046,0.5845788,-9.745404243469238,-0.5857455730438232,5.946918964385986,65.63981628417969,-85.18609619140625, 1.40535569190979
432,1827497782,0.33043405,0.51242703,-0.53083605,0.5885961,-9.100896835327148,2.1001603603363037,6.234926700592041,106.88362884521484,-59.78769302368164, 3.7108161449432373
433,1827514449,0.32321346,0.5177054,-0.5259687,0.59234387,-8.799034118652344,5.733160972595215,7.6285858154296875,71.56320190429688,-23.994596481323242, -1.1243304014205933
434,1827531116,0.3239297,0.5179869,-0.5240195,0.593433,-6.848603248596191,4.885299205780029,5.878808498382568,10.422476768493652,9.169489860534668, -10.149195671081543
435,1827547783,0.33036387,0.515234,-0.5246707,0.59170467,-4.529231071472168,3.922400951385498,2.83674693107605,-38.09531784057617,26.993389129638672, -17.798267364501953
436,1827564450,0.3424304,0.50868994,-0.5339273,0.58214915,-3.3037240505218506,-0.2557162642478943,-16.404834747314453,-129.92689514160156,15.38835334777832, -14.262880325317383
437,1827581117,0.3351691,0.51195514,-0.53373855,0.5836838,10.995102882385254,-14.88766860961914,-16.144081115722656,39.424537658691406,-33.26286697387695, 20.11409568786621
438,1827597784,0.32492375,0.51978153,-0.5279184,0.58783865,6.353082180023193,4.7537641525268555,18.026580810546875,92.7800064086914,-39.857059478759766, 1.213720679283142
439,1827614451,0.32208213,0.5205253,-0.53211975,0.5849487,2.069103956222534,-2.853893518447876,2.156487226486206,-15.747057914733887,-32.547088623046875, 17.316402435302734
440,1827631118,0.31746182,0.52173877,-0.5334237,0.58520585,12.649362564086914,-1.3355653285980225,0.611585259437561,14.80644702911377,-23.347694396972656, 19.298599243164062
441,1827647785,0.31729987,0.52101123,-0.5378227,0.5819064,8.42550277709961,2.3869543075561523,0.5792767405509949,-30.93954849243164,-18.772258758544922, 11.898293495178223
442,1827664452,0.32073742,0.51760304,-0.54256827,0.578649,7.996659278869629,0.6912553906440735,-1.132244348526001,-50.92452621459961,4.599283695220947, 8.87987232208252
443,1827681119,0.32407767,0.5138844,-0.5445689,0.57822245,7.488354682922363,0.297132283449173,-2.8083739280700684,-29.779905319213867,21.598459243774414, 6.980641841888428
444,1827697786,0.3285349,0.51088595,-0.5430915,0.5797517,7.992837429046631,1.2322810888290405,-1.1682263612747192,-10.955394744873047,37.6327018737793, -8.026399612426758
445,1827714453,0.33782294,0.50492394,-0.54304737,0.5796785,8.825407028198242,1.4993855953216553,1.1855144500732422,-46.3162956237793,58.61692428588867, -14.713232040405273
446,1827731120,0.34732708,0.5002971,-0.53795433,0.5828139,8.410943984985352,1.5643858909606934,2.1274685859680176,-12.183276176452637,77.24339294433594, -29.699615478515625
447,1827747787,0.3575932,0.4944491,-0.5320968,0.5869585,4.601072311401367,-0.2231110781431198,5.508802890777588,-10.734891891479492,89.8803482055664, -29.015411376953125
448,1827764454,0.36650482,0.48565635,-0.5311728,0.5896335,-2.3045146465301514,-2.267642021179199,-0.259209543466568,-38.72911834716797,79.50640106201172, 0.42371606826782227
449,1827781121,0.3745035,0.47796756,-0.52951723,0.5923731,-6.151919841766357,-3.1859662532806396,-9.863207817077637,-30.09283447265625,74.14298248291016, -1.3782504796981812
450,1827797788,0.3761989,0.47656828,-0.5238071,0.5974808,-2.7927262783050537,-4.348972320556641,-8.653694152832031,31.920568466186523,44.236846923828125, -5.767003536224365
451,1827814455,0.37602583,0.4782108,-0.52206075,0.59780574,-3.018144369125366,2.0636208057403564,-7.976785182952881,12.810004234313965,-0.9083423614501953, -9.303655624389648
452,1827831122,0.3764061,0.48119786,-0.526901,0.5908829,-5.5395684242248535,0.3212554156780243,-7.25580358505249,-38.57691192626953,-45.05187225341797, -13.425965309143066
453,1827847789,0.37373254,0.48663643,-0.5346174,0.581114,-7.375152587890625,-0.7304112911224365,-4.891524791717529,-43.901893615722656,-82.86846923828125, -8.144912719726562
454,1827864456,0.3649923,0.49654025,-0.5393949,0.57383066,-8.754334449768066,-2.6510391235351562,-1.0128495693206787,8.926934242248535,-107.13204193115234, -4.1744513511657715
455,1827881123,0.35034868,0.5098575,-0.5399195,0.57077867,-9.177947998046875,-1.8195112943649292,2.1152360439300537,70.10621643066406,-117.35147857666016, 2.45391583442688
456,1827897790,0.3331966,0.5233396,-0.53764045,0.5709979,-7.580658912658691,0.9715461134910583,2.642059803009033,102.41764068603516,-109.17768859863281, 9.617491722106934
457,1827914457,0.32066625,0.5327641,-0.5382685,0.5688608,-7.681477069854736,4.068691730499268,4.274570465087891,56.332271575927734,-91.39910888671875, 11.506318092346191
458,1827931124,0.31394953,0.5381333,-0.5424954,0.5635131,-7.096375942230225,3.1650397777557373,3.8334081172943115,0.1008455753326416,-73.85782623291016, 9.945664405822754
459,1827947791,0.3121856,0.54048276,-0.5495727,0.5553275,-7.020744800567627,1.9656941890716553,5.028311252593994,-46.400367736816406,-60.4477424621582, 6.492063045501709
460,1827964458,0.31204626,0.5414782,-0.55523896,0.54876065,-7.682334899902344,1.7037291526794434,5.750649452209473,-43.87580490112305,-40.230369567871094, 3.659120559692383
461,1827981125,0.3170654,0.53657776,-0.5637225,0.5420062,-7.195647716522217,-0.37481027841567993,-3.0426278114318848,-87.11360168457031,-5.175484657287598, 16.800880432128906
462,1827997792,0.31122485,0.53624934,-0.5634104,0.5460263,5.048668384552002,-9.209092140197754,-17.736753463745117,37.48667907714844,-5.239363670349121, 30.531747817993164
463,1828014459,0.307053,0.5365013,-0.5622081,0.54936975,9.109954833984375,4.040914058685303,13.309919357299805,33.412132263183594,-1.0382159948349, 17.072237014770508
464,1828031126,0.30806458,0.53319156,-0.57593113,0.53768635,6.40178918838501,-4.204710006713867,5.203623294830322,-107.80756378173828,-55.01143264770508, 34.818321228027344
465,1828047793,0.3065836,0.532056,-0.5870562,0.5275301,20.33521270751953,-4.832191467285156,7.135059833526611,-78.47977447509766,-62.02742004394531, 29.107431411743164
466,1828064460,0.29816377,0.53584945,-0.58892757,0.52642983,17.286518096923828,-1.0288949012756348,2.5427446365356445,27.305410385131836,-55.66561508178711, 19.690269470214844
467,1828081127,0.2948286,0.53921837,-0.58897203,0.52481586,14.567462921142578,5.47544527053833,1.3293545246124268,12.191866874694824,-31.906997680664062, -4.641039848327637
468,1828097794,0.29667395,0.539636,-0.58668876,0.52590287,9.432168006896973,2.980556011199951,-1.1555894613265991,6.344192981719971,14.293670654296875, -14.274953842163086
469,1828114461,0.29983318,0.5381518,-0.58012116,0.53287166,3.628237009048462,2.8211402893066406,-3.2947819232940674,36.825958251953125,57.007720947265625, -15.108905792236328
470,1828131128,0.3075308,0.53354853,-0.57612413,0.53743076,0.8078997731208801,2.5485668182373047,-1.6527292728424072,-5.389579772949219,72.41901397705078, -14.672609329223633
471,1828147795,0.3207003,0.5238783,-0.572158,0.54345036,2.74954891204834,-2.142324686050415,5.122279167175293,-30.4902286529541,118.17868041992188, -11.576322555541992
472,1828164462,0.3333181,0.5137249,-0.5714963,0.5462397,-2.0745785236358643,-2.34967303276062,-0.22516322135925293,-54.68197250366211,98.73088836669922, -2.8883330821990967
473,1828181129,0.34306118,0.50664544,-0.57218075,0.5461032,-3.346109390258789,-4.4793829917907715,-3.860161542892456,-54.03549575805664,62.516387939453125, -6.224740505218506
474,1828197796,0.34315622,0.5064882,-0.56683,0.5517404,-5.592466831207275,-4.1062541007995605,-2.520265579223633,41.3095703125,33.09099578857422, -4.790916442871094
475,1828214463,0.34032384,0.50951916,-0.5605354,0.5571086,-5.055244445800781,-1.003117322921753,-2.4346888065338135,61.5858154296875,11.011419296264648, -10.180320739746094
476,1828231130,0.34120068,0.5117716,-0.557866,0.5571871,-5.60471248626709,4.06848669052124,-0.6254433989524841,12.527396202087402,1.39335298538208, -21.12894630432129
477,1828247797,0.34466377,0.51117676,-0.5598278,0.5536226,-7.994803428649902,0.04400523006916046,1.0612256526947021,-34.949073791503906,-1.4083847999572754, -12.303848266601562
478,1828264464,0.34162703,0.51193005,-0.5574881,0.5571586,-9.725090980529785,-2.63020396232605,2.2810163497924805,34.79397964477539,3.60444712638855, 8.90112590789795
479,1828281131,0.3338003,0.51445895,-0.5476114,0.56923753,-11.401910781860352,0.4993974566459656,6.319332599639893,117.43742370605469,26.19686508178711, 13.85506820678711
480,1828297798,0.32853666,0.5150086,-0.53703856,0.5817383,-9.921603202819824,2.6349024772644043,6.367523193359375,108.10498046875,46.5343017578125, 9.734854698181152
481,1828314465,0.3271258,0.513733,-0.52921516,0.59076107,-5.828477382659912,2.8812434673309326,1.702783465385437,66.46084594726562,49.37627410888672, 2.965529441833496
482,1828331132,0.32774603,0.5126777,-0.5252643,0.59484583,-4.2403082847595215,0.3009447157382965,-2.579763412475586,26.08202362060547,29.70026206970215, -3.4672741889953613
483,1828347799,0.32670572,0.51374245,-0.5237328,0.5958493,-4.211077690124512,-1.7643812894821167,-4.580694198608398,15.723464012145996,-1.1648151874542236, -2.7707841396331787
484,1828364466,0.3206838,0.5177009,-0.5232888,0.59608465,-3.3478519916534424,-2.8145010471343994,-6.9158453941345215,32.64643859863281,-35.93686294555664, 9.256170272827148
485,1828381133,0.31250295,0.5219748,-0.52672476,0.593671,1.6831179857254028,-5.087538719177246,-15.744071960449219,15.656636238098145,-62.73855209350586, 24.83739471435547
486,1828397800,0.30198115,0.52641076,-0.52879876,0.5933558,10.129816055297852,-3.1934151649475098,10.146522521972656,37.697574615478516,-60.92502975463867, 33.2852668762207
487,1828414467,0.2958805,0.5256851,-0.53654265,0.5901121,4.308549880981445,-2.8606038093566895,1.2572730779647827,-22.909507751464844,-46.54689407348633, 48.5072135925293
488,1828431134,0.29148918,0.52594733,-0.54156804,0.587467,13.321170806884766,3.1074347496032715,1.9478060007095337,-13.8624267578125,-36.61626052856445, 29.30905532836914
489,1828447801,0.2906308,0.5263055,-0.5494671,0.5801917,13.279667854309082,4.183407306671143,1.119866967201233,-55.33168029785156,-46.48537826538086, 16.019649505615234
490,1828464468,0.28804648,0.52943647,-0.5539522,0.5743374,10.19117546081543,4.9356560707092285,-3.0767383575439453,-24.582117080688477,-52.21571350097656, 3.149803638458252
491,1828481135,0.28654572,0.53390676,-0.5553536,0.56957674,8.827078819274902,3.477504014968872,-1.5170055627822876,-9.506932258605957,-43.254539489746094, -15.073332786560059
492,1828497802,0.2870345,0.5369946,-0.55271643,0.5689928,7.196839332580566,2.1115822792053223,-0.9300618767738342,12.241925239562988,-6.9694905281066895, -24.03588104248047
493,1828514469,0.292337,0.5361997,-0.5487041,0.5709229,4.861693859100342,1.753380537033081,0.3898109197616577,1.7411973476409912,38.49536895751953, -28.12203598022461
494,1828531136,0.303413,0.5288592,-0.54735285,0.5732832,4.733770370483398,-0.24981637299060822,2.8984055519104004,-41.537208557128906,82.16464233398438, -15.354001998901367
495,1828547803,0.3124595,0.5207208,-0.54096603,0.5818717,0.2895868122577667,-1.0415778160095215,0.9330835938453674,7.424068927764893,110.70848083496094, -9.662837982177734
496,1828564470,0.32204857,0.5156433,-0.53999674,0.5820656,-3.515331506729126,-3.222431182861328,-0.9370571374893188,-40.862998962402344,58.77674102783203, -21.88001823425293
497,1828581137,0.32491943,0.5147452,-0.53526676,0.5856231,-5.745931625366211,-5.199299335479736,-1.2476367950439453,19.753814697265625,37.431095123291016, -16.50376319885254
498,1828597804,0.32265788,0.5172623,-0.52882725,0.590486,-6.1641364097595215,-4.64793062210083,-1.5435035228729248,57.26107406616211,13.302181243896484, -11.760757446289062
499,1828614471,0.31986177,0.5207639,-0.52346265,0.5937005,-5.48668098449707,1.0821809768676758,-1.6387381553649902,51.03120422363281,-0.8234308362007141, -13.228206634521484
500,1828631138,0.32691142,0.5184654,-0.52615225,0.5894798,-7.633517742156982,4.455778121948242,4.374576568603516,-56.61368179321289,14.054956436157227, -20.00882911682129
501,1828647805,0.33327818,0.5115067,-0.5286371,0.5897708,-11.277792930603027,-2.500847101211548,6.1946306228637695,-47.53119659423828,46.89197540283203, 9.080916404724121
502,1828664472,0.334364,0.5051693,-0.522158,0.60029644,-12.347578048706055,-1.3805822134017944,7.452105522155762,45.98860549926758,81.55320739746094, 20.00139045715332
503,1828681139,0.33252743,0.5011883,-0.5112504,0.6138886,-7.137904167175293,-0.5695148706436157,-0.9616285562515259,90.7987289428711,81.98147583007812, 15.184040069580078
504,1828697806,0.32843181,0.5002122,-0.5005749,0.62557584,-3.2853927612304688,0.8949871063232422,-4.179349899291992,97.80481719970703,54.3150749206543, 10.54218864440918
505,1828714473,0.32710323,0.499372,-0.49910164,0.62811506,-4.905967712402344,0.09362877160310745,-8.809405326843262,17.569530487060547,11.156994819641113, 9.166296005249023
506,1828731140,0.32535857,0.5008125,-0.5034846,0.6243653,-4.68245792388916,-0.7227786183357239,-9.75157642364502,-22.660860061645508,-34.589744567871094, 9.053664207458496
507,1828747807,0.32079124,0.5051015,-0.51253235,0.6158539,-2.231703996658325,-0.8650928735733032,-9.40949535369873,-42.991722106933594,-83.10633850097656, 16.655567169189453
508,1828764474,0.31459674,0.50993407,-0.5205494,0.6082964,0.8927745819091797,0.3553261160850525,8.012123107910156,-28.338943481445312,-85.2623519897461, 20.109304428100586
509,1828781141,0.31178463,0.5099539,-0.5304198,0.6011591,1.1925684213638306,-2.615238904953003,2.3995168209075928,-56.94231033325195,-55.84032440185547, 30.646686553955078
510,1828797808,0.30099106,0.5152989,-0.53367656,0.5992169,15.229013442993164,-1.700181007385254,-1.1983985900878906,28.711017608642578,-74.65425109863281, 32.12697982788086
511,1828814475,0.29399663,0.51979417,-0.5386132,0.59437025,10.871703147888184,4.597987651824951,3.2735393047332764,-4.100646495819092,-71.0055923461914, 19.637680053710938
512,1828831142,0.2897597,0.523338,-0.5464891,0.5860942,9.400691032409668,2.113945245742798,0.14077994227409363,-40.64440155029297,-75.2685317993164, 15.699893951416016
513,1828847809,0.28662696,0.5260588,-0.54863477,0.583187,7.049802780151367,3.156531572341919,-4.280873775482178,-3.0071892738342285,-37.12478256225586, 4.565006732940674
514,1828864476,0.28756386,0.52678955,-0.549683,0.5810753,5.533202171325684,0.7886880040168762,-2.934194564819336,-14.212911605834961,-8.664273262023926, -6.5142130851745605
515,1828881143,0.29161093,0.524774,-0.5471539,0.5832649,6.862561225891113,0.08921145647764206,-1.5039408206939697,-0.3430071175098419,36.76738739013672, -12.95411491394043
516,1828897810,0.30004478,0.51961845,-0.5446275,0.58596146,7.513257026672363,0.6124318838119507,1.391541600227356,-20.574119567871094,67.68910217285156, -17.65073585510254
517,1828914477,0.31336033,0.5109159,-0.5436495,0.5875505,7.916872978210449,1.3536161184310913,2.0793545246124268,-55.753273010253906,93.01394653320312, -20.72027015686035
518,1828931144,0.32918417,0.49950704,-0.5414302,0.5907487,4.9632649421691895,-1.0055748224258423,6.171586990356445,-59.413021087646484,121.5383529663086, -21.542842864990234
519,1828947811,0.34092984,0.49129182,-0.5416973,0.5907312,-3.808365821838379,-1.4347437620162964,-1.1833425760269165,-62.36704635620117,78.89125061035156, -9.677594184875488
520,1828964478,0.34979284,0.48638585,-0.54032815,0.5908633,-6.9928765296936035,-4.477842807769775,-6.315134525299072,-37.56884002685547,58.78046417236328, -16.178722381591797
521,1828981145,0.34978303,0.4875549,-0.5343211,0.5953513,-5.731895923614502,-4.281852722167969,-7.315761089324951,43.75458908081055,25.02135467529297, -13.236783027648926
522,1828997812,0.34862658,0.4912227,-0.53071606,0.59623843,-4.008769512176514,-0.22281596064567566,-5.6907057762146,28.753307342529297,-5.088672161102295, -13.70490550994873
523,1829014479,0.34684154,0.4950774,-0.5303994,0.5943701,-6.616682052612305,0.3434860408306122,-2.5498313903808594,8.273954391479492,-25.58871841430664, -8.463150024414062
524,1829031146,0.3432919,0.49830514,-0.53202087,0.5922808,-9.575026512145996,-2.1705162525177,-0.5800634026527405,4.45554780960083,-35.12965393066406, 6.146018981933594
525,1829047813,0.3348859,0.50311565,-0.5293376,0.59542245,-10.901754379272461,-2.0787205696105957,0.9203364849090576,62.554412841796875,-32.367252349853516, 14.825918197631836
526,1829064480,0.32513884,0.50874275,-0.5245322,0.6002763,-9.489692687988281,1.4416465759277344,2.371382236480713,83.99571228027344,-29.814985275268555, 13.805225372314453
527,1829081147,0.31822896,0.51297694,-0.5228035,0.60188174,-6.559614181518555,2.464395046234131,-1.07998788356781,46.518096923828125,-32.146671295166016, 10.607580184936523
528,1829097814,0.31542835,0.5157218,-0.52631706,0.5979351,-5.315333366394043,1.9226704835891724,-2.007716417312622,-12.876424789428711,-42.240257263183594, 5.3060526847839355
529,1829114481,0.3133395,0.5186191,-0.53307366,0.59049577,-5.018287181854248,0.522622287273407,-3.0037147998809814,-41.02890396118164,-59.65022277832031, 5.767017841339111
530,1829131148,0.30936986,0.5235064,-0.5393343,0.58253735,-4.98671817779541,0.5470215082168579,-0.43648332357406616,-29.900577545166016,-75.32095336914062, 3.183713674545288
531,1829147815,0.30367047,0.5288613,-0.5419481,0.57825786,-4.965395450592041,2.497663736343384,3.1243789196014404,5.564423561096191,-62.59426498413086, 3.066446542739868
532,1829164482,0.30097353,0.527287,-0.54491836,0.57831436,-3.9098055362701416,-4.311622619628906,-5.93068265914917,-5.122593402862549,-8.914667129516602, 27.389245986938477
533,1829181149,0.29736662,0.526727,-0.54755336,0.57820165,14.68776798248291,-3.5682260990142822,4.92678165435791,1.0347754955291748,-16.097158432006836, 25.480241775512695
534,1829197816,0.29468143,0.5267702,-0.5542946,0.57309127,7.187166213989258,-0.7511652708053589,5.889462471008301,-36.28076934814453,-41.773624420166016, 24.265913009643555
535,1829214483,0.28929874,0.5312822,-0.5637954,0.5622992,13.752099990844727,-0.35187482833862305,4.007425308227539,-50.05910873413086,-96.06793212890625, 16.424867630004883
536,1829231150,0.28587654,0.53337604,-0.5683051,0.5575069,11.967424392700195,3.425713539123535,0.9407142996788025,-19.537940979003906,-47.492576599121094, 12.05495834350586
537,1829247817,0.28310633,0.5362452,-0.5687002,0.5557627,12.070361137390137,2.345343589782715,-1.243964672088623,7.257848739624023,-28.771848678588867, -2.37343430519104
538,1829264484,0.28200948,0.5349959,-0.56080806,0.5654597,7.608024597167969,2.494147300720215,-3.0256187915802,69.47602081298828,51.77216339111328, -0.7840255498886108
539,1829281151,0.28414765,0.5332757,-0.5542143,0.5724717,4.284237861633301,3.8772006034851074,-2.8484458923339844,41.281341552734375,53.725955963134766, -11.856943130493164
540,1829297818,0.29296765,0.5275199,-0.5521994,0.57529885,5.535152435302734,3.018082618713379,-1.5969603061676025,-25.050554275512695,70.84230041503906, -14.048880577087402
541,1829314485,0.3062085,0.51905787,-0.5524469,0.57586277,5.1443634033203125,1.850676417350769,0.6626396775245667,-64.07936096191406,85.57427978515625, -17.51051139831543
542,1829331152,0.320038,0.51113266,-0.5514302,0.57640606,3.190433979034424,1.1968607902526855,2.713961601257324,-60.14915466308594,88.21306610107422, -26.366811752319336
543,1829347819,0.33172098,0.50444895,-0.5499073,0.57714343,-1.2699774503707886,-2.6708507537841797,4.785823822021484,-47.17197799682617,76.84231567382812, -23.88422966003418
544,1829364486,0.34006935,0.49891117,-0.5491634,0.57780635,-7.335185527801514,-3.617035388946533,-4.947768211364746,-36.41179656982422,57.512550354003906, -12.547284126281738
545,1829381153,0.33995676,0.49988726,-0.5417332,0.58400977,-6.303416728973389,-5.1536383628845215,-10.195462226867676,55.380615234375,34.531219482421875, -13.685426712036133
546,1829397820,0.33543774,0.5042395,-0.5342348,0.5897603,-2.6586437225341797,-1.14077627658844,-4.93277645111084,77.10489654541016,3.527360200881958, -10.062023162841797
547,1829414487,0.33152094,0.50938094,-0.53300565,0.58866805,-5.02467155456543,0.2588428854942322,-5.506824016571045,26.329729080200195,-35.48802185058594, -9.528939247131348
548,1829431154,0.32711953,0.5149965,-0.5349622,0.58445436,-7.648244380950928,0.1054229810833931,-2.7451629638671875,4.8243560791015625,-57.20421600341797, -5.319794178009033
549,1829447821,0.32097203,0.5211382,-0.53675354,0.5807648,-8.53400993347168,-0.7927345037460327,-0.5439186096191406,14.81386947631836,-63.4320068359375, 0.26503774523735046
550,1829464488,0.3128609,0.5282144,-0.5365988,0.5789383,-8.639293670654297,0.5976996421813965,3.451294422149658,38.54012680053711,-63.37990188598633, 1.7842216491699219
551,1829481155,0.30697998,0.5335896,-0.5393966,0.5745403,-6.804673671722412,0.9414443373680115,0.36097002029418945,5.550732135772705,-64.2243423461914, 4.19423770904541
552,1829497822,0.30062646,0.5392942,-0.541447,0.570632,-5.466479301452637,2.322763442993164,1.4007235765457153,12.71044635772705,-63.85390853881836, 3.2271392345428467
553,1829514489,0.29583412,0.5442329,-0.54490507,0.5651294,-6.283721446990967,1.0097678899765015,0.5096086263656616,-6.124136447906494,-63.9048957824707, 1.882272481918335
554,1829531156,0.29098943,0.5490624,-0.5471323,0.5608048,-5.97269868850708,1.7719486951828003,2.4522082805633545,3.044123411178589,-56.76797103881836, 0.25489410758018494
555,1829547823,0.28817064,0.5520027,-0.54920805,0.55733424,-4.868356704711914,1.2242152690887451,2.4890635013580322,-4.6045989990234375,-38.3905029296875, 0.7007991671562195
556,1829564490,0.28582165,0.5507236,-0.5514748,0.55757076,-0.47322824597358704,-8.336603164672852,-10.900299072265625,-1.4966682195663452,-6.818075656890869, 22.90526008605957
557,1829581157,0.27696538,0.55330634,-0.54775965,0.56311786,15.809077262878418,-2.989853620529175,9.267848014831543,73.87226867675781,-14.107278823852539, 20.767715454101562
558,1829597824,0.27453268,0.5529197,-0.5529615,0.5595938,6.237194061279297,-1.5901237726211548,6.524691104888916,-25.013242721557617,-30.33265495300293, 23.8233642578125
559,1829614491,0.27301195,0.55298626,-0.5612975,0.55192,13.962815284729004,-0.8840084671974182,3.2952704429626465,-55.53129959106445,-50.54985809326172, 22.717411041259766
560,1829631158,0.2727042,0.5513789,-0.5663835,0.54847395,7.926183223724365,2.3061423301696777,0.42856380343437195,-34.68709182739258,-17.549365997314453, 20.27085304260254
561,1829647825,0.2722349,0.5511725,-0.567505,0.5477548,9.210552215576172,3.1375701427459717,-2.7896485328674316,-5.885236740112305,-5.765766620635986, 5.638798713684082
562,1829664492,0.27177516,0.55206287,-0.56517404,0.5494937,5.637543201446533,3.706794023513794,-3.048558235168457,18.74685287475586,5.928561210632324, -7.0059285163879395
563,1829681159,0.2734379,0.55212903,-0.5605469,0.5533288,5.184549331665039,1.9458187818527222,-2.68786358833313,26.00103187561035,29.587099075317383, -16.490636825561523
564,1829697826,0.2793946,0.5490743,-0.5569782,0.5569842,5.541431903839111,0.5332295298576355,0.6278099417686462,-0.8678709268569946,55.380374908447266, -17.04041862487793
565,1829714493,0.29155478,0.5409933,-0.55749494,0.55814105,5.926554203033447,-0.2936241626739502,2.738088369369507,-59.17473220825195,81.04478454589844, -10.877079010009766
566,1829731160,0.30577862,0.5316268,-0.5569007,0.5601198,4.041380882263184,-0.26596102118492126,2.786677122116089,-62.054508209228516,99.04745483398438, -16.32596206665039
567,1829747827,0.31852236,0.52253824,-0.55556184,0.56289315,-1.0666272640228271,-2.6814777851104736,4.199308395385742,-50.18634796142578,96.67159271240234, -12.732955932617188
568,1829764494,0.3273788,0.51565784,-0.555531,0.56418574,-7.16392183303833,-2.603400230407715,-4.8653998374938965,-42.13973617553711,64.97975158691406, -4.757570266723633
569,1829781161,0.32906285,0.5152704,-0.55005753,0.56890315,-7.49775505065918,-4.741047382354736,-8.803142547607422,32.149559020996094,37.002010345458984, -13.460542678833008
570,1829797828,0.32491925,0.51900554,-0.5426448,0.574976,-3.049154281616211,-2.0667943954467773,-5.633303642272949,74.92108154296875,8.354334831237793, -10.255507469177246
571,1829814495,0.3220698,0.52326274,-0.54009116,0.5751249,-5.067963600158691,2.5035958290100098,-2.58271861076355,30.200693130493164,-20.675296783447266, -13.27669620513916
572,1829831162,0.31961527,0.5266502,-0.54188365,0.5717061,-8.189074516296387,-0.8011481761932373,-0.8458616733551025,-3.552243947982788,-38.140235900878906, -3.866859197616577
573,1829847829,0.31445017,0.53038466,-0.54342866,0.5696478,-9.288895606994629,-1.8612602949142456,1.475698709487915,13.093805313110352,-44.09690856933594, 7.455434322357178
574,1829864496,0.30568215,0.53574353,-0.5415043,0.5712357,-9.005901336669922,-0.7810584306716919,4.091078758239746,56.945289611816406,-43.129356384277344, 10.633519172668457
575,1829881163,0.29766637,0.5404646,-0.5401185,0.57233286,-7.202668190002441,1.8505098819732666,2.639925479888916,48.85655975341797,-40.84682083129883, 10.959278106689453
576,1829897830,0.29222018,0.5439293,-0.54024374,0.57173866,-6.178982257843018,2.5902152061462402,2.382154703140259,24.48786163330078,-35.784786224365234, 7.690310478210449
577,1829914497,0.29054046,0.5456498,-0.5425974,0.56871843,-6.263238906860352,2.8947365283966064,2.103203535079956,-10.880398750305176,-28.54294776916504, 2.834726572036743
578,1829931164,0.29173657,0.5461827,-0.5461738,0.56415284,-5.532874584197998,2.1437549591064453,1.6236666440963745,-34.595855712890625,-21.44468116760254, -2.4484734535217285
579,1829947831,0.29455817,0.54471856,-0.5534196,0.5569956,-4.887223243713379,-2.9939723014831543,-13.679646492004395,-68.67955017089844,-24.699308395385742, 7.357112884521484
580,1829964498,0.28481773,0.5479021,-0.5527212,0.5596263,7.379822731018066,-7.13043737411499,-8.564239501953125,55.559715270996094,-37.10297393798828, 27.716766357421875
581,1829981165,0.2781938,0.5498381,-0.55409676,0.5596992,8.83156967163086,-0.2494296431541443,15.508959770202637,23.719512939453125,-33.967472076416016, 23.154146194458008
582,1829997832,0.27360663,0.5508164,-0.5627844,0.5522813,5.155827045440674,-3.82800030708313,3.183748483657837,-42.639408111572266,-65.38402557373047, 32.400718688964844
583,1830014499,0.2693097,0.5533281,-0.57065934,0.54373556,14.536299705505371,0.7373221516609192,1.0885653495788574,-42.18137741088867,-72.95933532714844, 20.139612197875977
584,1830031166,0.26583284,0.5555657,-0.5770967,0.53632015,9.00518798828125,4.913122177124023,-1.081161618232727,-36.03193664550781,-61.9082145690918, 14.935656547546387
585,1830047833,0.26580572,0.55696464,-0.5843784,0.5269154,7.664710998535156,4.5814104080200195,-2.0864408016204834,-61.73602294921875,-54.31813430786133, 5.333645820617676
586,1830064500,0.26474512,0.55858254,-0.5874397,0.5223126,6.743007183074951,2.4268341064453125,-3.1158978939056396,-22.767154693603516,-33.172218322753906, 0.9833219647407532
587,1830081167,0.26425445,0.5587694,-0.5854878,0.5245477,7.1371893882751465,2.5542047023773193,-1.7380791902542114,18.087915420532227,9.682376861572266, -1.9841548204421997
588,1830097834,0.26797798,0.5563117,-0.5824902,0.52859265,7.822049140930176,1.5650283098220825,0.8092857599258423,8.161304473876953,45.02045822143555, -7.153924465179443
589,1830114501,0.2761323,0.55085665,-0.57930577,0.5335849,7.39896297454834,0.5866509079933167,2.3474717140197754,-9.856060028076172,77.53082275390625, -10.129083633422852
590,1830131168,0.28421348,0.5448669,-0.5681335,0.5473273,5.328017711639404,-0.6325641870498657,4.356077194213867,53.52375411987305,127.3876724243164, -21.306074142456055
591,1830147835,0.29318216,0.54122984,-0.56595784,0.5484582,-3.349771499633789,0.6262051463127136,-0.8243975043296814,-28.379234313964844,57.01095962524414, -24.757320404052734
592,1830164502,0.29977635,0.5377749,-0.5638495,0.55046,-5.978888511657715,-4.306741237640381,-5.021810531616211,-16.029390335083008,50.255577087402344, -14.544336318969727
593,1830181169,0.2988486,0.53898066,-0.55615306,0.5575691,-6.092966556549072,-2.5906577110290527,-2.832852602005005,62.38009262084961,34.07515335083008, -14.453064918518066
594,1830197836,0.29930797,0.54089254,-0.55039877,0.5611696,-3.7262895107269287,0.5721144676208496,-3.6363894939422607,37.858009338378906,19.821069717407227, -22.606874465942383
595,1830214503,0.30361524,0.5415681,-0.5497442,0.55884117,-4.615396022796631,2.373995542526245,-0.2501470446586609,-21.074382781982422,6.747751235961914, -26.038681030273438
596,1830231170,0.30660653,0.5410023,-0.5520523,0.55547035,-7.9053192138671875,-3.068769931793213,1.0666393041610718,-34.079498291015625,-3.488734006881714, -7.419135093688965
597,1830247837,0.30221236,0.5422423,-0.54975325,0.55893874,-10.944071769714355,-5.189846038818359,3.946528434753418,40.751304626464844,-3.24737811088562, 11.072806358337402
598,1830264504,0.29280522,0.54538566,-0.54309994,0.56732905,-9.662985801696777,-1.8195483684539795,3.704674005508423,98.71324157714844,-2.1617627143859863, 16.936363220214844
599,1830281171,0.28285676,0.5487731,-0.5346584,0.57704484,-6.550304889678955,1.7576757669448853,1.7785584926605225,113.14714813232422,3.3718292713165283, 13.97941780090332
600,1830297838,0.2801781,0.54908544,-0.53218764,0.58032906,-6.757425308227539,2.659937858581543,0.5072163343429565,32.389739990234375,6.415066242218018, 6.5020599365234375
601,1830314505,0.28262076,0.5474003,-0.53474045,0.5783867,-6.057048797607422,1.0952523946762085,-0.49677643179893494,-29.94280242919922,3.7222349643707275, 2.254392385482788
602,1830331172,0.2852175,0.5459896,-0.538916,0.5745573,-5.836679935455322,-1.6476778984069824,-1.757949948310852,-43.37144470214844,-6.996912002563477, 3.072629451751709
603,1830347839,0.28375766,0.5466947,-0.5411611,0.5724956,-4.691805839538574,-0.5440273284912109,-2.7620837688446045,-9.790114402770996,-19.886363983154297, 7.362504959106445
604,1830364506,0.28131863,0.54598844,-0.5475174,0.5683144,-1.9395649433135986,-8.01217269897461,-18.009750366210938,-32.91038131713867,-33.838619232177734, 27.767635345458984
605,1830381173,0.26852238,0.55094194,-0.54490495,0.57222164,12.535210609436035,0.44506898522377014,6.580587387084961,82.54507446289062,-46.66299057006836, 28.71135902404785
606,1830397840,0.26374948,0.5500249,-0.55189884,0.5686092,3.755070686340332,-1.881242275238037,6.0001444816589355,-24.732097625732422,-40.05015182495117, 41.78262710571289
607,1830414507,0.2563481,0.5524696,-0.5555334,0.56607926,14.217232704162598,0.035487741231918335,0.36244797706604004,8.492865562438965,-53.23563003540039, 28.505584716796875
608,1830431174,0.24946493,0.556634,-0.5568237,0.56380254,12.043774604797363,5.419022560119629,-0.03891807794570923,19.600482940673828,-52.94960021972656, 11.688281059265137
609,1830447841,0.24694724,0.5603656,-0.5617523,0.556275,10.992809295654297,3.4992949962615967,-0.2799723744392395,-32.05995559692383,-61.01337814331055, 1.5655962228775024
610,1830464508,0.24375607,0.5656272,-0.561583,0.5525156,10.98520278930664,0.8321962356567383,-0.9661072492599487,7.181355953216553,-46.38884735107422, -14.83804988861084
611,1830481175,0.24374156,0.56840837,-0.5564971,0.554809,8.496834754943848,2.1085100173950195,-0.4096543788909912,32.71031951904297,7.022143840789795, -26.160131454467773
612,1830497842,0.24892047,0.5684779,-0.55274427,0.5561883,5.713397979736328,3.586951494216919,-0.7760370969772339,-0.7148681282997131,31.36928939819336, -31.799192428588867
613,1830514509,0.26157355,0.5623365,-0.5536985,0.5556756,4.787467956542969,2.8685381412506104,0.7041125297546387,-65.74822998046875,68.05132293701172, -21.48692512512207
614,1830531176,0.275947,0.5527356,-0.5524458,0.5595895,3.2894647121429443,0.7985463738441467,3.1577398777008057,-53.3532829284668,108.82678985595703, -15.397818565368652
615,1830547843,0.28835577,0.5455963,-0.55192393,0.56085265,-2.896064043045044,-1.2036205530166626,-2.7876555919647217,-54.13424301147461,80.30461883544922, -19.433395385742188
616,1830564510,0.29388532,0.54219043,-0.54868114,0.5644555,-5.753424644470215,-5.932252883911133,-2.80413556098938,-1.5399547815322876,54.0992431640625, -12.706073760986328
617,1830581177,0.29213732,0.5442435,-0.54038006,0.5713531,-6.800338268280029,-2.5796725749969482,-4.432689189910889,68.75929260253906,28.00966453552246, -17.704172134399414
618,1830597844,0.2898208,0.547599,-0.5345735,0.57477885,-4.071712017059326,-1.5477190017700195,-4.918893814086914,51.0002326965332,2.7150256633758545, -18.64164161682129
619,1830614511,0.29204577,0.54952383,-0.5368337,0.5696864,-4.3596978187561035,0.5772778987884521,-2.791307210922241,-32.34950637817383,-22.48719596862793, -17.085519790649414
620,1830631178,0.2937948,0.5507075,-0.54400235,0.56077385,-7.279274940490723,-3.017857074737549,-0.993056058883667,-65.33024597167969,-45.54274368286133, -1.6666300296783447
621,1830647845,0.28949308,0.55382365,-0.54716116,0.5568553,-10.291438102722168,-3.3781538009643555,1.755057692527771,-4.222021102905273,-48.78453063964844, 8.611735343933105
622,1830664512,0.28162813,0.5577081,-0.5453528,0.5587823,-11.039111137390137,-0.7163041830062866,6.223777770996094,51.77623748779297,-32.79969787597656, 12.376885414123535
623,1830681179,0.27650014,0.55865765,-0.5445475,0.56117505,-9.082479476928711,0.7693946957588196,4.456326961517334,33.39120864868164,-11.428487777709961, 17.788944244384766
624,1830697846,0.27489346,0.5571515,-0.5451326,0.5628913,-7.6208815574646,1.9467962980270386,2.979114532470703,7.322161674499512,5.829104900360107, 17.237503051757812
625,1830714513,0.27621144,0.5544152,-0.54743844,0.5627096,-6.345725059509277,0.5330891013145447,0.5258128643035889,-20.006074905395508,11.039022445678711, 13.659143447875977
626,1830731180,0.2773217,0.5520833,-0.5502495,0.56171376,-5.289714813232422,-1.007835865020752,-0.9900469183921814,-23.39466094970703,4.5436601638793945, 13.032177925109863
627,1830747847,0.27797168,0.54906577,-0.5567614,0.55792063,-3.688629627227783,-1.703728199005127,-9.817567825317383,-47.88335418701172,-12.03405475616455, 26.33649253845215
628,1830764514,0.27333236,0.54856545,-0.5617906,0.55565864,4.386841773986816,-5.072474956512451,-15.242918014526367,-11.469529151916504,-32.98310852050781, 34.27988815307617
629,1830781181,0.26635727,0.5504866,-0.56353486,0.5553798,9.143004417419434,-0.2472565472126007,12.764909744262695,22.241680145263672,-37.25562286376953, 24.913005828857422
630,1830797848,0.26239184,0.5517489,-0.5711562,0.54818267,2.929673671722412,-1.9638749361038208,5.114984035491943,-39.734779357910156,-60.549171447753906, 25.614967346191406
631,1830814515,0.25493842,0.5563247,-0.5781593,0.5396678,13.230932235717773,1.4964641332626343,-1.282411813735962,-23.439800262451172,-90.81057739257812, 21.03838539123535
632,1830831182,0.25002056,0.56072295,-0.58255786,0.53264064,11.190438270568848,6.636785984039307,0.8847341537475586,-17.885652542114258,-69.90930938720703, 5.16465950012207
633,1830847849,0.24877426,0.5641401,-0.5877263,0.5238658,9.154404640197754,4.2501020431518555,-1.740689754486084,-43.5528450012207,-59.819889068603516, -4.101121425628662
634,1830864516,0.24576077,0.5678905,-0.58809,0.52081907,7.570884704589844,1.7804666757583618,-2.8162922859191895,4.343289852142334,-37.77529525756836, -7.7290568351745605
635,1830881183,0.24437858,0.5695008,-0.5851532,0.52301425,7.8890533447265625,1.1543347835540771,-1.0985139608383179,27.391151428222656,2.527987003326416, -8.838570594787598
636,1830897850,0.24718848,0.56728107,-0.58086205,0.5288568,6.9391069412231445,1.310184359550476,-0.9487029314041138,24.0838680267334,49.669864654541016, -7.584310531616211
637,1830914517,0.25478366,0.56200373,-0.57708126,0.53499025,6.240376949310303,1.3727257251739502,1.113202452659607,-0.4804924428462982,80.12104797363281, -10.201324462890625
638,1830931184,0.26529378,0.55508935,-0.5720831,0.54241675,5.601860046386719,-0.12327545136213303,2.219046115875244,-5.033863544464111,104.74414825439453, -16.78779411315918
639,1830947851,0.2752974,0.5481545,-0.566017,0.5507839,0.4652720093727112,-0.7731833457946777,1.8050965070724487,4.498286247253418,108.25145721435547, -17.146392822265625
640,1830964518,0.2850712,0.54251117,-0.5652548,0.5521804,-3.529014825820923,-2.3113341331481934,-2.090057849884033,-39.43363571166992,66.10313415527344, -14.542705535888672
641,1830981185,0.28876314,0.5408733,-0.56049746,0.5566996,-5.534745693206787,-4.386842250823975,-3.6217875480651855,18.423965454101562,46.844581604003906, -15.916707992553711
642,1830997852,0.28709465,0.54336864,-0.55359167,0.56201744,-4.9957990646362305,-3.0904033184051514,-5.638320446014404,57.900333404541016,17.771970748901367, -17.91297721862793
643,1831014519,0.28461862,0.5474229,-0.54863054,0.5642032,-2.7381389141082764,1.8007136583328247,-4.390134811401367,44.61273193359375,-6.645195007324219, -19.784507751464844
644,1831031186,0.28843158,0.5486418,-0.55299526,0.5567726,-5.124434947967529,1.5648728609085083,-1.4885435104370117,-57.01621627807617,-26.214914321899414, -17.19034767150879
645,1831047853,0.28806564,0.54995584,-0.5578326,0.55080813,-8.546316146850586,-2.866725206375122,-0.002049621194601059,-37.25827407836914,-37.838539123535156, 3.0380096435546875
646,1831064520,0.2810533,0.5533725,-0.5564273,0.5524279,-11.329299926757812,-2.68009614944458,3.776050329208374,44.744632720947266,-30.14984893798828, 11.530455589294434
647,1831081187,0.27126333,0.5571554,-0.5508293,0.55908984,-10.068527221679688,0.18709328770637512,3.8280186653137207,91.22459411621094,-14.941498756408691, 14.271099090576172
648,1831097854,0.26553428,0.5590601,-0.54653096,0.5641342,-7.231476783752441,3.735776901245117,1.9336903095245361,60.99925994873047,-0.9752292633056641, 7.764433860778809
649,1831114521,0.26598963,0.5587103,-0.54661995,0.5641799,-5.64103889465332,3.501887559890747,0.06618375331163406,-2.66154408454895,3.7103521823883057, -0.09645744413137436
650,1831131188,0.27051428,0.5571189,-0.5514358,0.558891,-4.597340106964111,0.992487907409668,-1.8467565774917603,-58.94438934326172,-5.273118495941162, -2.737224817276001
651,1831147855,0.2720793,0.5572599,-0.5567011,0.552737,-3.786121368408203,-1.6781141757965088,-3.016531467437744,-49.42597961425781,-27.101436614990234, 2.436967134475708
652,1831164522,0.26617038,0.5610252,-0.5575879,0.55090845,-2.8481786251068115,-1.5843602418899536,-3.4806032180786133,19.32465934753418,-44.843353271484375, 7.646077632904053
653,1831181189,0.25716817,0.5651517,-0.5533925,0.55517995,0.6772876977920532,-0.5268017053604126,-7.494243621826172,74.51383972167969,-24.998470306396484, 9.778857231140137
654,1831197856,0.2545889,0.5658664,-0.555162,0.55387264,11.838276863098145,-0.6802064776420593,5.710851192474365,-0.3891344368457794,-19.614126205444336, 11.416964530944824
655,1831214523,0.25533593,0.5644951,-0.5631365,0.54683286,6.709473609924316,-1.7265499830245972,7.4000244140625,-62.587100982666016,-32.40914535522461, 21.026960372924805
656,1831231190,0.25295493,0.56517607,-0.5710835,0.53893745,11.576577186584473,-2.4393746852874756,1.839770793914795,-50.13600540161133,-55.819393157958984, 23.264528274536133
657,1831247857,0.2500961,0.5657951,-0.57564396,0.5347541,10.14454174041748,2.259258270263672,0.21595729887485504,-21.3156681060791,-37.310272216796875, 18.674320220947266
658,1831264524,0.2506492,0.5646888,-0.5805004,0.53039694,8.6253023147583,2.269153118133545,-2.416947841644287,-39.34275436401367,-18.763080596923828, 13.967174530029297
659,1831281191,0.25218388,0.56374484,-0.58269715,0.5282606,5.7977728843688965,2.1850316524505615,-3.194523572921753,-24.294811248779297,-2.247519016265869, 3.379621982574463
660,1831297858,0.25505045,0.56277233,-0.5812629,0.5295002,6.2633442878723145,1.3628181219100952,-2.4992599487304688,-2.768508195877075,22.610240936279297, -9.460505485534668
661,1831314525,0.26048046,0.560403,-0.5780141,0.532915,6.520638465881348,1.2500652074813843,-0.44840914011001587,0.17422565817832947,49.55028533935547, -16.332862854003906
662,1831331192,0.2705397,0.55440366,-0.5760246,0.53632146,6.929956436157227,0.7461158633232117,1.2431179285049438,-28.823101043701172,78.90693664550781, -13.94827651977539
663,1831347859,0.2808335,0.54833525,-0.5687987,0.54491216,5.696061134338379,0.09961263090372086,4.22866678237915,9.960271835327148,109.48897552490234, -24.78601837158203
664,1831364526,0.29097334,0.54121715,-0.56768095,0.5478658,-1.4315587282180786,-1.5295382738113403,2.109999179840088,-36.475284576416016,79.5908203125, -7.920072078704834
665,1831381193,0.30070475,0.5343017,-0.5677932,0.5492807,-5.13729190826416,-2.047518253326416,-6.298656463623047,-45.21421432495117,68.99938201904297, -5.751150131225586
666,1831397860,0.30313802,0.53300065,-0.56248075,0.554647,-4.3712158203125,-3.643193006515503,-9.67238712310791,29.17607879638672,45.296226501464844, -11.987447738647461
667,1831414527,0.30309188,0.5346486,-0.55872226,0.55688035,-2.4720427989959717,-0.009368713945150375,-4.794605255126953,26.45467758178711,10.096184730529785, -14.929439544677734
668,1831431194,0.3043225,0.53717554,-0.5617012,0.5507469,-3.9341561794281006,-0.11357860267162323,-4.670363903045654,-34.30126953125,-32.99422836303711, -15.897995948791504
669,1831447861,0.3013524,0.5417607,-0.5662156,0.54321486,-7.135044574737549,-2.0422303676605225,-2.6029036045074463,-25.657381057739258,-65.21819305419922, -5.226260185241699
670,1831464528,0.2917559,0.54936916,-0.5671559,0.53982073,-8.678932189941406,-2.712639808654785,-0.37034645676612854,34.77713394165039,-79.37556457519531, 2.8716118335723877
671,1831481195,0.27777135,0.55865204,-0.5634993,0.5414977,-9.177617073059082,-0.2598103880882263,3.008434295654297,91.55442810058594,-74.27149200439453, 5.275802135467529
672,1831497862,0.2653898,0.5662295,-0.5596094,0.5438656,-8.853515625,1.8234894275665283,4.5339531898498535,85.66355895996094,-58.65779495239258, 6.2474894523620605
673,1831514529,0.25859803,0.57064986,-0.55853206,0.5436248,-7.774109363555908,2.8309075832366943,4.283801078796387,37.558284759521484,-40.72603988647461, 3.6504061222076416
674,1831531196,0.25680336,0.5725958,-0.5603856,0.54051286,-6.567635536193848,2.2822093963623047,2.592679977416992,-8.451693534851074,-28.844438552856445, 0.8939182162284851
675,1831547863,0.2579545,0.5732679,-0.56406343,0.5354028,-5.966052055358887,1.3470009565353394,2.2722020149230957,-36.7862434387207,-23.88164520263672, -1.477990746498108
676,1831564530,0.2590374,0.57361776,-0.5675389,0.53081256,-5.899974822998047,0.5318772196769714,1.1677296161651611,-34.336673736572266,-20.578292846679688, 0.14056970179080963
677,1831581197,0.2617002,0.5718743,-0.57291245,0.5255893,-4.446096420288086,-4.724058628082275,-15.6795072555542,-53.694454193115234,-12.636216163635254, 8.877657890319824
678,1831597864,0.25219682,0.57421726,-0.5690459,0.53184426,9.435002326965332,-2.513368844985962,-3.992894172668457,80.21844482421875,-13.048175811767578, 20.890676498413086
679,1831614531,0.25169185,0.5743852,-0.5744729,0.52603596,7.6413373947143555,1.9249963760375977,13.54411792755127,-40.257381439208984,-33.643714904785156, 12.299927711486816
680,1831631198,0.24868006,0.5764764,-0.585618,0.51272297,6.440207004547119,-3.268479108810425,2.788240909576416,-77.48590850830078,-90.57051086425781, 23.529552459716797
681,1831647865,0.24481818,0.57817185,-0.593129,0.5039637,13.592827796936035,-0.46811383962631226,2.1798553466796875,-43.699588775634766,-68.50285339355469, 21.494794845581055
682,1831664532,0.2406973,0.5795279,-0.59622186,0.5007313,11.448002815246582,2.5671868324279785,-0.9198201894760132,-5.4413371086120605,-39.21908187866211, 15.64810848236084
683,1831681199,0.2417816,0.5793263,-0.59913754,0.49694762,9.945651054382324,3.6751868724823,-0.5389527678489685,-30.406198501586914,-14.541823387145996, 2.6761343479156494
684,1831697866,0.24275938,0.5787027,-0.5971334,0.49960276,8.419598579406738,0.9580737948417664,-1.855145812034607,12.658098220825195,20.175119400024414, -3.9257302284240723
685,1831714533,0.24198839,0.5780899,-0.58915156,0.5100534,6.319043159484863,1.063883662223816,-1.2736849784851074,72.17790222167969,53.91084289550781, -8.636006355285645
686,1831731200,0.24398454,0.5766617,-0.5815769,0.51932764,4.4506001472473145,1.7652865648269653,0.24732036888599396,53.62953567504883,62.601497650146484, -15.291902542114258
687,1831747867,0.25217813,0.571955,-0.57937044,0.5230715,4.35582160949707,1.101757526397705,1.8635449409484863,-17.732620239257812,68.1082534790039, -12.22641658782959
688,1831764534,0.26510215,0.5642322,-0.58004683,0.5243175,2.9139320850372314,0.04515562206506729,2.1654675006866455,-61.912742614746094,82.87771606445312, -10.167373657226562
689,1831781201,0.2748395,0.55948067,-0.5750588,0.52986056,0.8756361603736877,-2.5137600898742676,4.509893417358398,-6.608508110046387,86.36039733886719, -24.66522216796875
690,1831797868,0.28310713,0.55283326,-0.57567,0.53181744,-5.315235614776611,-3.1132254600524902,-1.9697556495666504,-39.166969299316406,62.943180084228516, 2.8689022064208984
691,1831814535,0.28713593,0.55016184,-0.57330763,0.5349702,-7.025336742401123,-3.517629623413086,-6.790279865264893,0.31006288528442383,42.10000991821289, -6.496562480926514
692,1831831202,0.28447825,0.55217326,-0.56771094,0.5402603,-4.375674724578857,-3.726440906524658,-6.572897911071777,55.2353401184082,13.295469284057617, -8.55020809173584
693,1831847869,0.2802183,0.5561178,-0.5635435,0.54279786,-3.7188780307769775,1.1585063934326172,-3.2906949520111084,49.104736328125,-13.12205982208252, -10.24972152709961
694,1831864536,0.28090635,0.5585572,-0.56609607,0.5372531,-6.180506706237793,1.9823201894760132,-1.8475220203399658,-29.072385787963867,-32.04252243041992, -12.767547607421875
695,1831881203,0.28053933,0.56049913,-0.5702708,0.53097063,-7.8806867599487305,-0.703119158744812,0.30964499711990356,-34.8167610168457,-40.16645050048828, -2.1332900524139404
696,1831897870,0.276156,0.5636055,-0.57100606,0.5291871,-9.083748817443848,-1.1796129941940308,2.1744399070739746,13.107924461364746,-36.1365966796875, 3.3006553649902344
