PacketCounter,SampleTimeFine,Quat_W,Quat_X,Quat_Y,Quat_Z,Acc_X,Acc_Y,Acc_Z,Gyr_X,Gyr_Y,Gyr_Z 
1,1824139033,0.4218426,0.46280953,-0.13159215,0.76846564,-0.03390650451183319,-0.03627840802073479,-0.05307895317673683,-0.062418945133686066,0.21637269854545593, -0.021143238991498947
2,1824155700,0.42079866,0.46317577,-0.13250445,0.76866066,14.47126579284668,3.56597900390625,9.50590991973877,0.9532854557037354,3.534994125366211, -0.36825937032699585
3,1824172367,0.42227846,0.46312264,-0.13041952,0.7682378,14.943215370178223,3.1639387607574463,9.565571784973145,-0.4231474995613098,3.7967309951782227, -0.027059823274612427
4,1824189034,0.42185193,0.46313444,-0.13128491,0.7683176,14.980936050415039,3.3720414638519287,9.629068374633789,0.6173109412193298,3.7433924674987793, -0.17793142795562744
5,1824205701,0.42140862,0.4633102,-0.13178821,0.7683687,14.502145767211914,3.5872962474823,9.571002960205078,0.6879891753196716,3.7387948036193848, -0.7832492589950562
6,1824222368,0.42190918,0.46309003,-0.13122293,0.7683235,15.050373077392578,3.1177048683166504,9.662717819213867,0.17860378324985504,3.8850181102752686, -0.11797210574150085
7,1824239035,0.42196164,0.46278346,-0.13153516,0.7684262,14.826722145080566,3.5010573863983154,9.644774436950684,0.8558549284934998,3.8181047439575195, -0.5550016760826111
8,1824255702,0.42212015,0.46251848,-0.13155974,0.7684942,14.65912914276123,3.2725563049316406,9.49721908569336,-0.41080206632614136,3.4808616638183594, -0.3979189097881317
9,1824272369,0.42230302,0.46224844,-0.13162658,0.7685447,15.043793678283691,3.475329875946045,9.816015243530273,0.5742559432983398,3.600755453109741, -0.17706060409545898
10,1824289036,0.42250854,0.46198645,-0.13157673,0.7685977,14.802213668823242,3.4092912673950195,9.666213035583496,0.2325953245162964,3.3505187034606934, -0.47004416584968567
11,1824305703,0.4225287,0.46172535,-0.1313484,0.7687827,14.742196083068848,3.4333255290985107,9.551833152770996,1.079184889793396,3.716153621673584, 0.13667578995227814
12,1824322370,0.42282206,0.46145168,-0.13120915,0.7688095,14.701700210571289,3.3726680278778076,9.52242660522461,0.20994091033935547,3.689439058303833, -0.5924474000930786
13,1824339037,0.4231431,0.46127078,-0.13102499,0.7687729,14.899422645568848,3.5051429271698,9.71295166015625,1.4653347730636597,3.51581072807312, -0.5809217095375061
14,1824355704,0.42336348,0.46101227,-0.13087577,0.768832,15.087372779846191,3.327601909637451,9.623712539672852,-0.2553330063819885,3.5951333045959473, -0.42610570788383484
15,1824372371,0.42363054,0.46080557,-0.13083541,0.76881564,14.502890586853027,3.5287296772003174,9.483715057373047,-0.13835981488227844,3.4327359199523926, -0.6560308933258057
16,1824389038,0.4238727,0.46058604,-0.13067618,0.768841,14.93155288696289,3.493405818939209,9.694790840148926,0.3594934642314911,3.748950481414795, -0.3185707926750183
17,1824405705,0.42415324,0.4602607,-0.13062273,0.76888996,15.037603378295898,3.467735528945923,9.675919532775879,-1.232508659362793,3.9579238891601562, -0.4054105877876282
18,1824422372,0.42424417,0.46013018,-0.13031805,0.7689697,14.54153060913086,3.5916008949279785,9.573209762573242,1.4030702114105225,3.752241373062134, -0.3012182116508484
19,1824439039,0.42441717,0.45985347,-0.13017507,0.7690641,15.111503601074219,3.3054983615875244,9.71853256225586,-0.5276216864585876,3.8833014965057373, 0.05161600187420845
20,1824455706,0.4244643,0.45970625,-0.12984811,0.7691814,14.83639907836914,3.583446979522705,9.687726020812988,1.8004001379013062,3.9180965423583984, -0.03056875802576542
21,1824472373,0.42462787,0.45939615,-0.12970284,0.7693007,14.668869018554688,3.369249105453491,9.535722732543945,-0.5123307704925537,4.184455394744873, -0.08552079647779465
22,1824489040,0.42477643,0.4591168,-0.12944615,0.76942885,14.947524070739746,3.339776039123535,9.693669319152832,0.8610414266586304,4.486660003662109, -0.07167714089155197
23,1824505707,0.42490435,0.45887652,-0.12918547,0.7695452,14.581639289855957,3.2800304889678955,9.573598861694336,1.0821174383163452,4.242379188537598, -0.25903403759002686
24,1824522374,0.42502448,0.45857412,-0.12897143,0.76969504,15.039884567260742,3.5054142475128174,9.811018943786621,-0.11510346829891205,4.234925270080566, -0.6407016515731812
25,1824539041,0.42517245,0.45832372,-0.12880234,0.7697909,14.82083797454834,3.3521194458007812,9.774275779724121,0.01826825924217701,3.758004665374756, -0.6094926595687866
26,1824555708,0.42537895,0.4580301,-0.12876377,0.7698579,15.005385398864746,3.4230523109436035,9.740714073181152,-0.6551857590675354,3.5516812801361084, -0.43467316031455994
27,1824572375,0.4254891,0.45782727,-0.12864739,0.76993716,14.342796325683594,3.529080629348755,9.507070541381836,0.19075697660446167,3.254625082015991, -0.36338016390800476
28,1824589042,0.4256237,0.45751342,-0.12871708,0.77003765,15.257431983947754,3.442108154296875,9.930130004882812,-1.5739644765853882,3.215078830718994, 0.1537722498178482
29,1824605709,0.42557833,0.45742324,-0.1285022,0.7701521,14.548776626586914,3.5819592475891113,9.621610641479492,1.5717424154281616,2.867962598800659, 0.23682139813899994
30,1824622376,0.4256897,0.45707774,-0.12883192,0.7702407,14.847740173339844,3.3432953357696533,9.708268165588379,-2.5606939792633057,2.639843702316284, 1.4220364093780518
31,1824639043,0.42566717,0.4568624,-0.12882596,0.77038175,15.25206184387207,3.367708683013916,9.866231918334961,0.030536742880940437,2.4788036346435547, 1.0022441148757935
32,1824655710,0.4257191,0.45657507,-0.12887058,0.77051586,14.808658599853516,3.536500930786133,9.670930862426758,-0.4939920902252197,2.3107969760894775, 0.904045045375824
33,1824672377,0.4258133,0.45621067,-0.12890624,0.7706739,14.848564147949219,3.0414414405822754,9.585869789123535,-0.7207797765731812,2.6831159591674805, 0.8699801564216614
34,1824689044,0.42588353,0.45590115,-0.1287148,0.7708503,14.817484855651855,3.3147871494293213,9.59375,0.8164879679679871,3.0559980869293213, 0.318974107503891
35,1824705711,0.42605954,0.45549783,-0.1285936,0.7710115,14.966547966003418,3.3139798641204834,9.661178588867188,-0.32268160581588745,3.3399276733398438, -0.07083191722631454
36,1824722378,0.42638642,0.4549823,-0.12856476,0.77114,14.776531219482422,3.255326271057129,9.590469360351562,-1.8791265487670898,3.632373571395874, -0.735161304473877
37,1824739045,0.42651692,0.45461005,-0.12818913,0.7713499,14.683158874511719,3.3216824531555176,9.699695587158203,1.1541146039962769,3.987673282623291, -0.6049975752830505
38,1824755712,0.42684788,0.45413986,-0.12796444,0.77148116,15.002829551696777,3.473672866821289,9.704377174377441,-0.35244354605674744,4.056519985198975, -1.1480892896652222
39,1824772379,0.42697147,0.45380622,-0.12755665,0.77167654,14.911086082458496,3.3998863697052,9.779881477355957,1.4506840705871582,3.8259286880493164, -0.7345978021621704
40,1824789046,0.42706776,0.45345455,-0.12716067,0.77189535,14.63306713104248,3.530789375305176,9.591790199279785,1.5103360414505005,3.9520716667175293, -0.4200611114501953
41,1824805713,0.42719352,0.4530339,-0.12692676,0.7721113,14.648892402648926,3.403425455093384,9.579832077026367,0.5316749215126038,3.9024600982666016, 0.10918055474758148
42,1824822380,0.42727807,0.4526666,-0.12663925,0.77232707,14.884831428527832,3.5232696533203125,9.697898864746094,1.128271460533142,3.7474520206451416, 0.1327570080757141
43,1824839047,0.42735192,0.45232785,-0.1264318,0.77251863,14.644582748413086,3.505117416381836,9.66965389251709,0.7033694982528687,3.2557263374328613, 0.2788134217262268
44,1824855714,0.42754614,0.45195934,-0.12643941,0.7726256,14.97291088104248,3.4465413093566895,9.750389099121094,-0.7426914572715759,2.677698850631714, 0.24829591810703278
45,1824872381,0.4276256,0.4516796,-0.1263541,0.77275896,14.786046981811523,3.4268383979797363,9.61467456817627,0.19357436895370483,2.41707706451416, 0.431029736995697
46,1824889048,0.42776546,0.4513335,-0.12634856,0.7728846,14.553452491760254,3.5244622230529785,9.548274040222168,-0.65334153175354,2.557575225830078, 0.3692774772644043
47,1824905715,0.428022,0.45092377,-0.12642936,0.7729687,14.925536155700684,3.3103880882263184,9.5874662399292,-1.5522319078445435,2.6489741802215576, 0.05538105592131615
48,1824922382,0.4281356,0.45060718,-0.12624487,0.77312064,14.693964958190918,3.487478017807007,9.685820579528809,0.7398420572280884,3.0499539375305176, 0.18217672407627106
49,1824939049,0.42824727,0.45018452,-0.12612882,0.7733238,14.382052421569824,3.1547698974609375,9.294778823852539,0.05287101864814758,3.553474187850952, 0.6067200303077698
50,1824955716,0.42844635,0.44972223,-0.12606855,0.7734922,15.162442207336426,3.464674234390259,9.925691604614258,-0.8720868825912476,3.521099805831909, 0.09581070393323898
51,1824972383,0.42853788,0.44943634,-0.1257942,0.77365243,15.050214767456055,3.2311580181121826,9.74105453491211,1.409639596939087,3.16688871383667, 0.03966766968369484
52,1824989050,0.4287992,0.44897905,-0.12586308,0.7737619,14.208649635314941,3.396329879760742,9.359550476074219,-1.512250542640686,3.05452561378479, 0.17627298831939697
53,1825005717,0.42893073,0.44860324,-0.12581982,0.7739142,14.703207969665527,3.199678897857666,9.564081192016602,-0.31969770789146423,2.951601028442383, 0.5240166187286377
54,1825022384,0.42917407,0.44825178,-0.1257506,0.773994,14.747255325317383,3.685877561569214,9.727663040161133,-0.4916357398033142,2.780559539794922, -0.3698601722717285
55,1825039051,0.42941073,0.44782948,-0.1256944,0.7741163,14.642170906066895,3.1841564178466797,9.591419219970703,-0.531578779220581,3.2883951663970947, 0.030075713992118835
56,1825055718,0.42961964,0.44741255,-0.12562917,0.774252,14.71851634979248,3.282912492752075,9.540672302246094,-0.7138771414756775,3.2237231731414795, -0.06328897923231125
57,1825072385,0.42974174,0.44707373,-0.12541214,0.77441525,14.705833435058594,3.303571939468384,9.635936737060547,0.6907808780670166,3.287383556365967, -0.0013574729673564434
58,1825089052,0.4299625,0.44666007,-0.12533522,0.7745438,14.477977752685547,3.39715576171875,9.562275886535645,-0.325358122587204,3.3197708129882812, 0.06955769658088684
59,1825105719,0.43013573,0.44625032,-0.12521951,0.7747025,14.664992332458496,3.1951181888580322,9.558989524841309,-0.08481644839048386,3.4302637577056885, 0.185993030667305
60,1825122386,0.4303044,0.44592005,-0.1250912,0.77481985,14.61256217956543,3.38852858543396,9.555346488952637,0.3642958104610443,2.9566593170166016, 0.09971664100885391
61,1825139053,0.4305649,0.44552806,-0.12513953,0.7748927,14.587433815002441,3.34098219871521,9.548883438110352,-1.024815320968628,2.718794584274292, 0.11648015677928925
62,1825155720,0.43084276,0.44514626,-0.125191,0.7749494,14.956011772155762,3.3530540466308594,9.732182502746582,-1.1988664865493774,2.589693784713745, -0.10799595713615417
63,1825172387,0.43108755,0.44479692,-0.12514341,0.77502155,14.374876022338867,3.1890058517456055,9.339285850524902,-0.4209703207015991,2.7378883361816406, -0.18804842233657837
64,1825189054,0.43141344,0.44437805,-0.125316,0.7750526,14.4307861328125,3.4333505630493164,9.602388381958008,-2.020547389984131,2.4139649868011475, 0.03726007789373398
65,1825205721,0.43169516,0.44405213,-0.12540048,0.77506894,14.719895362854004,3.2255284786224365,9.538537979125977,-1.1094012260437012,2.1042306423187256, -0.0841505229473114
66,1825222388,0.43205464,0.44364172,-0.12568328,0.77505785,14.241311073303223,3.4130218029022217,9.342635154724121,-2.7272017002105713,1.939195156097412, 0.06142565235495567
67,1825239055,0.4323159,0.44332755,-0.12596886,0.7750456,14.670601844787598,3.3510549068450928,9.748611450195312,-2.1546554565429688,1.3299968242645264, 0.5131952166557312
68,1825255722,0.4325952,0.44305187,-0.12611084,0.7750243,15.070117950439453,3.291407585144043,9.634904861450195,-1.2019654512405396,1.570769190788269, 0.01921592652797699
69,1825272389,0.43267876,0.4429058,-0.12603582,0.7750732,13.692102432250977,3.529013156890869,9.29633903503418,0.7568488121032715,1.5175588130950928, 0.31978094577789307
70,1825289056,0.43304077,0.4425474,-0.12649272,0.7750013,14.946240425109863,3.199591875076294,9.528496742248535,-3.3833224773406982,1.0026923418045044, 0.49330705404281616
71,1825305723,0.43303782,0.44249213,-0.12627125,0.7750706,14.118317604064941,3.1794066429138184,9.345755577087402,2.302178144454956,1.509209156036377, 0.4792584180831909
72,1825322390,0.43329045,0.4421864,-0.12658624,0.77505255,14.462985038757324,3.512758255004883,9.558563232421875,-2.308600664138794,1.1657941341400146, 0.5934142470359802
73,1825339057,0.43344992,0.44205,-0.12672296,0.77501875,14.816181182861328,2.9890010356903076,9.438342094421387,-0.46136152744293213,0.6955960988998413, 0.4492531418800354
74,1825355724,0.43354267,0.44189674,-0.12676081,0.77504826,14.259262084960938,3.398254871368408,9.44924259185791,0.2736140489578247,1.2195038795471191, 0.7011924386024475
75,1825372391,0.43380782,0.44155547,-0.127006,0.7750542,14.335855484008789,3.266767978668213,9.221634864807129,-1.9029722213745117,1.6894583702087402, 0.5351965427398682
76,1825389058,0.4340276,0.4412081,-0.1271846,0.7750997,15.013240814208984,3.130714178085327,9.664880752563477,-1.435348391532898,1.9943134784698486, 0.6690357327461243
77,1825405725,0.43422872,0.44092932,-0.12707944,0.77516294,14.231528282165527,3.3655216693878174,9.283063888549805,0.5786997079849243,2.5695745944976807, 0.06443514674901962
78,1825422392,0.43456492,0.44047776,-0.12725402,0.7752026,14.25485610961914,3.3695790767669678,9.344324111938477,-1.9450026750564575,2.6835126876831055, 0.21400050818920135
79,1825439059,0.4348111,0.44002515,-0.12716495,0.77533627,14.837141990661621,2.9224562644958496,9.42457103729248,-0.37071824073791504,3.641082525253296, 0.044751789420843124
80,1825455726,0.43498445,0.43970543,-0.12690741,0.77546257,13.911846160888672,3.3559367656707764,9.322456359863281,1.354380488395691,3.406342029571533, -0.06006179004907608
81,1825472393,0.43509352,0.4392632,-0.1268682,0.77565837,14.654387474060059,2.8611085414886475,9.43632984161377,-0.864057183265686,3.3377251625061035, 0.5542268753051758
82,1825489060,0.4352611,0.43895295,-0.1266039,0.7757832,14.463372230529785,3.3656747341156006,9.579646110534668,1.4145959615707397,3.3642988204956055, -0.07769612967967987
83,1825505727,0.4354792,0.43866313,-0.12649539,0.7758425,13.791537284851074,3.4082517623901367,9.168487548828125,0.4963676333427429,2.6514456272125244, -0.03904655575752258
84,1825522394,0.43562776,0.4382892,-0.12660384,0.77595276,14.817269325256348,3.1171655654907227,9.431320190429688,-1.61838960647583,2.3186089992523193, 0.4914628565311432
85,1825539061,0.43567306,0.43811935,-0.12636325,0.7760624,14.058953285217285,3.3100132942199707,9.280115127563477,1.1665369272232056,2.191236972808838, -0.19244101643562317
86,1825555728,0.4358181,0.43773153,-0.1265678,0.77616656,14.913679122924805,3.1947336196899414,9.527617454528809,-2.1685891151428223,2.092372179031372, 0.7912212610244751
87,1825572395,0.43588644,0.43743545,-0.12637563,0.7763263,14.365447044372559,3.1930792331695557,9.324507713317871,0.5029757618904114,2.89900541305542, 0.09043203294277191
88,1825589062,0.43595058,0.43702948,-0.12622131,0.7765439,14.053044319152832,3.18770432472229,9.135594367980957,0.03426339104771614,3.546264171600342, 0.4954072833061218
89,1825605729,0.43614143,0.43653366,-0.12617499,0.77672315,14.294808387756348,3.060076951980591,9.239005088806152,-1.2272454500198364,3.699889659881592, 0.1060301885008812
90,1825622396,0.4360547,0.43622658,-0.12566529,0.77702695,13.384286880493164,2.961660385131836,9.014184951782227,2.7553954124450684,4.219033718109131, 0.40549391508102417
91,1825639063,0.4361838,0.4357762,-0.12552825,0.7772293,14.382187843322754,3.046290874481201,9.491991996765137,-0.3989050090312958,3.7459664344787598, 0.18984775245189667
92,1825655730,0.43626732,0.43551192,-0.12519379,0.77738464,14.99440860748291,2.9794652462005615,9.813715934753418,1.311632752418518,3.1615097522735596, -0.4616048336029053
93,1825672397,0.43647212,0.43526936,-0.124978654,0.77744013,13.990467071533203,3.566009759902954,9.289660453796387,0.29296448826789856,2.492365598678589, -1.074670433998108
94,1825689064,0.43666297,0.43494138,-0.12494135,0.7775225,14.191991806030273,3.242920160293579,9.39011287689209,-0.8538249135017395,2.4802889823913574, -0.3062766492366791
95,1825705731,0.43677786,0.43457988,-0.12480276,0.7776825,14.01490306854248,2.974910259246826,9.01921558380127,-0.11976499110460281,3.1284570693969727, 0.059555936604738235
96,1825722398,0.4369028,0.4341695,-0.12466351,0.7778636,14.336958885192871,3.4085824489593506,9.48902416229248,-0.27338993549346924,3.4656479358673096, 0.10760535299777985
97,1825739065,0.43690538,0.43382114,-0.12431662,0.77811205,14.31284236907959,2.7808635234832764,9.261962890625,1.4442296028137207,3.8531808853149414, 0.29375845193862915
98,1825755732,0.43699354,0.43344837,-0.12404809,0.7783131,14.26512336730957,3.2815983295440674,9.236570358276367,0.6594565510749817,3.682920455932617, -0.057398054748773575
99,1825772399,0.437049,0.43318403,-0.12366868,0.7784895,13.981449127197266,3.139923572540283,9.308191299438477,1.6531782150268555,3.337174892425537, -0.37767207622528076
100,1825789066,0.43719307,0.43285736,-0.12342633,0.77862895,13.704123497009277,2.8542683124542236,9.110506057739258,0.43683096766471863,3.223710060119629, -0.5016247034072876
101,1825805733,0.4372185,0.43269902,-0.12303592,0.7787644,13.959099769592285,2.9989101886749268,9.102703094482422,2.087031841278076,2.6553008556365967, -0.4644607603549957
102,1825822400,0.43742424,0.43241355,-0.12300558,0.77881205,14.080154418945312,2.9454305171966553,9.386207580566406,-0.8337830305099487,2.148207664489746, -0.5166850090026855
103,1825839067,0.43755776,0.43233302,-0.12261927,0.77884275,14.167282104492188,3.508432149887085,9.46074104309082,1.8905823230743408,2.0109877586364746, -1.4144997596740723
104,1825855734,0.437836,0.43198892,-0.122692354,0.7788658,14.410943984985352,3.006622791290283,9.2778959274292,-1.8029931783676147,2.141254186630249, -0.6200450658798218
105,1825872401,0.437985,0.43173182,-0.12258925,0.7789408,14.170900344848633,3.341219425201416,9.372550010681152,-0.16908222436904907,2.257445812225342, -0.37152501940727234
106,1825889068,0.4380186,0.43143442,-0.122500956,0.7791006,13.633318901062012,2.9024927616119385,8.980817794799805,0.041998423635959625,2.5855824947357178, 0.5815683007240295
107,1825905735,0.43811584,0.43105474,-0.122483775,0.77925867,14.40182113647461,3.2070202827453613,9.440516471862793,-0.7760392427444458,2.863429307937622, 0.513451337814331
108,1825922402,0.4381599,0.4307773,-0.12236615,0.7794058,13.4807767868042,2.928152322769165,9.06917953491211,0.21773996949195862,2.545396566390991, 0.38107219338417053
109,1825939069,0.43818647,0.4305651,-0.12226828,0.77952355,14.184892654418945,3.2142536640167236,9.350924491882324,0.3365188539028168,2.0349483489990234, 0.3890633285045624
110,1825955736,0.43835896,0.4303101,-0.12227211,0.77956676,14.154051780700684,2.865687370300293,9.320512771606445,-0.8333731293678284,1.864290714263916, -0.28004923462867737
111,1825972403,0.4382723,0.43030226,-0.12190973,0.7796766,13.740485191345215,3.2272183895111084,9.1710844039917,2.6992266178131104,1.6269892454147339, 0.014016550965607166
112,1825989070,0.4386161,0.42987448,-0.122112714,0.7796875,14.343511581420898,2.811063528060913,9.319293022155762,-2.9556028842926025,2.2451515197753906, -0.5644910931587219
113,1826005737,0.43855435,0.4298834,-0.12160614,0.7797963,13.283106803894043,3.1869897842407227,8.8388032913208,3.4483087062835693,2, -0.564760148525238
114,1826022404,0.4389485,0.4293514,-0.12189442,0.77982277,14.070110321044922,2.9118494987487793,9.151132583618164,-3.8639965057373047,2.643378257751465, -0.452499657869339
115,1826039071,0.43901673,0.42917585,-0.121613406,0.7799248,14.079750061035156,3.1000099182128906,9.241547584533691,1.2907840013504028,2.407203435897827, -0.45936378836631775
116,1826055738,0.43911552,0.42890587,-0.12146117,0.78004134,13.884920120239258,3.0510621070861816,9.218633651733398,0.23629632592201233,2.598978042602539, -0.12103280425071716
117,1826072405,0.43912432,0.42869136,-0.121196955,0.78019553,13.839418411254883,3.025909423828125,9.078580856323242,1.3004783391952515,2.6791841983795166, 0.09780849516391754
118,1826089072,0.43917605,0.4284943,-0.12094662,0.7803134,13.775155067443848,3.093979835510254,9.128825187683105,1.1216249465942383,2.477830171585083, -0.21651694178581238
119,1826105739,0.43921226,0.42828792,-0.12077723,0.78043246,13.697237968444824,2.9486958980560303,9.004096031188965,0.7046886086463928,2.27905011177063, 0.11665944755077362
120,1826122406,0.43931162,0.42807758,-0.12069477,0.7805048,13.576837539672852,2.9995839595794678,8.956795692443848,0.0013510697754099965,1.9577513933181763, -0.10649760067462921
121,1826139073,0.43938372,0.4278929,-0.12061708,0.78057766,13.77088451385498,2.906027317047119,9.0587797164917,0.1335894614458084,1.7874528169631958, 0.03410971537232399
122,1826155740,0.43940917,0.42774045,-0.120433226,0.7806752,13.949811935424805,2.8512301445007324,9.105384826660156,0.9597654938697815,1.9693799018859863, 0.018293870612978935
123,1826172407,0.43952873,0.42754498,-0.120291606,0.78073686,13.914427757263184,2.960871458053589,9.02753734588623,0.29848405718803406,2.045705795288086, -0.4378875494003296
124,1826189074,0.43960938,0.4274433,-0.120000355,0.7807918,13.703855514526367,3.0161893367767334,9.063536643981934,1.4940848350524902,1.9428960084915161, -0.7668826580047607
125,1826205741,0.4396912,0.4272369,-0.11972352,0.7809012,13.431044578552246,2.7443575859069824,8.795456886291504,1.141474723815918,2.6196348667144775, -0.47863730788230896
126,1826222408,0.4398017,0.42700115,-0.119568616,0.7809916,13.582025527954102,3.025822162628174,8.965437889099121,0.299931138753891,2.3755717277526855, -0.30972158908843994
127,1826239075,0.43990108,0.42683345,-0.1193607,0.78105915,13.986916542053223,2.8798272609710693,9.114912033081055,0.8029261231422424,2.0929481983184814, -0.5297603011131287
128,1826255742,0.4399278,0.4267294,-0.119142205,0.7811344,13.901235580444336,3.0251801013946533,9.026988983154297,1.2732906341552734,1.7479580640792847, -0.2011493295431137
129,1826272409,0.4400612,0.42655104,-0.11912273,0.7811595,13.595827102661133,2.9489681720733643,9.015310287475586,-0.37531572580337524,1.4877328872680664, -0.2810097932815552
130,1826289076,0.44012806,0.426447,-0.1189491,0.7812052,13.316394805908203,2.9600532054901123,8.818015098571777,0.8892792463302612,1.5610363483428955, -0.37426555156707764
131,1826305743,0.44022354,0.4262649,-0.118856974,0.78126484,13.671136856079102,2.886244297027588,8.835286140441895,0.1422465443611145,1.79814612865448, -0.18204227089881897
132,1826322410,0.44029948,0.4261358,-0.11866651,0.7813212,13.392160415649414,2.89138126373291,8.921588897705078,0.8856551051139832,1.7903468608856201, -0.41997143626213074
133,1826339077,0.44023538,0.42612928,-0.118216366,0.78142923,13.466196060180664,2.843113899230957,8.729758262634277,3.104355573654175,1.9553698301315308, -0.3728953003883362
134,1826355744,0.4404147,0.42588818,-0.118188486,0.781464,14.120233535766602,2.7482967376708984,9.129434585571289,-0.6470664739608765,1.9253641366958618, -0.47671636939048767
135,1826372411,0.44040468,0.42594585,-0.11774655,0.7815048,13.259719848632812,3.113424777984619,8.785086631774902,3.0441396236419678,1.4443447589874268, -0.9011699557304382
136,1826389078,0.44059744,0.42570624,-0.11781518,0.7815163,13.267889976501465,2.793304204940796,8.68173599243164,-1.2199584245681763,1.5760581493377686, -0.34049516916275024
137,1826405745,0.44061327,0.4256476,-0.117626436,0.7815678,13.657361030578613,2.920236587524414,8.982501029968262,1.2619824409484863,1.3609627485275269, -0.17031162977218628
138,1826422412,0.44081062,0.42543647,-0.117672205,0.78156465,13.534441947937012,2.909656524658203,8.763154983520508,-1.0356876850128174,1.4609034061431885, -0.5035840272903442
139,1826439079,0.44095442,0.42530593,-0.117611945,0.7815635,13.366098403930664,3.060671091079712,8.834253311157227,-0.06386526674032211,1.3181382417678833, -0.5859545469284058
140,1826455746,0.44105315,0.42516744,-0.11745588,0.7816066,13.608627319335938,2.875086545944214,8.779927253723145,0.5922231674194336,1.747983455657959, -0.4820566773414612
141,1826472413,0.44104233,0.4250867,-0.11726684,0.78168494,13.02733039855957,2.852607250213623,8.601897239685059,1.2933452129364014,1.5599733591079712, 0.06840511411428452
142,1826489080,0.4411801,0.424891,-0.11731946,0.7817059,13.421829223632812,2.7795345783233643,8.722536087036133,-0.8350764513015747,1.4004191160202026, -0.1062798947095871
143,1826505747,0.44113833,0.42489713,-0.1170459,0.781767,13.158059120178223,2.73197340965271,8.711363792419434,2.088376522064209,1.2840352058410645, -0.13786037266254425
144,1826522414,0.4412497,0.42475358,-0.11705562,0.7817807,13.1907377243042,2.760977029800415,8.63177490234375,-0.37247270345687866,1.2182104587554932, -0.1598488837480545
145,1826539081,0.44132265,0.42474997,-0.11686287,0.78177035,13.498030662536621,3.038113594055176,8.754436492919922,1.2332066297531128,0.9846612215042114, -0.7330227494239807
146,1826555748,0.44146827,0.42466584,-0.116832264,0.78173846,13.21994686126709,2.7993791103363037,8.636343955993652,-0.11438629776239395,0.9287099838256836, -0.6500758528709412
147,1826572415,0.44156528,0.42457741,-0.11675664,0.781743,13.363046646118164,2.796541690826416,8.598367691040039,0.2859850227832794,1.1626052856445312, -0.4080999791622162
148,1826589082,0.44171253,0.42447156,-0.116619036,0.78173786,13.262144088745117,2.72279953956604,8.5724515914917,0.41194823384284973,1.4652960300445557, -0.8774526119232178
149,1826605749,0.44177267,0.42440718,-0.1163428,0.78178006,13.145198822021484,2.9092013835906982,8.643219947814941,1.5756356716156006,1.7397874593734741, -0.7074739933013916
150,1826622416,0.4418705,0.42432216,-0.11623655,0.7817867,13.148836135864258,2.857726573944092,8.432133674621582,0.45962628722190857,1.266362190246582, -0.505671501159668
151,1826639083,0.4419635,0.4242401,-0.11611582,0.78179663,13.397146224975586,2.7864091396331787,8.663780212402344,0.5620002746582031,1.3072657585144043, -0.5150585770606995
152,1826655750,0.4419985,0.42422003,-0.11597255,0.7818088,13.068137168884277,2.824903726577759,8.486074447631836,1.0433269739151,1.0060220956802368, -0.31388363242149353
153,1826672417,0.44208512,0.4241463,-0.11596756,0.7818007,13.18493938446045,2.822180986404419,8.572443008422852,-0.02982599288225174,0.8556627631187439, -0.2060413807630539
154,1826689084,0.44213232,0.42411327,-0.11586384,0.7818073,13.058208465576172,2.6141421794891357,8.37257194519043,0.7512909770011902,0.9468183517456055, -0.2700731158256531
155,1826705751,0.44222397,0.42410308,-0.11581609,0.7817681,12.848100662231445,2.9570584297180176,8.322868347167969,0.3554210066795349,0.5554434061050415, -0.5060045123100281
156,1826722418,0.44230917,0.4240535,-0.11572097,0.7817609,13.522439002990723,2.6154966354370117,8.63875961303711,0.5320078134536743,0.9973137378692627, -0.47708776593208313
157,1826739085,0.44235265,0.42409465,-0.11540198,0.78176105,13.000940322875977,2.9321231842041016,8.377386093139648,2.142047882080078,1.1805596351623535, -0.9594517350196838
158,1826755752,0.44250566,0.42403504,-0.115295514,0.78172255,13.31485652923584,2.9558157920837402,8.55279541015625,0.3412571847438812,1.049922227859497, -0.9633704423904419
159,1826772419,0.44261128,0.4240075,-0.11516809,0.7816965,13.239166259765625,2.7184202671051025,8.350090980529785,0.6979717016220093,0.9414332509040833, -0.75636225938797
160,1826789086,0.4426742,0.42400676,-0.11495822,0.7816922,12.680074691772461,2.9854331016540527,8.218782424926758,1.3652015924453735,1.082270860671997, -0.7244807481765747
161,1826805753,0.44283047,0.42389283,-0.11499983,0.78165925,12.993101119995117,2.725266695022583,8.281051635742188,-0.6287661790847778,0.9148665070533752, -0.48761463165283203
162,1826822420,0.442867,0.42393994,-0.11479411,0.7816432,13.314471244812012,2.8586559295654297,8.484481811523438,1.554402470588684,0.760985255241394, -0.6420847177505493
163,1826839087,0.44296798,0.42395487,-0.11478911,0.78157866,12.66617488861084,2.9751434326171875,8.137331008911133,0.15154393017292023,0.2365780919790268, -0.5271350145339966
164,1826855754,0.4430787,0.42397124,-0.11482942,0.7815012,13.275614738464355,2.9699900150299072,8.374791145324707,-0.12936973571777344,0.0629880279302597, -0.48542463779449463
165,1826872421,0.44323573,0.42399275,-0.11493856,0.78138447,12.858454704284668,2.736358165740967,8.1036376953125,-0.6515742540359497,-0.2455105185508728, -0.6576700806617737
166,1826889088,0.44342464,0.42390296,-0.11516544,0.7812924,12.999985694885254,3.018911838531494,8.202722549438477,-1.6963162422180176,0.09670715034008026, -0.32458972930908203
167,1826905755,0.44353476,0.42393115,-0.11529849,0.7811949,12.846545219421387,2.838153123855591,8.244009017944336,-0.6105043292045593,-0.322809636592865, -0.283238023519516
168,1826922422,0.44374532,0.42386588,-0.11555471,0.7810729,13.089691162109375,2.872835159301758,8.175355911254883,-1.8690223693847656,-0.1845138520002365, -0.46515217423439026
169,1826939089,0.4437833,0.42396414,-0.11565646,0.78098303,13.007213592529297,3.01802921295166,8.229951858520508,-0.017147701233625412,-0.6276648044586182, -0.025484634563326836
170,1826955756,0.4438665,0.4239991,-0.11588567,0.78088284,12.861662864685059,3.047821283340454,8.180854797363281,-1.0287853479385376,-0.661716878414154, 0.13100256025791168
171,1826972423,0.4437281,0.42417437,-0.11592729,0.7808602,12.876227378845215,2.8567652702331543,8.1135892868042,1.1053736209869385,-0.7888967394828796, 0.8953367471694946
172,1826989090,0.44366693,0.42431474,-0.11608534,0.7807952,12.898012161254883,3.019554376602173,8.118611335754395,0.11393169313669205,-1.0114326477050781, 0.7172260880470276
173,1827005757,0.44349864,0.42456847,-0.11610081,0.7807505,12.754277229309082,2.7834649085998535,8.034923553466797,1.5587056875228882,-1.2019400596618652, 0.8552913665771484
174,1827022424,0.44334808,0.42486712,-0.11616459,0.780664,12.743878364562988,2.9955942630767822,7.972655296325684,1.3599767684936523,-1.6889399290084839, 0.7422112226486206
175,1827039091,0.44320893,0.4251847,-0.11622953,0.78056055,12.703679084777832,2.7964680194854736,7.842527866363525,1.3467477560043335,-1.8299890756607056, 0.6060413122177124
176,1827055758,0.4430827,0.42552474,-0.11627927,0.7804393,12.818670272827148,2.921398401260376,7.914976119995117,1.444178581237793,-1.9366145133972168, 0.41844111680984497
177,1827072425,0.44298738,0.4258481,-0.116367064,0.7803039,12.61535358428955,2.869582414627075,7.8677144050598145,1.0617040395736694,-1.9760326147079468, 0.3121868073940277
178,1827089092,0.44293636,0.42609075,-0.1165169,0.7801781,12.647714614868164,2.886296033859253,7.855075359344482,0.39372479915618896,-1.6518139839172363, 0.3784468472003937
179,1827105759,0.4428736,0.42626712,-0.11676184,0.78008085,12.517440795898438,2.956092119216919,7.740020275115967,-0.22662116587162018,-1.4930285215377808, 0.8917381763458252
180,1827122426,0.44285658,0.42632118,-0.117163435,0.78000075,12.573380470275879,3.097405433654785,7.780306339263916,-1.6037006378173828,-1.2290765047073364, 1.2209446430206299
181,1827139093,0.44282317,0.42629725,-0.11755582,0.7799738,12.914657592773438,2.730874538421631,7.846688270568848,-1.6713182926177979,-0.6252701282501221, 1.5373831987380981
182,1827155760,0.4426639,0.42633626,-0.11773403,0.7800159,12.35310173034668,2.859628200531006,7.684126853942871,0.15363137423992157,-0.18763864040374756, 1.7932027578353882
183,1827172427,0.4425697,0.4262696,-0.11797765,0.78006893,12.372539520263672,2.8597071170806885,7.6049394607543945,-0.7958505153656006,0.23867832124233246, 1.6743723154067993
184,1827189094,0.44250566,0.42613646,-0.11824261,0.78013784,12.509943008422852,2.5912575721740723,7.627907752990723,-1.1839598417282104,0.6011365056037903, 1.682389497756958
185,1827205761,0.44253248,0.4259365,-0.11846254,0.7801985,12.22902774810791,2.8343112468719482,7.637751579284668,-1.4069570302963257,1.1487488746643066, 1.098496675491333
186,1827222428,0.44263953,0.4256966,-0.11874112,0.7802264,12.366455078125,2.6027095317840576,7.507304668426514,-2.1381735801696777,1.141628384590149, 0.744183361530304
187,1827239095,0.4426576,0.42560583,-0.11891334,0.7802395,12.14030933380127,2.467257499694824,7.439368724822998,-0.8458465933799744,0.5538554787635803, 0.758500874042511
188,1827255762,0.44265205,0.42560008,-0.11903396,0.7802273,12.376230239868164,2.631455659866333,7.481228828430176,-0.25341200828552246,0.16182741522789001, 0.5896875262260437
189,1827272429,0.4426585,0.42570347,-0.11916223,0.7801477,11.855783462524414,2.646904468536377,7.26457405090332,-0.05707789584994316,-0.633863091468811, 0.24732261896133423
190,1827289096,0.44259185,0.42585176,-0.11933269,0.7800786,12.135190963745117,2.5918967723846436,7.340542316436768,0.07643470168113708,-1.0329729318618774, 0.7605370879173279
191,1827305763,0.44251838,0.42607245,-0.11951154,0.77997243,12.07809829711914,2.6628592014312744,7.43223237991333,0.2163952887058258,-1.5647693872451782, 0.6271204948425293
192,1827322430,0.4423967,0.42638165,-0.119735084,0.7798382,11.868060111999512,2.7980127334594727,7.3376874923706055,0.36995625495910645,-2.2952566146850586, 0.865344226360321
193,1827339097,0.44234538,0.42662847,-0.12013142,0.7796714,11.994014739990234,2.629422426223755,7.250738143920898,-1.0014182329177856,-2.5297279357910156, 0.9321422576904297
194,1827355764,0.44206586,0.4270677,-0.12035068,0.7795554,11.687825202941895,2.347559690475464,7.0881147384643555,1.2674636840820312,-3.0517914295196533, 1.6539463996887207
195,1827372431,0.44171798,0.4275874,-0.12046685,0.77944976,11.911163330078125,2.5724234580993652,7.18830680847168,2.3524045944213867,-3.1745147705078125, 1.7423101663589478
196,1827389098,0.44136187,0.42813578,-0.12055522,0.7793369,11.662517547607422,2.565101146697998,7.075076103210449,2.561763286590576,-3.2790145874023438, 1.6180119514465332
197,1827405765,0.44104373,0.42865828,-0.120797664,0.7791923,11.476750373840332,2.619385242462158,7.048399448394775,1.486388087272644,-3.6755247116088867, 1.7681405544281006
198,1827422432,0.44085315,0.42909995,-0.12130863,0.7789775,11.356616973876953,2.721447467803955,6.879046440124512,-0.5632361173629761,-4.13875675201416, 1.792818546295166
199,1827439099,0.44074273,0.42947373,-0.121956296,0.77873284,11.290104866027832,2.7444896697998047,6.923069953918457,-1.8717249631881714,-4.233997344970703, 1.6458017826080322
200,1827455766,0.44056588,0.4298364,-0.1225667,0.778537,11.333019256591797,2.1147501468658447,6.657661437988281,-1.4833084344863892,-3.974771499633789, 2.046410083770752
201,1827472433,0.44004554,0.4304818,-0.12251302,0.77848315,11.331363677978516,2.000044822692871,6.642097473144531,3.9996469020843506,-3.3553531169891357, 2.048638105392456
202,1827489100,0.4394662,0.43125075,-0.12217032,0.7784387,11.063460350036621,2.2486908435821533,6.583712577819824,6.349997043609619,-3.097228765487671, 1.6281930208206177
203,1827505767,0.4388874,0.4320111,-0.12163836,0.778427,10.962638854980469,2.2176918983459473,6.47637414932251,7.350250720977783,-2.380214214324951, 1.1566888093948364
204,1827522434,0.43838432,0.43273163,-0.12113066,0.7783893,10.87137222290039,2.343991279602051,6.360617160797119,6.734584331512451,-2.27850604057312, 0.6734923720359802
205,1827539101,0.4380532,0.43323818,-0.12095892,0.7783206,10.742143630981445,2.3757548332214355,6.3440842628479,3.8683438301086426,-2.0600037574768066, 0.9332306385040283
206,1827555768,0.4377639,0.43360248,-0.12093218,0.7782848,10.648673057556152,2.458078384399414,6.480738162994385,2.503109931945801,-1.612678050994873, 1.3067151308059692
207,1827572435,0.43729672,0.43405196,-0.12065886,0.77833927,10.643336296081543,2.8129589557647705,6.5342326164245605,4.665757179260254,-1.2079334259033203, 1.7136369943618774
208,1827589102,0.43651056,0.4346901,-0.1203617,0.7784706,10.543357849121094,2.868295669555664,6.763940811157227,6.275170803070068,-2.2051899433135986, 3.3558473587036133
209,1827605769,0.43545154,0.43563035,-0.12014919,0.77857065,10.355082511901855,2.5965497493743896,6.720799446105957,7.663021564483643,-4.3603715896606445, 4.856022357940674
210,1827622436,0.4344288,0.43644592,-0.11990655,0.77872264,10.408451080322266,2.532865524291992,6.628158092498779,7.481157302856445,-3.3982555866241455, 4.912113666534424
211,1827639103,0.43353546,0.43629748,-0.11820411,0.77956355,10.912391662597656,2.9065496921539307,6.601625919342041,12.435495376586914,8.253360748291016, 2.5624310970306396
212,1827655770,0.42959166,0.4388062,-0.105719045,0.7821275,9.43197250366211,7.2700605392456055,7.150992393493652,88.69255828857422,28.842748641967773, -10.45784854888916
213,1827672437,0.4261775,0.441469,-0.094566144,0.7839229,9.428418159484863,3.5516581535339355,3.9076130390167236,80.10284423828125,22.217086791992188, -11.299565315246582
214,1827689104,0.41959956,0.44828916,-0.07834976,0.78538805,9.755599975585938,2.6445376873016357,2.787954568862915,128.5966796875,11.515851974487305, -13.57554817199707
215,1827705771,0.4108565,0.45623454,-0.06239196,0.7868636,9.026533126831055,1.7393763065338135,2.559267520904541,137.12896728515625,3.6174893379211426, -1.681546688079834
216,1827722438,0.403295,0.46407923,-0.0495822,0.78709936,8.833273887634277,4.499830722808838,1.9905840158462524,115.57615661621094,-8.074106216430664, -1.7031071186065674
217,1827739105,0.40076798,0.47090924,-0.043975197,0.78466284,10.825188636779785,6.876074314117432,-2.239133596420288,56.77141571044922,-29.32364845275879, -13.014430046081543
218,1827755772,0.40581337,0.4748958,-0.05040178,0.7792619,10.482132911682129,5.45338773727417,-0.6100339889526367,-41.489959716796875,-54.311363220214844, -22.16183090209961
219,1827772439,0.41186905,0.48070413,-0.059296116,0.77186245,10.289329528808594,4.556985378265381,-0.9322582483291626,-53.6727180480957,-77.04740905761719, -25.688114166259766
220,1827789106,0.41716194,0.4885037,-0.068485655,0.763315,10.284308433532715,2.8638579845428467,-0.5263699293136597,-47.584442138671875,-92.47818756103516, -24.703481674194336
221,1827805773,0.41958892,0.49922523,-0.07501376,0.7543822,10.031336784362793,2.037645101547241,0.7790548205375671,-15.799216270446777,-102.76232147216797, -21.094327926635742
222,1827822440,0.41986406,0.5121419,-0.080476165,0.74494886,9.488731384277344,1.6936755180358887,1.7493194341659546,3.202242374420166,-113.87692260742188, -16.196176528930664
223,1827839107,0.41924816,0.5261931,-0.08585473,0.73483384,9.29538631439209,2.534228801727295,2.213228702545166,10.748973846435547,-121.93665313720703, -13.94464111328125
224,1827855774,0.4176697,0.5400714,-0.090773605,0.7250071,8.885534286499023,2.15704607963562,3.065688371658325,8.87551212310791,-122.13431549072266, -13.769021987915039
225,1827872441,0.41586047,0.55314887,-0.095478274,0.7155213,8.596435546875,1.6683279275894165,3.985535144805908,5.833356857299805,-117.56773376464844, -13.068528175354004
226,1827889108,0.41420215,0.56495386,-0.1004476,0.70652264,8.543402671813965,1.026484727859497,4.5085272789001465,-0.7852683663368225,-110.7367172241211, -10.85472583770752
227,1827905775,0.4135663,0.57503897,-0.10626493,0.6978544,8.435866355895996,0.7722817063331604,4.828480243682861,-12.898980140686035,-102.63990020751953, -9.791555404663086
228,1827922442,0.4148264,0.5833051,-0.11348708,0.68905383,8.554116249084473,0.7539217472076416,4.664664268493652,-22.454320907592773,-93.31535339355469, -8.49498462677002
229,1827939109,0.41621712,0.5900597,-0.12076957,0.68118113,8.658285140991211,0.35347217321395874,4.674466133117676,-26.810510635375977,-82.58171081542969, -5.0830397605896
230,1827955776,0.41695032,0.5957597,-0.12750815,0.6745107,8.703516960144043,0.17356859147548676,4.55014705657959,-23.575098037719727,-71.83072662353516, 0.06045359745621681
231,1827972443,0.41680452,0.6006242,-0.13358237,0.6690892,8.398847579956055,-0.0033146003261208534,4.817119598388672,-18.156238555908203,-61.77739334106445, 5.679859638214111
232,1827989110,0.4161534,0.60491824,-0.13911052,0.66448385,8.154687881469727,0.4648892283439636,4.368656635284424,-14.405463218688965,-54.75926971435547, 8.564018249511719
233,1828005777,0.4164982,0.6078124,-0.14570816,0.6601989,7.8596415519714355,0.8152210116386414,4.4462690353393555,-27.103965759277344,-49.20441818237305, 10.685528755187988
234,1828022444,0.41798678,0.60929644,-0.15307029,0.6562122,7.55702543258667,1.0487769842147827,4.557409286499023,-39.06822967529297,-42.6663818359375, 10.936147689819336
235,1828039111,0.42091444,0.6088852,-0.16127622,0.6527481,7.586868762969971,1.0854053497314453,5.175218105316162,-53.778072357177734,-32.90273666381836, 11.463918685913086
236,1828055778,0.42567274,0.6058671,-0.17029253,0.65017575,6.74474573135376,0.6851224303245544,7.571521282196045,-71.6078872680664,-17.862356185913086, 12.101298332214355
237,1828072445,0.42993432,0.60255116,-0.17815015,0.648345,7.582431793212891,1.4511913061141968,3.122387647628784,-64.3169174194336,-10.765939712524414, 11.999983787536621
238,1828089112,0.4342865,0.5997964,-0.18595588,0.645802,9.588863372802734,2.1994540691375732,-0.2761746346950531,-63.67050552368164,-15.96798324584961, 8.587449073791504
239,1828105779,0.4367223,0.5990861,-0.19294359,0.64276147,9.726066589355469,1.7798104286193848,0.11812138557434082,-46.69266128540039,-27.024066925048828, 9.629279136657715
240,1828122446,0.4372747,0.5995929,-0.19722942,0.640609,8.362338066101074,2.689821243286133,3.2103021144866943,-22.180784225463867,-23.0669002532959, 7.871292591094971
241,1828139113,0.43770346,0.59993577,-0.19908683,0.63941944,7.655453681945801,3.278461217880249,3.292163610458374,-10.162487030029297,-11.270289421081543, 1.5514713525772095
242,1828155780,0.43799818,0.6003859,-0.19852021,0.63897127,7.816875457763672,3.417011022567749,2.0336811542510986,2.3837552070617676,-1.6074661016464233, -5.724644660949707
243,1828172447,0.43696097,0.60185874,-0.19501501,0.6393751,7.564041614532471,2.5299479961395264,1.1735750436782837,25.024152755737305,4.44662618637085, -10.785395622253418
244,1828189114,0.43555558,0.6037883,-0.19199091,0.63942987,6.377118110656738,2.194237232208252,-0.6406236886978149,25.32721519470215,-0.9254018664360046, -8.812827110290527
245,1828205781,0.43450084,0.6055743,-0.19125068,0.6386799,6.345538139343262,2.1113154888153076,-1.6352845430374146,12.3174467086792,-9.953386306762695, -3.0728354454040527
246,1828222448,0.43432936,0.6070722,-0.19223806,0.6370761,7.173936367034912,2.5002517700195312,-0.5612266063690186,-0.9573906064033508,-16.161447525024414, -1.913577675819397
247,1828239115,0.4339654,0.60919535,-0.19410163,0.63472825,6.578554153442383,1.9305496215820312,0.3761941194534302,-3.1281111240386963,-24.824087142944336, -0.44211456179618835
248,1828255782,0.43287638,0.6125091,-0.19665332,0.6314891,6.523402690887451,1.132887840270996,-1.2810866832733154,-0.7396982312202454,-36.753562927246094, 1.3635560274124146
249,1828272449,0.4314513,0.6164475,-0.19983052,0.6276227,5.705920219421387,1.6714709997177124,-0.42115768790245056,-1.04533851146698,-44.35931396484375, 2.73233699798584
250,1828289116,0.4307606,0.6203854,-0.20407622,0.6228325,4.851458549499512,1.5795159339904785,0.1473918855190277,-10.051681518554688,-50.40317153930664, 1.3602198362350464
251,1828305783,0.43107665,0.6237379,-0.20938404,0.6174809,4.15942907333374,1.2969133853912354,1.0243539810180664,-21.421466827392578,-52.01645278930664, 0.7514912486076355
252,1828322450,0.4315333,0.6264069,-0.21432687,0.6127458,3.643321990966797,0.8699193000793457,1.7153892517089844,-21.609102249145508,-45.20737838745117, 1.411342740058899
253,1828339117,0.43144402,0.62821096,-0.21824111,0.60957193,2.860179901123047,-0.14254029095172882,3.1472809314727783,-15.177964210510254,-32.636199951171875, 5.189970016479492
254,1828355784,0.43067506,0.628838,-0.22085829,0.6085258,2.072726249694824,-0.7597011923789978,4.165223598480225,-7.078616619110107,-15.772655487060547, 10.492045402526855
255,1828372451,0.42957452,0.6286173,-0.2223349,0.6089938,2.0215983390808105,0.5237599611282349,-0.8436365723609924,-1.0474190711975098,-2.921898126602173, 12.68740463256836
256,1828389118,0.4304309,0.62702596,-0.22555842,0.6088441,6.765246391296387,1.5256915092468262,-6.0630106925964355,-21.8226318359375,-1.9846686124801636, 12.321356773376465
257,1828405785,0.4296463,0.6266049,-0.22901337,0.6085419,7.965959548950195,0.3158978223800659,-0.9397649168968201,-12.543882369995117,-10.561877250671387, 17.920875549316406
258,1828422452,0.42820615,0.6258627,-0.2317966,0.6092667,5.085233688354492,0.8565703630447388,3.4676032066345215,-6.244720458984375,-3.7931835651397705, 21.26224708557129
259,1828439119,0.4274411,0.6252304,-0.23403,0.60959923,6.758571147918701,2.054659366607666,1.9606491327285767,-7.121720314025879,-3.3455722332000732, 14.733444213867188
260,1828455786,0.42782658,0.6245041,-0.23699819,0.6089262,7.331851005554199,1.2276750802993774,1.3807425498962402,-17.032072067260742,-7.624886989593506, 10.285518646240234
261,1828472453,0.42870164,0.6238061,-0.24065493,0.6075906,6.273573875427246,0.4410279095172882,1.7288897037506104,-23.006895065307617,-11.835107803344727, 9.186600685119629
262,1828489120,0.4293556,0.62344676,-0.24354418,0.60634494,6.025509834289551,0.710348904132843,1.1150416135787964,-17.693422317504883,-11.002554893493652, 6.496959686279297
263,1828505787,0.42967853,0.6232779,-0.24568428,0.6054256,4.8204450607299805,0.8840597867965698,0.25052395462989807,-12.036645889282227,-8.755773544311523, 5.295295715332031
264,1828522454,0.42994136,0.6231371,-0.24773218,0.60454917,3.8347771167755127,1.283691644668579,-0.16438508033752441,-11.241844177246094,-8.5086088180542, 5.230840682983398
265,1828539121,0.43004355,0.62297654,-0.24953096,0.60390157,3.4077277183532715,1.2972099781036377,-0.31699061393737793,-9.194003105163574,-6.964044570922852, 5.562984466552734
266,1828555788,0.42979065,0.62273425,-0.25087953,0.60377294,3.2832088470458984,1.1255979537963867,-0.29438039660453796,-5.162817478179932,-3.6587624549865723, 6.8086066246032715
267,1828572455,0.42914924,0.6225487,-0.25184152,0.60402,3.3289082050323486,1.0457549095153809,-0.2556360363960266,-1.0852487087249756,-1.7942723035812378, 7.797243118286133
268,1828589122,0.42838514,0.6223193,-0.25254583,0.6045044,3.6257736682891846,1.0777150392532349,0.19942623376846313,0.7854456305503845,-0.031209079548716545, 7.99583101272583
269,1828605789,0.42756978,0.62211734,-0.25308555,0.60506356,4.549741744995117,0.9764364957809448,0.631441593170166,1.8979078531265259,0.572232723236084, 7.690323352813721
270,1828622456,0.42689884,0.62188226,-0.25360054,0.6055631,5.538050651550293,0.8324824571609497,1.3403891324996948,1.1839793920516968,0.7696042656898499, 6.869180679321289
271,1828639123,0.4265335,0.6214499,-0.2534212,0.60633904,5.5364274978637695,0.8910117745399475,1.4889886379241943,2.6797616481781006,5.312273979187012, 3.7729499340057373
272,1828655790,0.42654696,0.6208845,-0.25247094,0.60730445,4.894203186035156,0.4212217926979065,0.9051228761672974,4.224656581878662,9.562320709228516, -0.3201204538345337
273,1828672457,0.42649585,0.6204622,-0.2511184,0.6083319,4.30595064163208,0.028199104592204094,0.29208827018737793,6.714212417602539,10.282729148864746, -1.8523625135421753
274,1828689124,0.4264111,0.62019205,-0.24976632,0.60922277,3.775320529937744,-0.03611891716718674,0.17163421213626862,7.070087909698486,9.00905990600586, -2.4004101753234863
275,1828705791,0.42630804,0.6200785,-0.24833994,0.6099931,3.4386298656463623,0.38747259974479675,0.09232021868228912,7.715195655822754,8.033522605895996, -3.287801504135132
276,1828722458,0.42556134,0.6206452,-0.24631777,0.61075747,3.348315954208374,0.5347402691841125,0.02509145252406597,14.94167423248291,5.811751365661621, -4.314360618591309
277,1828739125,0.42356053,0.6223766,-0.24320586,0.611633,3.3942320346832275,0.7952634692192078,0.5431652665138245,28.463409423828125,2.470909595489502, -5.346423625946045
278,1828755792,0.4212964,0.6247183,-0.23939796,0.61231136,4.24668550491333,1.4459220170974731,1.1956255435943604,33.96570587158203,0.6380982995033264, -8.804723739624023
279,1828772459,0.41927242,0.62719434,-0.23539184,0.61272246,5.171346664428711,1.273518681526184,1.6719695329666138,33.72105407714844,-0.13690048456192017, -11.638884544372559
280,1828789126,0.41679707,0.62955445,-0.23077255,0.6137471,6.633157730102539,0.5588158369064331,1.5947312116622925,38.917930603027344,3.9896297454833984, -10.417974472045898
281,1828805793,0.4128945,0.6317401,-0.22546165,0.6161085,7.031733512878418,-0.16526740789413452,1.9582680463790894,49.65020751953125,10.192673683166504, -3.3150436878204346
282,1828822460,0.40927052,0.63237506,-0.22152005,0.61929655,6.51612663269043,0.10279179364442825,2.6533212661743164,39.54285430908203,16.847726821899414, 6.13929557800293
283,1828839127,0.40728033,0.6296834,-0.2178762,0.6246211,7.553574562072754,0.8779965043067932,5.155112266540527,25.093923568725586,41.8736686706543, 11.508662223815918
284,1828855794,0.405256,0.6224926,-0.20681715,0.63678676,4.20249605178833,2.7276368141174316,4.8787641525268555,54.79055404663086,111.35814666748047, 5.42810583114624
285,1828872461,0.40250385,0.6232683,-0.20367602,0.6387828,-2.885007381439209,3.598473072052002,-4.333536624908447,31.001811981201172,9.684319496154785, 2.9244368076324463
286,1828889128,0.40776464,0.6202292,-0.21095443,0.6360362,-0.11053723096847534,4.544536590576172,-7.305142879486084,-66.37531280517578,-11.323441505432129, 4.774354457855225
287,1828905795,0.40985143,0.6212235,-0.21743092,0.63152754,-0.14983829855918884,1.3537254333496094,-3.271641492843628,-40.69379425048828,-38.520851135253906, 4.625737190246582
288,1828922462,0.41349196,0.62559146,-0.2259499,0.62177694,-2.5777807235717773,5.703257083892822,-2.6757519245147705,-54.57033157348633,-78.8575210571289, -13.157228469848633
289,1828939129,0.41588423,0.63300234,-0.23528138,0.6090905,-3.3791191577911377,2.7643837928771973,-0.6200690865516663,-48.648719787597656,-108.65476989746094, -17.142135620117188
290,1828955796,0.41483995,0.64213306,-0.24302246,0.59708714,-6.6561737060546875,-0.3894834518432617,2.721339225769043,-21.01854133605957,-113.89470672607422, -10.358154296875
291,1828972463,0.41426042,0.6496757,-0.2503928,0.58618534,-8.140768051147461,-1.5951930284500122,6.677692890167236,-24.192790985107422,-100.82477569580078, -8.065271377563477
292,1828989130,0.41404122,0.65446216,-0.25595188,0.57856524,-8.738327026367188,-4.12180757522583,7.921592712402344,-20.6185302734375,-69.59184265136719, -3.5133206844329834
293,1829005797,0.4089679,0.6604229,-0.2559334,0.5753998,0.3551814556121826,0.4138569235801697,-18.822280883789062,34.690025329589844,-47.2325553894043, 1.2142424583435059
294,1829022464,0.40698215,0.66627616,-0.26277533,0.5669135,15.415400505065918,-2.7648847103118896,3.381054401397705,-16.32590675354004,-83.96517944335938, 5.371896266937256
295,1829039131,0.40963086,0.66944635,-0.2684032,0.55857307,-4.152084827423096,2.0445926189422607,4.326872825622559,-40.00791549682617,-61.2374153137207, -13.301932334899902
296,1829055798,0.41317934,0.6720532,-0.27474388,0.54967564,9.972892761230469,-4.714437484741211,-0.24343708157539368,-49.45892333984375,-62.17409896850586, -13.888227462768555
297,1829072465,0.41145167,0.6772186,-0.27837807,0.54275984,6.100361347198486,-1.6653627157211304,1.6357747316360474,-3.8297839164733887,-64.9643783569336, -5.978644847869873
298,1829089132,0.41134053,0.6803251,-0.28351673,0.5362602,8.616174697875977,-0.5120447278022766,0.346596360206604,-21.981399536132812,-56.58065414428711, -0.020362362265586853
299,1829105799,0.41202536,0.6816346,-0.28885025,0.53120154,6.007781505584717,0.23006343841552734,-0.302967369556427,-28.692806243896484,-42.23991012573242, 5.433073997497559
300,1829122466,0.41309306,0.681339,-0.2926064,0.52868974,4.170499324798584,0.07952356338500977,-1.7260184288024902,-24.219913482666016,-19.20220375061035, 7.009829521179199
301,1829139133,0.41442275,0.6790957,-0.29433855,0.5295734,2.9288196563720703,0.7586100697517395,-1.9100931882858276,-16.80768585205078,10.130743026733398, 10.120959281921387
302,1829155800,0.41569862,0.67542017,-0.29346105,0.5337443,3.3047890663146973,0.8023236393928528,-1.6793757677078247,-4.497653007507324,38.0981330871582, 10.422164916992188
303,1829172467,0.4153408,0.67169595,-0.28917244,0.54101384,4.4974846839904785,0.9247702360153198,-0.8509191870689392,21.710922241210938,59.17862319946289, 9.553205490112305
304,1829189134,0.4127375,0.66872644,-0.28195786,0.5504115,5.765152931213379,0.9233222007751465,1.097259283065796,49.3525276184082,70.10966491699219, 8.983755111694336
305,1829205801,0.4090745,0.6654316,-0.27318564,0.56145215,7.263515472412109,1.2163915634155273,4.3935546875,62.399967193603516,81.20325469970703, 11.12890911102295
306,1829222468,0.40667996,0.65687084,-0.26164752,0.57850933,5.99052619934082,2.3469789028167725,6.613299369812012,63.81047439575195,139.052490234375, 20.398672103881836
307,1829239135,0.4020758,0.6543137,-0.25424948,0.58784866,-3.1598029136657715,1.3805952072143555,-3.460219383239746,60.270328521728516,64.52687072753906, 15.567011833190918
308,1829255802,0.4040821,0.6498919,-0.25399488,0.5914768,-2.6589488983154297,3.07357120513916,-7.928547382354736,-13.521500587463379,38.33660888671875, 8.546491622924805
309,1829272469,0.40275022,0.6487649,-0.25408313,0.59358084,-0.7081854343414307,-0.4182469844818115,-4.698406219482422,6.413883209228516,11.649023056030273, 13.795574188232422
310,1829289136,0.39965716,0.651732,-0.25464287,0.59217936,-1.7848740816116333,2.054842710494995,-4.87493896484375,17.5267333984375,-24.914236068725586, 6.2138991355896
311,1829305803,0.39733264,0.6578405,-0.25638923,0.5862062,-3.009361743927002,3.4244561195373535,-2.973845958709717,9.839807510375977,-59.948673248291016, -9.582172393798828
312,1829322470,0.4006437,0.66348195,-0.26297066,0.5745631,-4.501423358917236,2.7876110076904297,-0.34226176142692566,-46.435760498046875,-86.91294860839844, -24.965375900268555
313,1829339137,0.40434375,0.66930777,-0.27071625,0.56146765,-4.7342023849487305,-1.0109542608261108,1.255062222480774,-54.92771911621094,-96.79290008544922, -25.412513732910156
314,1829355804,0.40351048,0.6771915,-0.27519172,0.55032796,-5.128154277801514,-2.4226598739624023,2.211977481842041,-12.059496879577637,-95.15016174316406, -21.36920928955078
315,1829372471,0.40015963,0.6857669,-0.2783327,0.5404877,-5.981414794921875,-2.9619648456573486,5.364217281341553,9.116545677185059,-92.86199188232422, -15.818248748779297
316,1829389138,0.3981142,0.69208896,-0.28300714,0.53143674,-7.357815742492676,-3.804226875305176,9.484393119812012,-7.381401062011719,-82.66163635253906, -7.018435001373291
317,1829405805,0.39938605,0.69403315,-0.28909287,0.52462786,-8.696537017822266,-5.239324569702148,11.838481903076172,-35.87694549560547,-53.68897247314453, 2.1574599742889404
318,1829422472,0.39608994,0.6969615,-0.28698602,0.52440107,-6.4233717918396,-1.6268601417541504,-16.801422119140625,31.329111099243164,-12.74398422241211, -4.442015647888184
319,1829439139,0.40678728,0.6948164,-0.29962865,0.51183695,18.29340171813965,2.1932778358459473,-9.909187316894531,-127.21121978759766,-65.52399444580078, -7.805984020233154
320,1829455806,0.41039023,0.6962527,-0.30679327,0.50268286,-9.45057487487793,-0.4805048704147339,8.443708419799805,-57.051273345947266,-60.89664077758789, -6.925447940826416
321,1829472473,0.4132947,0.6993505,-0.3145125,0.49109915,13.000229835510254,2.948873519897461,0.19166779518127441,-56.00233840942383,-81.54747772216797, -12.149681091308594
322,1829489140,0.41686398,0.6992631,-0.31921795,0.4851345,7.794963836669922,-0.6994306445121765,3.363115072250366,-45.90428924560547,-33.850608825683594, -6.053874969482422
323,1829505807,0.41749573,0.6999676,-0.32156312,0.48201638,10.255597114562988,2.597733974456787,1.4334676265716553,-15.362935066223145,-22.636524200439453, -1.2721989154815674
324,1829522474,0.415853,0.70019305,-0.32094434,0.48351902,7.440521240234375,1.6295231580734253,1.0488172769546509,14.267906188964844,4.574118137359619, 6.319087505340576
325,1829539141,0.41464925,0.69975,-0.31867322,0.48668602,7.2818603515625,-0.4877432882785797,0.07298973947763443,19.42262077331543,20.44249725341797, 3.132256507873535
326,1829555808,0.41373214,0.6972708,-0.31358963,0.49426815,7.491113185882568,-1.0919290781021118,0.024204906076192856,31.325010299682617,57.12080383300781, 5.6264190673828125
327,1829572475,0.41509286,0.6912813,-0.30855522,0.5046005,5.731998443603516,-0.7081932425498962,0.5338614583015442,16.185192108154297,86.98892974853516, 13.436079025268555
328,1829589142,0.41678354,0.68331677,-0.30247876,0.5175679,4.174957275390625,-0.1679924577474594,1.256048560142517,18.194360733032227,110.02101135253906, 19.004167556762695
329,1829605809,0.4196085,0.6710349,-0.2935909,0.53613967,5.0890703201293945,1.2838726043701172,5.311093807220459,22.169382095336914,162.10980224609375, 26.790119171142578
330,1829622476,0.4187644,0.66150457,-0.28153786,0.5547833,-5.8096137046813965,0.5218878388404846,-1.4938156604766846,58.893192291259766,153.8719024658203, 20.397367477416992
331,1829639143,0.41536206,0.657654,-0.27169243,0.5667,-5.66005802154541,3.543792486190796,-8.258416175842285,65.41525268554688,90.38697052001953, 9.921126365661621
332,1829655810,0.41505778,0.6526733,-0.26504523,0.5757567,-2.9225733280181885,0.7222829461097717,-6.582058906555176,30.29922866821289,78.79926300048828, 6.410438537597656
333,1829672477,0.4069711,0.65221024,-0.25592846,0.5860865,-4.043437957763672,-3.25199556350708,-5.6545729637146,90.1610107421875,59.70933532714844, 21.578248977661133
334,1829689144,0.39955518,0.6552917,-0.24751568,0.5913412,-3.466810941696167,3.79648756980896,-5.552505970001221,85.27693176269531,22.045433044433594, 1.5242853164672852
335,1829705811,0.39692473,0.66012794,-0.24355854,0.58937365,-5.704377174377441,4.136271953582764,-4.6426544189453125,38.07909393310547,-21.571578979492188, -20.559879302978516
336,1829722478,0.39834556,0.6656807,-0.2452534,0.58141273,-6.089404582977295,1.803167462348938,-2.374279737472534,-11.33846378326416,-60.20498275756836, -28.734695434570312
337,1829739145,0.3984649,0.673315,-0.2485389,0.57105273,-5.294532775878906,-1.627292513847351,-0.40693944692611694,-10.101262092590332,-86.0199966430664, -26.252304077148438
338,1829755812,0.39322796,0.68363655,-0.24961612,0.56187606,-5.250627040863037,-3.1511828899383545,1.2641494274139404,32.76045608520508,-94.21173095703125, -16.820117950439453
339,1829772479,0.38475502,0.69475466,-0.2486969,0.55446327,-5.43636417388916,-3.3623545169830322,3.7863707542419434,60.88765335083008,-89.21112060546875, -10.369141578674316
340,1829789146,0.37502664,0.7056227,-0.2460255,0.5485647,-4.794322490692139,-3.0676486492156982,4.98370885848999,75.5277099609375,-78.65699005126953, -9.588173866271973
341,1829805813,0.36518523,0.7154804,-0.24262431,0.54393125,-3.8709514141082764,-3.4340062141418457,5.345979690551758,78.4020767211914,-67.16321563720703, -7.789474010467529
342,1829822480,0.36333877,0.7194713,-0.24335079,0.5395616,-4.957165718078613,-0.6248089671134949,4.117020606994629,9.38066577911377,-41.0973014831543, -7.002838611602783
343,1829839147,0.37605056,0.71520525,-0.25325453,0.5319114,5.332154273986816,2.8522262573242188,-6.950563430786133,-122.77574157714844,-25.362594604492188, -9.976176261901855
344,1829855814,0.38212776,0.7166317,-0.2586961,0.52296627,5.195268630981445,3.2293362617492676,9.105493545532227,-61.40997314453125,-52.38090133666992, -20.87753677368164
345,1829872481,0.3866973,0.7194723,-0.26092246,0.5145334,5.050012588500977,6.1077985763549805,4.362915992736816,-37.71306228637695,-49.47236251831055, -32.42778396606445
346,1829889148,0.38714597,0.7223579,-0.2586546,0.51128787,11.152619361877441,1.4147307872772217,2.4201736450195312,8.043092727661133,-19.559253692626953, -26.253747940063477
347,1829905815,0.38328046,0.7253528,-0.25279903,0.51288605,8.4199857711792,2.1266517639160156,2.1246678829193115,51.01486587524414,5.88454532623291, -16.27118492126465
348,1829922482,0.37756297,0.7272613,-0.2457094,0.5178458,8.729487419128418,-0.4076189696788788,1.130253553390503,67.60579681396484,26.433204650878906, -5.160338401794434
349,1829939149,0.3770008,0.723539,-0.24286814,0.5247636,9.901025772094727,-2.067363739013672,1.0667842626571655,15.400125503540039,53.90321731567383, 12.238919258117676
350,1829955816,0.37768096,0.7175774,-0.24206337,0.53277147,7.607934951782227,-2.51408314704895,0.9331687688827515,-2.1050913333892822,64.15200805664062, 24.314311981201172
351,1829972483,0.37700415,0.7120116,-0.23989399,0.5416255,5.542538642883301,-1.6809189319610596,1.1957346200942993,12.029134750366211,68.13311767578125, 23.967605590820312
352,1829989150,0.37602526,0.70522785,-0.23555277,0.55296814,4.606858253479004,-0.1451542228460312,4.9514875411987305,22.551958084106445,89.95883178710938, 22.847578048706055
353,1830005817,0.37342176,0.69952226,-0.2284857,0.56481797,-2.3297431468963623,1.1377143859863281,3.3392789363861084,44.439552307128906,92.60319519042969, 15.360628128051758
354,1830022484,0.36939853,0.69731015,-0.22327362,0.5722344,-5.474241256713867,2.250138521194458,-2.5215227603912354,46.078433990478516,50.66451644897461, 13.007189750671387
355,1830039151,0.37015823,0.6930165,-0.22299717,0.57704717,-3.3830726146698,2.71917724609375,-9.839042663574219,-5.597692966461182,41.3126106262207, 14.555482864379883
356,1830055818,0.3677089,0.6904163,-0.22337444,0.5815665,-2.2200112342834473,-3.8771960735321045,-2.907273054122925,10.862259864807129,26.956666946411133, 27.16273307800293
357,1830072485,0.35723066,0.6935373,-0.21920699,0.58595306,-3.493497371673584,0.11442413926124573,-4.638445854187012,81.38678741455078,2.7256147861480713, 28.481828689575195
358,1830089152,0.35422716,0.6970345,-0.21993567,0.5833477,-5.839239120483398,2.805063486099243,-2.6047613620758057,16.36283302307129,-32.72775650024414, 4.006594657897949
359,1830105819,0.3624977,0.6981775,-0.22889273,0.5733689,-7.130197048187256,2.070021867752075,-0.021918885409832,-87.58528900146484,-61.523094177246094, -16.05748176574707
360,1830122486,0.37717235,0.6966413,-0.24355999,0.55956274,-7.607978343963623,-1.834574818611145,1.8538798093795776,-153.55772399902344,-73.4834976196289, -19.116912841796875
361,1830139153,0.38793772,0.69576246,-0.25645423,0.5474032,-6.637267589569092,-4.55207633972168,2.308671712875366,-123.53157043457031,-70.1141357421875, -9.408421516418457
362,1830155820,0.3903137,0.6975278,-0.2642885,0.5396868,-5.735969543457031,-4.641044616699219,2.3904104232788086,-49.44405746459961,-60.14970779418945, 5.059429168701172
363,1830172487,0.38402036,0.70259476,-0.26698318,0.536292,-5.491595268249512,-2.8121910095214844,3.044901132583618,27.929655075073242,-53.67864227294922, 18.08793830871582
364,1830189154,0.37566385,0.7081564,-0.26830563,0.5342316,-5.742684841156006,-0.355668842792511,4.378656387329102,46.72438430786133,-49.28263473510742, 21.6467227935791
365,1830205821,0.3706516,0.7122445,-0.27066508,0.5310986,-6.314695358276367,0.6259322166442871,4.662604331970215,20.866832733154297,-45.694644927978516, 14.395788192749023
366,1830222488,0.3737808,0.7135061,-0.27515346,0.5248693,-5.2771148681640625,5.616705417633057,-10.151646614074707,-39.720359802246094,-40.90379333496094, -7.479918003082275
367,1830239155,0.38614297,0.7111027,-0.28669897,0.5128648,17.155071258544922,2.012972831726074,-10.050874710083008,-130.90232849121094,-56.34178924560547, -13.904305458068848
368,1830255822,0.39029765,0.7129856,-0.29353923,0.50314426,-2.462428331375122,1.4121848344802856,13.29302978515625,-58.3418083190918,-63.76795196533203, -10.428271293640137
369,1830272489,0.39419132,0.71516645,-0.29844663,0.49404448,13.9959135055542,2.1480307579040527,1.355255126953125,-48.22990036010742,-57.48651885986328, -17.894737243652344
370,1830289156,0.39134446,0.71920556,-0.2972984,0.4911279,9.997109413146973,2.059126615524292,4.35154390335083,23.233613967895508,-30.923425674438477, -11.892196655273438
371,1830305823,0.39110932,0.7212901,-0.29784688,0.48791546,11.295330047607422,-0.23510313034057617,1.1874035596847534,-1.2337154150009155,-25.184234619140625, -9.151555061340332
372,1830322490,0.38619903,0.72491324,-0.29534286,0.48797953,11.244853019714355,0.1166241243481636,3.19474196434021,43.05171203613281,-15.542450904846191, -3.0436692237854004
373,1830339157,0.38401696,0.725271,-0.29373688,0.49013442,11.21501350402832,-0.19697952270507812,4.102323532104492,22.042085647583008,8.851569175720215, 4.382694721221924
374,1830355824,0.38027078,0.72316927,-0.2863031,0.5004507,7.684333324432373,1.1768016815185547,7.563809394836426,59.5023078918457,69.90572357177734, 7.032632350921631
375,1830372491,0.37309644,0.72298896,-0.27666727,0.51141125,-2.0041911602020264,0.2771484851837158,1.5528817176818848,90.47268676757812,65.27623748779297, 5.791049003601074
376,1830389158,0.36677504,0.7227762,-0.2682773,0.5206707,-3.306217908859253,2.3220245838165283,-5.117263317108154,78.52671813964844,55.38105010986328, 4.744657039642334
377,1830405825,0.36731455,0.7185378,-0.26485062,0.5278614,-4.2650980949401855,0.31019526720046997,-1.260358214378357,12.64336109161377,59.8740348815918, 7.162796497344971
378,1830422492,0.36027107,0.71422803,-0.25643858,0.542515,-6.117287635803223,-6.633977890014648,2.2970144748687744,81.58364868164062,95.89185333251953, 29.083953857421875
379,1830439159,0.35056826,0.71081537,-0.24458455,0.5585892,-4.4320902824401855,-2.8616750240325928,0.45912566781044006,112.20903778076172,103.36393737792969, 23.919950485229492
380,1830455826,0.34789342,0.7061568,-0.23568001,0.56988406,-5.1599321365356445,3.402308225631714,0.580345094203949,55.47791290283203,89.53608703613281, 1.8916934728622437
381,1830472493,0.3581931,0.69785416,-0.23501445,0.573991,-6.995440483093262,3.8610341548919678,0.6589529514312744,-60.17661666870117,70.2634048461914, -20.09918975830078
382,1830489160,0.37426662,0.68799096,-0.23966303,0.57372004,-6.599762439727783,-0.882328987121582,-1.5192214250564575,-119.79049682617188,51.682918548583984, -25.51375961303711
383,1830505827,0.3848603,0.6814093,-0.24262197,0.57332265,-6.059899806976318,-1.4668704271316528,-3.695525646209717,-78.9844970703125,33.54458999633789, -17.62739372253418
384,1830522494,0.38764805,0.6791684,-0.24293323,0.5739712,-5.542386531829834,-2.727694272994995,-4.707823753356934,-18.778194427490234,15.469366073608398, -3.7492587566375732
385,1830539161,0.38251173,0.68180245,-0.24020563,0.57544035,-5.124212741851807,-0.8458104133605957,-4.522197246551514,44.544158935546875,-4.894571304321289, 7.330977916717529
386,1830555828,0.37398443,0.687813,-0.2371324,0.57516706,-4.847141265869141,0.5504462718963623,-3.627370595932007,67.77449798583984,-30.950267791748047, 8.974464416503906
387,1830572495,0.36826718,0.6943859,-0.23769453,0.5707093,-5.168458461761475,2.197255849838257,-0.9976459741592407,34.702640533447266,-57.602420806884766, 3.4176528453826904
388,1830589162,0.3687865,0.69923085,-0.24295904,0.5621779,-5.557991981506348,1.0972905158996582,0.9695062041282654,-24.568578720092773,-71.9496078491211, -6.00818395614624
389,1830605829,0.37205765,0.7027151,-0.24844629,0.5532082,-4.907369613647461,-1.0701484680175781,1.5079299211502075,-42.836307525634766,-64.79061889648438, -14.356746673583984
390,1830622496,0.37509087,0.70448804,-0.2509788,0.54773474,1.9964871406555176,2.3948171138763428,-11.51162338256836,-28.840282440185547,-34.27372741699219, -15.872724533081055
391,1830639163,0.3745402,0.7096405,-0.25191006,0.5409913,11.942705154418945,0.7134813070297241,8.219964981079102,0.9933428168296814,-54.86471939086914, -19.20222282409668
392,1830655830,0.37678963,0.7142074,-0.254751,0.5320144,4.200366973876953,3.8572838306427,5.034775733947754,-25.065032958984375,-63.971858978271484, -25.124786376953125
393,1830672497,0.37697166,0.71930367,-0.2568275,0.52396035,16.505765914916992,-0.39131468534469604,4.923203468322754,-9.081764221191406,-63.19806671142578, -19.7949161529541
394,1830689164,0.37392142,0.72454387,-0.25759956,0.51851845,11.773459434509277,-0.9477126002311707,2.0934886932373047,16.64911651611328,-53.34432601928711, -8.24307918548584
395,1830705831,0.36984882,0.72978765,-0.25915763,0.5132827,10.703478813171387,-1.8296042680740356,1.2847936153411865,19.341753005981445,-56.26570510864258, -0.2857900559902191
396,1830722498,0.36646757,0.73334956,-0.26087242,0.5097505,10.039163589477539,-2.1632301807403564,2.1427528858184814,14.092823028564453,-41.02325439453125, 5.2534499168396
397,1830739165,0.36663377,0.73154694,-0.2628411,0.51120776,8.237224578857422,-1.0964560508728027,2.939049005508423,-9.232943534851074,8.561614036560059, 16.162464141845703
398,1830755832,0.36613494,0.7257865,-0.25760323,0.52232146,3.6457250118255615,0.060982465744018555,4.666752815246582,26.941221237182617,87.90006256103516, 13.670649528503418
399,1830772499,0.36344838,0.7213573,-0.25137043,0.5332559,-3.0267257690429688,-0.9853404760360718,-1.1785134077072144,44.49967956542969,80.72608947753906, 13.757852554321289
400,1830789166,0.36235726,0.7169295,-0.24859266,0.5412126,-3.0009539127349854,2.263415813446045,-6.031693935394287,18.755443572998047,60.1694450378418, 17.62312889099121
401,1830805833,0.36596465,0.71111923,-0.2502748,0.5456575,-4.571187973022461,1.6880285739898682,-4.232056140899658,-30.503448486328125,45.15699005126953, 15.835620880126953
402,1830822500,0.3636641,0.7058502,-0.250541,0.5538531,-3.2166712284088135,-6.168385982513428,-0.9053078293800354,11.465055465698242,55.03519058227539, 39.67153549194336
403,1830839167,0.35343277,0.7047908,-0.24558772,0.56395215,-4.904602527618408,-2.2227959632873535,-1.2845873832702637,83.62971496582031,47.69338607788086, 41.91315460205078
404,1830855834,0.35061768,0.70266587,-0.24364842,0.5691779,-5.912447452545166,3.3087034225463867,1.4546072483062744,25.17315673828125,33.476097106933594, 17.704132080078125
405,1830872501,0.35913777,0.6973396,-0.24795894,0.5685544,-9.572396278381348,4.245269298553467,3.7599101066589355,-71.56948852539062,21.65015983581543, -5.059261322021484
406,1830889168,0.37460086,0.6893046,-0.25624892,0.5646857,-9.5736083984375,1.5952054262161255,2.350770950317383,-132.6398468017578,18.607044219970703, -16.343421936035156
407,1830905835,0.38802046,0.68170094,-0.26283306,0.561821,-7.888132572174072,-1.7133749723434448,0.8901532888412476,-113.45248413085938,22.44322395324707, -14.578690528869629
408,1830922502,0.39559028,0.6762461,-0.26577222,0.5617515,-7.100347518920898,-2.6049129962921143,-0.49906060099601746,-61.16877746582031,26.400285720825195, -5.503089427947998
409,1830939169,0.39537486,0.6746764,-0.2635467,0.56483066,-6.729488372802734,-1.005347728729248,-1.1123019456863403,11.290267944335938,25.90067481994629, 1.9843300580978394
410,1830955836,0.39152357,0.6757031,-0.25914147,0.56831366,-6.044910430908203,0.9573506712913513,-1.681983470916748,44.395843505859375,17.090456008911133, 2.401279926300049
411,1830972503,0.38777536,0.67828715,-0.25551885,0.56944454,-5.0381879806518555,2.229416847229004,-2.3808987140655518,40.836036682128906,-1.770949363708496, -3.407597780227661
412,1830989170,0.3884912,0.6809764,-0.2558902,0.56556726,-3.7661752700805664,2.276906728744507,-3.420457601547241,-4.166113376617432,-28.254356384277344, -15.708148002624512
413,1831005837,0.39051032,0.6841419,-0.25843346,0.5591636,-1.032486081123352,-1.0683890581130981,-5.531210899353027,-21.918607711791992,-45.327938079833984, -18.114418029785156
414,1831022504,0.39400685,0.68467635,-0.26360264,0.55361587,6.734799861907959,2.3232812881469727,-7.884200096130371,-44.53760528564453,-35.437744140625, -4.504992485046387
415,1831039171,0.39761323,0.6870607,-0.27088183,0.5444945,7.267481803894043,-0.20067089796066284,7.959758281707764,-54.59614944458008,-64.5993881225586, -8.013226509094238
416,1831055838,0.40114987,0.69025445,-0.27785465,0.53425133,4.659973621368408,1.569571852684021,5.988887310028076,-52.9217414855957,-72.51911926269531, -13.847448348999023
417,1831072505,0.40290812,0.6948073,-0.28243324,0.5245373,13.999320030212402,1.3597608804702759,2.6442172527313232,-30.876914978027344,-72.00900268554688, -19.819923400878906
418,1831089172,0.40254787,0.69856274,-0.28519148,0.5182966,8.687440872192383,-0.6605697274208069,1.7245540618896484,-9.616090774536133,-51.74282455444336, -9.790771484375
419,1831105839,0.40320235,0.70046616,-0.289114,0.5130188,8.494277954101562,-1.0589946508407593,0.5338789820671082,-21.852359771728516,-41.8303337097168, -1.615354299545288
420,1831122506,0.40341374,0.6999397,-0.28884494,0.5137223,7.882163047790527,-1.1152340173721313,0.05540226027369499,0.23378635942935944,6.246253490447998, 1.0709503889083862
421,1831139173,0.4039892,0.6971999,-0.28741497,0.51778173,6.0937819480896,-1.262309193611145,-0.28037866950035095,3.1159329414367676,34.13697814941406, 7.811901092529297
422,1831155840,0.40435827,0.693092,-0.28411213,0.5247838,4.65822172164917,-0.22861722111701965,0.4281347990036011,12.792993545532227,57.90723419189453, 10.372154235839844
423,1831172507,0.40304962,0.6873667,-0.27641407,0.5372834,3.7176513671875,0.32117655873298645,3.0047123432159424,42.900306701660156,98.86956024169922, 13.897598266601562
424,1831189174,0.39648578,0.68517923,-0.26434538,0.550863,-0.9048335552215576,0.8304888010025024,2.7166099548339844,95.7656021118164,92.93789672851562, 8.929488182067871
425,1831205841,0.39131296,0.68331265,-0.25704277,0.56025624,-2.6211464405059814,2.1229825019836426,-4.270207405090332,64.43450927734375,61.467891693115234, 14.173660278320312
426,1831222508,0.3914997,0.6785965,-0.25393265,0.5672327,-0.8551926016807556,3.516042947769165,-6.168325901031494,11.120408058166504,59.44581604003906, 11.850174903869629
427,1831239175,0.38733825,0.6758563,-0.24921346,0.57539564,-4.280495643615723,-3.5682215690612793,-2.123701333999634,45.00996017456055,54.22637939453125, 21.15347671508789
428,1831255842,0.3768884,0.67885435,-0.23988537,0.58272386,-4.0225911140441895,1.54682195186615,-5.038419723510742,106.31372833251953,29.229053497314453, 12.490825653076172
429,1831272509,0.36948243,0.6831281,-0.23420754,0.58477825,-5.892117023468018,1.1576449871063232,-4.519730567932129,72.03958892822266,-4.771144390106201, 1.630195140838623
430,1831289176,0.36432812,0.68908495,-0.23236418,0.5817509,-6.750001907348633,2.297334671020508,-4.2056097984313965,42.098228454589844,-41.376312255859375, -4.96791410446167
431,1831305843,0.36224282,0.6956615,-0.23482504,0.5741886,-6.809523582458496,1.4870024919509888,-3.2987537384033203,4.607378959655762,-71.09121704101562, -9.099485397338867
432,1831322510,0.36099178,0.70309895,-0.23927777,0.56398857,-6.213820934295654,-0.015752624720335007,-1.871951699256897,-9.387998580932617,-90.62396240234375, -10.745845794677734
433,1831339177,0.35968083,0.7108989,-0.24420765,0.552825,-6.2980546951293945,-0.8185845017433167,0.630462110042572,-11.64311695098877,-97.91931915283203, -11.161198616027832
434,1831355844,0.35812923,0.71852213,-0.24792603,0.5422198,-6.722891807556152,-1.7829219102859497,2.672459840774536,-5.349785804748535,-91.94908905029297, -14.480313301086426
435,1831372511,0.35469434,0.7263406,-0.24756753,0.53416437,-6.744664669036865,-1.7333335876464844,4.875895977020264,24.002004623413086,-73.32671356201172, -21.668947219848633
436,1831389178,0.35048056,0.7336259,-0.244111,0.5285512,-6.40911865234375,-1.8527132272720337,5.446314811706543,42.161773681640625,-53.074337005615234, -27.430217742919922
437,1831405845,0.345517,0.74034697,-0.23899366,0.5247728,-6.68185567855835,-2.11077880859375,4.1451096534729,53.73501205444336,-39.166439056396484, -27.731813430786133
438,1831422512,0.34201506,0.74364024,-0.23500371,0.524212,-3.896183967590332,0.422370970249176,-9.971273422241211,39.39503860473633,-10.78471851348877, -14.011338233947754
439,1831439179,0.35290697,0.7446034,-0.2470235,0.509904,5.201745986938477,2.359360456466675,-6.781016826629639,-119.6828384399414,-86.74064636230469, -12.562429428100586
440,1831455846,0.35180458,0.7513749,-0.2498307,0.49925348,5.816279888153076,3.3113105297088623,14.965126037597656,-5.70352840423584,-86.24466705322266, -18.641191482543945
441,1831472513,0.35921845,0.755195,-0.2542614,0.48579195,2.3450191020965576,1.9884297847747803,0.056130342185497284,-67.08858489990234,-80.4749984741211, -41.185638427734375
442,1831489180,0.36067906,0.758531,-0.25370702,0.47976482,16.470539093017578,-2.119370937347412,2.011873483657837,-7.710561275482178,-38.3765983581543, -27.9566707611084
443,1831505847,0.35742176,0.7615001,-0.25010785,0.47938836,8.57439136505127,1.0426204204559326,2.8865609169006348,35.92759704589844,-8.575128555297852, -13.84339427947998
444,1831522514,0.355207,0.76258284,-0.24666493,0.48109472,11.730340003967285,-1.6303390264511108,0.6266485452651978,28.942537307739258,9.80131721496582, -8.151474952697754
445,1831539181,0.35467407,0.7608956,-0.24424048,0.48537692,11.261528015136719,-1.3044356107711792,1.1184748411178589,14.378375053405762,32.72878646850586, 2.460322141647339
446,1831555848,0.35740924,0.7538877,-0.24252176,0.4950711,11.683015823364258,-2.046236991882324,1.1474111080169678,-8.936932563781738,82.45784759521484, 17.245704650878906
447,1831572515,0.36439875,0.7409177,-0.24337745,0.5089422,7.739237308502197,-0.725542426109314,2.7622768878936768,-47.41411209106445,125.07658386230469, 36.16280746459961
448,1831589182,0.37038308,0.72732323,-0.24409337,0.52367544,1.3039718866348267,-1.028800129890442,0.4715278148651123,-41.89063262939453,130.2173614501953, 42.10112762451172
449,1831605849,0.3701014,0.71615916,-0.23570102,0.542758,0.14430928230285645,1.133411169052124,4.365624904632568,35.74042510986328,155.91622924804688, 26.09870719909668
450,1831622516,0.36618483,0.7102134,-0.22855394,0.5561193,-6.754474639892578,-0.5407741069793701,-2.127164840698242,53.02891540527344,99.09456634521484, 22.851978302001953
451,1831639183,0.36281538,0.7052238,-0.22256969,0.5669983,-4.657177925109863,4.209921836853027,-11.008539199829102,44.379486083984375,81.37835693359375, 18.757375717163086
452,1831655850,0.36573952,0.69712365,-0.22303826,0.5748976,-0.8504301905632019,-0.4552064538002014,-1.9294278621673584,-23.729961395263672,72.98470306396484, 23.005970001220703
453,1831672517,0.3582419,0.69534135,-0.21918799,0.5831979,-5.28938627243042,-1.6651694774627686,-5.23921012878418,59.774845123291016,44.89265441894531, 34.8220100402832
454,1831689184,0.35905346,0.69308186,-0.22045869,0.58490723,-6.460245609283447,2.399822950363159,-2.4741370677948,-11.63575267791748,15.397451400756836, 10.467485427856445
455,1831705851,0.36320096,0.6927253,-0.22449085,0.5812234,-9.281465530395508,1.8173474073410034,-0.967309296131134,-42.15473937988281,-19.625547409057617, -5.8705267906188965
456,1831722518,0.36974743,0.69373363,-0.23096931,0.57330066,-8.858448028564453,3.22306752204895,-0.49212193489074707,-66.51962280273438,-47.63467025756836, -16.38298988342285
457,1831739185,0.37801665,0.6953884,-0.23939444,0.5623424,-7.005747318267822,-0.9943172931671143,0.09467091411352158,-85.61434936523438,-66.85719299316406, -22.484792709350586
458,1831755852,0.38144216,0.6995252,-0.24494493,0.55242056,-5.831997871398926,-2.4273319244384766,0.3929513096809387,-43.18275451660156,-71.99506378173828, -18.87847328186035
459,1831772519,0.3785227,0.70663923,-0.24628718,0.5447241,-5.337314128875732,-2.931215286254883,0.8026459217071533,14.883405685424805,-72.24577331542969, -14.232734680175781
460,1831789186,0.37144786,0.71533114,-0.24600644,0.53833896,-4.906754016876221,-2.4085006713867188,1.3544504642486572,47.48843002319336,-74.60394287109375, -5.8647918701171875
461,1831805853,0.36240855,0.7243838,-0.24596703,0.53238016,-5.766738414764404,-1.4016382694244385,3.7763350009918213,57.9118766784668,-77.80217742919922, 3.034520149230957
462,1831822520,0.36011738,0.7287074,-0.24936838,0.5264186,-6.21640682220459,-0.8069053292274475,7.795351982116699,-0.05563143640756607,-57.75625228881836, 3.460847854614258
463,1831839187,0.37586918,0.7239387,-0.26161963,0.5159364,-1.4421887397766113,6.823242664337158,-19.035005569458008,-152.70729064941406,-38.68769073486328, -13.0963134765625
464,1831855854,0.38101923,0.7268648,-0.2709113,0.50308955,6.909881114959717,-4.547630310058594,1.7052282094955444,-73.9500503540039,-88.57884216308594, -9.963117599487305
465,1831872521,0.38339728,0.7315498,-0.27295202,0.4932939,-1.0346941947937012,3.571945905685425,4.759357452392578,-24.68956184387207,-65.6869125366211, -32.0893440246582
466,1831889188,0.3827088,0.73740596,-0.27317062,0.4849168,15.80521011352539,3.91323184967041,6.503637313842773,2.706521511077881,-63.6335334777832, -29.212173461914062
467,1831905855,0.38101426,0.74059665,-0.27205983,0.48200458,12.357305526733398,4.623865604400635,5.817230224609375,15.578963279724121,-25.75486946105957, -13.256145477294922
468,1831922522,0.38169953,0.7407181,-0.27262375,0.48095584,14.133975982666016,-0.06357696652412415,2.7560157775878906,-6.568660259246826,-6.300674915313721, -1.9873541593551636
469,1831939189,0.38352662,0.73656386,-0.27258348,0.4858802,12.953222274780273,-2.229059934616089,2.2739062309265137,-10.368826866149902,41.80927658081055, 14.708935737609863
470,1831955856,0.38496408,0.7310651,-0.2708955,0.49392533,9.741683959960938,-2.9861767292022705,0.9790195822715759,-0.5573542714118958,65.58163452148438, 18.23435401916504
471,1831972523,0.38663995,0.72410405,-0.26726636,0.50472933,6.14959716796875,-2.353064775466919,0.8821292519569397,6.121201038360596,89.93388366699219, 17.533649444580078
472,1831989190,0.38284075,0.71946216,-0.25904155,0.51836765,2.2207276821136475,-1.5149099826812744,3.985492706298828,60.71944808959961,98.120849609375, 16.83195686340332
473,1832005857,0.37392926,0.72017777,-0.2502357,0.52811265,-3.8555338382720947,0.37706923484802246,0.8219249844551086,95.27880859375,52.08015823364258, 12.370308876037598
474,1832022524,0.3682244,0.71933776,-0.24319942,0.5364869,-3.346365451812744,4.39569616317749,-6.970497131347656,66.60516357421875,51.93614959716797, 8.726462364196777
475,1832039191,0.36987507,0.714304,-0.24395624,0.54170823,-0.4618629217147827,-1.0922980308532715,-1.8685318231582642,-14.49257755279541,44.65468978881836, 19.338960647583008
476,1832055858,0.3612435,0.71467257,-0.2408893,0.5483783,-5.420387268066406,-2.784485101699829,-2.9000768661499023,66.39157104492188,24.219688415527344, 33.46216583251953
477,1832072525,0.35632038,0.7153339,-0.23951104,0.5513329,-5.928646087646484,1.090458631515503,-0.7348577380180359,36.3381233215332,6.953153610229492, 18.041547775268555
478,1832089192,0.35633305,0.7157333,-0.24049817,0.5503759,-7.986188888549805,1.7460156679153442,-0.6383711099624634,-4.010322093963623,-8.890118598937988, 1.8952571153640747
479,1832105859,0.36250988,0.71430093,-0.24497923,0.5462105,-9.14897632598877,1.110884189605713,0.7528753876686096,-57.38395690917969,-16.043922424316406, -8.96259880065918
480,1832122526,0.36895254,0.7130063,-0.24872492,0.5418783,-8.450546264648438,-1.5520802736282349,0.888694703578949,-55.8798828125,-15.072686195373535, -14.130166053771973
481,1832139193,0.3709704,0.7134911,-0.24874237,0.53985065,-7.590383529663086,-2.0315957069396973,0.8089251518249512,-11.848999977111816,-8.489864349365234, -13.107725143432617
482,1832155860,0.36828876,0.71596676,-0.24584718,0.5397353,-6.78163480758667,-2.1431150436401367,0.3145122230052948,30.359737396240234,-7.083256721496582, -8.485697746276855
483,1832172527,0.3611716,0.7208565,-0.24078636,0.5403175,-5.979920387268066,-0.4596077501773834,-0.3471314609050751,67.51616668701172,-14.585192680358887, -5.011862277984619
484,1832189194,0.35321274,0.72668517,-0.23719627,0.5393584,-5.280811309814453,-0.28161388635635376,-0.9513001441955566,65.99028015136719,-30.70456314086914, 0.05314093455672264
485,1832205861,0.3455408,0.73327047,-0.23542446,0.5361824,-5.3064045906066895,0.374788761138916,-0.2950376868247986,56.020164489746094,-48.46672439575195, 1.4830617904663086
486,1832222528,0.3446525,0.73691094,-0.23697436,0.531056,-4.323058128356934,3.867666006088257,-10.473248481750488,-0.5877643823623657,-44.310386657714844, -6.604255199432373
487,1832239195,0.35879207,0.73685914,-0.2510409,0.51505864,4.1133646965026855,0.8632602691650391,-5.974710941314697,-148.99252319335938,-90.74773406982422, -17.667478561401367
488,1832255862,0.35971722,0.744206,-0.25699916,0.500712,4.52792501449585,3.5024054050445557,12.105610847473145,-32.24778747558594,-111.24930572509766, -20.65705108642578
489,1832272529,0.36335725,0.7497675,-0.26186442,0.4870805,8.553245544433594,1.2492157220840454,-0.6567819118499756,-45.40485382080078,-94.3808364868164, -30.629404067993164
490,1832289196,0.3616284,0.7539963,-0.2623026,0.48157248,16.755624771118164,0.17392586171627045,5.390365123748779,8.412556648254395,-46.6947021484375, -12.832032203674316
491,1832305863,0.3591818,0.75674313,-0.26215085,0.47917145,11.795915603637695,0.7403991222381592,4.070794582366943,16.08338737487793,-25.81197166442871, -3.2705090045928955
492,1832322530,0.35738307,0.75701284,-0.2613697,0.48051518,13.379154205322266,-2.093648910522461,2.567469596862793,15.473366737365723,4.34190034866333, 4.942531585693359
493,1832339197,0.357962,0.7540373,-0.26155025,0.48464677,10.744930267333984,-2.216801166534424,1.8734322786331177,-3.0087108612060547,31.31305694580078, 14.599906921386719
494,1832355864,0.3601972,0.74679124,-0.2589884,0.4954654,8.241632461547852,-1.2508978843688965,5.253887176513672,-0.9184730648994446,89.82439422607422, 18.855506896972656
495,1832372531,0.356182,0.7438121,-0.25181267,0.5064271,-2.393249273300171,-1.1660635471343994,-0.22856545448303223,57.766448974609375,76.1249771118164, 9.134699821472168
496,1832389198,0.35210568,0.7416679,-0.2453557,0.51551044,-2.267792224884033,2.527897596359253,-4.715809345245361,54.353370666503906,61.8095703125, 7.000483989715576
497,1832405865,0.35508174,0.7358531,-0.24489532,0.5219805,-2.9397401809692383,1.9240971803665161,-3.201188325881958,-16.20801544189453,59.071895599365234, 12.554819107055664
498,1832422532,0.35169896,0.7313775,-0.24274969,0.5314768,-2.509415626525879,-2.846806526184082,0.006786487065255642,30.333911895751953,63.13088607788086, 32.07087707519531
499,1832439199,0.34388214,0.7287966,-0.23823828,0.5420731,-5.041407108306885,-1.4262868165969849,1.0236701965332031,67.6832046508789,60.10176467895508, 35.82956314086914
500,1832455866,0.34203812,0.72553957,-0.23476212,0.54908025,-6.8587751388549805,3.672834873199463,3.028531789779663,26.410131454467773,51.99107360839844, 11.390501022338867
501,1832472533,0.34946844,0.7195662,-0.23564237,0.55187804,-8.86659049987793,0.8118255138397217,4.187084674835205,-49.48545837402344,45.92642593383789, -7.248395919799805
502,1832489200,0.3603939,0.71270585,-0.23762631,0.55290186,-8.511641502380371,1.3390189409255981,2.687708854675293,-75.96183013916016,43.45537185668945, -17.801721572875977
503,1832505867,0.3728801,0.7052847,-0.24061306,0.5528469,-7.66056489944458,-0.9420786499977112,0.6432428359985352,-90.57707214355469,40.33558654785156, -20.49869728088379
504,1832522534,0.38005078,0.7000403,-0.24070884,0.55458516,-6.6113505363464355,-1.7247405052185059,-1.3087646961212158,-45.27485275268555,39.40751266479492, -13.304450035095215
505,1832539201,0.38013294,0.6983465,-0.23713623,0.5581914,-5.6526384353637695,-1.7315843105316162,-3.104156494140625,15.178194999694824,32.80718994140625, -4.934271335601807
506,1832555868,0.37387118,0.7007958,-0.2308144,0.5619879,-4.9269795417785645,-0.5705850720405579,-4.96182918548584,67.29466247558594,14.808966636657715, -0.05123906210064888
507,1832572535,0.3654834,0.706525,-0.22474498,0.56279135,-4.282949447631836,1.2391637563705444,-5.993209362030029,80.19414520263672,-16.11117935180664, -3.4991233348846436
508,1832589202,0.3580488,0.7149395,-0.2213297,0.55827945,-3.7927489280700684,1.9287315607070923,-5.8284687995910645,63.7680549621582,-57.29983139038086, -11.741758346557617
509,1832605869,0.35583413,0.72233933,-0.22294901,0.549456,-3.111745834350586,0.6721636652946472,-3.3695688247680664,9.670509338378906,-78.8485107421875, -16.02987289428711
510,1832622536,0.36387584,0.7224564,-0.22975484,0.5411693,0.582395076751709,0.5980809926986694,-1.4545665979385376,-77.88426208496094,-45.5306396484375, -16.50814437866211
511,1832639203,0.3663823,0.7278812,-0.23408303,0.5302435,7.580798625946045,1.7840917110443115,4.745974063873291,-32.063446044921875,-80.9093246459961, -23.203350067138672
512,1832655870,0.3700162,0.73423773,-0.23852381,0.5168069,7.866724014282227,1.9488441944122314,4.609108924865723,-39.7454948425293,-95.55024719238281, -34.60176086425781
513,1832672537,0.37014467,0.74089104,-0.24194533,0.5055058,13.939504623413086,0.3038729727268219,3.2841720581054688,-14.104588508605957,-89.17781066894531, -22.375024795532227
514,1832689204,0.3680481,0.7460157,-0.2429199,0.49899012,11.137510299682617,-1.3636119365692139,2.0442099571228027,9.868163108825684,-57.14542007446289, -12.51444149017334
515,1832705871,0.3641058,0.75139236,-0.24341963,0.49354163,9.169795989990234,-1.96109938621521,0.046636343002319336,23.424213409423828,-54.54106903076172, -6.48301362991333
516,1832722538,0.36320546,0.7521685,-0.24472162,0.49237767,10.624311447143555,-2.34559965133667,-0.14063704013824463,0.6538863182067871,-13.759637832641602, 5.626723289489746
517,1832739205,0.36401978,0.74828905,-0.24519545,0.49742573,7.482775688171387,-2.759472131729126,0.7074080109596252,-6.569624900817871,39.026092529296875, 18.729393005371094
518,1832755872,0.36525747,0.741787,-0.24537335,0.506094,4.607241153717041,-1.1824302673339844,1.8959569931030273,-8.17966365814209,68.0242919921875, 29.111724853515625
519,1832772539,0.36723697,0.7322696,-0.24353267,0.51924014,1.5538320541381836,0.21720068156719208,3.9452388286590576,-4.931585788726807,107.61336517333984, 32.51626205444336
520,1832789206,0.36508587,0.7265893,-0.23862083,0.53088653,-4.141293525695801,1.3279155492782593,0.47619643807411194,34.04273223876953,87.08958435058594, 21.608259201049805
521,1832805873,0.36157638,0.72312176,-0.23310861,0.5403868,-4.745746612548828,3.8246376514434814,-5.901292324066162,45.04139709472656,67.60050964355469, 14.649975776672363
522,1832822540,0.363829,0.71715,-0.23337746,0.5466804,-2.5443496704101562,0.41861000657081604,-5.860537528991699,-16.525745391845703,56.05399703979492, 18.186298370361328
523,1832839207,0.35765967,0.71500593,-0.2304631,0.5547369,-6.254522800445557,-2.6463489532470703,-2.027503728866577,49.31191635131836,45.02316665649414, 32.4530143737793
524,1832855874,0.35403404,0.71387476,-0.2281272,0.5594649,-5.458723545074463,2.208014488220215,-1.4674749374389648,31.793848037719727,27.50685691833496, 15.786044120788574
525,1832872541,0.3592134,0.710502,-0.23030847,0.55956316,-8.356683731079102,1.3823357820510864,0.8125712871551514,-41.546180725097656,16.289926528930664, -3.5595879554748535
526,1832889208,0.3677953,0.7065952,-0.23405764,0.557375,-10.164454460144043,0.754855751991272,2.281967878341675,-69.15462493896484,8.693968772888184, -13.693816184997559
527,1832905875,0.3757319,0.704254,-0.23742025,0.55360955,-8.958514213562012,0.15292435884475708,0.8836860060691833,-63.12125015258789,-5.070176601409912, -19.51664161682129
528,1832922542,0.3819326,0.7034695,-0.2390671,0.54964095,-6.7517805099487305,-0.11292480677366257,-0.7213485240936279,-44.50447082519531,-10.38060474395752, -24.219736099243164
529,1832939209,0.383765,0.70458806,-0.23906875,0.54692465,-5.944067478179932,-2.290130376815796,-1.2919460535049438,-10.121453285217285,-14.328410148620605, -15.467781066894531
530,1832955876,0.37904662,0.7090255,-0.23595782,0.5458303,-5.4135422706604,-1.8013845682144165,-1.8644014596939087,44.728668212890625,-21.43947982788086, -7.113131999969482
531,1832972543,0.36973977,0.7162307,-0.23104154,0.5449091,-4.502290725708008,-1.3483588695526123,-1.778607726097107,81.35042572021484,-33.6363639831543, -2.7485482692718506
532,1832989210,0.36389458,0.72243845,-0.22876056,0.54160136,-3.1387665271759033,2.3963053226470947,-1.2376447916030884,48.086997985839844,-42.775657653808594, -7.233145713806152
533,1833005877,0.37371826,0.72141224,-0.23502474,0.533538,0.5761697888374329,5.466039180755615,-8.651299476623535,-87.16154479980469,-36.1541633605957, -23.570695877075195
534,1833022544,0.3767323,0.7263636,-0.24029632,0.5222321,4.430967807769775,-0.8588628768920898,3.9024441242218018,-39.70233154296875,-82.37274169921875, -21.359153747558594
535,1833039211,0.37898433,0.73270565,-0.24470851,0.5095403,1.731784462928772,0.37733033299446106,6.716767311096191,-31.441492080688477,-93.48763275146484, -28.874835968017578
536,1833055878,0.37432057,0.74223435,-0.24493712,0.49897718,15.136285781860352,2.312661647796631,2.5072569847106934,30.0164794921875,-94.89592742919922, -25.557096481323242
537,1833072545,0.3723868,0.74740064,-0.24500461,0.49263924,10.48673152923584,-0.6911402344703674,3.4980013370513916,12.588494300842285,-53.5316162109375, -17.613380432128906
538,1833089212,0.37170774,0.7502185,-0.2455254,0.4885927,10.57909107208252,-1.7986347675323486,0.5002521276473999,2.509145498275757,-33.02437210083008, -9.837737083435059
539,1833105879,0.37189305,0.7493306,-0.24534796,0.48990178,9.274090766906738,-2.856565237045288,-0.046123214066028595,-0.008746741339564323,10.215571403503418, 3.4451847076416016
540,1833122546,0.37540236,0.74395,-0.24568449,0.49522793,8.104544639587402,-2.3139002323150635,-0.35722681879997253,-23.560726165771484,50.29109573364258, 12.582446098327637
541,1833139213,0.38045397,0.73548454,-0.24726743,0.5031663,6.114757537841797,-1.930042028427124,-0.3211207687854767,-39.230125427246094,73.52388763427734, 25.527740478515625
542,1833155880,0.382532,0.7269487,-0.24676748,0.5141213,4.010408878326416,0.014991821721196175,2.4824600219726562,-12.03115177154541,89.41004943847656, 33.19844055175781
543,1833172547,0.37876046,0.7217732,-0.23852733,0.5279099,-0.4267849028110504,1.1977142095565796,1.3026350736618042,58.24631881713867,102.04296112060547, 16.930749893188477
544,1833189214,0.3723543,0.7188967,-0.23103039,0.5395972,-2.966609239578247,1.7308354377746582,-2.4978322982788086,71.17156219482422,76.98778533935547, 21.008516311645508
545,1833205881,0.36807674,0.71521074,-0.22494364,0.54990333,-1.8381720781326294,6.31882905960083,-8.970868110656738,51.11375045776367,73.04049682617188, 17.92970085144043
546,1833222548,0.36957002,0.70961267,-0.22593518,0.555717,-1.651473045349121,-0.1250321865081787,-4.333096027374268,-15.91810417175293,49.4859619140625, 22.703927993774414
547,1833239215,0.35711223,0.71249974,-0.21993472,0.5625337,-4.34116268157959,0.5976287722587585,-6.459757328033447,101.94296264648438,18.203346252441406, 31.275915145874023
548,1833255882,0.34974983,0.71633524,-0.2174495,0.5632539,-5.662496566772461,2.024193525314331,-4.017607688903809,56.42948532104492,-16.039684295654297, 12.431443214416504
549,1833272549,0.347506,0.7210437,-0.21892236,0.55804014,-7.324038982391357,2.838043451309204,-2.3138906955718994,9.073363304138184,-50.37622833251953, -3.377744197845459
550,1833289216,0.35258314,0.7243358,-0.22592612,0.54770476,-8.652533531188965,1.3605493307113647,0.11091086268424988,-59.57118225097656,-72.44945526123047, -14.0208101272583
551,1833305883,0.35846117,0.7279925,-0.23337072,0.5357899,-8.249049186706543,-1.2705878019332886,1.356953740119934,-66.79857635498047,-81.50695037841797, -19.13431739807129
552,1833322550,0.3623452,0.7320607,-0.23870221,0.5251808,-6.590045928955078,-2.3142714500427246,2.2362277507781982,-45.91704559326172,-74.502197265625, -19.780725479125977
553,1833339217,0.36173528,0.7374854,-0.24037163,0.5171888,-6.321261405944824,-2.745032548904419,2.8158466815948486,-2.37929105758667,-64.52747344970703, -17.712907791137695
554,1833355884,0.35756654,0.7437873,-0.23975073,0.511318,-5.196918964385986,-2.501811981201172,2.610741138458252,29.518808364868164,-57.13328552246094, -12.879195213317871
555,1833372551,0.34941754,0.75098544,-0.23744223,0.5074936,-5.0012617111206055,-2.1577253341674805,2.8638181686401367,61.40202713012695,-52.2824592590332, -4.000744342803955
556,1833389218,0.3414207,0.757111,-0.23551749,0.5047243,-4.558112621307373,-0.4160061776638031,4.618341445922852,58.44287109375,-43.81859588623047, 1.7061004638671875
557,1833405885,0.3508625,0.75457835,-0.24149247,0.4991878,-2.7087903022766113,6.937735080718994,-8.967720985412598,-84.52140808105469,-18.597200393676758, -10.144475936889648
558,1833422552,0.35555565,0.75902903,-0.24964665,0.48490387,4.655991554260254,-2.083491325378418,-0.13143903017044067,-65.11541748046875,-100.82511901855469, -15.027220726013184
559,1833439219,0.36005592,0.7627752,-0.25372595,0.47345212,1.961609125137329,2.4609148502349854,8.316842079162598,-47.36454772949219,-74.11030578613281, -27.623971939086914
560,1833455886,0.36268896,0.76663023,-0.2577409,0.46293035,13.364031791687012,-0.26555827260017395,0.34334760904312134,-35.38059616088867,-72.97467041015625, -19.734437942504883
561,1833472553,0.3610208,0.76850694,-0.25682124,0.4616319,11.279643058776855,-0.11669882386922836,3.561681032180786,14.444897651672363,-13.512176513671875, -5.695925712585449
562,1833489220,0.36053127,0.7688716,-0.25594974,0.46189126,12.007549285888672,0.5633606314659119,2.8189918994903564,7.119108200073242,1.2691541910171509, -2.7643277645111084
563,1833505887,0.35928792,0.7684117,-0.2546703,0.46432614,11.260934829711914,-1.6357086896896362,2.305466413497925,14.23464298248291,14.882669448852539, 4.214402675628662
564,1833522554,0.36000863,0.7658238,-0.25418296,0.46829352,11.580071449279785,-2.587522268295288,1.16709566116333,-1.2061833143234253,31.099367141723633, 9.49201774597168
565,1833539221,0.35987577,0.762033,-0.25272945,0.47531366,8.216532707214355,-1.661636233329773,2.0677096843719482,8.783014297485352,51.83177947998047, 16.640384674072266
566,1833555888,0.36289167,0.75367814,-0.25370446,0.48570877,7.171623229980469,-1.0897598266601562,3.9234962463378906,-21.052350997924805,83.78824615478516, 35.25043487548828
567,1833572555,0.36048543,0.7465752,-0.24774592,0.50129634,-0.69709712266922,1.324893832206726,4.1607255935668945,42.427146911621094,114.21231842041016, 28.13303565979004
568,1833589222,0.35375768,0.74516463,-0.24057634,0.51157445,-6.248711585998535,1.4439024925231934,-1.1318711042404175,73.87484741210938,62.88346862792969, 14.041836738586426
569,1833605889,0.35037702,0.742384,-0.23568882,0.520147,-3.8493590354919434,5.083526611328125,-9.635199546813965,42.509525299072266,59.065059661865234, 12.208584785461426
570,1833622556,0.35222343,0.7371476,-0.23600133,0.5261706,-1.5944243669509888,-0.47598546743392944,-0.8960927128791809,-12.918237686157227,51.13285827636719, 18.080718994140625
571,1833639223,0.34098217,0.7384853,-0.23039846,0.5341228,-5.598528861999512,-1.4114047288894653,-4.7375383377075195,93.84374237060547,30.278133392333984, 29.463130950927734
572,1833655890,0.33292523,0.7408246,-0.22594167,0.53785694,-5.7354254722595215,1.1512047052383423,-2.350255250930786,69.07553100585938,7.7444868087768555, 12.127933502197266
573,1833672557,0.33029777,0.7434681,-0.22458704,0.5363946,-7.592616081237793,2.541400194168091,-1.400831937789917,22.535564422607422,-18.394187927246094, -4.438643455505371
574,1833689224,0.3367594,0.7436654,-0.22913867,0.5301418,-9.34462833404541,0.04250314086675644,0.45046842098236084,-58.689857482910156,-33.142608642578125, -14.748948097229004
575,1833705891,0.3447477,0.7435924,-0.23431958,0.52279425,-8.889296531677246,-1.4267569780349731,1.282680630683899,-71.15501403808594,-36.759849548339844, -19.144540786743164
576,1833722558,0.35117653,0.7437126,-0.23806621,0.51661503,-7.582095623016357,-2.9149279594421387,1.9070463180541992,-55.691253662109375,-30.57229995727539, -18.395336151123047
577,1833739225,0.35242963,0.7454539,-0.23829682,0.51313406,-6.854253768920898,-2.877556562423706,1.9450249671936035,-8.401385307312012,-22.514545440673828, -14.158815383911133
578,1833755892,0.34950006,0.7485479,-0.23636822,0.5115233,-5.821552276611328,-3.0388214588165283,1.8232396841049194,26.997400283813477,-19.32584571838379, -8.182945251464844
579,1833772559,0.34405094,0.75249034,-0.23424141,0.5104101,-5.422652244567871,-1.8285727500915527,2.480558395385742,43.512413024902344,-23.371383666992188, -0.5654820203781128
580,1833789226,0.34017137,0.7554144,-0.23402649,0.5087869,-4.5878190994262695,-0.6169184446334839,-1.8290455341339111,25.46116828918457,-24.457534790039062, 4.243844985961914
581,1833805893,0.35105157,0.7542044,-0.2402833,0.5002024,2.340528726577759,12.797942161560059,-20.347370147705078,-94.73338317871094,-37.44446563720703, -23.391611099243164
582,1833822560,0.3528484,0.7612894,-0.2476489,0.48436213,7.366440296173096,-3.276787281036377,6.971013069152832,-43.56925964355469,-120.72506713867188, -17.286354064941406
583,1833839227,0.35577154,0.7679748,-0.2522475,0.46905485,-4.541312217712402,5.900400638580322,11.202263832092285,-40.22218322753906,-108.25657653808594, -33.711517333984375
584,1833855894,0.35487655,0.7764181,-0.25520182,0.45399326,17.1185359954834,3.600062131881714,-0.2883349657058716,-9.917256355285645,-115.54273223876953, -32.34750747680664
585,1833872561,0.35183766,0.7811057,-0.2546385,0.44860163,9.14932632446289,-0.5923048257827759,2.9740653038024902,20.363666534423828,-47.53712844848633, -14.329923629760742
586,1833889228,0.34873313,0.7850676,-0.25440502,0.44422096,9.682087898254395,-0.6956848502159119,0.4197233319282532,19.760774612426758,-40.95073699951172, -8.756919860839844
587,1833905895,0.34436056,0.78771746,-0.25252336,0.4440147,8.784133911132812,-3.523366689682007,0.2771090269088745,35.816673278808594,-12.775873184204102, -1.5956153869628906
588,1833922562,0.34314114,0.78775275,-0.252312,0.44501555,9.229968070983887,-3.417943000793457,-0.48143666982650757,9.550742149353027,3.183781623840332, 5.044442176818848
589,1833939229,0.34667426,0.78222805,-0.25375864,0.45115766,10.403560638427734,-2.7020063400268555,1.433002233505249,-25.462553024291992,52.31393051147461, 21.08133316040039
590,1833955896,0.3521281,0.77211696,-0.25425234,0.4638933,8.547669410705566,-1.3102028369903564,3.991849422454834,-32.24082946777344,107.5020751953125, 33.553443908691406
591,1833972563,0.35355067,0.7621254,-0.24993096,0.48135385,1.1955845355987549,0.2139659970998764,3.2712416648864746,13.120375633239746,136.64308166503906, 31.985639572143555
592,1833989230,0.34832117,0.76010513,-0.24551359,0.49054646,-4.863098621368408,0.682354748249054,-1.376479148864746,53.49223327636719,55.650840759277344, 19.72738265991211
593,1834005897,0.3485577,0.7560234,-0.24423338,0.49727902,-3.207435369491577,5.55130672454834,-6.460121154785156,5.222975730895996,51.572628021240234, 15.362456321716309
594,1834022564,0.34983683,0.75087494,-0.24688038,0.5028433,-1.6866859197616577,-3.225862979888916,-4.213325500488281,-18.210506439208984,41.72700881958008, 31.390460968017578
595,1834039231,0.33960697,0.75103015,-0.24460128,0.5106771,-4.7196221351623535,-0.8891740441322327,-2.8125202655792236,74.79898834228516,27.589529037475586, 42.14385223388672
596,1834055898,0.33327335,0.75197464,-0.24273464,0.5143375,-5.563906669616699,3.269132614135742,-0.7164289355278015,48.01460647583008,8.994787216186523, 19.54883575439453
597,1834072565,0.3360825,0.75154835,-0.24425113,0.51241094,-7.2244133949279785,3.5849602222442627,0.2712940275669098,-23.705184936523438,-7.466797828674316, -5.668513774871826
598,1834089232,0.3483839,0.74815774,-0.25037345,0.5061636,-9.209033012390137,1.6285353899002075,2.370642900466919,-103.1040267944336,-14.003107070922852, -20.17200469970703
599,1834105899,0.36196905,0.74391943,-0.2570856,0.49946898,-9.043590545654297,-2.1736040115356445,3.208587169647217,-114.56389617919922,-12.559694290161133, -21.116544723510742
600,1834122566,0.36773255,0.74259305,-0.25903663,0.4962139,-7.787215232849121,-1.441470980644226,1.3603602647781372,-44.86894607543945,-6.963841915130615, -15.197507858276367
601,1834139233,0.36866483,0.74285597,-0.2580742,0.49563012,-6.745337963104248,-1.881256103515625,0.8422908186912537,-1.4958332777023315,0.04023116081953049, -9.649088859558105
602,1834155900,0.3643467,0.745206,-0.2550375,0.49686572,-5.6342058181762695,-0.8092533946037292,-0.3614835739135742,40.89853286743164,-1.8006858825683594, -1.444590449333191
603,1834172567,0.3581789,0.74888587,-0.2515981,0.4975705,-5.449215412139893,0.04137096926569939,-0.5256380438804626,54.134029388427734,-11.23382568359375, -0.8298603296279907
604,1834189234,0.35428452,0.75276625,-0.2492702,0.4956712,-5.186051845550537,1.2641056776046753,0.4593868553638458,34.60012435913086,-24.066720962524414, -9.606464385986328
605,1834205901,0.35423598,0.7554708,-0.2494929,0.49146146,-3.7035279273986816,-0.2549508512020111,-0.6068608164787292,-0.8315709233283997,-31.6136531829834, -13.0543212890625
606,1834222568,0.3548956,0.7571895,-0.2489433,0.4886109,1.7278015613555908,3.948085308074951,-15.971685409545898,-1.973718285560608,-18.07442855834961, -14.451261520385742
607,1834239235,0.3567108,0.75966674,-0.25185522,0.4819056,16.8121395111084,0.7515673637390137,2.952515125274658,-24.492910385131836,-46.70563507080078, -10.933469772338867
608,1834255902,0.3596391,0.76229167,-0.25463054,0.474062,-1.3243645429611206,1.9796255826950073,11.029197692871094,-31.391218185424805,-51.127010345458984, -18.522066116333008
609,1834272569,0.35698158,0.7680854,-0.25547084,0.4662014,20.081022262573242,1.526401400566101,3.036701202392578,12.099370002746582,-66.86849975585938, -15.996492385864258
610,1834289236,0.3535857,0.77257794,-0.25514874,0.46151897,9.603958129882812,-1.954007863998413,3.5419979095458984,22.191123962402344,-44.62801742553711, -9.836938858032227
611,1834305903,0.3514465,0.77667415,-0.25738814,0.45498818,11.321584701538086,-3.076885938644409,-0.06352151930332184,3.2291016578674316,-57.38901138305664, -4.163560390472412
612,1834322570,0.3489007,0.77954364,-0.25901216,0.4511022,9.471536636352539,-2.8240015506744385,1.3421645164489746,9.053031921386719,-38.74578857421875, 2.1953470706939697
613,1834339237,0.3503187,0.77758193,-0.26094756,0.45227164,7.179779052734375,-3.157681465148926,0.42403513193130493,-15.72537899017334,9.536667823791504, 12.141677856445312
614,1834355904,0.35173088,0.7728245,-0.2597699,0.4599431,3.8050999641418457,-1.3157027959823608,0.7574551105499268,-1.0756969451904297,60.42472457885742, 16.054636001586914
615,1834372571,0.34863603,0.76667976,-0.25046614,0.4774119,2.166720390319824,0.9803057909011841,3.901857376098633,62.731239318847656,128.4446258544922, 13.261175155639648
616,1834389238,0.34550264,0.7629539,-0.24539693,0.48816985,-5.069100856781006,0.8338090777397156,-3.6036465167999268,43.31621170043945,74.7896957397461, 15.502115249633789
617,1834405905,0.34635484,0.7585042,-0.24481884,0.494746,-3.0408427715301514,4.45128870010376,-6.22767972946167,-1.4879465103149414,51.52008056640625, 17.06037712097168
618,1834422572,0.34941408,0.75389904,-0.24771577,0.49817982,-3.7350823879241943,0.7128194570541382,-5.0941925048828125,-30.541820526123047,31.333637237548828, 20.611034393310547
619,1834439239,0.34320104,0.7531298,-0.24711314,0.5039284,-4.052363395690918,-2.154479503631592,-2.9431371688842773,42.60568618774414,23.0108642578125, 33.317806243896484
620,1834455906,0.335814,0.7551862,-0.24486968,0.506914,-5.283173084259033,1.7526229619979858,-2.144282341003418,56.306922912597656,0.9272485375404358, 17.549673080444336
621,1834472573,0.3351825,0.7571064,-0.24519701,0.5043027,-7.449647426605225,3.7484805583953857,0.1738826036453247,2.50264048576355,-22.10913848876953, -5.246027946472168
622,1834489240,0.34324247,0.7567084,-0.2493734,0.49738327,-9.810038566589355,2.8644485473632812,2.648244857788086,-68.70680236816406,-30.664661407470703, -21.204021453857422
623,1834505907,0.3555106,0.753918,-0.25536808,0.48990533,-9.766393661499023,-1.8420984745025635,4.580981731414795,-103.42333221435547,-22.476163864135742, -23.199777603149414
624,1834522574,0.35888085,0.753444,-0.2562681,0.4877022,-7.92777681350708,-4.346898555755615,2.8580322265625,-25.196407318115234,-6.163904666900635, -10.792413711547852
625,1834539241,0.3545459,0.7548332,-0.2527315,0.49056193,-6.621663570404053,-4.440998077392578,1.9734357595443726,43.11316680908203,11.177019119262695, 1.212135910987854
626,1834555908,0.34428173,0.75800425,-0.24575302,0.49649292,-5.849458694458008,-1.6734540462493896,0.9404079914093018,95.17973327636719,19.206857681274414, 7.6641716957092285
627,1834572575,0.33387688,0.76163137,-0.23850231,0.5015583,-5.525008678436279,0.8864873051643372,0.3088471293449402,96.42144775390625,13.56713581085205, 3.928088903427124
628,1834589242,0.32777512,0.76516134,-0.23396513,0.5023467,-4.285282611846924,2.5171432495117188,-2.371422290802002,57.33604431152344,-7.605884552001953, -6.335902214050293
629,1834605909,0.3321551,0.7663912,-0.23550983,0.49684253,1.9313417673110962,7.6914753913879395,-19.3373966217041,-34.17444610595703,-29.513832092285156, -20.90493392944336
630,1834622576,0.34019256,0.76743853,-0.24420331,0.48546064,10.118523597717285,-4.421182632446289,3.1331064701080322,-88.00434112548828,-69.73448181152344, -8.616893768310547
631,1834639243,0.34582344,0.7708644,-0.25108093,0.4723693,-4.838985443115234,2.1450061798095703,11.498923301696777,-66.43189239501953,-86.67327880859375, -18.421297073364258
632,1834655910,0.34445497,0.7792856,-0.25338283,0.45810696,14.207971572875977,3.9933087825775146,1.444279670715332,-4.5249505043029785,-110.64213562011719, -31.249618530273438
633,1834672577,0.34558725,0.78404754,-0.2548905,0.44818518,10.451655387878418,-0.8303002715110779,2.1552186012268066,-16.459789276123047,-69.82299041748047, -26.764118194580078
634,1834689244,0.34247842,0.78875774,-0.25491145,0.44225568,9.721187591552734,0.8061314225196838,1.1484193801879883,17.906124114990234,-52.21402359008789, -12.271093368530273
635,1834705911,0.33794808,0.79288447,-0.25319394,0.43933877,8.149914741516113,-1.6146658658981323,0.9292305707931519,34.84315872192383,-32.636009216308594, -9.33763599395752
636,1834722578,0.33471015,0.7954153,-0.25208345,0.4378785,8.947236061096191,-1.6453263759613037,0.3688068687915802,24.810565948486328,-19.139554977416992, -3.8938486576080322
637,1834739245,0.33401588,0.7938863,-0.25155708,0.44147167,9.692813873291016,-1.5925720930099487,0.8310881853103638,8.570779800415039,23.686330795288086, 10.179940223693848
638,1834755912,0.33823225,0.7866637,-0.25232533,0.45065638,6.9878010749816895,-0.7263023853302002,1.3832440376281738,-25.54678726196289,76.89340209960938, 24.899147033691406
639,1834772579,0.33838892,0.7785187,-0.24618304,0.46775615,3.9446349143981934,0.6648398041725159,4.1248087882995605,29.436782836914062,131.49957275390625, 20.03946876525879
640,1834789246,0.33546144,0.7737181,-0.24075638,0.48048145,-3.0660417079925537,-0.45936504006385803,-0.3062116801738739,44.0670166015625,90.29620361328125, 17.9611873626709
641,1834805913,0.33136368,0.77090365,-0.23653603,0.4898534,-3.095276117324829,2.8221540451049805,-3.684401750564575,45.31406021118164,61.247535705566406, 17.268470764160156
642,1834822580,0.33434632,0.7658392,-0.23703256,0.4954981,-2.6263651847839355,3.629363775253296,-6.588040828704834,-19.331737518310547,50.00575256347656, 13.707761764526367
643,1834839247,0.3319493,0.7627086,-0.23615134,0.5023124,-2.5366361141204834,-2.4988224506378174,-2.095994472503662,19.969106674194336,44.22163391113281, 24.448020935058594
644,1834855914,0.32487416,0.7636101,-0.23259966,0.50720185,-3.571908712387085,0.9208946228027344,-3.5428552627563477,59.768951416015625,18.811861038208008, 15.618948936462402
645,1834872581,0.3208797,0.7661239,-0.22970688,0.5072723,-5.565061569213867,2.713045835494995,-1.675822138786316,37.150020599365234,-8.5026273727417, -4.948296546936035
646,1834889248,0.32486114,0.7676443,-0.23087539,0.50188065,-7.6047563552856445,2.3976309299468994,0.06571254879236221,-29.872108459472656,-30.07048225402832, -21.73577308654785
647,1834905915,0.3329432,0.76812994,-0.23442638,0.49413532,-8.540111541748047,-0.2472236305475235,1.1857378482818604,-65.7991943359375,-37.67371368408203, -26.80341339111328
648,1834922582,0.33706203,0.7697785,-0.23603423,0.48797393,-7.452007293701172,-2.5178568363189697,0.5121857523918152,-33.060302734375,-35.1601676940918, -21.793842315673828
649,1834939249,0.33531645,0.7731581,-0.23492622,0.48435432,-6.735673427581787,-2.7794830799102783,0.35575273633003235,15.20996379852295,-30.679052352905273, -13.425780296325684
650,1834955916,0.32848933,0.7781764,-0.23177688,0.48251,-6.124579906463623,-2.2331912517547607,0.4062664806842804,55.65253829956055,-30.139183044433594, -5.93808126449585
651,1834972583,0.3204338,0.7836904,-0.22856279,0.48053154,-5.334637641906738,-1.4355978965759277,0.7366002798080444,63.329132080078125,-34.259254455566406, -3.317558765411377
652,1834989250,0.31413803,0.7889848,-0.22688851,0.476804,-5.285020351409912,-0.48620522022247314,2.190913677215576,45.525421142578125,-43.54841613769531, -4.351339340209961
653,1835005917,0.3135962,0.7923279,-0.22882009,0.47065416,-5.402744770050049,-1.4798173904418945,2.1591339111328125,-5.539639472961426,-49.13343811035156, -5.7742414474487305
654,1835022584,0.31773615,0.7925189,-0.23338687,0.46528286,-2.5676591396331787,1.5100624561309814,-11.104877471923828,-45.09366226196289,-33.002159118652344, 0.027809297665953636
655,1835039251,0.32933944,0.79259825,-0.24299021,0.45197263,4.5231475830078125,0.8371444344520569,-8.2028226852417,-114.96040344238281,-74.58114624023438, -13.500782012939453
656,1835055918,0.32565027,0.79963076,-0.24697055,0.43994093,7.823559761047363,1.3487836122512817,13.313396453857422,3.680276393890381,-101.86648559570312, -5.353084087371826
657,1835072585,0.3281318,0.80440366,-0.25058922,0.42716417,2.9462859630584717,3.341697931289673,1.881906270980835,-35.30910873413086,-88.36843872070312, -23.889301300048828
658,1835089252,0.32785544,0.8085603,-0.25118616,0.4191025,15.587250709533691,1.2604784965515137,2.586662530899048,-4.400436878204346,-58.5256233215332, -20.747554779052734
659,1835105919,0.32515895,0.81157243,-0.24972641,0.41624337,7.974419116973877,1.7042192220687866,2.3530921936035156,21.462188720703125,-26.145328521728516, -11.640192031860352
660,1835122586,0.3238296,0.8129262,-0.24815017,0.4155803,10.213482856750488,-1.4206753969192505,-0.03338271751999855,14.283059120178223,-6.713031768798828, -8.487046241760254
661,1835139253,0.32193708,0.81317365,-0.24617934,0.41773307,9.052382469177246,-1.4093658924102783,0.2191247045993805,20.91457176208496,11.978705406188965, -1.0729438066482544
662,1835155920,0.321545,0.8107724,-0.24489698,0.4234177,10.088129043579102,-2.3719019889831543,0.1258845329284668,10.6775484085083,40.23671340942383, 10.64061450958252
663,1835172587,0.32310948,0.8046041,-0.24346712,0.43466824,7.738592624664307,-0.8002005815505981,1.9494199752807617,1.2552043199539185,85.73591613769531, 22.613624572753906
664,1835189254,0.3278169,0.7938623,-0.24263227,0.45105246,5.749623775482178,0.21318881213665009,4.547554016113281,-19.44321060180664,131.61692810058594, 35.49085235595703
665,1835205921,0.32837206,0.78337574,-0.23797274,0.4710238,-2.48978590965271,1.0768944025039673,2.1515140533447266,21.70138931274414,151.92457580566406, 35.128440856933594
666,1835222588,0.32326153,0.7800076,-0.23353004,0.48223865,-6.663779258728027,1.079469084739685,-3.2922823429107666,53.260372161865234,71.93274688720703, 23.319583892822266
667,1835239255,0.32439193,0.7748881,-0.2320794,0.4903647,-3.7159857749938965,4.819235801696777,-9.086069107055664,0.9642370343208313,64.75373077392578, 14.729714393615723
668,1835255922,0.32621664,0.7694703,-0.2329415,0.49722898,-2.1571993827819824,-2.3256475925445557,-0.45720264315605164,-13.305856704711914,55.329132080078125, 22.54853057861328
669,1835272589,0.3188985,0.7692957,-0.2296754,0.50372344,-4.407041072845459,0.6348651647567749,-4.199230194091797,60.32374572753906,30.123483657836914, 22.696861267089844
670,1835289256,0.3175272,0.769255,-0.22876397,0.5050647,-6.497912406921387,1.8369587659835815,-1.7598756551742554,12.818443298339844,6.82118558883667, 3.1044728755950928
671,1835305923,0.32160008,0.7691165,-0.23030816,0.5019876,-8.310575485229492,1.8431825637817383,-0.7223750948905945,-31.697675704956055,-12.884269714355469, -12.201739311218262
672,1835322590,0.3308683,0.76771325,-0.23456708,0.49610585,-9.148794174194336,0.4858104884624481,0.9169186353683472,-75.80551147460938,-21.028606414794922, -19.862607955932617
673,1835339257,0.33887213,0.76699626,-0.23791629,0.49018207,-8.043601989746094,-1.9452792406082153,1.2978670597076416,-64.54779815673828,-23.509672164916992, -21.47239875793457
674,1835355924,0.34205037,0.76804197,-0.23833466,0.48611715,-6.656388759613037,-2.68170166015625,0.6977819800376892,-22.086469650268555,-20.678646087646484, -19.210725784301758
675,1835372591,0.3398352,0.771055,-0.23609197,0.4839907,-6.165616512298584,-2.832942008972168,0.3151227831840515,23.080249786376953,-19.550556182861328, -13.92907428741455
676,1835389258,0.33499244,0.77498907,-0.23344539,0.48236448,-5.373344421386719,-1.9773082733154297,0.5475316643714905,41.303199768066406,-23.229869842529297, -7.686613082885742
677,1835405925,0.3289801,0.7794689,-0.23118058,0.48037058,-5.010910987854004,-1.121259331703186,-0.01775887981057167,46.92642593383789,-29.717012405395508, -3.51244854927063
678,1835422592,0.330217,0.78049254,-0.23357634,0.47668663,-2.880513906478882,3.993464469909668,-7.894192218780518,-17.832958221435547,-26.328365325927734, -0.8009505271911621
679,1835439259,0.34551668,0.7771115,-0.24345961,0.46630841,2.2552473545074463,2.0317046642303467,-7.804862976074219,-138.65899658203125,-41.979393005371094, -14.699677467346191
680,1835455926,0.34527716,0.7823943,-0.24842289,0.45489466,4.3078155517578125,-0.7670475244522095,8.895037651062012,-21.06739616394043,-89.42596435546875, -8.077384948730469
681,1835472593,0.34582293,0.78780144,-0.2507435,0.44373795,1.8007268905639648,1.6926500797271729,4.904748439788818,-16.180147171020508,-81.16252136230469, -24.430648803710938
682,1835489260,0.34338123,0.7944752,-0.2501712,0.43395054,15.731610298156738,3.407910108566284,3.4063358306884766,14.264528274536133,-76.07038116455078, -29.894424438476562
683,1835505927,0.34037378,0.7981295,-0.24822314,0.4307213,9.41214370727539,0.2362625151872635,2.616995334625244,25.710371017456055,-29.270267486572266, -15.128564834594727
684,1835522594,0.33808187,0.80013937,-0.24676402,0.42963415,11.288430213928223,-1.230093002319336,1.2026865482330322,20.19622802734375,-12.761951446533203, -6.846891403198242
685,1835539261,0.33724126,0.7996563,-0.24598037,0.43163863,9.76357364654541,-0.8990654349327087,1.4196953773498535,9.703104972839355,12.335593223571777, 3.8391101360321045
686,1835555928,0.34051624,0.7952601,-0.24683361,0.43667328,9.245591163635254,-2.4505209922790527,0.045423999428749084,-21.698368072509766,43.6251335144043, 14.139666557312012
687,1835572595,0.34360623,0.7890505,-0.24744037,0.4450925,7.302914142608643,-1.4730520248413086,0.7096966505050659,-18.43695640563965,67.75274658203125, 24.184194564819336
688,1835589262,0.34537983,0.7824559,-0.24723332,0.45535836,4.478372097015381,-0.0857764482498169,2.312513828277588,-6.558305740356445,78.55378723144531, 28.712446212768555
689,1835605929,0.34674332,0.7753204,-0.24705163,0.46648988,1.7221938371658325,0.4728589355945587,3.136946439743042,-4.215305805206299,84.05477142333984, 33.07840347290039
690,1835622596,0.3402725,0.7733514,-0.24006791,0.47802672,-2.8998863697052,1.6694071292877197,1.833913803100586,72.39779663085938,72.46623992919922, 14.165431022644043
691,1835639263,0.33184946,0.7735598,-0.23310083,0.4869757,-4.2141523361206055,2.5904195308685303,-4.892800807952881,83.54643249511719,48.28732681274414, 11.141095161437988
692,1835655930,0.33117795,0.7708517,-0.23120944,0.4925966,-1.1438374519348145,5.464272499084473,-7.717072486877441,13.272331237792969,41.42269515991211, 9.39903736114502
693,1835672597,0.32898197,0.7696403,-0.23063265,0.49621892,-3.7432830333709717,-1.9331386089324951,-2.7871029376983643,17.04970359802246,20.61742401123047, 14.775507926940918
694,1835689264,0.31750867,0.7735616,-0.2261328,0.4996545,-4.393718719482422,0.4465981125831604,-4.446890354156494,90.7959213256836,-3.5686609745025635, 17.089468002319336
