PacketCounter,SampleTimeFine,Quat_W,Quat_X,Quat_Y,Quat_Z,Acc_X,Acc_Y,Acc_Z,Gyr_X,Gyr_Y,Gyr_Z 
1,4280987432,0.79094034,0.22611493,-0.5112489,0.24881786,0.1348685473203659,-0.04916928708553314,0.17190605401992798,-0.10101651400327682,0.5910046100616455, -0.2541123032569885
2,4281004099,0.79016596,0.22577175,-0.51219547,0.24964158,14.563430786132812,1.461172342300415,5.818213939666748,0.9079382419586182,1.9319723844528198, 2.5407094955444336
3,4281020766,0.7894625,0.22492602,-0.51314545,0.25067723,14.530303001403809,1.6892091035842896,5.863500118255615,0.3776784837245941,2.0177624225616455, 2.3978805541992188
4,4281037433,0.7892219,0.22515902,-0.51312476,0.2512671,14.574141502380371,1.4565001726150513,5.801094055175781,0.3193071186542511,2.157543420791626, 2.2547309398651123
5,4281054100,0.78902817,0.22505234,-0.51317096,0.25187588,14.539852142333984,1.3038302659988403,5.755821228027344,1.1229825019836426,2.8482155799865723, 2.0786821842193604
6,4281070767,0.78863704,0.22487657,-0.5132532,0.25308782,14.583341598510742,1.5130802392959595,5.748410701751709,1.1643211841583252,2.909672975540161, 2.0325405597686768
7,4281087434,0.7883462,0.22485504,-0.5132617,0.25399444,14.709877014160156,1.5063906908035278,5.823770523071289,1.4247770309448242,3.1954729557037354, 2.084150552749634
8,4281104101,0.78807586,0.224965,-0.5131556,0.25494832,14.582871437072754,1.30318021774292,5.748559951782227,2.419292449951172,3.4016165733337402, 2.78650164604187
9,4281120768,0.7878622,0.22484846,-0.5131451,0.25573152,14.715755462646484,1.5739212036132812,6.012474536895752,2.7296674251556396,3.2967581748962402, 2.830094337463379
10,4281137435,0.78773713,0.22499608,-0.51278627,0.25670502,14.706300735473633,1.3427892923355103,5.880230903625488,3.7235682010650635,3.8370962142944336, 3.0415146350860596
11,4281154102,0.7876177,0.225096,-0.51249784,0.25755817,14.651792526245117,1.641095757484436,5.9958577156066895,4.184327602386475,3.3403124809265137, 2.815943479537964
12,4281170769,0.78758883,0.22519141,-0.5121368,0.2582799,14.730937957763672,1.4914884567260742,5.996220588684082,2.4215848445892334,3.1584367752075195, 2.5763628482818604
13,4281187436,0.7874656,0.22543454,-0.51176566,0.25917843,14.399300575256348,1.6577924489974976,5.8512749671936035,3.391871213912964,2.5965070724487305, 3.0869393348693848
14,4281204103,0.7875295,0.22542538,-0.5114778,0.25955957,14.76508903503418,1.6285700798034668,5.9806809425354,1.6148747205734253,2.565387725830078, 2.4950807094573975
15,4281220770,0.7875733,0.2254519,-0.5111918,0.25996694,14.48392391204834,1.4243820905685425,5.831300258636475,1.8290220499038696,2.4705047607421875, 2.825958013534546
16,4281237437,0.78760225,0.22549704,-0.51089436,0.26042482,14.564719200134277,1.5583964586257935,5.850979804992676,1.6047319173812866,2.5644145011901855, 2.5850067138671875
17,4281254104,0.7876989,0.22543807,-0.5106228,0.26071548,14.550867080688477,1.5418492555618286,5.844666957855225,0.7016662955284119,2.7405529022216797, 2.2316412925720215
18,4281270771,0.7878018,0.22546689,-0.5103359,0.2609414,14.544734001159668,1.516125202178955,5.899195671081543,0.9923447370529175,2.680208683013916, 1.5847537517547607
19,4281287438,0.78793347,0.225495,-0.5100109,0.2611551,14.591025352478027,1.3235846757888794,5.873915672302246,0.4809615910053253,2.9143214225769043, 1.1797657012939453
20,4281304105,0.7880937,0.22551344,-0.50970596,0.26125112,14.711231231689453,1.6262730360031128,5.977097034454346,0.5338647365570068,2.8484203815460205, 0.4689365029335022
21,4281320772,0.78829837,0.22553675,-0.50938815,0.26123312,14.703653335571289,1.3460322618484497,5.892390251159668,0.4248058497905731,2.914360284805298, 0.0012486191699281335
22,4281337439,0.78843826,0.22570196,-0.50902104,0.2613838,14.356661796569824,1.4406309127807617,5.8018717765808105,1.268654704093933,2.973038911819458, -0.08246009051799774
23,4281354106,0.7886733,0.22575317,-0.50868016,0.26129436,14.659834861755371,1.5131293535232544,5.838207244873047,0.47979626059532166,3.102177858352661, -0.8185562491416931
24,4281370773,0.78887767,0.22590542,-0.50829864,0.26128775,14.66513442993164,1.5505597591400146,5.925358772277832,0.6981062293052673,3.1929500102996826, -1.0472520589828491
25,4281387440,0.78903353,0.22614552,-0.5078921,0.2614,14.507272720336914,1.4105383157730103,5.77655029296875,1.869362235069275,3.21917724609375, -0.5833421349525452
26,4281404107,0.7892568,0.22621557,-0.5075354,0.2613582,14.417704582214355,1.6946364641189575,5.817539691925049,0.5581967234611511,3.36167311668396, -0.8328737020492554
27,4281420774,0.789465,0.22629674,-0.5072015,0.26130748,14.504127502441406,1.5249850749969482,5.87687873840332,1.409217119216919,3.2561488151550293, -0.3707566559314728
28,4281437441,0.7896046,0.22645067,-0.5068626,0.26140982,14.614056587219238,1.6899198293685913,5.950868606567383,1.2940113544464111,3.0358798503875732, -0.19172388315200806
29,4281454108,0.7897111,0.22654617,-0.5065948,0.26152432,14.506793022155762,1.5773271322250366,5.79243803024292,1.112980604171753,2.666288375854492, 0.3918551206588745
30,4281470775,0.7898223,0.22658569,-0.5063308,0.2616658,14.448532104492188,1.7201642990112305,5.967592239379883,1.1439335346221924,2.5407862663269043, 0.5427395105361938
31,4281487442,0.7899827,0.22655235,-0.5060333,0.26178625,14.687966346740723,1.303754448890686,5.804245471954346,1.137440800666809,2.6675565242767334, 0.4690261483192444
32,4281504109,0.79013234,0.22652112,-0.5057502,0.261908,14.581964492797852,1.7198282480239868,5.946333408355713,0.7439529299736023,2.4083428382873535, 0.18615949153900146
33,4281520776,0.79032725,0.22644638,-0.5054406,0.26198223,14.627726554870605,1.438081979751587,5.805600166320801,0.6218059062957764,2.6991496086120605, 0.07660118490457535
34,4281537443,0.79047763,0.22637627,-0.5051789,0.26209393,14.223711967468262,1.6207460165023804,5.7815985679626465,0.6291695833206177,2.3114757537841797, 0.34637975692749023
35,4281554110,0.790692,0.22618838,-0.50491935,0.26210958,14.631936073303223,1.4528264999389648,5.804745674133301,-0.891014575958252,2.531808853149414, -0.06430067867040634
36,4281570777,0.7908555,0.22615725,-0.5046194,0.26222032,14.512422561645508,1.5610660314559937,5.860494136810303,0.8546380996704102,2.4829399585723877, 0.10679854452610016
37,4281587444,0.79103166,0.2262021,-0.5042456,0.2623696,14.371155738830566,1.3490246534347534,5.694038391113281,1.515586495399475,2.849342107772827, -0.0838431641459465
38,4281604111,0.7912543,0.22631094,-0.503792,0.2624761,14.60202693939209,1.6281521320343018,5.802514553070068,1.9603900909423828,3.2811472415924072, -0.6757399439811707
39,4281620778,0.79150707,0.22647314,-0.50325686,0.26260057,14.498885154724121,1.4942853450775146,5.761936664581299,2.9010674953460693,3.8122901916503906, -0.7316907644271851
40,4281637445,0.7918836,0.22632995,-0.5027921,0.26247907,14.500537872314453,1.5826218128204346,5.729612350463867,-0.2940850555896759,3.98950457572937, -1.2824280261993408
41,4281654112,0.7922395,0.22627899,-0.5022771,0.2624352,14.25633716583252,1.8847075700759888,5.782917022705078,0.5273975729942322,4.140786170959473, -1.2481582164764404
42,4281670779,0.7926391,0.22609022,-0.50180656,0.2622915,14.357800483703613,1.6681479215621948,5.827000617980957,-0.4694679379463196,4.167896747589111, -1.2115190029144287
43,4281687446,0.79294604,0.22599186,-0.50135314,0.2623158,14.381186485290527,1.6798495054244995,5.819866180419922,0.621216893196106,3.843717575073242, -0.45449742674827576
44,4281704113,0.7932074,0.22585025,-0.5010119,0.26229945,14.132965087890625,1.919350504875183,5.861330509185791,0.21069645881652832,3.100321054458618, -0.22781215608119965
45,4281720780,0.7933897,0.22584692,-0.5006445,0.26245236,14.35684871673584,1.447033166885376,5.753138542175293,1.772187352180481,2.988483190536499, 0.35066986083984375
46,4281737447,0.793541,0.22585435,-0.5003606,0.26252967,14.377507209777832,1.7789130210876465,5.829036712646484,1.6627572774887085,2.312551498413086, 0.16625843942165375
47,4281754114,0.7937025,0.22576267,-0.500103,0.2626111,14.321808815002441,1.7276698350906372,5.737970352172852,0.5627430081367493,2.3372421264648438, 0.3326641619205475
48,4281770781,0.7938776,0.22569841,-0.49981126,0.26269257,14.409773826599121,1.9351534843444824,5.791561603546143,0.8652162551879883,2.5348312854766846, 0.21131116151809692
49,4281787448,0.7941048,0.2255113,-0.49953976,0.26268283,14.297614097595215,1.6022223234176636,5.731330871582031,-0.24251385033130646,2.685408353805542, 0.0755382552742958
50,4281804115,0.79434335,0.22533849,-0.49920583,0.26274455,14.152865409851074,1.7249329090118408,5.669925212860107,0.47019150853157043,3.1823713779449463, 0.42604801058769226
51,4281820782,0.7946757,0.2250608,-0.49885646,0.2626415,14.587430953979492,1.7407076358795166,5.78719425201416,-0.9502184987068176,3.5072176456451416, -0.37795382738113403
52,4281837449,0.79489034,0.22505592,-0.49841657,0.26283163,14.178818702697754,1.5684947967529297,5.738101482391357,1.9354428052902222,3.5667409896850586, 0.3812514543533325
53,4281854116,0.7951579,0.22491123,-0.49802688,0.26288438,14.177084922790527,1.7435004711151123,5.728895664215088,0.17775852978229523,3.476994276046753, -0.06553009897470474
54,4281870783,0.7954509,0.22478959,-0.49762195,0.2628685,14.37824535369873,1.7067668437957764,5.801146984100342,0.40167754888534546,3.537632703781128, -0.4333797097206116
55,4281887450,0.7956313,0.22486508,-0.4971733,0.2631071,14.253445625305176,1.7870677709579468,5.858319282531738,2.47369384765625,3.41565203666687, 0.36365553736686707
56,4281904117,0.7959436,0.22457063,-0.49688733,0.26295418,14.382960319519043,1.5895534753799438,5.719353675842285,-1.2728358507156372,3.052950620651245, -0.44710806012153625
57,4281920784,0.7961224,0.22459453,-0.49651298,0.2630997,14.107294082641602,1.8582098484039307,5.760876178741455,1.923315167427063,2.976419687271118, 0.23255689442157745
58,4281937451,0.7963982,0.22439666,-0.49619463,0.26303452,14.354772567749023,1.7127337455749512,5.799459934234619,-0.3125517666339874,3.0725317001342773, -0.27085426449775696
59,4281954118,0.7966371,0.22427978,-0.49583277,0.263093,14.52265739440918,1.7473770380020142,5.822325229644775,0.622920036315918,3.2243762016296387, 0.1007155328989029
60,4281970785,0.7968659,0.22421993,-0.49543217,0.26320553,14.159666061401367,1.5824673175811768,5.637352466583252,1.1162846088409424,3.3739542961120605, 0.12077026069164276
61,4281987452,0.7971672,0.223991,-0.49506006,0.26318803,14.294791221618652,1.773166537284851,5.793860912322998,-0.45192331075668335,3.565845012664795, -0.12210854887962341
62,4282004119,0.7974368,0.2239663,-0.494631,0.26319906,14.434739112854004,1.7151893377304077,5.890069961547852,1.2872750759124756,3.4822068214416504, -0.5208727121353149
63,4282020786,0.7977061,0.22384669,-0.49426514,0.2631724,14.382094383239746,1.6124460697174072,5.846339702606201,0.3866301476955414,3.232252597808838, -0.36980897188186646
64,4282037453,0.7979419,0.22376062,-0.4939165,0.26318565,14.109209060668945,1.9513834714889526,5.761910438537598,0.5703244209289551,3.007206439971924, -0.25095322728157043
65,4282054120,0.7982451,0.22364101,-0.4935253,0.26310137,14.479692459106445,1.7073310613632202,5.747409820556641,0.023301152512431145,3.379512310028076, -0.8566295504570007
66,4282070787,0.7985295,0.22364303,-0.4930296,0.26316583,14.317779541015625,1.779958724975586,5.820114612579346,1.6039888858795166,3.9215540885925293, -0.4924425482749939
67,4282087454,0.7988786,0.22342685,-0.49264804,0.2630044,14.241042137145996,1.8784798383712769,5.772095203399658,-0.6905952095985413,3.5596847534179688, -0.9444041848182678
68,4282104121,0.7992345,0.22325906,-0.4922416,0.26282656,14.490684509277344,1.802118182182312,5.840662479400635,-0.32237428426742554,3.621553421020508, -1.1884294748306274
69,4282120788,0.79949707,0.22326218,-0.49178487,0.2628802,14.36429214477539,1.7594174146652222,5.769763469696045,1.5743423700332642,3.6240241527557373, -0.42993485927581787
70,4282137455,0.79987043,0.22298126,-0.49142075,0.26266435,14.357481956481934,1.9774229526519775,5.781928539276123,-1.4353870153427124,3.5695080757141113, -1.1019865274429321
71,4282154122,0.80017537,0.22287685,-0.49096647,0.26267353,14.279536247253418,1.8077274560928345,5.740245342254639,0.6209224462509155,3.8688950538635254, -0.4440474510192871
72,4282170789,0.80046004,0.22280616,-0.49047214,0.26278964,14.478684425354004,2.0130364894866943,5.810429573059082,1.1951462030410767,4.117977619171143, -0.029057608917355537
73,4282187456,0.8007734,0.2226123,-0.49001858,0.26284495,14.607610702514648,1.7701549530029297,5.826375961303711,0.2947957515716553,4.133421897888184, 0.11381643265485764
74,4282204123,0.8010077,0.22249337,-0.4895984,0.26301545,14.00448989868164,2.09999680519104,5.807737350463867,1.145188808441162,3.726219654083252, 0.6833661198616028
75,4282220790,0.80133575,0.22202109,-0.48936194,0.2628548,14.326591491699219,1.8629995584487915,5.8383893966674805,-2.2822582721710205,3.1739964485168457, 0.21903342008590698
76,4282237457,0.80153686,0.22194567,-0.48897737,0.26302087,14.488380432128906,1.9666739702224731,5.872818946838379,1.3210326433181763,3.3302721977233887, 0.618604302406311
77,4282254124,0.8018018,0.2215842,-0.4887164,0.26300308,14.235540390014648,1.744802713394165,5.797848224639893,-1.0704059600830078,3.116777181625366, 0.7024858593940735
78,4282270791,0.8020213,0.22139059,-0.4883527,0.26317248,14.306002616882324,1.9069969654083252,5.707250595092773,0.5457490086555481,3.492515802383423, 1.0019625425338745
79,4282287458,0.80231947,0.22116037,-0.48793083,0.26323965,14.53460693359375,1.8607057332992554,5.900848388671875,0.22511644661426544,4.01835823059082, 0.4482671320438385
80,4282304125,0.80251086,0.22118156,-0.48740855,0.26360616,14.21596622467041,1.685893177986145,5.701107025146484,2.8750193119049072,4.207558631896973, 1.2562583684921265
81,4282320792,0.80288506,0.22073737,-0.48703465,0.26353025,14.447209358215332,2.02797269821167,5.863064765930176,-1.4290605783462524,4.207827091217041, 0.41106462478637695
82,4282337459,0.803129,0.22063945,-0.48652717,0.2638058,14.38329792022705,1.6439385414123535,5.808021545410156,1.8488845825195312,4.389984607696533, 1.1082422733306885
83,4282354126,0.80346566,0.22029394,-0.4861105,0.2638374,14.212413787841797,2.0100584030151367,5.929697036743164,-0.60981285572052,4.284486293792725, 0.5711056590080261
84,4282370793,0.8037568,0.22005446,-0.4856907,0.26392385,14.40811538696289,1.7043237686157227,5.832873344421387,0.27344754338264465,4.044699192047119, 0.6234195232391357
85,4282387460,0.80403954,0.21987335,-0.48524198,0.26403886,14.410758972167969,1.7405587434768677,5.916514873504639,0.8598374724388123,4.129861831665039, 0.6077316999435425
86,4282404127,0.80430025,0.21972841,-0.48476645,0.264239,14.2380952835083,1.9056683778762817,5.882045745849609,1.2915141582489014,4.255608558654785, 0.8909826874732971
87,4282420794,0.8045893,0.21958135,-0.4842737,0.26438472,14.50047492980957,1.691780924797058,5.934560775756836,1.0701179504394531,4.367497444152832, 0.5153595805168152
88,4282437461,0.8048593,0.21936867,-0.4838885,0.26444513,14.152008056640625,1.8107717037200928,5.9167561531066895,0.48338204622268677,3.7289977073669434, 0.5719891786575317
89,4282454128,0.80516917,0.21902114,-0.48358214,0.26434985,14.546975135803223,1.8007926940917969,5.991150856018066,-1.4000669717788696,3.391230583190918, -0.0013830858515575528
90,4282470795,0.8053787,0.21894877,-0.48316643,0.2645319,14.199469566345215,1.835141897201538,5.874916076660156,1.640026330947876,3.609323024749756, 0.761395275592804
91,4282487462,0.80568326,0.21854073,-0.48289022,0.2644457,14.53160572052002,1.8929415941238403,5.944034576416016,-1.4533541202545166,3.363926887512207, 0.4565655589103699
92,4282504129,0.80591094,0.21846677,-0.48244098,0.26463318,14.299922943115234,1.6979879140853882,5.718210220336914,1.7210646867752075,3.8683054447174072, 0.7371271252632141
93,4282520796,0.8062404,0.21815376,-0.48205236,0.26459634,14.290348052978516,1.8449074029922485,5.907259941101074,-0.680580735206604,3.961280107498169, 0.1558212786912918
94,4282537463,0.8064646,0.21815535,-0.48159528,0.2647434,14.217514038085938,1.740859866142273,5.909109115600586,2.165022611618042,3.7172672748565674, 0.33020535111427307
95,4282554130,0.8068219,0.21773857,-0.48131627,0.2645052,14.463470458984375,1.8924167156219482,6.020077228546143,-1.9842544794082642,3.3493027687072754, -0.4110967218875885
96,4282570797,0.80704916,0.21766865,-0.48092398,0.26458278,14.283855438232422,1.984818458557129,5.93159818649292,1.0398051738739014,3.3510565757751465, 0.0824664905667305
97,4282587464,0.80729926,0.21745463,-0.4805926,0.26459828,14.256454467773438,1.6285297870635986,5.817241668701172,0.18654368817806244,3.2910332679748535, 0.42247506976127625
98,4282604131,0.8075477,0.2172289,-0.48030505,0.26454794,14.423617362976074,1.9827399253845215,5.9355645179748535,-0.0311578456312418,2.983361005783081, 0.2358737587928772
99,4282620798,0.80780387,0.21705262,-0.47995603,0.2645438,14.487333297729492,1.7810500860214233,5.904244422912598,0.5659445524215698,3.339787244796753, 0.26416298747062683
100,4282637465,0.80803704,0.21686257,-0.47964072,0.26455975,14.173467636108398,1.8453491926193237,5.787639617919922,0.5341976284980774,3.135256767272949, 0.5169346928596497
101,4282654132,0.8083738,0.21651326,-0.47930956,0.26441705,14.200796127319336,1.825896143913269,5.806761741638184,-1.1341688632965088,3.605698347091675, -0.12011075764894485
102,4282670799,0.80863714,0.21646118,-0.4788825,0.26442808,14.252266883850098,2.0933759212493896,5.922632217407227,1.3518702983856201,3.593416690826416, -0.22908000648021698
103,4282687466,0.8090222,0.21618456,-0.47848508,0.26419592,14.466133117675781,1.740691065788269,5.967695713043213,-0.8720227479934692,3.884671449661255, -0.9798266291618347
104,4282704133,0.8093387,0.21616736,-0.47799194,0.26413366,14.254393577575684,1.7932485342025757,5.7742133140563965,1.5012692213058472,3.9872376918792725, -0.8553105592727661
105,4282720800,0.8097271,0.21599916,-0.47749904,0.26397207,14.478548049926758,1.7460600137710571,5.832695007324219,0.3022106885910034,4.362643241882324, -1.0001248121261597
106,4282737467,0.8100321,0.2160515,-0.47695673,0.26397425,14.204225540161133,1.796943187713623,5.912869930267334,2.1137330532073975,4.1941118240356445, -0.824600875377655
107,4282754134,0.8104023,0.2159496,-0.47644907,0.26383764,14.558849334716797,1.9590649604797363,5.948907852172852,0.7988024950027466,4.309432506561279, -1.070060133934021
108,4282770801,0.8106835,0.21592757,-0.47595227,0.2638885,14.189096450805664,2.1000192165374756,5.987870693206787,1.7242404222488403,4.068686485290527, -0.2395043820142746
109,4282787468,0.81100434,0.21558467,-0.47562608,0.26377127,14.250359535217285,2.139456033706665,6.0128021240234375,-0.8640316724777222,3.596144914627075, 0.12687891721725464
110,4282804135,0.8112462,0.21521899,-0.47535443,0.2638151,14.39140510559082,2.1873059272766113,5.915228843688965,-0.3526100516319275,3.327301263809204, 1.3821829557418823
111,4282820802,0.81141096,0.21485566,-0.4751067,0.26405108,14.201595306396484,2.1295676231384277,5.9330339431762695,0.5835662484169006,3.252985954284668, 2.7531538009643555
112,4282837469,0.811527,0.21436383,-0.47493953,0.264395,14.323203086853027,1.8612372875213623,5.897953510284424,-0.18395042419433594,3.002775192260742, 3.8060922622680664
113,4282854136,0.8116221,0.21369007,-0.47492915,0.26466763,14.186301231384277,1.9916448593139648,5.946871757507324,-1.520895004272461,2.3078644275665283, 4.363834381103516
114,4282870803,0.81166536,0.21318427,-0.47488528,0.26502067,14.29538631439209,1.784653663635254,5.913508415222168,-0.4005186855792999,2.1171398162841797, 4.191769123077393
115,4282887470,0.8116506,0.21298403,-0.47470692,0.26554596,14.373306274414062,1.5248149633407593,5.864813327789307,2.2932138442993164,2.3890440464019775, 4.117440223693848
116,4282904137,0.81167895,0.2127739,-0.4745677,0.26587635,14.37866497039795,1.9126954078674316,6.053478717803955,1.564199686050415,2.0613036155700684, 3.089282512664795
117,4282920804,0.81178474,0.21252204,-0.47440946,0.2660368,14.43448543548584,1.5958433151245117,5.845412254333496,0.7776976227760315,2.2601609230041504, 2.156928777694702
118,4282937471,0.81201696,0.21199833,-0.4743328,0.26588255,14.27480411529541,1.85940420627594,5.870350360870361,-2.2242965698242188,2.2480459213256836, 1.102966070175171
119,4282954138,0.8123274,0.21142003,-0.47418323,0.26566178,14.626119613647461,1.584693431854248,5.780071258544922,-2.733566999435425,2.9179208278656006, 0.6609678864479065
120,4282970805,0.81256634,0.21123947,-0.47384867,0.26567158,14.217817306518555,1.9132765531539917,5.811397552490234,0.623214602470398,3.3288891315460205, 0.4779137372970581
121,4282987472,0.81285954,0.21108504,-0.47341594,0.26566955,14.161907196044922,1.5509321689605713,5.673888206481934,1.030021071434021,4.010724067687988, 0.20438292622566223
122,4283004139,0.81309104,0.2112285,-0.4728469,0.26585978,14.586568832397461,1.8823189735412598,5.982020854949951,3.4967548847198486,4.290249347686768, 0.12730152904987335
123,4283020806,0.81330174,0.21129213,-0.4723074,0.26612368,14.214329719543457,1.784358024597168,5.7824320793151855,3.490325689315796,4.333508491516113, 1.0129374265670776
124,4283037473,0.813493,0.211216,-0.47188216,0.26635364,14.300950050354004,2.229135274887085,5.9594011306762695,2.3328628540039062,3.8279786109924316, 1.430732011795044
125,4283054140,0.8136086,0.21128914,-0.47143352,0.26673704,14.438177108764648,1.8679674863815308,6.026498794555664,3.7159993648529053,3.64935564994812, 1.859322190284729
126,4283070807,0.8136542,0.21146388,-0.47101322,0.26720124,14.57663631439209,1.7280634641647339,6.094114303588867,4.6232404708862305,3.1969072818756104, 2.168480396270752
127,4283087474,0.8136542,0.21166658,-0.47064367,0.2676917,14.434786796569824,1.9310951232910156,5.962691783905029,4.986043930053711,2.767727851867676, 2.4681613445281982
128,4283104141,0.81374043,0.211563,-0.47043025,0.26788658,14.425773620605469,2.244774103164673,6.024949550628662,1.7390061616897583,2.2910494804382324, 1.7797175645828247
129,4283120808,0.81386817,0.21124128,-0.47028133,0.268014,14.444562911987305,1.8682465553283691,5.818063259124756,0.18217670917510986,2.375135898590088, 2.170708179473877
130,4283137475,0.8140092,0.21080518,-0.47019735,0.26807606,14.31649398803711,1.9905134439468384,5.873340606689453,-0.6438648104667664,2.1926839351654053, 2.3439652919769287
131,4283154142,0.8141051,0.2104892,-0.4700307,0.2683252,14.367005348205566,2.0048389434814453,5.935985565185547,0.5703884959220886,2.5322961807250977, 2.8018953800201416
132,4283170809,0.81418025,0.21010321,-0.46996135,0.2685213,14.649142265319824,1.774400234222412,5.860491752624512,-0.0723174586892128,1.9829672574996948, 2.9565956592559814
133,4283187476,0.8141456,0.20997036,-0.46982318,0.26897165,14.255250930786133,1.7423803806304932,5.780672073364258,2.3840880393981934,1.9119690656661987, 3.6237683296203613
134,4283204143,0.814135,0.20978658,-0.46973252,0.26930502,14.667634963989258,2.1143887042999268,6.045342922210693,1.782118797302246,1.6729190349578857, 3.2686924934387207
135,4283220810,0.81406957,0.20963573,-0.46972227,0.26963824,14.71173095703125,1.7133935689926147,6.002629280090332,1.6806862354278564,0.9667065739631653, 3.254727602005005
136,4283237477,0.8140419,0.20925581,-0.46982753,0.26983374,14.515131950378418,1.6151695251464844,5.706799507141113,-0.0876082330942154,0.6964284777641296, 3.457528591156006
137,4283254144,0.81395155,0.2091125,-0.46984252,0.27019098,14.313204765319824,2.064744472503662,5.808852195739746,1.809889793395996,0.7798235416412354, 3.4559543132781982
138,4283270811,0.814041,0.20875792,-0.46979362,0.27028015,14.781241416931152,1.7641316652297974,5.822349548339844,-0.5480092167854309,1.7135342359542847, 2.115833044052124
139,4283287478,0.8140456,0.20864922,-0.46967036,0.27056432,14.495457649230957,1.614013433456421,5.713907241821289,1.765028953552246,1.692250370979309, 2.4938766956329346
140,4283304145,0.81416124,0.20840615,-0.46957418,0.27057067,14.348579406738281,1.7321302890777588,5.7413740158081055,0.2396516501903534,1.7914867401123047, 1.4108179807662964
141,4283320812,0.8143483,0.20825417,-0.46933967,0.27053165,14.74268913269043,1.6031666994094849,5.7702789306640625,0.5802236795425415,2.551107883453369, 0.4234483242034912
142,4283337479,0.81449574,0.20827731,-0.46904826,0.27057543,14.547073364257812,1.5449714660644531,5.709739685058594,1.8886098861694336,2.534370183944702, 0.2497430443763733
143,4283354146,0.81473607,0.208112,-0.46884114,0.27033803,14.50167179107666,1.8680787086486816,5.885629177093506,-0.44954127073287964,2.3110787868499756, -0.82481849193573
144,4283370813,0.81498724,0.208078,-0.4685586,0.27009678,14.554791450500488,1.6081293821334839,5.712233543395996,0.6130079627037048,2.5463311672210693, -1.2560211420059204
145,4283387480,0.81525123,0.20807272,-0.46826634,0.26981118,14.910881042480469,1.670746088027954,5.769115924835205,0.6031343936920166,2.5327954292297363, -1.651814341545105
146,4283404147,0.81551015,0.20821844,-0.46787298,0.26959792,14.25929069519043,1.9427107572555542,5.666431427001953,2.005237579345703,2.9317004680633545, -1.7848339080810547
147,4283420814,0.8158794,0.20824529,-0.46741316,0.26925814,14.716209411621094,1.8921045064926147,5.735170841217041,0.8498614430427551,3.702821969985962, -2.432784080505371
148,4283437481,0.81623226,0.20833392,-0.46691814,0.26897863,14.772714614868164,1.7771782875061035,5.763096809387207,1.5055723190307617,3.8343560695648193, -2.289212226867676
149,4283454148,0.81659895,0.2082038,-0.46653658,0.26862797,14.380855560302734,1.8970916271209717,5.676360607147217,-0.32278409600257874,3.543139696121216, -1.9381389617919922
150,4283470815,0.8169749,0.20811951,-0.46611196,0.26828748,14.550355911254883,2.0166499614715576,5.810800075531006,0.04508475586771965,3.752804756164551, -2.0937230587005615
151,4283487482,0.8173139,0.20819765,-0.46562228,0.26804417,14.721820831298828,1.936840295791626,5.7337188720703125,1.6373753547668457,3.86215877532959, -1.9587827920913696
152,4283504149,0.81756485,0.20825167,-0.46525338,0.26787737,14.607452392578125,1.839178442955017,5.732789039611816,1.4905246496200562,3.0426032543182373, -1.2185370922088623
153,4283520816,0.8178296,0.2082376,-0.46493283,0.26763666,14.649097442626953,2.3054206371307373,5.8031158447265625,0.8568536043167114,2.844757318496704, -1.3101792335510254
154,4283537483,0.8180527,0.20828973,-0.46455985,0.26756224,14.713059425354004,1.8266737461090088,5.673052787780762,1.8365522623062134,3.113896131515503, -0.6276520490646362
155,4283554150,0.81829745,0.20822321,-0.4642305,0.26743734,14.939936637878418,2.171044111251831,5.840114593505859,0.6429491639137268,3.059532880783081, -0.6818740963935852
156,4283570817,0.8184325,0.20832801,-0.46386695,0.26757276,14.395637512207031,1.9799189567565918,5.617860317230225,2.7988851070404053,2.9764456748962402, 0.48847895860671997
157,4283587484,0.8186487,0.20816012,-0.46358606,0.2675293,14.425810813903809,2.2026660442352295,5.652893543243408,0.5568265318870544,3.029655933380127, 0.4110262095928192
158,4283604151,0.81888366,0.20794648,-0.46332392,0.26743063,14.799168586730957,1.9903875589370728,5.793051719665527,0.126827672123909,2.997729539871216, 0.2892121970653534
159,4283620818,0.8190139,0.20795178,-0.46299455,0.26759717,14.621419906616211,1.9342576265335083,5.666557312011719,2.4626166820526123,3.021075963973999, 1.1721973419189453
160,4283637485,0.8191584,0.20776549,-0.46280372,0.26762995,14.41682243347168,2.140303134918213,5.625736236572266,0.6729673147201538,2.451103448867798, 1.1950181722640991
161,4283654152,0.8193582,0.20747153,-0.46262503,0.26755536,14.736394882202148,1.907804250717163,5.646769046783447,-0.3005906641483307,2.6158571243286133, 0.9069008827209473
162,4283670819,0.8194722,0.20728777,-0.46248716,0.26758727,14.447295188903809,2.0550224781036377,5.657081127166748,0.5907889604568481,2.0563864707946777, 1.2929612398147583
163,4283687486,0.8196333,0.20699313,-0.462398,0.26747605,14.735567092895508,1.9045093059539795,5.618199825286865,-0.5976467132568359,1.94167959690094, 0.859632670879364
164,4283704153,0.81970465,0.20694667,-0.46227372,0.26750794,14.456582069396973,2.026214838027954,5.6535491943359375,1.532965064048767,1.6188186407089233, 1.0523041486740112
165,4283720820,0.8198268,0.20674077,-0.4621952,0.2674286,14.549206733703613,1.8588833808898926,5.501893520355225,0.14441080391407013,1.6656898260116577, 0.9224733114242554
166,4283737487,0.8199078,0.20668651,-0.46206126,0.26745376,14.50766372680664,2.0824313163757324,5.590086936950684,1.4970687627792358,1.7275316715240479, 1.0312120914459229
167,4283754154,0.81997365,0.20667452,-0.4619165,0.26751125,14.465432167053223,1.8883837461471558,5.46550989151001,1.7098076343536377,1.6993705034255981, 0.9776687026023865
168,4283770821,0.82006115,0.20647547,-0.46185583,0.26750144,14.551743507385254,1.9208781719207764,5.466928958892822,0.2396259903907776,1.5512264966964722, 1.2622640132904053
169,4283787488,0.8201003,0.20640774,-0.46177182,0.26757833,14.15975284576416,1.9015687704086304,5.413473606109619,1.3926842212677002,1.4248920679092407, 1.4104208946228027
170,4283804155,0.8202032,0.2062537,-0.46169966,0.2675065,14.704219818115234,1.9784660339355469,5.565433025360107,0.3515150845050812,1.519787073135376, 0.7702186703681946
171,4283820822,0.8202229,0.20635326,-0.46159396,0.26755175,14.510321617126465,1.9881352186203003,5.5614213943481445,2.456930160522461,1.1698024272918701, 0.8247353434562683
172,4283837489,0.8203107,0.20619413,-0.46163198,0.26733938,14.3268404006958,2.0691077709198,5.379062652587891,-0.33450186252593994,0.6797290444374084, 0.1646832525730133
173,4283854156,0.82033664,0.20627183,-0.46156597,0.2673139,14.699919700622559,1.9475516080856323,5.485057830810547,1.860884428024292,0.911063015460968, 0.43218231201171875
174,4283870823,0.8203328,0.20637901,-0.46152514,0.26731354,14.420106887817383,2.1366100311279297,5.379307746887207,2.067079544067383,0.6665513515472412, 0.5473113656044006
175,4283887490,0.82039756,0.20629951,-0.4615214,0.26718253,14.196731567382812,2.0660040378570557,5.264907360076904,0.4863916039466858,0.8520001173019409, 0.3771662414073944
176,4283904157,0.8204224,0.20627367,-0.46152794,0.26711494,14.406742095947266,2.005689859390259,5.321256637573242,0.9922038912773132,0.6683569550514221, 0.6334468722343445
177,4283920824,0.8204705,0.20609763,-0.461629,0.26692826,14.261433601379395,2.0118987560272217,5.2954792976379395,-0.27012431621551514,0.34844154119491577, 0.6602504849433899
178,4283937491,0.8204988,0.20601113,-0.4616959,0.2667921,14.506770133972168,2.107848644256592,5.276111125946045,0.33781230449676514,0.3839535713195801, 0.5448141098022461
179,4283954158,0.82047975,0.20589778,-0.4618677,0.2666412,14.383383750915527,2.004446268081665,5.3018670082092285,-0.24802055954933167,-0.34000858664512634, 0.5946564674377441
180,4283970825,0.8204287,0.20576407,-0.46212938,0.266448,14.476863861083984,2.1718125343322754,5.271261215209961,-0.4222894310951233,-0.9398068189620972, 0.7560292482376099
181,4283987492,0.82033634,0.20570657,-0.46245083,0.26621887,14.501994132995605,2.1734602451324463,5.291563034057617,-0.17699654400348663,-1.5928152799606323, 0.46360906958580017
182,4284004159,0.8202738,0.20545183,-0.46293482,0.2657668,14.185196876525879,2.180107831954956,5.2932538986206055,-2.273562431335449,-2.3589935302734375, 0.06202755123376846
183,4284020826,0.8201242,0.20535268,-0.46344483,0.26541585,14.674010276794434,1.9037582874298096,5.197449684143066,-1.0963901281356812,-2.936316967010498, 0.2635354995727539
184,4284037493,0.8198037,0.20575395,-0.4637746,0.2655194,14.899568557739258,2.2520816326141357,5.194640159606934,3.679616689682007,-2.7395987510681152, 1.2358065843582153
185,4284054160,0.8194233,0.20612302,-0.46416774,0.26571983,15.101821899414062,2.1769418716430664,5.297467231750488,3.6719202995300293,-3.096972942352295, 2.0080039501190186
186,4284070827,0.8190203,0.20594256,-0.4647589,0.26606908,15.52818775177002,2.066641330718994,5.2373738288879395,0.802785336971283,-3.0576956272125244, 4.984853267669678
187,4284087494,0.8184865,0.20498036,-0.46578413,0.26666087,15.990955352783203,2.3072450160980225,5.734689235687256,-3.316077470779419,-4.1258745193481445, 9.788209915161133
188,4284104161,0.8178834,0.20361534,-0.4669468,0.2675225,16.429916381835938,1.7651607990264893,6.591233253479004,-5.054157257080078,-4.017636775970459, 12.783711433410645
189,4284120828,0.81770366,0.204289,-0.46592343,0.26933673,16.916526794433594,1.0658156871795654,6.687196254730225,12.912981986999512,7.21139669418335, 7.756870746612549
190,4284137495,0.8181326,0.20479675,-0.4640962,0.2707996,15.578782081604004,0.9196522235870361,5.748750686645508,11.634692192077637,13.504293441772461, 4.140509605407715
191,4284154162,0.8179811,0.20202896,-0.46572798,0.27053416,13.939058303833008,0.2900233268737793,2.482006788253784,-18.13319206237793,-4.1557698249816895, 10.639679908752441
192,4284170829,0.817057,0.19725467,-0.47070995,0.26821807,11.705132484436035,1.9335882663726807,-0.5057177543640137,-41.20459747314453,-24.545608520507812, 11.547311782836914
193,4284187496,0.81448346,0.19436014,-0.47812152,0.26503015,12.557250022888184,3.665177822113037,-3.4156837463378906,-36.020992279052734,-48.12416076660156, 6.700207233428955
194,4284204163,0.8107333,0.19088641,-0.4888601,0.25940314,12.072305679321289,3.713348388671875,-6.507416725158691,-52.02742004394531,-72.70471954345703, 1.4383662939071655
195,4284220830,0.8046008,0.19060513,-0.50243735,0.25267413,12.589518547058105,6.0424933433532715,-6.490603923797607,-40.48667526245117,-103.52278137207031, -7.781362056732178
196,4284237497,0.7963127,0.19444135,-0.51658684,0.24742097,13.194771766662598,2.3992998600006104,-4.1299967765808105,-10.991083145141602,-119.19650268554688, -9.30064868927002
197,4284254164,0.7870849,0.19962703,-0.53067195,0.24296871,12.491560935974121,2.318904161453247,-0.1858040690422058,0.42855551838874817,-123.31208801269531, -8.220107078552246
198,4284270831,0.7779484,0.20519489,-0.54347026,0.23944023,12.796326637268066,1.3656840324401855,3.1969728469848633,7.880638122558594,-115.3860855102539, -6.460072040557861
199,4284287498,0.7694858,0.21046117,-0.55434644,0.23727235,13.106460571289062,0.49451008439064026,5.154434680938721,13.465829849243164,-100.2480697631836, -1.8779524564743042
200,4284304165,0.7623688,0.213617,-0.56361955,0.2355734,13.779438972473145,0.2347230166196823,7.663161754608154,4.784369468688965,-82.62830352783203, 4.167318820953369
201,4284320832,0.75710624,0.2151865,-0.5701705,0.23535262,14.279557228088379,-0.07906026393175125,10.972745895385742,3.943063974380493,-56.58671188354492, 11.092625617980957
202,4284337499,0.7551128,0.21385382,-0.5733352,0.23528276,14.826236724853516,1.5352827310562134,16.201631546020508,-9.904572486877441,-21.440166473388672, 12.954561233520508
203,4284354166,0.7575446,0.20695448,-0.57421076,0.2314696,15.872025489807129,5.610165119171143,11.74021053314209,-56.32640838623047,11.07670783996582, 4.971912384033203
204,4284370833,0.75930095,0.20067762,-0.5763799,0.22578083,28.95853614807129,1.7167216539382935,-1.4013506174087524,-61.539642333984375,-2.170090436935425, -4.209157466888428
205,4284387500,0.7568011,0.20175357,-0.5779381,0.22920631,15.906719207763672,-7.374741554260254,1.3786613941192627,19.833166122436523,-14.477973937988281, 20.022111892700195
206,4284404167,0.75488764,0.20144176,-0.5793593,0.23218231,11.593164443969727,2.266490936279297,4.23048734664917,10.123794555664062,-9.818906784057617, 21.853988647460938
207,4284420834,0.7540759,0.19918089,-0.58156085,0.23126502,13.822365760803223,2.5160470008850098,0.2488902509212494,-18.244264602661133,-11.803455352783203, 8.80423355102539
208,4284437501,0.75241196,0.20073059,-0.58258146,0.23277055,15.625298500061035,-2.2764322757720947,-0.7881728410720825,14.282588005065918,-11.76597785949707, 5.943210601806641
209,4284454168,0.75025815,0.20505182,-0.58243173,0.23630422,14.36205768585205,0.6456820368766785,1.0393881797790527,39.297088623046875,-9.218896865844727, 4.442606449127197
210,4284470835,0.7490269,0.20677628,-0.5833884,0.23634805,14.384795188903809,1.680504322052002,0.9267576932907104,8.748722076416016,-11.900591850280762, -3.0975382328033447
211,4284487502,0.7482644,0.20712009,-0.58472663,0.23515235,14.576203346252441,-0.6364119052886963,0.47964125871658325,-4.656531810760498,-11.47622299194336, -4.122314453125
212,4284504169,0.7480229,0.20689982,-0.58578545,0.23347306,12.613746643066406,1.5999943017959595,-1.019923448562622,-9.851391792297363,-7.686977386474609, -5.604753494262695
213,4284520836,0.7480379,0.20742513,-0.58643603,0.23131555,13.819829940795898,3.425471305847168,-0.3583705723285675,-7.56073522567749,-6.38415002822876, -11.997408866882324
214,4284537503,0.7480157,0.2101513,-0.58563894,0.2309462,14.827702522277832,1.7916470766067505,0.9238318204879761,13.132536888122559,-0.0028686258010566235, -13.625665664672852
215,4284554170,0.74771535,0.21361591,-0.5845207,0.23157269,13.443663597106934,2.094740629196167,0.4401783049106598,21.89499282836914,0.796242892742157, -11.463372230529785
216,4284570837,0.7475974,0.21737659,-0.58295554,0.23239696,12.985339164733887,2.705212116241455,1.0430047512054443,24.547348022460938,3.651939630508423, -12.561962127685547
217,4284587504,0.74761945,0.22068118,-0.5816938,0.23237348,12.79932975769043,2.9321630001068115,0.7533035278320312,17.996150970458984,2.1021342277526855, -14.827296257019043
218,4284604171,0.7474516,0.22417513,-0.580582,0.23234905,13.479846954345703,1.8473646640777588,0.6180238127708435,18.939817428588867,0.261410117149353, -15.016437530517578
219,4284620838,0.74720013,0.22791342,-0.5793153,0.23268293,13.95434856414795,1.6888660192489624,1.0024867057800293,21.846498489379883,0.8855419158935547, -14.24990177154541
220,4284637505,0.7469528,0.23119585,-0.5782922,0.23278375,13.339752197265625,1.6808111667633057,0.5670710802078247,18.181917190551758,0.006845006253570318, -13.242544174194336
221,4284654172,0.74650854,0.2331973,-0.5782114,0.23241279,13.516794204711914,1.728891372680664,-0.06689487397670746,8.492542266845703,-4.314359188079834, -8.7461519241333
222,4284670839,0.74596024,0.23442867,-0.57843935,0.23236755,13.959813117980957,2.2540602684020996,0.2685389518737793,5.510540962219238,-4.540095329284668, -3.333672523498535
223,4284687506,0.74508774,0.23564202,-0.57878536,0.23307672,13.156832695007324,1.9884084463119507,0.0007879538461565971,8.66812801361084,-5.176251411437988, 1.3426117897033691
224,4284704173,0.7440467,0.23629124,-0.57950276,0.23396079,13.463164329528809,1.962398648262024,0.41065460443496704,6.07380485534668,-6.545007705688477, 5.380289554595947
225,4284720840,0.74282724,0.23663378,-0.5805687,0.23484513,12.811763763427734,2.784482002258301,0.9261404871940613,4.291467666625977,-8.532452583312988, 7.48256778717041
226,4284737507,0.74161726,0.23616369,-0.58216494,0.2351907,12.633073806762695,2.0115745067596436,0.26998716592788696,-2.9406983852386475,-10.771721839904785, 8.872801780700684
227,4284754174,0.74016446,0.23565617,-0.5840651,0.23556532,13.108319282531738,2.0213897228240967,-0.08926605433225632,-3.091571092605591,-13.17257308959961, 10.088679313659668
228,4284770841,0.7385454,0.23527914,-0.5860887,0.23599686,12.567201614379883,1.85650634765625,0.15932893753051758,-2.172497034072876,-14.56348705291748, 10.359854698181152
229,4284787508,0.73675257,0.23547207,-0.58796996,0.23672773,12.322534561157227,2.054933786392212,0.5522509217262268,2.446021795272827,-14.96699047088623, 9.667237281799316
230,4284804175,0.73512733,0.23552766,-0.5897963,0.2371814,12.87864875793457,1.8043522834777832,-0.21536636352539062,0.3913560211658478,-14.233091354370117, 8.499613761901855
231,4284820842,0.73349005,0.23580213,-0.59143835,0.23788746,12.557821273803711,1.196547269821167,-0.852738618850708,2.834566116333008,-13.273626327514648, 8.642045974731445
232,4284837509,0.7318291,0.2366101,-0.5928773,0.23861794,12.111374855041504,1.8795251846313477,0.662248432636261,6.060935974121094,-13.141616821289062, 6.3151679039001465
233,4284854176,0.73034894,0.23718494,-0.59441936,0.23874542,12.393765449523926,0.7433574795722961,0.7129273414611816,2.007415771484375,-13.528867721557617, 4.1334381103515625
234,4284870843,0.7289934,0.23761356,-0.5960427,0.23841505,12.460378646850586,0.9682806134223938,0.11050370335578918,-1.0903078317642212,-13.938042640686035, 2.3945393562316895
235,4284887510,0.7276967,0.2380876,-0.5976225,0.23794791,12.282318115234375,0.795694887638092,-1.0828630924224854,-1.3916797637939453,-13.768383979797363, 1.3643957376480103
236,4284904177,0.72627884,0.23939629,-0.5988153,0.2379685,12.025531768798828,1.2799198627471924,-0.6178762912750244,5.621306419372559,-12.859441757202148, -0.046359021216630936
237,4284920844,0.7244924,0.24178503,-0.5996784,0.23882367,11.464285850524902,1.876333475112915,1.2245092391967773,15.570220947265625,-13.10009479522705, -0.2335241138935089
238,4284937511,0.7234888,0.24207713,-0.6011729,0.23781046,11.618962287902832,3.4912497997283936,0.07874586433172226,-5.043233394622803,-12.706724166870117, -1.0583174228668213
239,4284954178,0.722587,0.24194385,-0.60260123,0.2370716,11.484691619873047,2.2695670127868652,-1.2543418407440186,-5.959643363952637,-10.806106567382812, 1.841688632965088
240,4284970845,0.7213797,0.24183194,-0.603954,0.23742011,12.309438705444336,-0.18688596785068512,-0.9484525322914124,-0.8238968849182129,-9.88371467590332, 7.603126049041748
241,4284987512,0.71993613,0.24175718,-0.60517323,0.23876964,12.027118682861328,2.165398597717285,-0.8062855005264282,4.16558313369751,-8.570080757141113, 12.549856185913086
242,4285004179,0.71871436,0.24121241,-0.6063636,0.23997849,11.291497230529785,1.6307650804519653,-0.5768489241600037,0.9463323354721069,-6.9460530281066895, 13.43665599822998
243,4285020846,0.7177286,0.23987107,-0.60770875,0.24086839,11.451395034790039,1.7368882894515991,-0.4363406300544739,-5.049472332000732,-5.930832386016846, 15.105533599853516
244,4285037513,0.71685743,0.23792869,-0.6092359,0.24153106,10.877401351928711,1.7711009979248047,0.18317189812660217,-9.413050651550293,-5.727237701416016, 16.626895904541016
245,4285054180,0.7159143,0.2359982,-0.61077905,0.24232362,10.81330680847168,1.6633638143539429,0.05046284198760986,-8.741308212280273,-5.929642677307129, 17.40775489807129
246,4285070847,0.7148809,0.23390934,-0.61233807,0.2434624,11.245293617248535,1.1404471397399902,-0.1463756114244461,-7.8267292976379395,-5.575893878936768, 19.94375228881836
247,4285087514,0.71368474,0.23141252,-0.6140975,0.24492197,11.240861892700195,1.640911340713501,-1.0318130254745483,-8.589957237243652,-6.045738697052002, 23.867345809936523
248,4285104181,0.71224093,0.22796012,-0.6165755,0.2461337,10.072538375854492,1.9278188943862915,-0.7315448522567749,-15.209738731384277,-9.371262550354004, 28.310169219970703
249,4285120848,0.7096624,0.22516546,-0.61973625,0.24820738,10.63109302520752,0.30633026361465454,0.24260316789150238,-7.533564567565918,-17.283803939819336, 32.710758209228516
250,4285137515,0.7052704,0.22382033,-0.6236955,0.25199652,11.190559387207031,1.0827789306640625,1.6074236631393433,8.332927703857422,-28.729001998901367, 39.23368835449219
251,4285154182,0.69942135,0.22276227,-0.6292747,0.2553433,11.000600814819336,3.6758949756622314,1.275762915611267,7.335399627685547,-44.04706573486328, 40.887054443359375
252,4285170849,0.6926205,0.2212787,-0.6365942,0.25702262,14.788596153259277,3.0631325244903564,0.6334906816482544,-3.4533820152282715,-58.368961334228516, 39.131465911865234
253,4285187516,0.6836037,0.22337344,-0.644021,0.26082063,22.20067596435547,4.440723896026611,2.383640766143799,27.533071517944336,-71.89038848876953, 36.95294952392578
254,4285204183,0.67297333,0.23211767,-0.6485388,0.26949185,26.025962829589844,9.516003608703613,9.915782928466797,88.06173706054688,-69.85148620605469, 28.93037223815918
255,4285220850,0.6614625,0.2479637,-0.6488397,0.28282267,17.714763641357422,4.956366539001465,6.464512825012207,149.36212158203125,-59.893280029296875, 14.898029327392578
256,4285237517,0.648404,0.2626089,-0.65179634,0.29286578,6.34509801864624,7.226260662078857,2.388917922973633,126.43788146972656,-82.15369415283203, 13.156684875488281
257,4285254184,0.63833594,0.2748676,-0.65499485,0.29657543,1.279112458229065,8.055813789367676,0.0014576241374015808,81.4562759399414,-76.417724609375, -9.711124420166016
258,4285270851,0.637043,0.2843109,-0.6553068,0.28968382,-0.7025529146194458,9.723145484924316,5.908374309539795,10.512293815612793,-38.45480728149414, -66.58858489990234
259,4285287518,0.64646953,0.28444436,-0.65562516,0.2670667,0.39323434233665466,12.135303497314453,5.752902984619141,-122.11845397949219,-2.6268422603607178, -114.62325286865234
260,4285304185,0.66301155,0.27794155,-0.65332866,0.2373306,3.3933944702148438,-2.2913851737976074,-1.4847304821014404,-192.84524536132812,38.98216247558594, -134.30787658691406
261,4285320852,0.6782798,0.27906007,-0.643055,0.22032315,4.972066402435303,-5.361059665679932,-2.7795639038085938,-85.3370132446289,81.3639907836914, -123.96894836425781
262,4285337519,0.69420356,0.28028744,-0.6285947,0.21068723,4.860531806945801,-5.588314533233643,-4.07980489730835,-47.2667350769043,117.7544174194336, -99.3308334350586
263,4285354186,0.71085495,0.2803616,-0.6112782,0.20596537,5.989245414733887,-4.728181838989258,-5.768682479858398,-28.971500396728516,145.72625732421875, -77.67277526855469
264,4285370853,0.72929555,0.27451622,-0.59391654,0.20008036,5.187232971191406,-3.1070621013641357,-11.490822792053223,-66.56002044677734,159.7043914794922, -61.19253158569336
265,4285387520,0.7478786,0.2644076,-0.57751787,0.1929758,6.884072780609131,-3.43939471244812,-16.219938278198242,-94.53301239013672,159.24954223632812, -48.58034896850586
266,4285404187,0.76100564,0.25905648,-0.5632014,0.19121777,9.396392822265625,-6.02026891708374,-21.01974868774414,-42.01433563232422,130.63217163085938, -29.07455062866211
267,4285420854,0.76593155,0.2605599,-0.55480725,0.19402744,6.528741359710693,-3.020073652267456,-21.801021575927734,18.22142219543457,67.53541564941406, -10.660118103027344
268,4285437521,0.76424706,0.26274946,-0.5567187,0.1922337,3.1041972637176514,-1.739310622215271,-22.182533264160156,2.3333022594451904,-20.584260940551758, -10.402131080627441
269,4285454188,0.75024873,0.2663544,-0.5792271,0.17515203,1.1775305271148682,12.086819648742676,-69.42051696777344,-53.810203552246094,-205.01300048828125, -42.60038375854492
270,4285470855,0.7195715,0.27332914,-0.6190802,0.15571739,24.093570709228516,-21.754898071289062,-5.763740539550781,-35.852848052978516,-367.6549377441406, -16.072040557861328
271,4285487522,0.69232166,0.27508056,-0.65460366,0.12851335,6.710814476013184,-4.981605052947998,3.303567886352539,-94.67890930175781,-340.3883972167969, -45.92180633544922
272,4285504189,0.6633068,0.27603135,-0.68903345,0.095203124,14.3479585647583,-3.6130871772766113,-9.146571159362793,-121.68611907958984,-354.37554931640625, -71.86983489990234
273,4285520856,0.6363671,0.2858871,-0.71253765,0.07480545,3.5523507595062256,1.8189406394958496,-9.854480743408203,-16.725072860717773,-275.991455078125, -77.26676940917969
274,4285537523,0.6144663,0.29687816,-0.72856545,0.05904994,12.187613487243652,11.436834335327148,-4.656134128570557,4.8533616065979,-210.05145263671875, -79.6841049194336
275,4285554190,0.59520566,0.31124994,-0.7389709,0.052685518,18.37045669555664,8.776485443115234,-7.022649765014648,63.11691665649414,-155.5009765625, -69.25387573242188
276,4285570857,0.5778357,0.32030335,-0.7490985,0.04861733,18.829343795776367,5.60484504699707,-5.906536102294922,49.116458892822266,-138.13189697265625, -34.05412673950195
277,4285587524,0.5627168,0.3205045,-0.7607404,0.04360023,19.172805786132812,5.058597564697266,-6.532734394073486,3.666498899459839,-131.93453979492188, 10.336278915405273
278,4285604191,0.5489064,0.31541383,-0.7730932,0.039280158,20.075958251953125,4.398758411407471,-0.7949255108833313,-16.167226791381836,-124.95343780517578, 41.87459182739258
279,4285620858,0.53443676,0.31341738,-0.7840105,0.03840148,25.939424514770508,5.999173641204834,3.275235652923584,15.754205703735352,-116.79669952392578, 35.435401916503906
280,4285637525,0.51561046,0.326467,-0.7903962,0.053282745,29.20591163635254,-1.2890691757202148,19.537639617919922,166.75326538085938,-94.19161987304688, 3.5310966968536377
281,4285654192,0.4938685,0.34787714,-0.7928723,0.080183245,24.88066864013672,-3.1893763542175293,15.349722862243652,269.9054870605469,-73.24569702148438, -7.280728340148926
282,4285670859,0.4604235,0.36752084,-0.8022899,0.096280605,18.05023765563965,16.012269973754883,7.225251197814941,229.2561798095703,-186.29991149902344, -11.478524208068848
283,4285687526,0.43576053,0.3710286,-0.81664544,0.0744391,17.76711654663086,10.48512077331543,18.542022705078125,-56.37242126464844,-239.1019287109375, -35.591426849365234
284,4285704193,0.4155818,0.37907276,-0.8237191,0.07129336,27.765134811401367,-13.330103874206543,30.246017456054688,54.758323669433594,-147.3634033203125, -25.777528762817383
285,4285720860,0.39542103,0.39163977,-0.8247828,0.0999696,20.837987899780273,2.269679307937622,27.978294372558594,250.79296875,-50.4288444519043, 23.52449607849121
286,4285737527,0.39950627,0.38845205,-0.82392687,0.10317145,13.89009952545166,12.889873504638672,28.648422241210938,-0.3785066604614258,33.705055236816406, 21.856576919555664
287,4285754194,0.4224808,0.3784583,-0.8175653,0.09932895,9.082080841064453,5.165340900421143,23.3931941986084,-105.2459716796875,141.2091064453125, 13.159541130065918
288,4285770861,0.45630628,0.36780775,-0.8034634,0.10463643,6.449426651000977,1.4283027648925781,15.440845489501953,-78.55840301513672,248.5712127685547, 15.896112442016602
289,4285787528,0.4994287,0.35567817,-0.7810843,0.118201554,3.9334144592285156,-0.7607292532920837,11.051633834838867,-55.12480926513672,347.7524108886719, 22.353897094726562
290,4285804195,0.54974246,0.34070075,-0.7500487,0.138323,3.348891496658325,-0.8346538543701172,5.976983547210693,-40.285743713378906,434.5416259765625, 33.15537643432617
291,4285820862,0.60477257,0.31892064,-0.7121667,0.15924342,1.92392098903656,1.5537655353546143,-0.23820966482162476,-66.51778411865234,493.3038635253906, 50.75405502319336
292,4285837529,0.66041696,0.28926462,-0.67032176,0.17562509,10.13476848602295,6.163830757141113,-11.102715492248535,-120.49340057373047,511.2244873046875, 64.7446517944336
293,4285854196,0.7115549,0.25218055,-0.6298515,0.18270656,15.914006233215332,15.785226821899414,-27.677356719970703,-190.57861328125,474.9915771484375, 64.74176025390625
294,4285870863,0.75007033,0.22126244,-0.5941847,0.1881016,13.869120597839355,8.000682830810547,-44.98868942260742,-149.61973571777344,387.6451721191406, 50.83095932006836
295,4285887530,0.7700879,0.21530224,-0.56733555,0.19682474,-2.795771598815918,23.582489013671875,-55.6126594543457,9.27019214630127,240.69651794433594, 3.4783976078033447
296,4285904197,0.77758795,0.22209898,-0.55587274,0.19244426,-9.044239044189453,9.376154899597168,-50.57493591308594,19.264484405517578,74.32633972167969, -72.3813705444336
297,4285920864,0.7714451,0.23468105,-0.5625422,0.18260269,-12.622870445251465,10.457086563110352,-69.53992462158203,25.855819702148438,-89.51541900634766, -77.6857681274414
298,4285937531,0.74040765,0.24498013,-0.6038932,0.16460319,19.435192108154297,-23.272550582885742,-68.44652557373047,-21.216856002807617,-378.5210266113281, -24.397035598754883
299,4285954198,0.71494794,0.24270593,-0.6409013,0.13852422,8.751255989074707,-0.6332929134368896,31.359859466552734,-119.875,-329.5783386230469, -30.71704864501953
300,4285970865,0.6907274,0.24209037,-0.67261606,0.10897537,32.180816650390625,-11.409923553466797,-16.943124771118164,-123.7962646484375,-306.7081604003906, -64.99934387207031
301,4285987532,0.665375,0.26675552,-0.688304,0.11115429,-7.452485084533691,-4.021420001983643,-7.185786247253418,156.9432373046875,-201.603515625, -57.54861831665039
302,4286004199,0.6540542,0.2675567,-0.70165515,0.09114096,5.195601940155029,13.044678688049316,-5.565795421600342,-81.29535675048828,-146.9664306640625, -61.250732421875
303,4286020866,0.64063066,0.28390813,-0.7071298,0.094636455,10.400821685791016,1.170565128326416,-5.796069145202637,110.85023498535156,-88.27694702148438, -43.39722442626953
304,4286037533,0.6309538,0.29212677,-0.71246886,0.094590746,9.115978240966797,6.399775981903076,-3.6538500785827637,50.57322692871094,-71.17401123046875, -22.31421661376953
305,4286054200,0.6229565,0.29516488,-0.7182502,0.09444318,13.582633018493652,-0.5251436829566956,-10.111541748046875,23.984760284423828,-61.854042053222656, 2.474576950073242
306,4286070867,0.6143775,0.29863912,-0.7238256,0.09711589,18.376766204833984,10.027427673339844,2.0031492710113525,41.09668731689453,-58.38136291503906, 12.19089126586914
307,4286087534,0.6020249,0.30545992,-0.73089033,0.10029775,22.030773162841797,8.829310417175293,3.305448532104492,64.6489486694336,-85.02830505371094, 3.355289936065674
308,4286104201,0.581688,0.3228168,-0.7386652,0.108638175,22.554962158203125,4.229410648345947,15.008831024169922,150.5996551513672,-124.97422790527344, -21.256589889526367
309,4286120868,0.55452317,0.34475708,-0.7477996,0.12017713,23.94552230834961,-3.4186315536499023,25.000537872314453,199.5067901611328,-162.234130859375, -23.796876907348633
310,4286137535,0.5248901,0.36186117,-0.7593838,0.12993617,20.467361450195312,-3.5361075401306152,23.774621963500977,175.91001892089844,-185.62142944335938, 1.7987269163131714
311,4286154202,0.49697116,0.37095982,-0.7738876,0.12847874,15.250123977661133,7.1383585929870605,16.738651275634766,81.69026184082031,-208.99832153320312, 8.618470191955566
312,4286170869,0.46740848,0.3748841,-0.79230285,0.11509846,11.923785209655762,6.556109428405762,17.597990036010742,1.4798835515975952,-257.7093200683594, 6.966961860656738
313,4286187536,0.4427246,0.37255847,-0.81078225,0.08847308,13.004051208496094,7.3520379066467285,18.721853256225586,-103.21967315673828,-261.2378845214844, -5.163778781890869
314,4286204203,0.42231786,0.37269047,-0.82277834,0.07606269,19.98172378540039,-1.95976984500885,30.54485511779785,-23.264375686645508,-183.41867065429688, 5.258390426635742
315,4286220870,0.41072398,0.3742707,-0.8278416,0.07684789,13.031800270080566,4.092161655426025,31.67945098876953,36.76516342163086,-81.51412963867188, 12.812973976135254
316,4286237537,0.4160326,0.37008554,-0.8268256,0.07945446,9.504922866821289,-2.565199375152588,31.885923385620117,-9.216111183166504,38.59697341918945, 26.24111557006836
317,4286254204,0.4340797,0.36849865,-0.8163989,0.09631404,5.79423713684082,2.126582384109497,25.083423614501953,52.05215072631836,171.90745544433594, 21.278213500976562
318,4286270871,0.46929577,0.36011004,-0.7990236,0.10790722,3.060922622680664,4.409017562866211,20.908668518066406,-36.61241149902344,279.6191101074219, 14.87659740447998
319,4286287538,0.5167954,0.34649408,-0.7734588,0.120938405,2.3987793922424316,0.1040622740983963,11.930553436279297,-69.84801483154297,380.6305847167969, 18.975650787353516
320,4286304205,0.5720607,0.32717282,-0.73991317,0.13503006,1.9031428098678589,0.5941281318664551,2.1765308380126953,-96.41582489013672,457.5174560546875, 27.597745895385742
321,4286320872,0.6290564,0.3020736,-0.70056,0.14918257,2.088587760925293,-1.3305244445800781,-10.513849258422852,-117.46451568603516,494.88616943359375, 42.536781311035156
322,4286337539,0.68308777,0.27041945,-0.65897834,0.16128369,9.084771156311035,6.901211738586426,-23.17993927001953,-148.62933349609375,492.71417236328125, 65.88457489013672
323,4286354206,0.72853357,0.24012399,-0.6184851,0.1704576,13.123496055603027,13.053547859191895,-41.428550720214844,-141.33998107910156,442.5245666503906, 57.45833206176758
324,4286370873,0.7597955,0.22424617,-0.5837469,0.17794424,9.157356262207031,8.327726364135742,-52.25480651855469,-61.81731033325195,334.4831237792969, 15.775988578796387
325,4286387540,0.7730811,0.2295112,-0.56151783,0.1853862,-4.008979320526123,12.739514350891113,-51.874324798583984,59.08915710449219,172.57005310058594, -26.953807830810547
326,4286404207,0.7729478,0.24282758,-0.5549999,0.1885788,-7.31699275970459,-3.0071909427642822,-42.756591796875,85.37720489501953,21.96793556213379, -37.82170486450195
327,4286420874,0.76361686,0.2526118,-0.5635218,0.18846732,-8.35340690612793,-4.519754886627197,-27.78287124633789,49.670257568359375,-92.501708984375, -4.848199367523193
328,4286437541,0.7513701,0.25192198,-0.58498895,0.17252968,-13.689346313476562,7.774678707122803,-45.505245208740234,-78.26341247558594,-184.92662048339844, -20.91151237487793
329,4286454208,0.72408795,0.24916665,-0.62668175,0.14450844,22.5522518157959,-20.12651824951172,-40.4566764831543,-134.5162353515625,-366.9361572265625, -22.27691078186035
330,4286470875,0.7049736,0.25210196,-0.6508845,0.12572347,-1.2919949293136597,6.7764482498168945,11.672755241394043,-58.87348556518555,-231.0504913330078, -44.352474212646484
331,4286487542,0.68761474,0.26151997,-0.66861045,0.108413994,45.42381286621094,-7.365220546722412,2.2698562145233154,-18.23836326599121,-195.5909881591797, -78.6364517211914
332,4286504209,0.6671185,0.28178757,-0.6808465,0.10952936,-2.24548077583313,-8.090553283691406,-4.985596179962158,127.57203674316406,-159.40219116210938, -49.58761978149414
333,4286520876,0.6533171,0.28629944,-0.6942529,0.0960342,6.70346736907959,4.251888751983643,-0.6065543293952942,-26.99541664123535,-149.9634246826172, -45.92135238647461
334,4286537543,0.6382333,0.29679105,-0.7038059,0.09607694,6.847025394439697,3.4867568016052246,-7.156378269195557,69.58743286132812,-116.37973022460938, -20.30059814453125
335,4286554210,0.627222,0.30236515,-0.71136934,0.09550707,8.887335777282715,15.465879440307617,0.5574685335159302,38.05263900756836,-86.00468444824219, -5.938143730163574
336,4286570877,0.61533016,0.30892694,-0.7182161,0.10049214,16.054563522338867,7.442220211029053,0.5278539061546326,71.9177474975586,-76.69243621826172, 12.641385078430176
337,4286587544,0.60214823,0.31783935,-0.72457445,0.10671385,18.435388565063477,2.840726137161255,7.678673267364502,91.17671203613281,-80.4086685180664, 6.1123223304748535
338,4286604211,0.5824305,0.3330383,-0.7320531,0.11814707,19.73557472229004,-2.936950922012329,16.289243698120117,156.7987823486328,-111.52641296386719, 3.4165329933166504
339,4286620878,0.55624974,0.34870648,-0.74342364,0.12771557,18.7054386138916,-3.353377103805542,31.604900360107422,161.1121368408203,-165.29745483398438, 7.391581058502197
340,4286637545,0.5281583,0.36123702,-0.7568805,0.13299799,15.673274993896484,-2.8741750717163086,23.350296020507812,130.1839599609375,-192.0418701171875, 13.456228256225586
341,4286654212,0.49721473,0.37457222,-0.77161103,0.13072734,14.963820457458496,7.4014410972595215,14.562837600708008,99.8478012084961,-232.08599853515625, -12.549327850341797
342,4286670879,0.46585563,0.38000426,-0.79137284,0.11092591,12.252265930175781,6.084167003631592,21.911935806274414,-23.483501434326172,-290.2682189941406, -17.058795928955078
343,4286687546,0.43823743,0.38292328,-0.80840385,0.088324994,13.251948356628418,-0.308952271938324,18.27234649658203,-54.253578186035156,-267.3846435546875, -22.262113571166992
344,4286704213,0.4078495,0.3917798,-0.82047474,0.0835978,16.28643035888672,-2.9566080570220947,28.681564331054688,73.40608978271484,-225.03744506835938, -12.880757331848145
345,4286720880,0.38503364,0.39879698,-0.827937,0.085032396,12.098603248596191,5.588948726654053,29.78072166442871,85.35781860351562,-152.70681762695312, -2.098278045654297
346,4286737547,0.37859648,0.3984913,-0.8314279,0.0812238,10.232647895812988,-0.727154552936554,27.043781280517578,-6.233020782470703,-59.88042068481445, 5.364117622375488
347,4286754214,0.38229176,0.3993769,-0.8284962,0.08913725,7.309804439544678,1.6342424154281616,24.875038146972656,39.78879928588867,45.557029724121094, 5.778408527374268
348,4286770881,0.4021262,0.39545056,-0.8199942,0.09758676,4.925178050994873,3.7182745933532715,20.28534698486328,-10.599478721618652,156.07601928710938, 9.480778694152832
349,4286787548,0.43556583,0.3877639,-0.80481017,0.110465206,2.6820240020751953,0.5501826405525208,13.592316627502441,-28.44075584411621,265.57073974609375, 15.742792129516602
350,4286804215,0.4767953,0.3790803,-0.78211004,0.13140973,1.2585891485214233,2.010160207748413,8.573050498962402,-1.8515405654907227,353.4549865722656, 19.53691291809082
351,4286820882,0.5249411,0.36674753,-0.7526645,0.15306647,1.9376184940338135,3.4532268047332764,2.1526260375976562,-21.95770835876465,418.0858154296875, 17.805540084838867
352,4286837549,0.5800106,0.34745133,-0.71780497,0.1661966,-2.7015652656555176,2.9569854736328125,-5.8435564041137695,-105.23527526855469,458.4800109863281, 12.90412425994873
353,4286854216,0.63594717,0.3234451,-0.6783148,0.1756238,-0.5220533609390259,3.611272096633911,-11.986233711242676,-140.75994873046875,477.9410705566406, 9.113951683044434
354,4286870883,0.69001764,0.2940512,-0.63638985,0.18004948,5.750331878662109,8.1238374710083,-19.40675926208496,-181.92196655273438,475.57830810546875, 8.017193794250488
355,4286887550,0.7360609,0.26507917,-0.59442395,0.18603188,13.155694961547852,-1.0966949462890625,-38.32810974121094,-157.7701416015625,443.7988586425781, 22.052942276000977
356,4286904217,0.76057655,0.26864815,-0.5507603,0.2145101,11.352609634399414,1.1043598651885986,-46.454158782958984,140.16122436523438,365.4465026855469, 25.616798400878906
357,4286920884,0.7730735,0.2745477,-0.523599,0.22983707,-2.857156753540039,10.867130279541016,-44.37688446044922,107.57875061035156,209.84579467773438, -11.66047477722168
358,4286937551,0.7775152,0.2749323,-0.5180431,0.22696695,-5.504276275634766,0.07202383875846863,-42.61588668823242,-4.814408302307129,42.20280838012695, -36.18527603149414
359,4286954218,0.77230954,0.2749014,-0.5307188,0.21518655,-8.81302547454834,0.6163928508758545,-35.22538375854492,-51.69683837890625,-105.18370056152344, -30.69375991821289
360,4286970885,0.7618398,0.269764,-0.5564312,0.19290403,-5.914155006408691,-1.1109511852264404,-26.936359405517578,-129.82826232910156,-206.02442932128906, -32.340824127197266
361,4286987552,0.7435884,0.26528636,-0.5924229,0.1604206,-2.709794759750366,5.7688374519348145,-54.94416809082031,-167.70252990722656,-310.3213195800781, -55.2081413269043
362,4287004219,0.71458596,0.27523267,-0.62870634,0.13543394,16.572021484375,5.66547966003418,0.6619112491607666,-43.14903259277344,-356.18194580078125, -63.36943054199219
363,4287020886,0.6990939,0.26303354,-0.658102,0.09477857,8.254095077514648,-14.056631088256836,-5.18839168548584,-238.0023193359375,-273.2494201660156, -70.31781768798828
364,4287037553,0.67275655,0.28021643,-0.6786954,0.0908302,19.04401969909668,-8.525938034057617,-3.6177773475646973,97.52120208740234,-230.95022583007812, -40.21269607543945
365,4287054220,0.6577449,0.27876243,-0.6960753,0.071709536,12.662740707397461,-3.7261784076690674,-2.9704909324645996,-79.26612854003906,-180.97601318359375, -37.04862594604492
366,4287070887,0.64173216,0.28583062,-0.70870477,0.064947926,16.95839500427246,-4.1306915283203125,-3.0638768672943115,22.732219696044922,-144.9832763671875, -30.695526123046875
367,4287087554,0.62717664,0.2953897,-0.71790767,0.0632704,13.629222869873047,4.6821675300598145,1.2638731002807617,57.18723678588867,-114.09354400634766, -28.076936721801758
368,4287104221,0.61329204,0.30337587,-0.72656566,0.06275659,13.745872497558594,1.6035315990447998,2.852015495300293,55.09711456298828,-105.71214294433594, -16.746423721313477
369,4287120888,0.59787136,0.3120648,-0.7352823,0.06727157,13.670675277709961,3.3479340076446533,6.825216770172119,86.45877838134766,-103.83848571777344, 1.579540729522705
370,4287137555,0.5815524,0.32017055,-0.744086,0.07499198,15.087296485900879,0.11458861827850342,13.976548194885254,102.30549621582031,-102.11759948730469, 18.183900833129883
371,4287154222,0.5645656,0.32816076,-0.7522567,0.087670475,11.506147384643555,-2.3671703338623047,20.842458724975586,129.2003631591797,-92.80752563476562, 37.33282470703125
372,4287170889,0.5424815,0.3419465,-0.7604899,0.10218501,4.417179584503174,3.316958427429199,9.173233985900879,172.86154174804688,-119.72362518310547, 17.46635627746582
373,4287187556,0.514848,0.3506466,-0.7764408,0.09549104,7.17172908782959,15.157942771911621,16.145334243774414,50.71297836303711,-224.27769470214844, -12.97001838684082
374,4287204223,0.4868541,0.35430536,-0.7953423,0.06979667,9.006725311279297,3.2614877223968506,14.120889663696289,-69.39900207519531,-279.8550720214844, -45.64045333862305
375,4287220890,0.45155087,0.3671402,-0.81114113,0.057966582,17.816808700561523,-8.772521018981934,21.97130584716797,56.61146545410156,-280.6654968261719, -53.47260284423828
376,4287237557,0.41102836,0.387488,-0.82220155,0.06995368,18.87240219116211,-7.497224807739258,25.360828399658203,227.94845581054688,-238.9012451171875, -31.630001068115234
377,4287254224,0.37836066,0.40032876,-0.8312935,0.07437103,13.82631778717041,4.400512218475342,30.094709396362305,143.9638671875,-206.4738006591797, -19.793495178222656
378,4287270891,0.35992247,0.40607172,-0.8374718,0.06482871,11.408867835998535,2.5643014907836914,28.898029327392578,8.254860877990723,-153.2755584716797, -30.764972686767578
379,4287287558,0.35071084,0.4124001,-0.8384629,0.062517986,12.393303871154785,-0.0652148425579071,24.13874053955078,28.105310440063477,-68.14669036865234, -34.83248519897461
380,4287304225,0.35293168,0.4177031,-0.8344621,0.068092406,10.65948486328125,0.09122630953788757,22.47271156311035,40.963253021240234,31.969318389892578, -28.991350173950195
381,4287320892,0.36888102,0.41998848,-0.8251735,0.08139505,6.298542022705078,-1.5276646614074707,18.77569580078125,41.16117477416992,146.67689514160156, -14.498239517211914
382,4287337559,0.39810115,0.41883963,-0.8099581,0.100283705,4.2121782302856445,1.262427806854248,13.712926864624023,29.202707290649414,254.80548095703125, -5.325334072113037
383,4287354226,0.43770093,0.4149585,-0.78811234,0.12290787,1.0121694803237915,1.4797314405441284,8.246697425842285,17.26970100402832,343.3547058105469, -5.993807792663574
384,4287370893,0.48324353,0.40996557,-0.75882864,0.15027697,0.7618979215621948,3.580770492553711,2.54463529586792,28.990707397460938,412.5960693359375, -11.754486083984375
385,4287387560,0.5373878,0.39649314,-0.7251018,0.16803323,-3.1152117252349854,5.986994743347168,-4.023398399353027,-69.07447052001953,454.2020263671875, -20.697084426879883
386,4287404227,0.59651494,0.3737508,-0.6878264,0.17713043,-1.123943567276001,3.7934324741363525,-7.745324611663818,-156.13755798339844,479.78326416015625, -21.785215377807617
387,4287420894,0.65616596,0.34428445,-0.6468141,0.18040569,6.1142659187316895,3.223877429962158,-14.783541679382324,-210.5848388671875,490.3885192871094, -18.050416946411133
388,4287437561,0.7093695,0.3109556,-0.6048559,0.18507041,11.110986709594727,-3.137843370437622,-31.51725959777832,-206.28538513183594,474.3499755859375, 10.432565689086914
389,4287454228,0.74093187,0.30196962,-0.56138283,0.21138518,15.836841583251953,-5.455873489379883,-41.09259796142578,50.218502044677734,408.0665588378906, 38.12379455566406
390,4287470895,0.7567529,0.30420342,-0.5282844,0.23601067,5.514814376831055,6.042879104614258,-41.80296325683594,124.15869140625,278.0629577636719, 23.211856842041016
391,4287487562,0.7663029,0.29959884,-0.51590455,0.23845951,-0.6680537462234497,1.6128937005996704,-42.63850402832031,-10.149048805236816,114.19488525390625, -16.062082290649414
392,4287504229,0.7670679,0.29427236,-0.52131397,0.23074287,-6.834242820739746,-4.283023834228516,-38.404693603515625,-61.84504318237305,-29.1871337890625, -15.40744400024414
393,4287520896,0.76281554,0.28441986,-0.5405354,0.21222523,-9.740657806396484,0.3649546802043915,-29.135583877563477,-139.42042541503906,-134.4336700439453, -17.46702766418457
394,4287537563,0.7555265,0.27364308,-0.56355995,0.1915717,-5.199682235717773,-8.350339889526367,-20.989513397216797,-156.36837768554688,-169.44419860839844, -8.671398162841797
395,4287554230,0.7408936,0.2772188,-0.58501434,0.17884292,-12.290332794189453,14.84453010559082,-50.31960678100586,-37.0103645324707,-194.27354431152344, -14.076691627502441
396,4287570897,0.7225517,0.26587653,-0.6240549,0.13335799,14.323113441467285,25.324716567993164,-13.65402603149414,-259.4657897949219,-342.0513916015625, -81.88229370117188
397,4287587564,0.71327007,0.25556046,-0.64527625,0.097741835,4.01570463180542,-23.306550979614258,1.5836633443832397,-208.31979370117188,-194.9418487548828, -82.45558166503906
398,4287604231,0.68467236,0.28817835,-0.659801,0.113312855,37.902923583984375,-6.86491060256958,3.30995512008667,268.1179504394531,-187.08009338378906, -21.324546813964844
399,4287620898,0.6787147,0.26463696,-0.6812853,0.07186208,10.25389575958252,-7.968087196350098,0.6464775800704956,-305.3026123046875,-186.78244018554688, -39.226280212402344
400,4287637565,0.6585104,0.28343013,-0.6932478,0.0737501,14.796037673950195,-13.791265487670898,-3.386812686920166,126.10987854003906,-151.4139862060547, -45.7056884765625
401,4287654232,0.6411893,0.2972044,-0.7038655,0.07155116,8.880346298217773,14.578532218933105,6.287496089935303,78.97164154052734,-137.19720458984375, -44.922828674316406
402,4287670899,0.6262727,0.30212346,-0.7157501,0.06485328,10.372313499450684,-0.933426022529602,1.1618893146514893,12.733682632446289,-136.42213439941406, -20.272680282592773
403,4287687566,0.60996276,0.30883804,-0.7266367,0.06755506,9.469353675842285,5.030773639678955,3.353980541229248,70.14759826660156,-120.5617446899414, 9.766585350036621
404,4287704233,0.59770334,0.30882835,-0.7367395,0.06775379,11.43142032623291,1.087085247039795,8.793266296386719,21.332448959350586,-99.57583618164062, 29.306509017944336
405,4287720900,0.5823752,0.31659254,-0.744474,0.07979306,10.138503074645996,-1.9429166316986084,12.271034240722656,121.03983306884766,-84.40567779541016, 34.84180450439453
406,4287737567,0.56409645,0.32728288,-0.75211906,0.094859034,5.1368865966796875,0.05357414484024048,16.010761260986328,154.8721466064453,-94.79016876220703, 33.178104400634766
407,4287754234,0.5390516,0.3429256,-0.761859,0.10675409,4.118278980255127,8.16065788269043,13.04920482635498,171.69313049316406,-148.94076538085938, 4.273777484893799
408,4287770901,0.5151827,0.3492209,-0.77701396,0.094239585,3.622256278991699,6.466589450836182,18.158756256103516,2.5633485317230225,-214.06173706054688, -25.20680809020996
409,4287787568,0.48857996,0.35639584,-0.7929124,0.07457595,5.352622985839844,-1.0624772310256958,15.642552375793457,-26.26405906677246,-249.68948364257812, -51.591835021972656
410,4287804235,0.46048257,0.367848,-0.80540603,0.06296949,11.93754768371582,-9.376059532165527,17.941837310791016,37.54814529418945,-229.3787078857422, -55.51426315307617
411,4287820902,0.42723805,0.38772917,-0.8132342,0.07605298,14.542092323303223,-8.552054405212402,24.856279373168945,216.06739807128906,-185.01742553710938, -33.856178283691406
412,4287837569,0.39867812,0.40381923,-0.81846553,0.08999962,9.761923789978027,0.45108723640441895,27.37359619140625,198.66098022460938,-147.79342651367188, -19.653696060180664
413,4287854236,0.38446385,0.4116305,-0.82099855,0.0933242,8.058905601501465,0.7448818683624268,23.60364532470703,78.15336608886719,-84.81175231933594, -18.49036407470703
414,4287870903,0.37968382,0.41829532,-0.81907284,0.09994428,9.401237487792969,1.7422081232070923,22.789201736450195,70.01522827148438,-10.318033218383789, -21.930824279785156
415,4287887570,0.3858395,0.4235831,-0.81235266,0.1085741,6.708022117614746,2.6133763790130615,17.646059036254883,49.73173141479492,69.92537689208984, -30.161149978637695
416,4287904237,0.40207088,0.4269041,-0.8009155,0.12093927,4.64272403717041,2.0999248027801514,10.923223495483398,39.69192886352539,150.70025634765625, -30.421581268310547
417,4287920904,0.42722315,0.42722338,-0.7852557,0.1354036,3.873826265335083,2.584232807159424,7.640084743499756,20.363834381103516,220.030517578125, -27.79730796813965
418,4287937571,0.4599201,0.4233333,-0.76602805,0.14987826,2.7588188648223877,2.865386486053467,2.472447395324707,-10.736133575439453,275.17681884765625, -22.442930221557617
419,4287954238,0.49860066,0.4149096,-0.74327904,0.16365813,1.3210461139678955,3.4584248065948486,-2.9249002933502197,-42.523372650146484,320.6216125488281, -17.094615936279297
420,4287970905,0.54237133,0.39998794,-0.71830976,0.17284173,-4.135307312011719,0.6067707538604736,-6.951987266540527,-100.38213348388672,348.7556457519531, -11.650407791137695
421,4287987572,0.58613604,0.38368413,-0.6895124,0.1838581,-4.790348052978516,-1.9327354431152344,-10.844539642333984,-92.02558898925781,370.1658630371094, -8.516725540161133
422,4288004239,0.6296601,0.36433312,-0.6583832,0.19318728,-3.9873602390289307,-0.2598166763782501,-15.639681816101074,-109.95499420166016,377.9347839355469, -3.473391056060791
423,4288020906,0.67204535,0.3374902,-0.6286026,0.19827841,0.8045049905776978,-2.668487071990967,-23.055688858032227,-160.4491729736328,367.06610107421875, 15.454154968261719
424,4288037573,0.70557785,0.31483936,-0.6000917,0.20718658,5.520849227905273,-0.8748309016227722,-32.71778869628906,-106.27942657470703,326.7371520996094, 30.09002685546875
425,4288054240,0.7269802,0.2987091,-0.57950157,0.2155243,2.747598648071289,2.817234516143799,-39.086002349853516,-61.45722961425781,229.12628173828125, 33.38824462890625
426,4288070907,0.7349157,0.29406306,-0.5703519,0.21937351,-3.0751192569732666,6.287542343139648,-39.89998245239258,-11.488836288452148,93.33755493164062, 8.661969184875488
427,4288087574,0.7338195,0.29467878,-0.5739571,0.21271294,-5.966903209686279,1.502307415008545,-33.714569091796875,-27.167728424072266,-34.379878997802734, -25.754608154296875
428,4288104241,0.7251369,0.2967469,-0.5881085,0.20061496,-6.636353015899658,-0.7708574533462524,-24.492040634155273,-42.122657775878906,-129.9334716796875, -25.610088348388672
429,4288120908,0.71399724,0.2928265,-0.609285,0.18229797,-6.255502223968506,-2.3798060417175293,-18.35160255432129,-103.8385009765625,-179.6697998046875, -11.765307426452637
430,4288137575,0.6940235,0.28683844,-0.6429298,0.15065454,-3.7362771034240723,2.749154567718506,-42.40108871459961,-168.34765625,-302.5292663574219, -30.64480209350586
431,4288154242,0.67363435,0.27975702,-0.6750872,0.11050078,10.64311695098877,8.507513999938965,5.836442470550537,-208.0518341064453,-311.6943359375, -69.36039733886719
432,4288170909,0.6585168,0.2752286,-0.69571966,0.08111304,8.200065612792969,-14.327204704284668,-11.511101722717285,-145.2970428466797,-213.661376953125, -61.47876739501953
433,4288187576,0.6380175,0.28984725,-0.7091207,0.07791205,14.314629554748535,5.463613033294678,2.4418985843658447,80.89608001708984,-167.7136993408203, -45.47686767578125
434,4288204243,0.62680954,0.28766856,-0.721678,0.059476502,15.439187049865723,-5.770490646362305,-1.7574796676635742,-85.05901336669922,-140.45895385742188, -37.070350646972656
435,4288220910,0.6110895,0.29603145,-0.731936,0.056613725,18.368976593017578,-4.045962333679199,2.998497724533081,47.56013488769531,-126.74526977539062, -25.199840545654297
436,4288237577,0.5956584,0.30463994,-0.7413234,0.05315496,17.308982849121094,1.295037865638733,2.4879510402679443,45.41828918457031,-123.39936065673828, -31.131319046020508
437,4288254244,0.5784201,0.3159877,-0.74997437,0.0558628,15.246678352355957,-1.159399151802063,8.822484970092773,92.20718383789062,-118.09756469726562, -20.909908294677734
438,4288270911,0.5599352,0.3243125,-0.75992376,0.061724443,14.120223045349121,2.0462398529052734,12.783285140991211,98.78186798095703,-122.2650146484375, 10.273377418518066
439,4288287578,0.5421404,0.3282929,-0.77045363,0.06862149,12.718955993652344,-2.071525812149048,18.022323608398438,85.85032653808594,-117.4143295288086, 37.80685806274414
440,4288304245,0.52458674,0.33195695,-0.77997315,0.07909213,8.277689933776855,-0.7764670252799988,22.14118766784668,103.69281005859375,-104.9570083618164, 50.19963455200195
441,4288320912,0.5025264,0.34032917,-0.7900999,0.085939825,5.225366592407227,7.067160129547119,9.996292114257812,111.35257720947266,-142.98309326171875, 15.594208717346191
442,4288337579,0.47910368,0.34651002,-0.8031371,0.07322204,7.33939790725708,9.276286125183105,14.941120147705078,-0.9319831728935242,-205.3174285888672, -32.39556121826172
443,4288354246,0.45130965,0.3546832,-0.8172084,0.051866733,7.6590962409973145,1.2042086124420166,14.240670204162598,-32.001644134521484,-255.00375366210938, -67.09933471679688
444,4288370913,0.42206183,0.37008643,-0.82644343,0.04348792,15.118769645690918,-10.875109672546387,23.250885009765625,68.74345397949219,-219.57264709472656, -78.79715728759766
445,4288387580,0.3897523,0.39187786,-0.83132094,0.058571227,16.84288787841797,-8.383841514587402,23.9409122467041,229.7751922607422,-167.408203125, -57.44820785522461
446,4288404247,0.3564189,0.41340286,-0.8339333,0.08135802,14.687124252319336,0.692700207233429,23.672998428344727,276.8453369140625,-147.223388671875, -41.04086685180664
447,4288420914,0.33539698,0.42614043,-0.83537763,0.089764416,12.514698028564453,0.7400691509246826,20.86202621459961,138.59559631347656,-110.46926879882812, -35.95611572265625
448,4288437581,0.32179794,0.4367594,-0.8338961,0.10151189,13.185218811035156,1.2387290000915527,18.5238037109375,133.07945251464844,-50.591495513916016, -29.11598014831543
449,4288454248,0.32046163,0.44471905,-0.82892597,0.111405775,8.96451187133789,5.138124465942383,16.27065658569336,82.29861450195312,23.190723419189453, -36.87698745727539
450,4288470915,0.33324435,0.4488273,-0.82033354,0.12064631,4.46963357925415,2.828678846359253,11.079176902770996,29.861236572265625,112.23758697509766, -38.10202407836914
451,4288487582,0.3569441,0.45041704,-0.8071044,0.13527001,1.4876294136047363,5.233530521392822,7.735236167907715,24.704805374145508,203.04270935058594, -34.81822967529297
452,4288504249,0.39298633,0.44627437,-0.79049754,0.14667867,-1.7807295322418213,5.658385276794434,3.9005048274993896,-42.21656799316406,275.26043701171875, -32.70953369140625
453,4288520916,0.43655044,0.43835452,-0.76948905,0.15860625,-3.6605844497680664,3.1840953826904297,-0.8101208209991455,-68.21932983398438,333.66033935546875, -31.772533416748047
454,4288537583,0.4850093,0.42753226,-0.7435383,0.1706847,-8.238519668579102,1.1713770627975464,-4.494427680969238,-85.54830169677734,378.3785400390625, -36.151004791259766
455,4288554250,0.53675324,0.41220978,-0.7137499,0.18038931,-10.074295043945312,-2.9729275703430176,-7.145199298858643,-117.96856689453125,406.7923583984375, -36.190250396728516
456,4288570917,0.5875651,0.39454046,-0.68014467,0.19107175,-7.423131465911865,-3.771599292755127,-10.051027297973633,-114.60386657714844,422.5437927246094, -30.79530906677246
457,4288587584,0.6384417,0.37114498,-0.6443566,0.19861643,-1.4149630069732666,-3.4637184143066406,-14.902911186218262,-149.905029296875,431.2484130859375, -22.799406051635742
458,4288604251,0.6849325,0.34442258,-0.60847497,0.20493676,3.510120153427124,-3.8668556213378906,-26.32090187072754,-158.77879333496094,414.2393493652344, -7.80519962310791
459,4288620918,0.71964955,0.32254952,-0.5752263,0.21721245,10.005441665649414,-7.511988639831543,-34.846004486083984,-85.11048889160156,361.4244384765625, 19.612884521484375
460,4288637585,0.7364814,0.31806213,-0.5480081,0.23689413,4.581447601318359,1.48371422290802,-39.339210510253906,62.01950454711914,252.81117248535156, 26.179763793945312
461,4288654252,0.7441544,0.31835222,-0.53372395,0.24500021,-3.9390430450439453,2.417677879333496,-36.272193908691406,42.652835845947266,121.2860336303711, -8.442144393920898
462,4288670919,0.7435949,0.31846866,-0.5351461,0.24344018,-5.1575398445129395,-4.2213239669799805,-31.314254760742188,-7.028526306152344,-10.3596773147583, -3.543903350830078
463,4288687586,0.7370579,0.31212473,-0.5526364,0.23220082,-6.771129608154297,-4.194389343261719,-24.892045974731445,-89.65115356445312,-124.00240325927734, 15.917284965515137
464,4288704253,0.7253996,0.30534336,-0.5792129,0.2123053,-8.56468391418457,0.9923895597457886,-42.609779357910156,-127.37393188476562,-206.41050720214844, 0.16563963890075684
465,4288720920,0.6985281,0.30086654,-0.62745714,0.16683984,16.099952697753906,7.507658004760742,-28.090248107910156,-220.6775665283203,-432.5683898925781, -64.34395599365234
466,4288737587,0.6804229,0.29338834,-0.6599873,0.12395587,9.475471496582031,-1.268173098564148,14.412528038024902,-225.29173278808594,-310.94366455078125, -78.04825592041016
467,4288754254,0.6560358,0.31019458,-0.6785692,0.113755025,17.370203018188477,0.1939673125743866,-10.96762466430664,62.54933547973633,-229.2403564453125, -59.34806823730469
468,4288770921,0.6383255,0.3151281,-0.6954854,0.097646445,14.948101997375488,-1.7520562410354614,3.7796385288238525,-29.74471664428711,-191.95135498046875, -43.87127685546875
469,4288787588,0.6203145,0.3208543,-0.7104949,0.08636882,19.018795013427734,-7.629037857055664,-3.360863208770752,-1.1332837343215942,-175.5240478515625, -30.500057220458984
470,4288804255,0.6016367,0.32974592,-0.72299314,0.0811306,17.170085906982422,-0.6558820605278015,1.7509223222732544,44.86473846435547,-156.87290954589844, -25.6385498046875
471,4288820922,0.5831837,0.33830965,-0.73439276,0.0781715,16.560571670532227,1.582137107849121,4.544216156005859,55.01846694946289,-146.2534637451172, -17.376667022705078
472,4288837589,0.5631899,0.34744483,-0.7452144,0.0821877,15.739947319030762,-1.7500182390213013,8.956243515014648,96.54264068603516,-136.2703399658203, 7.034061908721924
473,4288854256,0.5438502,0.35443285,-0.7554193,0.08914107,13.121872901916504,0.3358280062675476,14.248336791992188,102.19723510742188,-122.89924621582031, 27.335773468017578
474,4288870923,0.52551055,0.36463913,-0.7614878,0.10494443,11.06376838684082,-4.288827419281006,19.311025619506836,160.46807861328125,-83.36040496826172, 32.8465576171875
475,4288887590,0.4977932,0.37797678,-0.77095735,0.12231326,-0.7746763825416565,7.051162242889404,-1.352784514427185,201.19439697265625,-143.93682861328125, 37.18033981323242
476,4288904257,0.47249848,0.37894946,-0.78915304,0.101883925,5.889273166656494,21.492652893066406,9.948332786560059,-55.11842346191406,-248.81103515625, -5.865140438079834
477,4288920924,0.44603786,0.3813755,-0.80623525,0.074751206,8.02645492553711,-9.019126892089844,9.980890274047852,-82.70026397705078,-270.4591979980469, -37.24658203125
478,4288937591,0.40040433,0.4097811,-0.8138178,0.097244665,12.411134719848633,-9.343674659729004,15.912532806396484,327.3990478515625,-231.343017578125, -44.363929748535156
479,4288954258,0.35701832,0.43458727,-0.8179375,0.12103792,9.925174713134766,4.62818717956543,20.442487716674805,320.71209716796875,-203.83987426757812, -32.07509994506836
480,4288970925,0.32409474,0.45002708,-0.8223914,0.12692857,8.972219467163086,9.105300903320312,25.137617111206055,165.54412841796875,-192.17807006835938, -30.917377471923828
481,4288987592,0.3002301,0.4601329,-0.8269146,0.119800106,9.523055076599121,4.76323938369751,24.337955474853516,52.16999435424805,-177.46957397460938, -37.28010940551758
482,4289004259,0.2814289,0.4693163,-0.8289647,0.11557572,9.313058853149414,0.004802316427230835,20.005023956298828,52.97859191894531,-134.30319213867188, -37.955711364746094
483,4289020926,0.26822823,0.47795546,-0.827966,0.118678994,9.8549165725708,4.801665782928467,19.982540130615234,78.13822174072266,-72.93119049072266, -34.931793212890625
484,4289037593,0.26852918,0.48153165,-0.8257516,0.118969694,7.421202182769775,5.146158695220947,18.050914764404297,9.579707145690918,0.5346857309341431, -26.214181900024414
485,4289054260,0.28209943,0.48043677,-0.82144374,0.1217822,5.375729084014893,6.160916805267334,15.347823143005371,-26.806396484375,91.5001449584961, -12.764800071716309
486,4289070927,0.30886877,0.47614297,-0.8131288,0.12926534,2.6782026290893555,3.5247106552124023,11.84679126739502,-46.76298522949219,191.6492462158203, -9.8617582321167
487,4289087594,0.34282616,0.47318834,-0.7981015,0.14695989,-0.03685086965560913,3.836012363433838,8.407646179199219,-4.340702056884766,278.23052978515625, -23.95662498474121
488,4289104261,0.38318267,0.47080094,-0.7762172,0.17030779,-1.9027131795883179,2.351092576980591,5.198957920074463,14.17054557800293,347.3906555175781, -42.37840270996094
489,4289120928,0.43014476,0.46585673,-0.7489598,0.19238633,-2.70485258102417,1.5887845754623413,1.2932488918304443,-14.454736709594727,395.8634033203125, -57.08036804199219
490,4289137595,0.48586518,0.4514214,-0.7206409,0.2020655,-5.252077102661133,0.3573343753814697,-2.147149085998535,-133.1582489013672,417.2033386230469, -59.83460998535156
491,4289154262,0.5499928,0.422257,-0.6934818,0.19567895,-1.8555134534835815,3.255605936050415,-5.139120101928711,-289.94378662109375,425.99627685546875, -48.75331115722656
492,4289170929,0.6188658,0.3762245,-0.665409,0.18080679,3.515559434890747,-1.7988183498382568,-13.403966903686523,-407.0953063964844,450.6118469238281, -9.636921882629395
493,4289187596,0.6755444,0.33668047,-0.62915564,0.18560632,13.440848350524902,-9.173340797424316,-24.59834098815918,-247.67776489257812,472.8825378417969, 38.156959533691406
494,4289204263,0.7098278,0.32312238,-0.5858334,0.22030857,18.380138397216797,-3.9235339164733887,-36.534950256347656,62.04787063598633,445.1768798828125, 78.80782318115234
495,4289220930,0.72958136,0.3180071,-0.5517116,0.24939361,2.6405515670776367,16.30980110168457,-42.0165901184082,103.53848266601562,319.0890808105469, 52.7578239440918
496,4289237597,0.74340636,0.31165951,-0.53570926,0.2514583,-2.824249505996704,2.02146577835083,-42.527000427246094,-22.02081298828125,150.3412628173828, -29.337093353271484
497,4289254264,0.74432904,0.309626,-0.537758,0.24682467,-7.589958190917969,-1.1819878816604614,-39.97671127319336,-28.65574073791504,-9.886199951171875, -18.001617431640625
498,4289270931,0.7357348,0.30696115,-0.5581996,0.22996199,-7.355135917663574,-1.3196966648101807,-32.8808708190918,-89.8235855102539,-163.27694702148438, -21.377256393432617
499,4289287598,0.7187222,0.30784616,-0.58872426,0.20511717,-5.158847332000732,-1.8583121299743652,-34.943180084228516,-104.4823989868164,-269.2800598144531, -36.39921188354492
500,4289304265,0.68852395,0.31422746,-0.63034075,0.17281948,11.369516372680664,-4.555410385131836,-11.73169231414795,-98.05422973632812,-401.5012512207031, -48.909969329833984
501,4289320932,0.6656533,0.31764278,-0.6614614,0.13593347,11.675183296203613,6.414069652557373,0.20927932858467102,-135.8515167236328,-327.0782165527344, -86.80976867675781
502,4289337599,0.6442163,0.32272327,-0.6846195,0.11014307,12.01958179473877,-11.857803344726562,-8.6116304397583,-72.4124526977539,-261.57940673828125, -62.84080123901367
503,4289354266,0.6225993,0.3346085,-0.7003624,0.09949879,9.979351043701172,4.713832855224609,-2.6616907119750977,37.18329620361328,-199.02459716796875, -50.096351623535156
504,4289370933,0.6090205,0.33457983,-0.71451116,0.08139051,13.27304458618164,-2.989553213119507,-2.1317315101623535,-67.1349105834961,-162.6959991455078, -33.76554870605469
505,4289387600,0.59242773,0.34291252,-0.7248478,0.07769334,15.138981819152832,1.2643847465515137,-1.613389253616333,47.79280090332031,-133.31076049804688, -21.698944091796875
506,4289404267,0.57837677,0.34799734,-0.73412406,0.07375708,15.028270721435547,0.8156629204750061,1.9158837795257568,28.008331298828125,-115.41914367675781, -10.463452339172363
507,4289420934,0.56286526,0.35487536,-0.7425383,0.076703675,16.68779754638672,-0.811198890209198,2.9973068237304688,73.9144058227539,-104.18230438232422, 6.38157320022583
508,4289437601,0.5466712,0.36215466,-0.7504689,0.08240755,15.670933723449707,1.2127553224563599,8.372152328491211,91.57023620605469,-99.70819854736328, 13.966691017150879
509,4289454268,0.52801716,0.37066478,-0.75835955,0.093255274,14.655537605285645,-5.052209854125977,14.627652168273926,129.03990173339844,-100.71525573730469, 28.058425903320312
510,4289470935,0.50633043,0.37981415,-0.7661689,0.11115788,10.922640800476074,-3.075437068939209,22.69537925720215,176.08029174804688,-99.41644287109375, 51.78852462768555
511,4289487602,0.48212883,0.39087376,-0.77368826,0.1271851,0.4483829736709595,5.484450817108154,9.20496940612793,179.80520629882812,-118.93672180175781, 36.17097091674805
512,4289504269,0.45640573,0.39121595,-0.7917727,0.108351,4.282265663146973,22.068113327026367,11.17288875579834,-46.2564697265625,-246.7158660888672, 7.435245990753174
513,4289520936,0.43663797,0.38306594,-0.8117084,0.061133455,8.34030532836914,-1.684098243713379,10.518450736999512,-244.66366577148438,-290.64276123046875, -34.52668380737305
514,4289537603,0.4036543,0.39432034,-0.8239972,0.05102287,13.851655960083008,-14.986117362976074,19.577280044555664,58.89092254638672,-252.2322540283203, -46.110599517822266
515,4289554270,0.36570907,0.41100928,-0.83257383,0.06441398,12.204642295837402,-5.087115287780762,19.70240592956543,221.8866424560547,-209.03500366210938, -20.309589385986328
516,4289570937,0.33222023,0.4234668,-0.8390839,0.079020776,12.037303924560547,-1.9522595405578613,24.550579071044922,206.55050659179688,-173.73208618164062, -0.8906669616699219
517,4289587604,0.30830088,0.43250877,-0.84247446,0.09013038,8.431539535522461,0.6351569890975952,26.094890594482422,152.45895385742188,-120.49847412109375, -3.417240619659424
518,4289604271,0.29395548,0.44018343,-0.84233797,0.10146753,7.840170860290527,2.9280693531036377,22.869098663330078,124.69448852539062,-56.71955108642578, -11.32909870147705
519,4289620938,0.2917334,0.4455292,-0.8391443,0.1105994,7.552108287811279,4.661923885345459,21.816720962524414,72.78390502929688,14.062400817871094, -19.876646041870117
520,4289637605,0.30332717,0.44773117,-0.8327656,0.11845355,5.259636878967285,3.0218186378479004,18.813596725463867,19.361099243164062,98.13847351074219, -24.44609260559082
521,4289654272,0.32660544,0.4478107,-0.82216334,0.129777,4.664429187774658,5.207789421081543,13.701669692993164,2.3838212490081787,185.91897583007812, -27.504425048828125
522,4289670939,0.36167854,0.4430821,-0.8077535,0.14283416,4.030268669128418,6.0105791091918945,9.149967193603516,-31.425065994262695,270.5863952636719, -18.5875244140625
523,4289687606,0.40517074,0.4351796,-0.788094,0.15925956,2.497519016265869,4.025653839111328,2.983602285385132,-41.03106689453125,343.7309265136719, -16.748859405517578
524,4289704273,0.4520708,0.42786476,-0.76103634,0.18272316,2.0328266620635986,5.654333591461182,-2.130000591278076,-3.3210630416870117,403.3849792480469, -26.091320037841797
525,4289720940,0.50411856,0.41676432,-0.72888404,0.20223798,-1.0976741313934326,5.670921325683594,-5.802340030670166,-44.52932357788086,439.59130859375, -39.877593994140625
526,4289737607,0.5592524,0.40161565,-0.69252807,0.21528284,0.43541643023490906,5.704784393310547,-9.463385581970215,-94.06893920898438,457.14703369140625, -58.2752571105957
527,4289754274,0.6154693,0.37856787,-0.65509754,0.22075155,2.6763806343078613,2.6189727783203125,-16.74311065673828,-162.0641632080078,457.6908874511719, -54.34172821044922
528,4289770941,0.66854197,0.34642223,-0.61941147,0.22220021,9.409575462341309,-4.117591857910156,-27.80695915222168,-211.6232452392578,440.5539855957031, -25.00087547302246
529,4289787608,0.7045394,0.32598433,-0.58285636,0.24007724,11.682916641235352,-6.822065830230713,-36.2121467590332,-46.24527359008789,393.8973693847656, 26.071950912475586
530,4289804275,0.7239962,0.31762758,-0.55322295,0.2624624,4.907068729400635,4.010047435760498,-38.674949645996094,58.27143859863281,285.9007873535156, 39.30812072753906
531,4289820942,0.7345269,0.31379113,-0.53695107,0.27145764,-0.8537737727165222,-1.4106898307800293,-39.5976448059082,25.753068923950195,149.3245391845703, 0.4619559645652771
532,4289837609,0.73571885,0.31251314,-0.5368736,0.2698519,-4.911931037902832,-4.148915767669678,-37.20818328857422,-10.674934387207031,6.67952299118042, -10.050610542297363
533,4289854276,0.7293053,0.30815873,-0.55428505,0.2567495,-4.972761154174805,-6.376333236694336,-29.133506774902344,-89.70429992675781,-128.5987548828125, 0.06445354968309402
534,4289870943,0.71742094,0.3007427,-0.58272487,0.2351445,-3.825690507888794,-9.138916969299316,-21.59786033630371,-142.9793701171875,-215.97267150878906, -0.9406440854072571
535,4289887610,0.6933147,0.30472255,-0.6184981,0.20956974,-9.212474822998047,7.468835353851318,-35.94825744628906,-93.62832641601562,-328.5603942871094, -25.395523071289062
536,4289904277,0.6698621,0.2971013,-0.66007376,0.16528301,20.34613800048828,5.5246500968933105,-4.379687786102295,-240.03773498535156,-376.1477966308594, -50.15286636352539
537,4289920944,0.6526355,0.29244754,-0.6880736,0.1228673,10.588750839233398,7.229000568389893,7.127917766571045,-214.01513671875,-285.03076171875, -90.32083129882812
538,4289937611,0.62333685,0.31563625,-0.70473313,0.1231912,19.8675537109375,-13.636602401733398,-7.523228645324707,149.40975952148438,-227.4693145751953, -47.88801956176758
539,4289954278,0.6024172,0.32169333,-0.72252333,0.1075504,5.986759662628174,3.676119565963745,1.050642967224121,-21.921524047851562,-213.62240600585938, -33.10261154174805
540,4289970945,0.58729774,0.31830397,-0.73935705,0.08435133,14.192692756652832,-9.507752418518066,-7.039339065551758,-109.30529022216797,-189.12930297851562, -28.995525360107422
541,4289987612,0.56716305,0.3321821,-0.74845225,0.08832059,10.835996627807617,6.621777534484863,0.8686071038246155,114.00253295898438,-134.0253448486328, -21.326519012451172
542,4290004279,0.5527809,0.3369435,-0.7573985,0.08514675,12.059365272521973,5.1862568855285645,0.4425434470176697,28.719770431518555,-114.88162231445312, -6.135390758514404
543,4290020946,0.53894633,0.34127164,-0.76524067,0.086472355,13.211012840270996,1.1597880125045776,2.4251811504364014,49.972965240478516,-97.44110870361328, 10.307839393615723
544,4290037613,0.52271616,0.34972292,-0.77145004,0.09657366,13.18565559387207,2.5980961322784424,10.140564918518066,118.10789489746094,-86.2164535522461, 18.569753646850586
545,4290054280,0.50571233,0.35643,-0.77840364,0.10630398,11.988924980163574,0.3989867568016052,16.254684448242188,111.37162017822266,-93.31047821044922, 28.636152267456055
546,4290070947,0.4853687,0.3651253,-0.78531843,0.11990047,8.248395919799805,-1.8127840757369995,18.988197326660156,147.33290100097656,-103.77134704589844, 33.615440368652344
547,4290087614,0.4573512,0.3774717,-0.7943498,0.1317328,6.221068859100342,7.500699043273926,10.770294189453125,167.6269073486328,-160.4703826904297, 19.499786376953125
548,4290104281,0.43017095,0.3843899,-0.80821675,0.11825114,6.8626837730407715,12.813350677490234,21.38812255859375,5.842653274536133,-232.34263610839844, -18.603137969970703
549,4290120948,0.40450457,0.38733733,-0.82389385,0.08686131,7.532723903656006,-1.869782567024231,14.572220802307129,-110.7022705078125,-274.1670837402344, -45.83206558227539
550,4290137615,0.3745665,0.3969373,-0.834966,0.07051728,14.795278549194336,-5.479768753051758,21.042282104492188,7.249989032745361,-249.96304321289062, -51.500450134277344
551,4290154282,0.3432314,0.4099036,-0.84240156,0.06731288,13.009446144104004,-2.8286924362182617,23.767845153808594,96.99785614013672,-215.1960906982422, -46.41437530517578
552,4290170949,0.31671956,0.42263877,-0.84647334,0.06744393,10.222148895263672,0.26053422689437866,25.169523239135742,103.82449340820312,-170.591064453125, -48.99699783325195
553,4290187616,0.29776415,0.4352949,-0.84637,0.07424892,9.880194664001465,-4.2228827476501465,23.137828826904297,122.6073226928711,-98.77545166015625, -49.61909103393555
554,4290204283,0.28407407,0.44890913,-0.8420191,0.093736775,10.018507957458496,1.2386304140090942,21.953876495361328,184.86512756347656,-22.562477111816406, -44.57762908935547
555,4290220950,0.2835101,0.4589904,-0.8347278,0.11036008,9.05615234375,4.516423225402832,20.458620071411133,122.8875732421875,52.07081985473633, -47.08106994628906
556,4290237617,0.2973024,0.4638746,-0.82523143,0.12419638,6.706786632537842,2.946014642715454,15.260478019714355,53.29013442993164,133.4521026611328, -40.36380386352539
557,4290254284,0.32353854,0.4648569,-0.81230336,0.13926382,5.701281547546387,4.081133842468262,11.631246566772461,15.638592720031738,218.07066345214844, -37.162986755371094
558,4290270951,0.3615831,0.461088,-0.7956558,0.15358227,4.176194190979004,4.6667914390563965,6.72620964050293,-33.229488372802734,294.3128662109375, -35.392581939697266
559,4290287618,0.4078454,0.45370573,-0.77391434,0.16991217,2.849517345428467,1.6687135696411133,1.1366355419158936,-51.85589599609375,362.15032958984375, -35.369754791259766
560,4290304285,0.45706508,0.44542384,-0.74572617,0.19126381,0.9289883971214294,2.966489315032959,-3.683056592941284,-29.380359649658203,412.88037109375, -40.01363754272461
561,4290320952,0.5138647,0.42703798,-0.71597856,0.20237751,-4.38553524017334,-0.5300417542457581,-7.183436393737793,-134.9421844482422,438.9291687011719, -35.0957145690918
562,4290337619,0.5710266,0.4031561,-0.6828203,0.21248622,-0.12020975351333618,-3.316685914993286,-12.024930000305176,-155.79080200195312,457.95703125, -22.19822883605957
563,4290354286,0.6278736,0.3719308,-0.64788705,0.21836866,6.047729015350342,-0.23663610219955444,-20.233078002929688,-201.2142791748047,463.0301208496094, -8.950140953063965
564,4290370953,0.6798551,0.3343048,-0.61446863,0.22014907,11.438375473022461,-3.931692123413086,-33.604469299316406,-237.16514587402344,434.6410217285156, 12.886244773864746
565,4290387620,0.7107446,0.31356198,-0.58362746,0.23643199,9.735034942626953,-3.655078649520874,-44.452392578125,-52.38619613647461,342.2499084472656, 46.934085845947266
566,4290404287,0.7239021,0.30754548,-0.56358916,0.2524855,0.32056528329849243,3.761892318725586,-45.4652099609375,40.70498275756836,195.6427001953125, 36.647098541259766
567,4290420954,0.72517216,0.31227592,-0.55669695,0.25825945,-5.668865203857422,-0.5854406952857971,-39.8721923828125,58.32139587402344,45.5255012512207, -9.855319023132324
568,4290437621,0.7166193,0.31695274,-0.5670856,0.25379434,-4.630437850952148,-6.58701753616333,-33.889400482177734,8.883147239685059,-98.967529296875, -6.018900394439697
569,4290454288,0.7012419,0.31686875,-0.5929132,0.2372935,-4.3351545333862305,-4.675201416015625,-23.98908233642578,-75.45513916015625,-218.8882293701172, 0.6976616382598877
570,4290470955,0.67853653,0.31608862,-0.63157755,0.20195611,-9.664253234863281,9.37082290649414,-42.46143341064453,-164.6517791748047,-351.06402587890625, -41.40079116821289
571,4290487622,0.6499562,0.3084,-0.6769694,0.15543143,24.816749572753906,-10.436553955078125,-10.288247108459473,-243.0714874267578,-422.45556640625, -37.720611572265625
572,4290504289,0.6292386,0.30554914,-0.7052377,0.11549231,3.8174049854278564,7.105748653411865,4.598262310028076,-188.01551818847656,-300.4107360839844, -76.31591796875
573,4290520956,0.60624003,0.3173674,-0.7221755,0.10106373,11.826260566711426,3.960200309753418,-5.645927906036377,14.886344909667969,-219.26885986328125, -63.87153625488281
574,4290537623,0.5876573,0.327319,-0.73421055,0.09195777,9.064298629760742,3.836448907852173,-1.8681689500808716,27.310710906982422,-164.0582275390625, -46.17253875732422
575,4290554290,0.5729346,0.3317424,-0.7449095,0.08247961,17.009723663330078,-3.8107752799987793,-2.7202601432800293,-4.705348014831543,-136.70278930664062, -25.21580696105957
576,4290570957,0.5574473,0.33842778,-0.7539774,0.07897623,18.039894104003906,-1.6354689598083496,-0.5738180875778198,37.509117126464844,-122.11936950683594, -16.739763259887695
577,4290587624,0.5412256,0.3468987,-0.76193976,0.078640044,18.487682342529297,-0.8385897874832153,2.5644314289093018,63.13280487060547,-115.63381958007812, -16.235015869140625
578,4290604291,0.522373,0.35695025,-0.76994777,0.08302797,17.321269989013672,-1.581390142440796,8.149648666381836,100.09129333496094,-119.6199722290039, -5.630731105804443
579,4290620958,0.5015963,0.3661814,-0.77865714,0.08947402,15.057848930358887,-0.6076762676239014,13.72604751586914,112.46932983398438,-127.40444946289062, 8.677962303161621
580,4290637625,0.479591,0.3733461,-0.7879481,0.09870779,12.851531982421875,-3.7539074420928955,19.697998046875,123.14205932617188,-128.4188690185547, 31.371490478515625
581,4290654292,0.45850793,0.3803138,-0.79533494,0.11213645,5.542400360107422,-2.6549482345581055,13.881299018859863,144.27029418945312,-107.09022521972656, 40.541255950927734
582,4290670959,0.43111044,0.38550255,-0.8083871,0.10973684,0.4905107021331787,15.49313735961914,5.83607292175293,64.30667877197266,-200.04647827148438, 19.951549530029297
583,4290687626,0.41399407,0.3766873,-0.8259535,0.067207515,5.662656307220459,4.786032676696777,11.610572814941406,-230.83526611328125,-252.3453369140625, -16.719606399536133
584,4290704293,0.38653502,0.3844879,-0.8363649,0.057042014,10.954950332641602,-17.424840927124023,16.46196746826172,30.54365348815918,-214.93731689453125, -32.686500549316406
585,4290720960,0.34948033,0.4029122,-0.842157,0.079354435,12.370915412902832,-4.806425094604492,22.432388305664062,272.7056579589844,-176.8436279296875, -16.21708869934082
586,4290737627,0.31988353,0.4151973,-0.8467537,0.091070764,9.0399751663208,1.8796279430389404,25.096773147583008,176.5690460205078,-157.55780029296875, -13.564738273620605
587,4290754294,0.29748246,0.42546302,-0.8492273,0.0964287,9.272462844848633,0.7778650522232056,23.453699111938477,115.99040985107422,-128.5849151611328, -26.291597366333008
588,4290770961,0.27873787,0.43763274,-0.8482314,0.10623909,11.6651029586792,2.5492429733276367,21.42664909362793,137.58828735351562,-89.01126861572266, -40.79902267456055
589,4290787628,0.27029595,0.4465045,-0.8455746,0.11214987,11.548608779907227,3.818554639816284,17.629018783569336,78.8599624633789,-35.68186569213867, -41.448875427246094
590,4290804295,0.27123028,0.45309746,-0.8404616,0.12149567,10.677717208862305,3.5732614994049072,15.237641334533691,67.84236145019531,35.18513107299805, -36.474185943603516
591,4290820962,0.2838917,0.45544466,-0.8336445,0.13043164,8.700892448425293,5.937806129455566,11.527170181274414,22.564863204956055,107.97979736328125, -27.71037483215332
592,4290837629,0.30898222,0.45252913,-0.8249401,0.13864183,5.7222747802734375,2.8040337562561035,6.94614839553833,-28.984867095947266,185.07315063476562, -15.935620307922363
593,4290854296,0.34033778,0.4485268,-0.81185806,0.1545326,2.919214963912964,4.1681036949157715,3.8634889125823975,-3.0100290775299072,254.759033203125, -13.002208709716797
594,4290870963,0.37699434,0.44491142,-0.7930925,0.1758795,-0.38938695192337036,4.133174419403076,0.29443931579589844,18.081100463867188,314.1339416503906, -25.44972801208496
595,4290887630,0.41660175,0.44281837,-0.7677078,0.20243444,-5.157342433929443,3.450528144836426,-3.4341535568237305,49.431339263916016,361.7132568359375, -43.92445755004883
596,4290904297,0.4621191,0.43679005,-0.7391365,0.22212113,-11.884563446044922,1.7619251012802124,-5.664226055145264,-11.706320762634277,387.0008544921875, -60.63944625854492
597,4290920964,0.5144598,0.4210755,-0.71109784,0.22883728,-9.8944673538208,-0.916918933391571,-8.664898872375488,-129.844482421875,396.3601989746094, -61.45432662963867
598,4290937631,0.5724813,0.39280805,-0.68409085,0.22357726,-5.507495880126953,-3.2846662998199463,-14.495478630065918,-251.09034729003906,406.1386413574219, -48.542667388916016
599,4290954298,0.6282835,0.35563752,-0.6571512,0.21664335,1.992073893547058,-4.2954630851745605,-23.3968505859375,-288.2957458496094,405.2122802734375, -9.852333068847656
600,4290970965,0.6697954,0.32607424,-0.6285852,0.22345103,10.731926918029785,-7.755856513977051,-35.131168365478516,-157.80169677734375,370.29107666015625, 36.120643615722656
601,4290987632,0.6903127,0.31655106,-0.60181195,0.24715677,7.394078731536865,-2.520390510559082,-42.434906005859375,52.189449310302734,279.5362854003906, 61.91313171386719
602,4291004299,0.6971235,0.318734,-0.5858081,0.2631659,-2.2362494468688965,4.9534149169921875,-38.28581237792969,90.21793365478516,136.78709411621094, 18.987445831298828
603,4291020966,0.696386,0.3200326,-0.58681744,0.26128766,-2.628681182861328,-4.153871059417725,-34.08369827270508,0.7326584458351135,-11.499754905700684, -13.811956405639648
604,4291037633,0.68641144,0.31890312,-0.60425794,0.24902298,-4.555144309997559,-4.3214430809021,-28.317684173583984,-63.39542007446289,-144.9947509765625, 0.6296862363815308
605,4291054300,0.66403,0.31633627,-0.64318836,0.2128477,-7.536970138549805,8.010526657104492,-49.32017135620117,-181.99122619628906,-347.656982421875, -33.618900299072266
606,4291070967,0.63291746,0.3210338,-0.68148583,0.1786895,24.218154907226562,-11.041746139526367,-4.093489646911621,-121.9404067993164,-388.93975830078125, -40.27489471435547
607,4291087634,0.6135997,0.3205444,-0.70819587,0.1385838,9.045608520507812,11.61904239654541,9.25071907043457,-183.34959411621094,-290.2613220214844, -82.36612701416016
608,4291104301,0.5873397,0.33884126,-0.72391516,0.12714389,14.917856216430664,-0.8024677634239197,-4.366320610046387,62.07883834838867,-232.84054565429688, -70.98136138916016
609,4291120968,0.5632936,0.3555771,-0.73571795,0.12241138,5.655986785888672,1.4285227060317993,-3.564232587814331,88.65890502929688,-188.06915283203125, -52.30888748168945
610,4291137635,0.54754376,0.3574023,-0.7493789,0.104359426,10.647662162780762,-0.5483691692352295,-2.5050015449523926,-58.329952239990234,-173.4126434326172, -30.90242576599121
611,4291154302,0.5293825,0.366139,-0.7586127,0.10101147,13.832401275634766,-1.1566359996795654,-2.8959755897521973,52.58612060546875,-138.2034912109375, -20.348220825195312
612,4291170969,0.5138491,0.37239346,-0.7664964,0.09882195,13.10170841217041,4.325272083282471,-0.2779308557510376,43.94294738769531,-115.18746948242188, -8.544804573059082
613,4291187636,0.4997476,0.37626657,-0.77379614,0.099575765,13.61378002166748,-1.138968825340271,1.6730842590332031,47.859169006347656,-96.74038696289062, 11.884421348571777
614,4291204303,0.4843078,0.3792943,-0.7814648,0.10437719,15.259102821350098,2.77144718170166,6.236706733703613,69.77918243408203,-94.46446990966797, 32.008995056152344
615,4291220970,0.4684378,0.38377577,-0.7876965,0.11321133,13.771313667297363,-1.2533814907073975,15.44569206237793,98.57337188720703,-83.0565185546875, 34.07093811035156
616,4291237637,0.44883484,0.38892984,-0.7945476,0.1263929,10.335403442382812,-0.3828991651535034,21.365724563598633,133.78953552246094,-95.09212493896484, 48.79717254638672
617,4291254304,0.4264621,0.39478177,-0.8025712,0.13474838,4.1259446144104,4.515183448791504,13.874964714050293,116.09309387207031,-128.20655822753906, 35.52159118652344
618,4291270971,0.40026233,0.40176216,-0.81400406,0.12559888,6.452792167663574,13.321452140808105,15.64435863494873,30.13341522216797,-208.39401245117188, -9.206428527832031
619,4291287638,0.37541124,0.40397596,-0.82895815,0.093264304,7.512852668762207,0.15396760404109955,13.291974067687988,-119.35600280761719,-271.08697509765625, -37.634010314941406
620,4291304305,0.34406283,0.4129779,-0.83991045,0.07497033,12.716650009155273,-8.167634963989258,18.842266082763672,-1.0970901250839233,-263.6197509765625, -47.0921745300293
621,4291320972,0.31278497,0.42550263,-0.8462157,0.07093842,12.936567306518555,-4.814411163330078,24.888629913330078,91.8111801147461,-214.22793579101562, -47.095916748046875
622,4291337639,0.28394148,0.43833575,-0.8495032,0.074723065,10.909725189208984,-0.9355421662330627,23.99365997314453,132.37014770507812,-171.65199279785156, -42.168785095214844
623,4291354306,0.2636918,0.44934654,-0.84982204,0.0797314,9.755029678344727,-2.0933778285980225,22.917734146118164,111.68112182617188,-111.70547485351562, -42.47034454345703
624,4291370973,0.24885038,0.45975062,-0.84717226,0.09488031,9.889232635498047,-0.09912171959877014,19.20722770690918,154.8373260498047,-43.64171600341797, -32.609561920166016
625,4291387640,0.24279948,0.4679018,-0.8423184,0.11232098,9.261494636535645,4.466259956359863,17.377431869506836,138.06942749023438,19.560476303100586, -28.126789093017578
626,4291404307,0.24904369,0.47190565,-0.8360886,0.12742935,7.024330139160156,2.8672726154327393,13.419185638427734,79.27567291259766,88.33883666992188, -21.74258041381836
627,4291420974,0.2639315,0.47328866,-0.82750094,0.1469025,5.981814384460449,4.735960483551025,9.102943420410156,73.9769058227539,158.256591796875, -14.276324272155762
628,4291437641,0.29191577,0.46943405,-0.817603,0.16106604,4.936549186706543,7.6406331062316895,5.947575092315674,-6.977627277374268,223.00160217285156, -11.469707489013672
629,4291454308,0.33102342,0.46141008,-0.80511475,0.17121589,2.3763184547424316,6.460566997528076,3.271165609359741,-70.89249420166016,282.3269348144531, -16.680761337280273
630,4291470975,0.37738976,0.45156732,-0.7876811,0.18227038,0.9435503482818604,5.844122886657715,0.11669492721557617,-87.21521759033203,338.8450927734375, -28.760154724121094
631,4291487642,0.42917314,0.44044232,-0.7643247,0.19398217,-3.160069704055786,3.750746250152588,-4.218501091003418,-96.38343048095703,387.3887634277344, -45.27414321899414
632,4291504309,0.4836563,0.42741418,-0.7355272,0.20589712,-8.295645713806152,-0.3112892508506775,-6.961886405944824,-101.89899444580078,421.16741943359375, -54.75800323486328
633,4291520976,0.5394807,0.40942505,-0.7035744,0.21520875,-5.997894287109375,-4.769864559173584,-12.07133674621582,-131.1606903076172,438.3395080566406, -49.55947494506836
634,4291537643,0.59523195,0.38410705,-0.6700037,0.22193642,0.911271870136261,-5.005975723266602,-18.288986206054688,-168.42791748046875,448.17181396484375, -28.28271484375
635,4291554310,0.64466876,0.35630912,-0.63551027,0.23145798,10.238471031188965,-5.8652729988098145,-29.642057418823242,-147.76026916503906,434.673583984375, 1.6273785829544067
636,4291570977,0.67786324,0.33622357,-0.60471934,0.24853553,8.54248332977295,-0.5526809692382812,-43.31809616088867,-45.63265609741211,354.43310546875, 34.110496520996094
637,4291587644,0.6930967,0.32979017,-0.5842487,0.26364535,4.099532127380371,-1.2528494596481323,-45.08638381958008,35.10068130493164,205.19139099121094, 20.57245445251465
638,4291604311,0.69289845,0.34029877,-0.5719647,0.27738997,-3.740345001220703,-3.100900650024414,-39.43265151977539,131.1826629638672,71.79206085205078, -8.453742980957031
639,4291620978,0.6834606,0.34819221,-0.5794745,0.2754146,-4.472095012664795,-5.513008117675781,-34.61051559448242,36.88832092285156,-89.31375885009766, -4.20419454574585
640,4291637645,0.66832125,0.34795833,-0.60549146,0.25622645,-4.216987609863281,-2.6343789100646973,-24.969926834106445,-91.46620178222656,-223.78941345214844, 2.335789918899536
641,4291654312,0.64549536,0.34870374,-0.64141506,0.22433934,-5.309326648712158,4.798746109008789,-31.65787696838379,-139.07862854003906,-332.81561279296875, -22.697233200073242
642,4291670979,0.6233567,0.3339611,-0.68684655,0.16774592,18.11713218688965,2.6880810260772705,1.4678246974945068,-335.8724060058594,-407.1647644042969, -36.15852737426758
643,4291687646,0.6024154,0.3299028,-0.7169113,0.11957607,7.386143684387207,4.0469536781311035,-1.6733567714691162,-234.67027282714844,-329.4478454589844, -85.94805908203125
644,4291704313,0.57425016,0.3454,-0.7343389,0.10808376,10.42976188659668,-4.228288650512695,-7.1948065757751465,55.96242904663086,-244.59478759765625, -59.270320892333984
645,4291720980,0.5503566,0.35735807,-0.7481005,0.098734505,14.62166690826416,0.7612771391868591,-1.7136211395263672,45.36317825317383,-200.87185668945312, -44.97105026245117
646,4291737647,0.5361292,0.35481682,-0.7621687,0.07595814,13.90633487701416,-7.146481990814209,-5.736506462097168,-102.49163055419922,-175.778564453125, -27.0273494720459
647,4291754314,0.5181175,0.36355877,-0.7707641,0.07281628,14.684602737426758,-0.78374183177948,-2.5873632431030273,54.084228515625,-133.62684631347656, -25.302597045898438
648,4291770981,0.50204885,0.3711084,-0.7777277,0.07324981,15.094693183898926,2.479142665863037,0.16124436259269714,64.78303527832031,-108.28152465820312, -11.472615242004395
649,4291787648,0.48653448,0.37460726,-0.78574264,0.07458022,16.028745651245117,2.5447590351104736,3.7792584896087646,53.74634552001953,-105.00733947753906, 15.560060501098633
650,4291804315,0.47014427,0.3777187,-0.7937397,0.07918548,16.3702392578125,-0.6777902841567993,9.182229995727539,72.5396728515625,-101.55461883544922, 28.875015258789062
651,4291820982,0.45106468,0.38299742,-0.8011307,0.08968461,14.854110717773438,-1.6517984867095947,16.25356101989746,119.16073608398438,-100.81392669677734, 35.78520584106445
652,4291837649,0.43242976,0.38607237,-0.80864805,0.10020557,10.007184028625488,-4.280541896820068,21.471736907958984,111.33203887939453,-98.16224670410156, 47.85306930541992
653,4291854316,0.4081345,0.3947385,-0.8152809,0.113688365,2.3785667419433594,4.801423072814941,9.320664405822754,160.16439819335938,-123.85284423828125, 26.951702117919922
654,4291870983,0.3814277,0.39952546,-0.82820797,0.09467975,5.560598850250244,18.808717727661133,13.744987487792969,-31.16449737548828,-240.53953552246094, -23.46883201599121
655,4291887650,0.35912067,0.4010397,-0.8407996,0.057058506,10.446709632873535,-6.638504505157471,12.954498291015625,-157.3855743408203,-264.1390075683594, -57.234378814697266
656,4291904317,0.32252988,0.41915897,-0.8464169,0.0621203,14.846019744873047,-11.921703338623047,22.20462417602539,172.5787811279297,-218.841064453125, -61.62673568725586
657,4291920984,0.28625986,0.43518066,-0.8502003,0.076372385,11.95705795288086,-4.50985860824585,23.121219635009766,221.26348876953125,-186.37551879882812, -34.619632720947266
658,4291937651,0.25627416,0.44698226,-0.85230154,0.09006911,10.204143524169922,-3.4401397705078125,23.84121322631836,191.81524658203125,-146.50035095214844, -19.347949981689453
659,4291954318,0.2324001,0.4576412,-0.8516524,0.10603372,9.430028915405273,1.2923996448516846,23.995946884155273,186.0502471923828,-98.80685424804688, -20.800397872924805
660,4291970985,0.21934935,0.46557632,-0.84926057,0.1178188,9.183451652526855,5.247112274169922,18.54560661315918,124.52567291259766,-44.394813537597656, -24.73860740661621
661,4291987652,0.21743764,0.47037026,-0.8458461,0.12655939,8.49587345123291,4.319965362548828,15.037020683288574,67.32170867919922,14.524431228637695, -23.116121292114258
662,4292004319,0.22463709,0.47251555,-0.84104365,0.13752404,6.989536285400391,3.9209060668945312,11.923861503601074,48.147483825683594,78.71837615966797, -16.674755096435547
663,4292020986,0.24215779,0.47084832,-0.83533776,0.14789312,5.128101825714111,4.997529029846191,7.414584636688232,6.20983362197876,141.21124267578125, -8.14271068572998
664,4292037653,0.26993325,0.46519035,-0.82830083,0.15700974,3.0992352962493896,4.007182598114014,3.9073638916015625,-39.425331115722656,202.2086639404297, -1.9826557636260986
665,4292054320,0.30310142,0.45895904,-0.8173899,0.17134729,0.5935702919960022,4.555118083953857,1.540387749671936,-23.80775260925293,257.44183349609375, -7.2036452293396
666,4292070987,0.34227276,0.45198298,-0.8022033,0.18716459,-1.348557710647583,6.050718784332275,0.5593628883361816,-30.94581413269043,305.77703857421875, -20.44518280029297
667,4292087654,0.38887572,0.44215098,-0.78332806,0.19918768,-6.0838422775268555,4.405377388000488,-1.843203067779541,-76.94749450683594,347.5412292480469, -34.60039138793945
668,4292104321,0.44118392,0.42851156,-0.76091534,0.2067427,-9.273021697998047,1.889747142791748,-4.042319297790527,-123.7431411743164,379.72900390625, -44.6317138671875
669,4292120988,0.49942628,0.4064203,-0.7371788,0.20485052,-8.138428688049316,-1.54035484790802,-7.347413063049316,-214.54840087890625,399.4599609375, -41.52202606201172
670,4292137655,0.5582575,0.377177,-0.7111436,0.20090014,-2.9616858959198,-4.924964427947998,-14.718412399291992,-248.08731079101562,415.1806335449219, -19.775903701782227
671,4292154322,0.61071783,0.34688318,-0.6818328,0.2044505,4.244871616363525,-7.384193420410156,-24.099365234375,-194.4717254638672,418.104736328125, 14.27232551574707
672,4292170989,0.6465009,0.3325451,-0.647674,0.22796683,11.076618194580078,-4.29071569442749,-33.77790451049805,9.71264362335205,386.12689208984375, 42.15332794189453
673,4292187656,0.66553414,0.331712,-0.6181454,0.25480986,1.3067885637283325,4.881931781768799,-43.11736297607422,117.41693878173828,278.599609375, 28.376766204833984
674,4292204323,0.67347693,0.3367636,-0.60069895,0.26866347,-1.5192525386810303,1.4660141468048096,-36.49354553222656,95.9795150756836,137.5641632080078, -14.007306098937988
675,4292220990,0.6717582,0.34215423,-0.5988543,0.27026856,-4.760833263397217,-3.4311177730560303,-34.998680114746094,41.526466369628906,-2.492377758026123, -19.878498077392578
676,4292237657,0.66121346,0.34357736,-0.6133815,0.26175323,-5.4350666999816895,-3.8479223251342773,-26.258991241455078,-28.638471603393555,-129.73269653320312, 4.917169570922852
677,4292254324,0.64301795,0.34617347,-0.6399806,0.23899184,-12.513531684875488,12.72299861907959,-46.58856201171875,-89.50489044189453,-251.69020080566406, -18.889019012451172
678,4292270991,0.61595124,0.33814657,-0.68797845,0.18151231,24.23881721496582,1.2632033824920654,-13.106269836425781,-306.04315185546875,-449.5671081542969, -54.67214584350586
679,4292287658,0.59420645,0.33963844,-0.7154887,0.14014421,14.733905792236328,-2.059584617614746,12.727027893066406,-176.2184295654297,-312.1572570800781, -83.41488647460938
680,4292304325,0.55953324,0.36431187,-0.7321763,0.13460094,29.761362075805664,-14.022126197814941,-6.552504062652588,136.21145629882812,-270.9540100097656, -64.43215942382812
681,4292320992,0.5347356,0.3737285,-0.74878365,0.117081515,0.24716563522815704,-0.3574051856994629,-2.0547633171081543,-6.380924224853516,-236.45664978027344, -48.90834426879883
682,4292337659,0.5165988,0.3746966,-0.76456654,0.090367354,15.087997436523438,-4.993829727172852,-5.524055480957031,-101.25762939453125,-216.0876007080078, -46.59403991699219
683,4292354326,0.492955,0.39108726,-0.771766,0.09178059,8.397056579589844,5.229118824005127,-0.8828420639038086,120.90155029296875,-151.88595581054688, -46.58161163330078
684,4292370993,0.47345576,0.40168792,-0.77846277,0.09209956,10.827937126159668,7.383021831512451,-0.9403527975082397,84.69157409667969,-127.73243713378906, -23.597827911376953
685,4292387660,0.45786372,0.4053009,-0.78586733,0.09222098,10.898677825927734,1.8175958395004272,0.273776650428772,49.754478454589844,-105.54756164550781, 12.630831718444824
686,4292404327,0.44241405,0.4064085,-0.79340106,0.09806606,12.146729469299316,2.13698673248291,4.118410587310791,72.4193115234375,-87.98632049560547, 44.36981201171875
687,4292420994,0.42896944,0.4043945,-0.8011996,0.10261403,13.100062370300293,2.353259563446045,12.412442207336426,50.2039680480957,-79.84072875976562, 56.75269317626953
688,4292437661,0.41481742,0.4035084,-0.8081605,0.10947387,10.194357872009277,-3.723212480545044,15.437898635864258,68.99241638183594,-76.34476470947266, 55.445556640625
689,4292454328,0.39383087,0.4093793,-0.81396335,0.121530235,6.185863971710205,2.0683417320251465,10.010906219482422,137.06813049316406,-102.4019775390625, 34.50218963623047
690,4292470995,0.3688727,0.41973203,-0.8199804,0.12405886,7.949313163757324,9.130180358886719,18.56371307373047,106.9629898071289,-156.2342071533203, -12.487594604492188
691,4292487662,0.34209123,0.42966592,-0.8283089,0.110748895,5.491286277770996,1.0106858015060425,15.562858581542969,20.067703247070312,-218.44906616210938, -41.98695755004883
692,4292504329,0.30990934,0.44140625,-0.83684593,0.093838364,10.148333549499512,-0.7055530548095703,11.907485008239746,19.6895751953125,-262.2555236816406, -56.033790588378906
693,4292520996,0.276879,0.4529113,-0.843575,0.08118331,16.548748016357422,-3.977017641067505,22.801246643066406,47.485389709472656,-250.7322540283203, -50.59310531616211
694,4292537663,0.24239631,0.46532783,-0.8476307,0.07897166,13.979537010192871,-2.3550193309783936,21.297290802001953,115.90235900878906,-222.93777465820312, -43.58109664916992
695,4292554330,0.21373595,0.47595862,-0.84941614,0.079200506,12.560742378234863,-0.12567752599716187,22.206634521484375,109.8365707397461,-177.15817260742188, -39.521793365478516
