PacketCounter,SampleTimeFine,Quat_W,Quat_X,Quat_Y,Quat_Z,Acc_X,Acc_Y,Acc_Z,Gyr_X,Gyr_Y,Gyr_Z 
1,1424548127,0.46025482,0.50708336,-0.23974787,0.6881518,0.16180408000946045,0.054874125868082047,-0.13390414416790009,-0.25823333859443665,0.6260624527931213, 0.009226098656654358
2,1424564794,0.45977646,0.505622,-0.24168172,0.68887013,15.20644474029541,2.1893420219421387,6.292315483093262,-0.8221676349639893,3.2748844623565674, 1.4686641693115234
3,1424581461,0.45947477,0.50419915,-0.24120988,0.6902783,15.598942756652832,2.1501176357269287,6.278534889221191,-0.4108789265155792,3.1693220138549805, 1.1246087551116943
4,1424598128,0.4589327,0.50361127,-0.24149135,0.69096935,15.416489601135254,2.135155439376831,6.315611839294434,0.4312475025653839,3.508486032485962, 1.6282955408096313
5,1424614795,0.45902032,0.5029621,-0.24197096,0.69121593,15.276129722595215,2.1607019901275635,6.199210166931152,-1.467005729675293,2.753614664077759, 0.8913411498069763
6,1424631462,0.45877734,0.502785,-0.24181086,0.69156224,15.567861557006836,2.1999738216400146,6.280442714691162,0.8199074268341064,3.512186288833618, 1.1209975481033325
7,1424648129,0.45889157,0.5026395,-0.24188754,0.6915653,15.333355903625488,2.154841423034668,6.149801254272461,-1.1028573513031006,3.3518381118774414, 0.6684082746505737
8,1424664796,0.45905775,0.5024827,-0.24194019,0.6915506,15.313852310180664,2.4369630813598633,6.123627185821533,-0.37194764614105225,4.338746547698975, 0.9423360228538513
9,1424681463,0.45939147,0.50249875,-0.2417416,0.69138664,15.34892463684082,2.090085029602051,6.194274425506592,-2.250460147857666,4.130093574523926, 0.4561942219734192
10,1424698130,0.45936334,0.50255036,-0.24149299,0.69145465,15.735642433166504,2.274240493774414,6.393484115600586,0.5284860134124756,3.9236414432525635, 1.232425332069397
11,1424714797,0.45954967,0.50245947,-0.24151212,0.69139034,14.859542846679688,2.3399035930633545,6.062125205993652,-0.09931325167417526,3.378040075302124, 1.6249659061431885
12,1424731464,0.45981064,0.50239825,-0.24140704,0.691298,15.471220970153809,2.063707113265991,6.230118751525879,-0.11183784902095795,3.12886643409729, 1.374691128730774
13,1424748131,0.45979148,0.5023442,-0.24131784,0.69138116,15.256226539611816,2.330944776535034,6.201951503753662,1.4460097551345825,3.1678617000579834, 2.1936445236206055
14,1424764798,0.4600082,0.50219935,-0.2413749,0.6913224,15.280166625976562,2.19861102104187,6.149022579193115,0.10262367874383926,2.9073803424835205, 1.8902875185012817
15,1424781465,0.4601041,0.5019786,-0.24143332,0.6913984,15.227216720581055,2.2231240272521973,6.151541709899902,-0.45353683829307556,3.3821120262145996, 2.356157064437866
16,1424798132,0.46016195,0.5017265,-0.24144305,0.69153947,15.314854621887207,2.27193021774292,6.152922630310059,-0.665379524230957,3.678105592727661, 2.2689971923828125
17,1424814799,0.46015343,0.5014888,-0.24141815,0.69172645,15.59885311126709,2.1085145473480225,6.275505065917969,-0.009515118785202503,3.796884775161743, 2.64650297164917
18,1424831466,0.4602412,0.5011495,-0.24163653,0.6918374,14.90423583984375,2.0830085277557373,6.0282182693481445,-0.4367094039916992,3.584017515182495, 3.1333749294281006
19,1424848133,0.4602662,0.50089115,-0.24174504,0.69197,15.285990715026855,2.1525659561157227,6.281574249267578,-0.18733127415180206,3.314699411392212, 2.4796485900878906
20,1424864800,0.46017194,0.5006912,-0.24181843,0.6921517,15.603498458862305,1.996100902557373,6.299805164337158,0.9265971183776855,2.94423770904541, 2.9899306297302246
21,1424881467,0.45994952,0.50058,-0.24186274,0.6923645,14.795950889587402,2.097170352935791,6.046430587768555,0.7108996510505676,2.3274195194244385, 2.6097099781036377
22,1424898134,0.45985937,0.5004535,-0.24179807,0.6925384,15.526602745056152,2.1286540031433105,6.196601390838623,1.4135329723358154,2.823115348815918, 1.8371541500091553
23,1424914801,0.45991102,0.50022966,-0.24197519,0.692604,15.252500534057617,2.0105903148651123,6.127565860748291,-0.6005793809890747,2.4719905853271484, 1.8007971048355103
24,1424931468,0.46000102,0.4999823,-0.24217384,0.6926535,14.919377326965332,1.9454888105392456,6.045683860778809,-0.9790456295013428,2.518528938293457, 1.527816891670227
25,1424948135,0.4600621,0.49977905,-0.24220313,0.69274926,15.46401596069336,2.273855686187744,6.160383224487305,0.4574620723724365,2.941343307495117, 1.16583251953125
26,1424964802,0.46024945,0.4994713,-0.24253884,0.6927292,14.781679153442383,2.0321271419525146,6.008304595947266,-1.8949555158615112,2.3459887504577637, 1.6048213243484497
27,1424981469,0.46010453,0.49934977,-0.24232556,0.69298774,15.45116901397705,2.165057897567749,6.177413463592529,2.2271461486816406,3.4405734539031982, 1.5752002000808716
28,1424998136,0.4600787,0.49914226,-0.24243742,0.6931155,15.257752418518066,2.0135722160339355,6.0794572830200195,0.16055960953235626,2.6462461948394775, 2.045872211456299
29,1425014803,0.45991126,0.49901137,-0.24236147,0.6933471,14.867693901062012,2.1497364044189453,5.99423885345459,1.859846830368042,3.0059380531311035, 2.1722450256347656
30,1425031470,0.45990384,0.49877,-0.24238566,0.6935174,15.679407119750977,2.1614489555358887,6.206117153167725,0.47572392225265503,3.260810613632202, 1.8601160049438477
31,1425048137,0.46004203,0.4983462,-0.24263574,0.693643,14.948469161987305,2.2378194332122803,6.008316993713379,-1.057023525238037,3.0667049884796143, 2.2646560668945312
32,1425064804,0.46009827,0.49786654,-0.24268918,0.6939311,14.831604957580566,1.9489988088607788,5.949568271636963,-0.5237541198730469,3.6660289764404297, 2.152561902999878
33,1425081471,0.46013469,0.49737003,-0.24276344,0.69423705,15.267614364624023,2.2374587059020996,6.069754123687744,-0.5995804667472839,3.4916317462921143, 2.308197259902954
34,1425098138,0.46012747,0.49695516,-0.24283755,0.69451314,14.907825469970703,1.8258939981460571,5.998237609863281,-0.08246009051799774,2.8871469497680664, 2.3461809158325195
35,1425114805,0.45996052,0.4966614,-0.24270783,0.694879,15.445786476135254,2.1864662170410156,6.137024879455566,2.2547311782836914,3.006194829940796, 2.596775770187378
36,1425131472,0.45993093,0.49624646,-0.24285142,0.69514483,14.94922161102295,2.0288994312286377,5.892397880554199,-0.07083193212747574,2.6013987064361572, 2.7642059326171875
37,1425148139,0.45994127,0.4958182,-0.2428961,0.695428,15.158721923828125,2.180856227874756,5.982392311096191,0.4220397472381592,3.123116970062256, 2.3861753940582275
38,1425164806,0.4600626,0.49525392,-0.24308917,0.69568235,14.962380409240723,1.9620853662490845,5.910482883453369,-1.059187650680542,3.4001309871673584, 2.5373926162719727
39,1425181473,0.4601408,0.4947819,-0.24317737,0.6959356,15.053804397583008,1.912118911743164,5.9946184158325195,-0.45552191138267517,3.1705384254455566, 2.084239959716797
40,1425198140,0.46013778,0.49436918,-0.24320129,0.69622254,15.174497604370117,1.9905877113342285,5.98130464553833,0.4829466640949249,3.0819575786590576, 2.3082871437072754
41,1425214807,0.46011725,0.49398133,-0.24324642,0.6964955,14.89806079864502,1.9782533645629883,5.985781192779541,0.3873344659805298,2.806159257888794, 2.3329520225524902
42,1425231474,0.4601573,0.49359244,-0.24332239,0.6967182,15.39493179321289,1.9511017799377441,6.0278706550598145,-0.027700131759047508,2.645862340927124, 2.0033679008483887
43,1425248141,0.46014246,0.49316993,-0.24340117,0.69699943,14.963388442993164,1.9951008558273315,5.905356407165527,0.6281322240829468,2.9681594371795654, 2.73038387298584
44,1425264808,0.4602539,0.49269232,-0.24362582,0.69718516,14.433542251586914,1.9126864671707153,5.772453308105469,-1.2020169496536255,2.6125402450561523, 2.2528610229492188
45,1425281475,0.4602366,0.49227098,-0.24361372,0.6974983,15.326839447021484,1.9854016304016113,6.029101848602295,0.6876817345619202,3.2980000972747803, 2.3476791381835938
46,1425298142,0.46021995,0.49189144,-0.2436821,0.69775325,15.26272201538086,1.853601098060608,6.015624523162842,0.4095662832260132,2.6573240756988525, 2.3967533111572266
47,1425314809,0.4601282,0.49157426,-0.24366379,0.6980437,14.92281436920166,1.9804482460021973,5.822142124176025,1.4186556339263916,2.637730836868286, 2.506491184234619
48,1425331476,0.4602011,0.49114916,-0.24370484,0.6982804,14.940360069274902,1.950791358947754,5.800304889678955,-0.007632584776729345,3.0453310012817383, 1.8639580011367798
49,1425348143,0.4603497,0.4906555,-0.24384096,0.69848216,15.271594047546387,1.7792110443115234,5.956690788269043,-0.548867404460907,3.1385228633880615, 2.0248570442199707
50,1425364810,0.4604434,0.49020326,-0.24393222,0.69870585,14.840568542480469,2.066051721572876,5.876021385192871,-0.2256222814321518,3.034548044204712, 2.026777982711792
51,1425381477,0.46047276,0.4897783,-0.24396586,0.6989727,14.94149398803711,1.7041462659835815,5.726303577423096,0.4661191701889038,3.1280219554901123, 2.2567546367645264
52,1425398144,0.46054658,0.4893485,-0.24402644,0.6992039,15.05253791809082,2.135948896408081,5.900696277618408,0.05977364256978035,3.017118453979492, 2.0033936500549316
53,1425414811,0.46058643,0.4889228,-0.24415153,0.6994318,15.273701667785645,1.6948277950286865,5.925436019897461,-0.20894841849803925,2.7164382934570312, 2.3380744457244873
54,1425431478,0.460552,0.48854828,-0.24411935,0.6997273,14.993707656860352,2.0549731254577637,5.840686798095703,1.2704089879989624,3.095902919769287, 2.378875255584717
55,1425448145,0.46064532,0.4881583,-0.24421023,0.6999064,14.692005157470703,1.7648340463638306,5.694287300109863,0.12363889813423157,2.6193017959594727, 1.8942064046859741
56,1425464812,0.46074176,0.4877366,-0.24427637,0.70011353,15.10296630859375,2.0731701850891113,5.932884216308594,0.04196000471711159,2.934338092803955, 1.876443862915039
57,1425481479,0.4607361,0.48739156,-0.24426334,0.7003622,14.950021743774414,1.8442420959472656,5.7736735343933105,0.9994524121284485,2.7762439250946045, 2.0759928226470947
58,1425498146,0.46081752,0.48705772,-0.24431132,0.7005243,15.213096618652344,1.8899409770965576,5.861135959625244,0.4046486020088196,2.399327278137207, 1.6139394044876099
59,1425514813,0.46077132,0.48671007,-0.24430321,0.70079905,15.027556419372559,1.8455791473388672,5.74172830581665,1.228903889656067,2.8068125247955322, 2.4132609367370605
60,1425531480,0.4609465,0.4862905,-0.24443123,0.70093054,14.862724304199219,1.999459147453308,5.767536163330078,-0.6029741764068604,2.6214280128479004, 1.4853508472442627
61,1425548147,0.46104783,0.485864,-0.24460234,0.70109975,15.3253173828125,1.7112480401992798,5.846968173980713,-0.28820687532424927,2.545537233352661, 2.2273507118225098
62,1425564814,0.46102145,0.4855157,-0.24463806,0.7013459,14.826828956604004,2.0207204818725586,5.73798942565918,1.0151784420013428,2.6198012828826904, 2.4291787147521973
63,1425581481,0.4610584,0.48509693,-0.2447615,0.7015682,15.101832389831543,1.817802906036377,5.826643943786621,0.0035025367978960276,2.691542863845825, 2.41251802444458
64,1425598148,0.4611013,0.48459867,-0.24499843,0.7018016,15.168427467346191,2.0901758670806885,5.82603645324707,-0.7388623952865601,2.7663185596466064, 2.95768404006958
65,1425614815,0.46120483,0.48398554,-0.2453283,0.70204157,15.159995079040527,1.7864408493041992,5.712143898010254,-1.5695335865020752,3.167125940322876, 3.2734057903289795
66,1425631482,0.46138823,0.48317444,-0.24591705,0.70227367,15.26469612121582,1.8902732133865356,5.8194708824157715,-3.752964973449707,3.407033920288086, 4.045609474182129
67,1425648149,0.4616767,0.48211625,-0.24672124,0.7025292,15.0181884765625,1.7939382791519165,5.688326835632324,-5.72796106338501,4.1872100830078125, 4.821994781494141
68,1425664816,0.46200636,0.4809417,-0.24759634,0.7028098,15.191343307495117,1.8471537828445435,5.9639668464660645,-6.680497646331787,4.6601996421813965, 5.069426536560059
69,1425681483,0.46274593,0.47868577,-0.24937424,0.7032345,15.45633316040039,1.5922696590423584,5.981871128082275,-15.625509262084961,8.183109283447266, 8.359746932983398
70,1425698150,0.46313423,0.47680184,-0.25061932,0.7038158,15.180811882019043,1.6843080520629883,5.56697416305542,-10.513265609741211,7.9817352294921875, 8.132787704467773
71,1425714817,0.46317685,0.47561014,-0.25105077,0.7044401,15.316631317138672,1.3897199630737305,5.685699462890625,-2.9188880920410156,6.7934441566467285, 6.203429698944092
72,1425731484,0.46319273,0.4747617,-0.2512245,0.70493996,14.997629165649414,1.62934410572052,5.772109508514404,-0.6800172328948975,5.502562522888184, 4.51322078704834
73,1425748151,0.4632991,0.4740476,-0.25143898,0.705274,15.58200740814209,1.168277382850647,6.100587844848633,-0.9317004680633545,4.344650745391846, 3.4995980262756348
74,1425764818,0.46338668,0.4734216,-0.2516836,0.7055496,15.185667991638184,1.7555973529815674,6.061404228210449,-0.7818917036056519,3.6025607585906982, 3.3725459575653076
75,1425781485,0.46368462,0.4727627,-0.25230464,0.70557404,15.16135025024414,1.6141135692596436,5.950069427490234,-3.9857077598571777,2.093998432159424, 2.768265724182129
76,1425798152,0.46421346,0.47178337,-0.2535691,0.70542836,15.696133613586426,1.6921451091766357,6.142781734466553,-9.052760124206543,1.4540269374847412, 3.815441370010376
77,1425814819,0.464842,0.47039118,-0.2554386,0.70526963,15.562549591064453,1.6062570810317993,6.126465797424316,-13.599084854125977,1.6586602926254272, 6.002334117889404
78,1425831486,0.46541107,0.46899655,-0.25742126,0.70510244,15.463212966918945,1.6816911697387695,5.855378150939941,-14.045287132263184,1.1683820486068726, 6.604925632476807
79,1425848153,0.46568084,0.46796817,-0.25908026,0.70499974,15.492440223693848,1.4267884492874146,5.7563676834106445,-10.307439804077148,0.10121504962444305, 6.535243988037109
80,1425864820,0.46558732,0.46729073,-0.26028824,0.7050659,15.380480766296387,1.4011528491973877,5.741468906402588,-5.327443599700928,-0.2440250813961029, 6.858386039733887
81,1425881487,0.46542427,0.46670532,-0.26138955,0.70515394,15.471485137939453,1.194158911705017,5.8861470222473145,-4.17096471786499,-0.3975091576576233, 6.799333572387695
82,1425898154,0.4650103,0.46636498,-0.26225957,0.7053291,15.597352027893066,1.4990402460098267,5.864022254943848,-1.445670485496521,-1.026531457901001, 7.0393500328063965
83,1425914821,0.46480218,0.46603763,-0.26326132,0.70530945,15.009016990661621,1.0475388765335083,5.875612258911133,-2.8983078002929688,-1.754393219947815, 5.897177219390869
84,1425931488,0.4645182,0.4659814,-0.26405746,0.7052361,16.101476669311523,0.9698894023895264,6.166278839111328,-0.8075045347213745,-2.7213494777679443, 4.978578090667725
85,1425948155,0.4641558,0.4660451,-0.26491338,0.7051116,15.147011756896973,0.9975939989089966,5.7594218254089355,-0.514776885509491,-3.797351598739624, 5.182186126708984
86,1425964822,0.46414724,0.4661501,-0.26581985,0.7047065,15.459220886230469,0.9056546688079834,5.846843242645264,-2.2784547805786133,-4.414272308349609, 2.651343822479248
87,1425981489,0.46389034,0.46660623,-0.2664586,0.7043326,15.828023910522461,1.1924129724502563,5.747946739196777,0.8541130423545837,-5.619951248168945, 2.381436824798584
88,1425998156,0.46411297,0.46696925,-0.2674882,0.70355463,14.602264404296875,1.2157456874847412,5.588712215423584,-3.6943891048431396,-6.8312153816223145, 0.15568040311336517
89,1426014823,0.4639584,0.46771404,-0.2680629,0.7029428,15.85770034790039,1.0493959188461304,5.761892318725586,1.4717379808425903,-7.37761116027832, 0.45912691950798035
90,1426031490,0.46375,0.46861073,-0.26890326,0.7021618,15.321244239807129,1.2921572923660278,5.589408874511719,0.47988611459732056,-9.598860740661621, 0.7232323884963989
91,1426048157,0.46333736,0.46967584,-0.2698911,0.70134294,15.171977996826172,1.1141160726547241,5.497051239013672,0.950788676738739,-11.379523277282715, 1.7781434059143066
92,1426064824,0.46259683,0.47100782,-0.27070975,0.7006227,15.172905921936035,1.1519781351089478,5.429272174835205,3.831911563873291,-12.422858238220215, 2.6119656562805176
93,1426081491,0.46164683,0.47266775,-0.27120078,0.699941,15.284696578979492,1.2529271841049194,5.275083065032959,7.041943550109863,-13.236167907714844, 1.989538550376892
94,1426098158,0.46056852,0.47442752,-0.27171198,0.6992623,15.067492485046387,1.3429573774337769,5.276769638061523,7.619740962982178,-14.013477325439453, 2.461209774017334
95,1426114825,0.45972288,0.4760567,-0.27250645,0.69840187,14.939269065856934,1.5477795600891113,5.082140922546387,4.795527935028076,-14.443334579467773, 1.9534887075424194
96,1426131492,0.45882654,0.47760737,-0.27339134,0.6975863,15.119214057922363,1.444766640663147,5.21101188659668,4.346587181091309,-14.303333282470703, 2.7729671001434326
97,1426148159,0.4579404,0.47898155,-0.27459452,0.69675344,15.014200210571289,1.429609775543213,4.882551670074463,2.2060298919677734,-14.501946449279785, 4.046226501464844
98,1426164826,0.4569946,0.4805913,-0.27562737,0.69585735,15.08089828491211,1.3439548015594482,4.797078609466553,3.9023990631103516,-15.412839889526367, 3.149116277694702
99,1426181493,0.4559501,0.48246548,-0.27644712,0.6949199,14.684415817260742,0.45581284165382385,4.765182971954346,5.888744354248047,-16.333660125732422, 2.230541944503784
100,1426198160,0.45484522,0.48459437,-0.27742162,0.69377345,14.594955444335938,0.8343406915664673,4.897650718688965,5.569750785827637,-18.85038185119629, 1.794395923614502
101,1426214827,0.45409876,0.486875,-0.27890554,0.6920685,14.408903121948242,1.0298415422439575,4.614837646484375,1.535439133644104,-22.343338012695312, -0.19160890579223633
102,1426231494,0.45375627,0.48940042,-0.28067142,0.68979424,14.859319686889648,0.2453835904598236,4.527361869812012,-1.6300346851348877,-25.523706436157227, -3.485628128051758
103,1426248161,0.45297173,0.4928394,-0.28104845,0.6877047,14.525477409362793,0.1336928904056549,3.9204397201538086,9.572664260864258,-25.75349998474121, -7.303084850311279
104,1426264828,0.45241603,0.4964288,-0.28078505,0.6855931,14.043886184692383,0.5258851647377014,3.8610503673553467,11.909895896911621,-24.10263442993164, -11.067883491516113
105,1426281495,0.45193398,0.4998508,-0.28010684,0.6836996,14.998312950134277,1.5759141445159912,3.592284917831421,13.4779052734375,-21.131824493408203, -11.852910041809082
106,1426298162,0.45229116,0.5024328,-0.2804035,0.68144554,14.414718627929688,1.6081609725952148,3.58915638923645,2.327052593231201,-19.836162567138672, -12.081110000610352
107,1426314829,0.45223582,0.50517374,-0.27999598,0.679621,14.331649780273438,0.6649256944656372,3.8206400871276855,8.222132682800293,-17.70337677001953, -11.596348762512207
108,1426331496,0.45132607,0.5084532,-0.2785322,0.67838037,14.129826545715332,1.4785383939743042,3.4893600940704346,18.92582893371582,-16.552236557006836, -10.502142906188965
109,1426348163,0.45069823,0.5115082,-0.27774057,0.676824,14.045415878295898,1.9606767892837524,3.5003247261047363,13.50201416015625,-18.15154457092285, -10.012397766113281
110,1426364830,0.45000276,0.51467437,-0.27739105,0.6750274,14.038115501403809,1.5183749198913574,3.6845076084136963,11.563820838928223,-21.01093864440918, -9.088329315185547
111,1426381497,0.44892445,0.5184869,-0.27687922,0.6730351,13.719700813293457,1.4332774877548218,3.388002634048462,15.2980375289917,-24.934059143066406, -9.722639083862305
112,1426398164,0.4478637,0.5227291,-0.27663416,0.67055655,13.503947257995605,1.2629660367965698,3.7770378589630127,14.400960922241211,-29.445171356201172, -11.172049522399902
113,1426414831,0.44693223,0.52743953,-0.2767937,0.6674162,13.454450607299805,0.5731706023216248,3.7316861152648926,12.255558013916016,-34.99187469482422, -13.24591064453125
114,1426431498,0.4451717,0.5332564,-0.27520648,0.66462106,13.968624114990234,1.2398207187652588,2.282839059829712,27.3394832611084,-35.03600311279297, -16.836345672607422
115,1426448165,0.44371974,0.5391307,-0.27316192,0.66169,13.347053527832031,1.271142601966858,2.1076500415802,28.21546745300293,-33.796104431152344, -20.452932357788086
116,1426464832,0.44207054,0.54534876,-0.27009118,0.6589532,13.793503761291504,1.895056962966919,1.7033594846725464,35.027713775634766,-31.867633819580078, -23.416973114013672
117,1426481499,0.44055435,0.5513882,-0.26711464,0.65615016,13.58536434173584,2.5803184509277344,2.0429816246032715,33.430477142333984,-31.327625274658203, -23.53237533569336
118,1426498166,0.4387935,0.5570253,-0.26480734,0.6534985,12.999176979064941,2.7643988132476807,2.2064146995544434,30.392518997192383,-31.40778160095215, -18.68106460571289
119,1426514833,0.43627012,0.56247413,-0.2624585,0.651465,13.311969757080078,3.514610528945923,1.6030726432800293,34.05267333984375,-29.45813751220703, -13.191218376159668
120,1426531500,0.43311232,0.5676071,-0.26073265,0.6498113,12.973458290100098,3.318289279937744,1.5709960460662842,33.44614791870117,-29.578454971313477, -6.2077555656433105
121,1426548167,0.4293974,0.5722588,-0.25962064,0.6486407,12.67389965057373,4.333460807800293,1.725911259651184,32.305538177490234,-28.365942001342773, 0.9942338466644287
122,1426564834,0.42609775,0.57593256,-0.26042667,0.64724064,12.883943557739258,4.223842144012451,2.416522979736328,18.816192626953125,-29.835268020629883, 7.789158821105957
123,1426581501,0.42243704,0.5793145,-0.26216376,0.64591956,12.074236869812012,3.266624927520752,2.235970973968506,15.388282775878906,-31.617843627929688, 13.858902931213379
124,1426598168,0.4181666,0.5826883,-0.26428282,0.6447991,12.462911605834961,2.451158046722412,1.9274451732635498,16.46227264404297,-33.01065444946289, 18.690244674682617
125,1426614835,0.4129528,0.5863207,-0.265931,0.64418846,12.38232707977295,2.0639634132385254,0.9761819243431091,24.004051208496094,-32.486419677734375, 21.970577239990234
126,1426631502,0.40789402,0.58960015,-0.26823568,0.64346236,11.905937194824219,1.9950904846191406,1.382559895515442,19.261701583862305,-32.96455383300781, 24.234546661376953
127,1426648169,0.40282235,0.5927169,-0.27088085,0.6426855,11.996184349060059,1.8108958005905151,1.4825540781021118,17.261987686157227,-33.43569564819336, 25.819610595703125
128,1426664836,0.3972809,0.59598136,-0.27333558,0.64207613,11.74476146697998,1.2535009384155273,0.6020494699478149,20.74302864074707,-33.762203216552734, 27.29852294921875
129,1426681503,0.39137903,0.59940916,-0.2751439,0.6417375,11.933993339538574,1.7953088283538818,0.4361872375011444,26.031475067138672,-32.28081512451172, 26.658071517944336
130,1426698170,0.38549587,0.6027938,-0.2765607,0.6415193,11.460688591003418,1.215038537979126,0.4142080247402191,27.7943172454834,-30.499496459960938, 25.364728927612305
131,1426714837,0.37933177,0.60614973,-0.2771125,0.64179325,11.99814510345459,1.4959919452667236,-0.4660339951515198,33.63530349731445,-26.571813583374023, 24.368457794189453
132,1426731504,0.37431374,0.6087831,-0.2788966,0.6414742,11.576838493347168,1.8915297985076904,0.317432165145874,20.40631866455078,-26.86876678466797, 24.27364158630371
133,1426748171,0.3702357,0.610898,-0.28133172,0.6407663,11.207494735717773,1.1729302406311035,-0.46395063400268555,11.52170467376709,-26.083303451538086, 22.853445053100586
134,1426764838,0.3669479,0.61284655,-0.28424865,0.63950855,10.970479965209961,0.7722333073616028,0.30485668778419495,4.592535972595215,-27.347686767578125, 20.313175201416016
135,1426781505,0.3642099,0.61504483,-0.28736672,0.6375669,11.00330638885498,-0.6432887315750122,0.20875561237335205,0.6877231001853943,-30.765872955322266, 16.521175384521484
136,1426798172,0.36032328,0.6183563,-0.28823176,0.6361803,10.779814720153809,0.0875634178519249,-0.997938871383667,19.309297561645508,-29.93068504333496, 11.18812370300293
137,1426814839,0.35756034,0.6216591,-0.29004237,0.63369244,10.403964042663574,0.6224455833435059,-0.4256741404533386,8.191818237304688,-34.67394256591797, 7.569490432739258
138,1426831506,0.3553715,0.6254298,-0.29249164,0.6300773,9.993939399719238,-0.028284933418035507,0.17717936635017395,1.8581041097640991,-41.953697204589844, 4.092467784881592
139,1426848173,0.35168186,0.6303573,-0.29330018,0.62685305,9.752208709716797,-0.3667134642601013,1.3475708961486816,19.03287124633789,-44.30440902709961, 2.1559348106384277
140,1426864840,0.34657046,0.635557,-0.29227093,0.6249272,10.607617378234863,1.1772277355194092,-0.13933929800987244,36.39531707763672,-38.3068962097168, 2.8924384117126465
141,1426881507,0.3424048,0.63966197,-0.2924144,0.62296516,9.822689056396484,2.707416296005249,-1.2462589740753174,24.541641235351562,-34.658424377441406, 6.078707695007324
142,1426898174,0.3389489,0.64269364,-0.29305056,0.6214339,9.53564453125,2.2006020545959473,-0.09441705048084259,17.64657211303711,-27.88386344909668, 8.418268203735352
143,1426914841,0.33540446,0.64481795,-0.29417777,0.62062347,10.28593921661377,2.636465549468994,-1.2569280862808228,15.2780179977417,-22.153688430786133, 14.501321792602539
144,1426931508,0.33212253,0.6457843,-0.29621392,0.6204148,9.773900032043457,2.418201208114624,-1.9622218608856201,8.780793190002441,-16.097267150878906, 21.171968460083008
145,1426948175,0.32942533,0.64567626,-0.29915696,0.6205532,8.997546195983887,1.6982849836349487,-0.862702488899231,0.5679567456245422,-10.828733444213867, 25.71146011352539
146,1426964842,0.32620105,0.64509594,-0.30156985,0.6216912,9.303986549377441,0.6172341704368591,-1.2121137380599976,6.156869888305664,-4.259149551391602, 28.854581832885742
147,1426981509,0.32333738,0.64378625,-0.30392325,0.6233963,8.670286178588867,1.2786401510238647,-1.2415270805358887,4.352040767669678,2.261756181716919, 29.824451446533203
148,1426998176,0.32156652,0.6414845,-0.30663976,0.62535167,9.15433406829834,0.8127210736274719,-1.3383400440216064,-3.724112033843994,9.10501766204834, 29.38507843017578
149,1427014843,0.3194292,0.63909763,-0.3070534,0.6286792,8.975120544433594,-0.17745912075042725,-2.342923402786255,10.498332977294922,19.8521785736084, 24.016420364379883
150,1427031510,0.31405407,0.63836354,-0.30103475,0.6350121,8.654610633850098,-0.0696629136800766,-1.471423864364624,62.50300216674805,33.23577880859375, 12.838517189025879
151,1427048177,0.31177077,0.6362377,-0.29770014,0.63982445,8.13839054107666,-1.0662693977355957,0.29654669761657715,31.061418533325195,33.25517272949219, 10.702215194702148
152,1427064844,0.3119506,0.6333876,-0.2955312,0.6435591,7.898366451263428,-1.4280301332473755,0.20539934933185577,11.402435302734375,34.245147705078125, 4.105650901794434
153,1427081511,0.31406942,0.6301402,-0.29343364,0.64666873,7.936288833618164,-2.5517547130584717,-0.7603116035461426,0.5232251286506653,37.051082611083984, -4.731495380401611
154,1427098178,0.31624138,0.62770975,-0.2883235,0.6502626,7.828762054443359,-1.8013008832931519,-1.1005609035491943,16.43207359313965,42.13593292236328, -18.677669525146484
155,1427114845,0.3186045,0.6252152,-0.28146672,0.65450275,7.999334335327148,-0.17705892026424408,-0.860129177570343,24.56004524230957,49.40409851074219, -25.574188232421875
156,1427131512,0.32277912,0.6212989,-0.2760126,0.6584971,7.803116321563721,-0.4233268201351166,-0.687021017074585,6.870972633361816,55.18979263305664, -25.48273277282715
157,1427148179,0.32763252,0.6174363,-0.27001664,0.6622089,7.3616943359375,-0.9753662347793579,-0.8903578519821167,6.00810432434082,56.24103546142578, -31.605525970458984
158,1427164846,0.3356808,0.61281306,-0.26762274,0.6634431,6.834003925323486,2.2439796924591064,1.6706615686416626,-30.267051696777344,47.02117156982422, -35.04705810546875
159,1427181513,0.34586978,0.60844564,-0.26921913,0.6615809,6.4065470695495605,-1.1112946271896362,6.4101362228393555,-62.60103988647461,27.49744987487793, -35.56157684326172
160,1427198180,0.35347208,0.60615516,-0.27297816,0.658116,5.661553859710693,-4.557929515838623,8.698070526123047,-59.62861633300781,1.2730014324188232, -22.432090759277344
161,1427214847,0.3600555,0.6067397,-0.28344983,0.6495255,6.447309970855713,-1.338079810142517,8.690118789672852,-88.35884857177734,-51.504478454589844, -7.805861949920654
162,1427231514,0.36938632,0.608308,-0.30607805,0.6323223,15.801446914672852,-4.406335353851318,7.997178554534912,-168.46534729003906,-116.74412536621094, 7.3622002601623535
163,1427248181,0.37553084,0.6072354,-0.33829984,0.61302143,14.467183113098145,-8.29705810546875,7.6573920249938965,-207.9844512939453,-145.23202514648438, 61.44868469238281
164,1427264848,0.39790007,0.5954223,-0.39172593,0.57766664,8.815346717834473,-2.529791831970215,-1.0213803052902222,-430.4623107910156,-184.18601989746094, 64.92539978027344
165,1427281515,0.4203939,0.580654,-0.44144034,0.539667,3.537099599838257,-2.6827614307403564,-3.130448818206787,-431.47137451171875,-172.6280517578125, 49.8775749206543
166,1427298182,0.42700467,0.56875753,-0.47387463,0.51925415,0.4227917194366455,-13.3059663772583,-0.37335312366485596,-242.0332489013672,-111.06330108642578, 81.8904037475586
167,1427314849,0.40343997,0.57089555,-0.47258842,0.53663284,-4.188796043395996,-12.989632606506348,3.1222002506256104,160.74444580078125,-12.64284896850586, 122.70268249511719
168,1427331516,0.3675552,0.57522255,-0.44882625,0.5766952,-2.2637767791748047,-1.1368324756622314,5.937460422515869,371.992919921875,90.53155517578125, 135.57293701171875
169,1427348183,0.33946785,0.57294804,-0.41664898,0.61878586,-3.760641574859619,9.754009246826172,5.494719982147217,364.1221008300781,169.8612518310547, 96.95824432373047
170,1427364850,0.33949935,0.5584692,-0.39912295,0.64308125,4.310373783111572,14.083178520202637,-0.3196660280227661,111.37611389160156,197.82394409179688, 28.778162002563477
171,1427381517,0.36686647,0.5324464,-0.40862116,0.6441574,9.575166702270508,6.178457260131836,-8.570605278015137,-203.81814575195312,171.71682739257812, -10.433375358581543
172,1427398184,0.38156852,0.51367295,-0.40925166,0.6504298,10.055583953857422,-11.42070484161377,-20.093360900878906,-85.24171447753906,145.6849365234375, 6.136171340942383
173,1427414851,0.36512753,0.51397866,-0.3777489,0.6780957,6.2359209060668945,-2.362750768661499,-21.48818016052246,278.9357604980469,133.1936492919922, 34.118526458740234
174,1427431518,0.35033727,0.51767594,-0.35635608,0.694468,0.6784693002700806,9.132233619689941,-18.43191146850586,205.18948364257812,56.90190124511719, 24.912134170532227
175,1427448185,0.34578484,0.51989836,-0.3563871,0.6950732,-4.605646133422852,1.2456457614898682,-17.22445297241211,24.23483657836914,-18.259449005126953, 18.136552810668945
176,1427464852,0.34390455,0.5225473,-0.35752454,0.6934337,-7.777166366577148,8.541783332824707,-13.700789451599121,4.947315216064453,-24.03993797302246, 2.95735764503479
177,1427481519,0.34448355,0.5272984,-0.37038288,0.6827183,-10.564051628112793,-3.5443294048309326,-50.82679748535156,-77.1407470703125,-88.10443878173828, 6.93924617767334
178,1427498186,0.3177281,0.55877954,-0.36329842,0.6744099,58.677642822265625,17.088787078857422,8.145258903503418,185.2547607421875,-226.02438354492188, 0.3614848256111145
179,1427514853,0.28541642,0.59244597,-0.3462426,0.6690751,0.16429546475410461,33.27935791015625,9.673033714294434,264.938232421875,-216.99169921875, -10.641485214233398
180,1427531520,0.26914027,0.61553615,-0.35418734,0.6505614,2.475085496902466,-7.701339244842529,-10.905960083007812,32.27006149291992,-233.26181030273438, 17.56963348388672
181,1427548187,0.24942929,0.633466,-0.35074404,0.64302784,-2.8402962684631348,-9.520805358886719,-2.233569860458374,115.03463745117188,-150.81117248535156, 17.263303756713867
182,1427564854,0.2426559,0.64311373,-0.35815936,0.63185835,7.180480003356934,2.004431962966919,-0.6951176524162292,-12.288495063781738,-117.60371398925781, 20.699064254760742
183,1427581521,0.23792265,0.6516701,-0.3651552,0.62079036,7.558926105499268,-3.738555669784546,-3.423574447631836,-21.064624786376953,-106.94242858886719, 12.888236999511719
184,1427598188,0.22358754,0.66115636,-0.359193,0.61956537,5.915745735168457,1.5563186407089233,-2.969822645187378,103.48735046386719,-69.89328002929688, 9.42996883392334
185,1427614855,0.21864256,0.6667774,-0.3621734,0.61354214,9.598132133483887,6.017209529876709,0.18025526404380798,4.900139331817627,-65.97498321533203, 12.250600814819336
186,1427631522,0.21700676,0.67247635,-0.36785412,0.60445625,12.907308578491211,-2.189411163330078,0.2281210571527481,-29.18148422241211,-76.43853759765625, 6.037383079528809
187,1427648189,0.2118522,0.68035764,-0.3704825,0.59579766,15.339897155761719,-0.2724872827529907,4.958395004272461,4.080054759979248,-88.14041900634766, 1.6089378595352173
188,1427664856,0.21287496,0.6873809,-0.38313198,0.5791388,13.960722923278809,-2.6378393173217773,9.318583488464355,-87.53176879882812,-121.28665161132812, 13.727429389953613
189,1427681523,0.21459457,0.69620234,-0.39885867,0.55692303,15.46414852142334,-2.353440761566162,15.078768730163574,-115.13851165771484,-157.82244873046875, 12.577271461486816
190,1427698190,0.21578604,0.70735776,-0.41625613,0.528973,14.406360626220703,0.7767796516418457,20.303377151489258,-131.35423278808594,-198.67271423339844, 7.689158916473389
191,1427714857,0.22142681,0.7178196,-0.43445015,0.4969491,14.902974128723145,5.852602958679199,24.319164276123047,-168.6317138671875,-205.01211547851562, -8.681161880493164
192,1427731524,0.2245786,0.73086554,-0.45273095,0.4587318,11.269160270690918,-3.757826089859009,6.976656436920166,-171.20899963378906,-252.63006591796875, -16.8277587890625
193,1427748191,0.19605377,0.75189936,-0.4506491,0.43946078,14.14161491394043,-11.150116920471191,12.700023651123047,123.56074523925781,-249.88755798339844, -14.958674430847168
194,1427764858,0.16210194,0.7701225,-0.44375893,0.4286168,5.1058454513549805,4.259866237640381,22.384143829345703,188.3636932373047,-208.42453002929688, -3.498836040496826
195,1427781525,0.15423484,0.7778262,-0.4483859,0.41249025,4.291455268859863,10.49342155456543,32.02651596069336,-11.558000564575195,-138.91358947753906, 6.957406044006348
196,1427798192,0.17532362,0.7755995,-0.4668228,0.387019,4.056678295135498,5.448744773864746,25.836856842041016,-244.90481567382812,-86.57614135742188, 19.48699378967285
197,1427814859,0.20306833,0.76782936,-0.48190346,0.3700951,9.314138412475586,-4.783138275146484,21.43262481689453,-250.69837951660156,-1.1130421161651611, 11.850770950317383
198,1427831526,0.21655114,0.7590733,-0.48009396,0.3826529,10.061134338378906,-4.853240489959717,17.984222412109375,-36.15622329711914,133.1239471435547, 3.1799981594085693
199,1427848193,0.23257259,0.7436749,-0.47596398,0.40781856,5.87624454498291,-0.0821131020784378,16.956745147705078,-11.633211135864258,228.08834838867188, 24.982696533203125
200,1427864860,0.25534597,0.71898454,-0.47326902,0.44031382,4.679996013641357,-2.6769983768463135,11.12636661529541,-41.08173751831055,311.3940734863281, 55.51206588745117
201,1427881527,0.27903733,0.68636674,-0.46787488,0.48180106,5.325074672698975,-2.04189133644104,3.1554555892944336,-22.155532836914062,387.70196533203125, 80.9155044555664
202,1427898194,0.30263928,0.647714,-0.45626473,0.52981013,8.974589347839355,-0.9158066511154175,-5.240988254547119,8.247546195983887,450.40313720703125, 83.7757797241211
203,1427914861,0.32156634,0.60852885,-0.4338702,0.5814159,11.276613235473633,2.941495656967163,-12.611334800720215,78.59290313720703,476.515380859375, 61.94870376586914
204,1427931528,0.34393737,0.569522,-0.40514338,0.62706524,11.60647964477539,6.915179252624512,-20.900930404663086,72.16361236572266,475.61553955078125, 8.075570106506348
205,1427948195,0.3793592,0.5255622,-0.39420572,0.6515159,12.09750747680664,6.459359645843506,-26.08367156982422,-126.49364471435547,408.7875061035156, -14.719819068908691
206,1427964862,0.4061448,0.4891449,-0.3853155,0.66881675,11.021047592163086,-8.030254364013672,-37.75178527832031,-104.100830078125,321.0404357910156, -7.591797828674316
207,1427981529,0.4134906,0.470635,-0.36721444,0.6875186,3.172651767730713,-6.877038955688477,-39.28855514526367,57.549659729003906,218.52772521972656, 7.136657238006592
208,1427998196,0.41510934,0.46078962,-0.3584124,0.69778055,-2.7347419261932373,6.26556921005249,-30.703344345092773,35.602386474609375,110.23646545410156, 18.274221420288086
209,1428014863,0.4183978,0.45551643,-0.3652127,0.6957499,-7.115656852722168,1.8536336421966553,-31.339746475219727,-61.77260208129883,9.529004096984863, 13.478461265563965
210,1428031530,0.41295046,0.4641385,-0.3680951,0.6917754,-7.959418773651123,3.001220941543579,-29.577150344848633,19.4759521484375,-73.1659927368164, 2.536893367767334
211,1428048197,0.40103763,0.4833937,-0.3689454,0.6851123,-5.812773704528809,8.096433639526367,-21.390411376953125,73.19558715820312,-142.48524475097656, -7.757356643676758
212,1428064864,0.38588127,0.50833577,-0.3698236,0.6752193,-4.692739009857178,8.594382286071777,-14.49347972869873,91.29195404052734,-188.10684204101562, -15.65383243560791
213,1428081531,0.3635758,0.5393352,-0.36687058,0.66508365,-1.9372667074203491,0.6176117062568665,-24.22235870361328,149.48291015625,-225.07318115234375, -11.855755805969238
214,1428098198,0.33246052,0.57251775,-0.3609267,0.65682983,9.661184310913086,1.686476469039917,-8.940901756286621,206.090576171875,-242.5716094970703, 16.350425720214844
215,1428114865,0.30174318,0.5981529,-0.34813955,0.65571564,7.228335380554199,6.049806118011475,10.31479263305664,235.87673950195312,-163.80654907226562, 22.514135360717773
216,1428131532,0.28640112,0.6102787,-0.3576083,0.6462591,22.456254959106445,-3.1074090003967285,17.907827377319336,24.21236801147461,-147.10678100585938, 59.83053970336914
217,1428148199,0.28012136,0.62293965,-0.3714689,0.62887937,19.12786865234375,20.695344924926758,4.765894889831543,-51.7887077331543,-169.7792510986328, 21.083425521850586
218,1428164866,0.26680234,0.63785034,-0.37703928,0.6162832,-3.478271484375,-1.6724637746810913,-2.7772841453552246,30.728303909301758,-161.35067749023438, 20.01190185546875
219,1428181533,0.25208074,0.65089583,-0.37401143,0.61065984,3.1277339458465576,-1.2067229747772217,-4.467848300933838,87.97891235351562,-110.80293273925781, 5.757008075714111
220,1428198200,0.2529773,0.6564191,-0.38096014,0.59998834,0.8573974370956421,-4.731198787689209,-2.270756959915161,-49.828250885009766,-78.98430633544922, -4.632339954376221
221,1428214867,0.25705108,0.6596303,-0.3848855,0.59217894,5.9641876220703125,-5.556020259857178,-3.18801212310791,-48.23649215698242,-43.03501510620117, -20.455158233642578
222,1428231534,0.25471088,0.663266,-0.38206178,0.5909565,7.453114032745361,-4.1775898933410645,2.6699752807617188,26.492340087890625,-20.008283615112305, -14.544940948486328
223,1428248201,0.26400274,0.6641564,-0.39441296,0.57761383,8.266610145568848,-0.40096908807754517,9.462431907653809,-124.8858413696289,-60.355133056640625, -6.676761627197266
224,1428264868,0.2699419,0.6688655,-0.40759242,0.56001675,7.224052906036377,-5.094179153442383,7.905263423919678,-117.49579620361328,-105.89898681640625, -7.613688945770264
225,1428281535,0.26890314,0.67775595,-0.41830447,0.54162663,6.873547077178955,2.5695345401763916,13.53681755065918,-70.3940658569336,-140.90090942382812, -5.363680362701416
226,1428298202,0.27042598,0.68604916,-0.4341315,0.5174327,5.421332359313965,8.642908096313477,10.162668228149414,-119.19475555419922,-168.21412658691406, 0.0032725126948207617
227,1428314869,0.26793748,0.69723994,-0.44510484,0.4939108,3.5594658851623535,10.30356502532959,11.408559799194336,-75.569580078125,-178.57867431640625, -15.827213287353516
228,1428331536,0.26072592,0.7116458,-0.45130262,0.4710716,5.187136650085449,5.382472515106201,17.341964721679688,-28.6289005279541,-192.15499877929688, -31.060155868530273
229,1428348203,0.24651057,0.7289475,-0.45446756,0.4486953,8.560321807861328,-3.1863319873809814,9.96115779876709,22.14872169494629,-215.96522521972656, -31.288915634155273
230,1428364870,0.21834438,0.7497673,-0.452523,0.43057865,12.134432792663574,-5.534852027893066,9.200044631958008,127.12397766113281,-240.65150451660156, -17.71063804626465
231,1428381537,0.19221725,0.76840395,-0.45368817,0.4083812,11.803290367126465,-2.632906913757324,20.87888526916504,91.3864974975586,-253.79417419433594, -7.1444597244262695
232,1428398204,0.17927583,0.7793344,-0.4612754,0.38434756,8.093648910522461,1.234912633895874,27.9506893157959,-12.27361011505127,-209.65684509277344, 11.3336763381958
233,1428414871,0.18478803,0.7828785,-0.47414172,0.35797244,7.204138278961182,-0.7791930437088013,27.92068099975586,-141.65652465820312,-151.18629455566406, 11.352482795715332
234,1428431538,0.19270888,0.78193766,-0.48355407,0.34294635,7.126787185668945,-5.396403789520264,28.337129592895508,-114.84346771240234,-67.26822662353516, 15.738801956176758
235,1428448205,0.19859293,0.77768487,-0.48481885,0.34744442,4.249250888824463,-3.836885929107666,25.819082260131836,-24.24325180053711,49.10446548461914, 13.444914817810059
236,1428464872,0.2082664,0.76801795,-0.4793104,0.37018254,5.958604335784912,-1.0520892143249512,18.827178955078125,25.036026000976562,181.1551055908203, 11.060521125793457
237,1428481539,0.22847565,0.7502997,-0.47161362,0.40302604,1.5240592956542969,6.94995641708374,17.138774871826172,-3.2610995769500732,292.722412109375, 13.693166732788086
238,1428498206,0.26301825,0.72237074,-0.46736285,0.43654802,-0.2939312160015106,6.289623260498047,7.8661417961120605,-100.56903839111328,365.5655822753906, 26.031177520751953
239,1428514873,0.3014775,0.68674064,-0.46212485,0.47322252,-0.22790959477424622,5.6850996017456055,-0.0700840950012207,-120.8562240600586,418.9004211425781, 39.858245849609375
240,1428531540,0.33308935,0.65067136,-0.44733137,0.51533765,-0.9974232316017151,2.8735647201538086,-10.93685531616211,-40.99982452392578,444.3534851074219, 29.740936279296875
241,1428548207,0.35454202,0.6207219,-0.41900814,0.55985403,2.99117374420166,6.819970607757568,-17.90237808227539,73.8657455444336,433.6600341796875, -8.058591842651367
242,1428564874,0.37179652,0.59749323,-0.38340485,0.5981388,8.512276649475098,0.7189434766769409,-30.73262596130371,118.25409698486328,387.4580078125, -57.32734298706055
243,1428581541,0.38397855,0.579358,-0.3548828,0.6252704,8.085582733154297,-10.720102310180664,-35.18861389160156,93.5376968383789,290.0722961425781, -49.27178955078125
244,1428598208,0.38490033,0.57042587,-0.33435464,0.64395136,5.236454010009766,-15.327171325683594,-39.36442184448242,107.7109375,169.23623657226562, -14.061595916748047
245,1428614875,0.37532875,0.57058203,-0.32180557,0.65574825,-4.385715007781982,-11.866366386413574,-31.926258087158203,121.81864929199219,57.79539489746094, 24.173715591430664
246,1428631542,0.36889747,0.56969184,-0.33129683,0.65544516,-7.187475681304932,-8.148056983947754,-24.800569534301758,-19.29010581970215,-34.153076171875, 67.2857666015625
247,1428648209,0.36279154,0.5711667,-0.35218215,0.64662105,-10.110719680786133,-7.042677402496338,-29.34760093688965,-85.27912902832031,-105.86368560791016, 83.3365478515625
248,1428664876,0.34849763,0.5910632,-0.36713147,0.6280194,-3.352076530456543,14.127288818359375,-45.03865051269531,-4.4330058097839355,-230.6536102294922, 27.33640480041504
249,1428681543,0.3367139,0.61092466,-0.38284564,0.60566026,8.615221977233887,3.4315197467803955,7.38130521774292,-27.59807586669922,-240.3437042236328, 11.069401741027832
250,1428698210,0.3021406,0.63823014,-0.36586586,0.60623085,7.790427207946777,10.381240844726562,-0.13595250248908997,281.924560546875,-159.85028076171875, 2.1531989574432373
251,1428714877,0.27919954,0.65738,-0.36232775,0.5988469,21.893823623657227,22.95744514465332,0.9299831390380859,137.7902374267578,-159.6766815185547, 16.773231506347656
252,1428731544,0.2758271,0.6664625,-0.37649855,0.5813743,-8.133272171020508,1.1638206243515015,-1.2015472650527954,-68.05223083496094,-149.38308715820312, 22.53849220275879
253,1428748211,0.2676429,0.6745899,-0.38108376,0.57277495,5.289278984069824,-5.263230800628662,-1.6499444246292114,13.494702339172363,-99.31207275390625, 17.157772064208984
254,1428764878,0.26319182,0.6807133,-0.3861808,0.56411344,9.669000625610352,-2.405151844024658,2.6648566722869873,-9.688322067260742,-83.03108978271484, 9.830162048339844
255,1428781545,0.26263648,0.68526673,-0.3945761,0.55293876,8.0764799118042,-9.496683120727539,4.421247959136963,-50.233219146728516,-84.61603546142578, 9.748113632202148
256,1428798212,0.26157227,0.69180715,-0.40236092,0.53952605,7.416625499725342,-4.588756561279297,7.12031888961792,-48.02951431274414,-103.28997039794922, -0.8173385858535767
257,1428814879,0.26255298,0.69951785,-0.41326794,0.52052903,8.13259220123291,3.397751808166504,9.701497077941895,-82.71256256103516,-134.49610900878906, -6.893406391143799
258,1428831546,0.26442906,0.7083667,-0.42434925,0.49821845,11.430145263671875,3.6545262336730957,13.527027130126953,-95.002197265625,-152.6744384765625, -18.346656799316406
259,1428848213,0.27104738,0.7150816,-0.43656746,0.47392052,12.755897521972656,7.153781890869141,26.195016860961914,-131.65753173828125,-143.7728729248047, -26.328388214111328
260,1428864880,0.2798319,0.7224168,-0.45307547,0.44105637,5.365880966186523,2.848114013671875,16.48018455505371,-180.80503845214844,-190.22836303710938, -29.976232528686523
261,1428881547,0.2603946,0.7418518,-0.45762855,0.41524327,10.679166793823242,-15.917470932006836,4.558355808258057,40.97001647949219,-257.24639892578125, -27.875484466552734
262,1428898214,0.21008897,0.7689238,-0.44312614,0.4101929,8.36227798461914,-2.2247164249420166,14.705374717712402,331.8662414550781,-236.4071044921875, -24.12312889099121
263,1428914881,0.17940417,0.7870659,-0.4413757,0.39182812,7.887923240661621,5.84260368347168,23.524686813354492,138.55050659179688,-240.55516052246094, -3.9931697845458984
264,1428931548,0.16178927,0.79954463,-0.4439269,0.37078512,4.70515251159668,3.365640640258789,23.703285217285156,41.17622756958008,-205.9298858642578, -1.859745740890503
265,1428948215,0.16119508,0.80764985,-0.4514973,0.34331965,4.833549976348877,1.0438716411590576,23.761579513549805,-89.62156677246094,-184.15032958984375, -11.418234825134277
266,1428964882,0.17077258,0.8117092,-0.46051776,0.31605136,5.770703315734863,-0.32748907804489136,25.770870208740234,-153.38648986816406,-143.933349609375, -14.700241088867188
267,1428981549,0.18350615,0.8115949,-0.4687358,0.29652315,3.927597761154175,-1.5998170375823975,23.168941497802734,-149.6339111328125,-81.13607788085938, -3.900623321533203
268,1428998216,0.20085515,0.8060538,-0.47724447,0.286657,4.299755573272705,-3.4854888916015625,22.29074478149414,-151.7053680419922,-1.9320353269577026, 17.80373191833496
269,1429014883,0.21603413,0.79566365,-0.48324445,0.2944888,3.740931510925293,-4.084693431854248,21.464717864990234,-83.40742492675781,101.79484558105469, 48.341712951660156
270,1429031550,0.23110484,0.7797582,-0.48425525,0.3225905,3.3287484645843506,-2.93792462348938,19.308698654174805,-13.619173049926758,230.7010955810547, 69.59300231933594
271,1429048217,0.25242317,0.75646937,-0.48178065,0.36321396,5.4743523597717285,-1.7685579061508179,14.738981246948242,-9.470458030700684,340.45721435546875, 81.50465393066406
272,1429064884,0.2735871,0.72834045,-0.47104827,0.41567287,8.820696830749512,-2.207040309906006,5.78798770904541,42.77255630493164,427.9293212890625, 75.53902435302734
273,1429081551,0.2928744,0.6962907,-0.45078626,0.47560045,11.299918174743652,-1.0059758424758911,-3.431612491607666,96.26199340820312,488.5537109375, 59.99736404418945
274,1429098218,0.3093854,0.6613189,-0.42006072,0.53896856,12.835762023925781,1.965764045715332,-9.485862731933594,148.63377380371094,527.4197998046875, 35.1030158996582
275,1429114885,0.33937207,0.6186316,-0.3963583,0.5873855,14.35784912109375,7.99170446395874,-13.530426025390625,1.6192798614501953,512.3661499023438, 7.705212593078613
276,1429131552,0.38333696,0.56594115,-0.39283988,0.6151749,15.125797271728516,0.9906814098358154,-29.31385040283203,-219.11279296875,456.5499267578125, 16.37264060974121
277,1429148219,0.4140251,0.52152777,-0.38637838,0.6382036,6.262989521026611,-4.624733924865723,-37.558692932128906,-145.92222595214844,375.770751953125, 26.106910705566406
278,1429164886,0.43726763,0.48611766,-0.3833625,0.6523189,2.2942404747009277,6.797530174255371,-29.441118240356445,-132.25869750976562,275.8194274902344, 21.71272850036621
279,1429181553,0.45203915,0.46121064,-0.38429442,0.659745,-2.8309383392333984,0.09388193488121033,-34.22356033325195,-107.69246673583984,172.97610473632812, 25.290348052978516
280,1429198220,0.44845182,0.45710173,-0.37421954,0.6707524,-7.093946933746338,2.8228986263275146,-32.02714920043945,74.64923858642578,76.5609359741211, 29.852813720703125
281,1429214887,0.43501854,0.46840218,-0.3627478,0.6780651,-8.385397911071777,8.5564603805542,-28.949813842773438,150.09817504882812,-26.430267333984375, 19.825271606445312
282,1429231554,0.41969013,0.48755035,-0.36146516,0.67490584,-8.136024475097656,8.601015090942383,-28.41194725036621,106.01917266845703,-131.3828582763672, 10.658243179321289
283,1429248221,0.40413204,0.5122679,-0.36978695,0.6614505,-5.182366847991943,7.681443214416504,-29.251117706298828,52.66611099243164,-219.5232696533203, 0.46032363176345825
284,1429264888,0.36446184,0.558071,-0.3716218,0.64623654,6.550959587097168,-5.969738483428955,-49.92052459716797,221.3376922607422,-364.5270690917969, 28.79047393798828
285,1429281555,0.31114134,0.60624516,-0.3481741,0.64376456,15.491146087646484,4.223293304443359,11.241894721984863,424.9105529785156,-296.60626220703125, 17.687353134155273
286,1429298222,0.27986875,0.63687766,-0.3409989,0.63228184,5.496933460235596,19.241979598999023,2.797637462615967,201.4756622314453,-239.0188446044922, 10.439577102661133
287,1429314889,0.27094036,0.6518423,-0.36011505,0.6099265,20.88977813720703,-1.3760344982147217,6.474124908447266,-66.45265197753906,-217.05149841308594, 44.715389251708984
288,1429331556,0.25216997,0.6702234,-0.36033258,0.5978056,9.387816429138184,9.811249732971191,-1.7788488864898682,88.64129638671875,-175.12548828125, 11.91305923461914
289,1429348223,0.23554514,0.6865902,-0.36043978,0.5858291,3.0161638259887695,2.8413290977478027,0.6665967106819153,76.0660171508789,-160.86871337890625, 8.040834426879883
290,1429364890,0.22505996,0.69875526,-0.36227056,0.5743249,11.003671646118164,0.5246507525444031,1.0892119407653809,34.501564025878906,-129.50543212890625, 2.6641902923583984
291,1429381557,0.22274388,0.705302,-0.36785057,0.5635783,8.047307014465332,-3.8664095401763916,1.297155737876892,-26.36005401611328,-89.39981842041016, 3.6262989044189453
292,1429398224,0.22562622,0.70882136,-0.37460604,0.5534759,5.996058940887451,-2.343751907348633,3.3035168647766113,-59.14698791503906,-63.437129974365234, -2.2248547077178955
293,1429414891,0.23101349,0.7126023,-0.38314825,0.54039645,5.843006134033203,-0.1483437418937683,6.377366542816162,-85.4337158203125,-75.5301284790039, -8.34506607055664
294,1429431558,0.23778577,0.7172873,-0.3940427,0.5231514,5.277354717254639,0.8373766541481018,7.617023468017578,-110.50984191894531,-99.72693634033203, -10.908087730407715
295,1429448225,0.24484333,0.7229734,-0.40751672,0.50128967,4.810439586639404,1.667954444885254,12.873871803283691,-132.07144165039062,-129.89959716796875, -9.402986526489258
296,1429464892,0.2506055,0.7301019,-0.42116705,0.47620004,2.3481433391571045,1.225765347480774,10.10395336151123,-132.84490966796875,-155.32403564453125, -13.468854904174805
297,1429481559,0.24760097,0.74037397,-0.4322574,0.4513245,3.7595949172973633,-3.388420581817627,8.861207008361816,-74.3925552368164,-185.86305236816406, -6.320213317871094
298,1429498226,0.23460916,0.7528617,-0.43876764,0.43086073,3.51379656791687,-3.5294363498687744,12.400472640991211,7.539827823638916,-192.46246337890625, 2.1840498447418213
299,1429514893,0.21488589,0.7672828,-0.44123596,0.41280985,2.8458144664764404,0.7947906851768494,14.418837547302246,64.74138641357422,-199.86004638671875, -0.8271243572235107
300,1429531560,0.19994837,0.77865887,-0.44788983,0.39128718,3.6987738609313965,0.9305170774459839,11.600852012634277,12.596701622009277,-201.5825653076172, 11.802465438842773
301,1429548227,0.19007684,0.7869772,-0.45628032,0.3692505,4.44948673248291,1.8871408700942993,21.115318298339844,-24.972137451171875,-183.19097900390625, 16.19546127319336
302,1429564894,0.19172709,0.79076016,-0.46891752,0.3435919,2.689610004425049,5.145358562469482,22.98784065246582,-115.3697509765625,-161.1935577392578, 19.41777229309082
303,1429581561,0.20109323,0.79023415,-0.48138592,0.32149518,1.8818883895874023,1.7953989505767822,19.488794326782227,-151.04803466796875,-107.01702117919922, 18.877952575683594
304,1429598228,0.21729161,0.78586876,-0.49303114,0.30350488,3.3431625366210938,-0.13812273740768433,20.670278549194336,-178.04920959472656,-52.789390563964844, 17.598421096801758
305,1429614895,0.23371056,0.77880836,-0.5020481,0.2945924,5.321860313415527,-4.087130069732666,17.337926864624023,-147.0024871826172,6.220731258392334, 25.49386978149414
306,1429631562,0.24726841,0.77056336,-0.5053562,0.2995088,7.431303024291992,-5.27374792098999,12.939712524414062,-74.33618927001953,81.68958282470703, 26.84396743774414
307,1429648229,0.25956053,0.7603518,-0.5023053,0.319661,9.468138694763184,-3.944972276687622,11.223261833190918,-4.998795032501221,172.66896057128906, 28.35325813293457
308,1429664896,0.2734691,0.7461369,-0.4960167,0.34994596,6.751087188720703,-0.8895178437232971,7.511526107788086,21.495567321777344,245.62002563476562, 39.72165298461914
309,1429681563,0.29021862,0.72635496,-0.48935103,0.38563883,5.380165100097656,-0.903893768787384,2.620976686477661,15.801548957824707,297.1305236816406, 60.14205551147461
310,1429698230,0.3111659,0.7000505,-0.48391995,0.42299736,4.026168346405029,0.09215301275253296,-1.3678991794586182,-15.884788513183594,334.53131103515625, 80.46882629394531
311,1429714897,0.33244535,0.6692157,-0.47573212,0.46401483,2.7094743251800537,0.5497331023216248,-4.778428554534912,-7.008815765380859,372.58538818359375, 89.16974639892578
312,1429731564,0.35774282,0.6346886,-0.46863332,0.4995732,0.6833823919296265,4.578773021697998,-8.039224624633789,-55.30889129638672,370.2173767089844, 80.97315979003906
313,1429748231,0.38226,0.59970206,-0.45879018,0.53267854,3.605205774307251,5.058438301086426,-15.385978698730469,-51.513710021972656,365.7389221191406, 67.22872924804688
314,1429764898,0.40318176,0.56838435,-0.4440553,0.5632038,5.16005802154541,6.533934593200684,-20.184926986694336,-17.24673080444336,343.7375793457031, 41.99311065673828
315,1429781565,0.4211465,0.54181606,-0.43112776,0.58583283,4.3805975914001465,4.211435317993164,-26.504634857177734,-23.635662078857422,281.0942077636719, 24.286989212036133
316,1429798232,0.4310197,0.5256427,-0.41872424,0.602156,0.29184699058532715,-0.9275416135787964,-31.849573135375977,15.81981086730957,191.04335021972656, 9.869681358337402
317,1429814899,0.43217954,0.5204443,-0.40830067,0.61290234,-3.9990944862365723,0.7607413530349731,-31.29401397705078,55.632568359375,95.44510650634766, 4.947568893432617
318,1429831566,0.42907646,0.5218713,-0.4050089,0.61604524,-7.77092170715332,4.384130477905273,-26.787202835083008,39.213382720947266,8.02939224243164, 7.229989051818848
319,1429848233,0.42130795,0.53168494,-0.40363583,0.61391276,-8.756119728088379,2.86608624458313,-23.570756912231445,57.87799072265625,-64.40151977539062, -4.979356288909912
320,1429864900,0.4067374,0.5507482,-0.40035594,0.6090618,-7.500813007354736,4.0035400390625,-19.83323097229004,110.04875946044922,-126.20623016357422, -16.803449630737305
321,1429881567,0.38047102,0.58219033,-0.40597016,0.5928613,-3.227821111679077,1.6135468482971191,-41.047298431396484,120.48216247558594,-277.751953125, 0.011689571663737297
322,1429898234,0.34605092,0.6169047,-0.40437537,0.57979155,11.745715141296387,10.859488487243652,0.9778545498847961,199.8642120361328,-281.4376220703125, 3.2658448219299316
323,1429914901,0.3093954,0.6445166,-0.39009905,0.5802549,-0.3718150556087494,8.518320083618164,4.060105800628662,280.6126403808594,-172.00804138183594, 10.361037254333496
324,1429931568,0.28275576,0.6653901,-0.38581374,0.5731082,8.24499797821045,3.1013996601104736,-2.1312756538391113,161.54420471191406,-173.55703735351562, 16.56028938293457
325,1429948235,0.26721612,0.6777639,-0.3890857,0.5637768,11.238349914550781,-2.9550299644470215,5.057721138000488,58.65238571166992,-135.4676971435547, 25.68595314025879
326,1429964902,0.25796387,0.686156,-0.39516938,0.55361164,12.292155265808105,5.415682315826416,3.8142709732055664,8.914643287658691,-112.67234802246094, 23.463380813598633
327,1429981569,0.25338107,0.69394094,-0.40330687,0.5399886,4.731688022613525,2.2965874671936035,-1.2173556089401245,-31.388526916503906,-118.00456237792969, 11.091776847839355
328,1429998236,0.24446467,0.7025311,-0.40445694,0.532073,7.919927597045898,-1.6187437772750854,0.267944872379303,32.470726013183594,-93.7507095336914, 1.6237157583236694
329,1430014903,0.24027763,0.70921075,-0.40674046,0.5233059,10.488521575927734,0.057396139949560165,2.293795108795166,-0.10888203233480453,-79.8388900756836, -6.359443664550781
330,1430031570,0.2426086,0.71342343,-0.41277808,0.5116469,8.760376930236816,-3.5933427810668945,3.477285146713257,-57.56908416748047,-73.3307113647461, -9.338244438171387
331,1430048237,0.24811321,0.7163922,-0.42075956,0.49818018,10.064925193786621,-1.1479029655456543,7.379486560821533,-87.20565795898438,-72.36092376708984, -10.495999336242676
332,1430064904,0.25646666,0.718875,-0.43054697,0.48173955,7.0841851234436035,0.6242882609367371,10.681693077087402,-116.86986541748047,-80.61392211914062, -14.999170303344727
333,1430081571,0.26568946,0.72254115,-0.44154605,0.46084785,5.602050304412842,0.1440410315990448,15.401790618896484,-136.27114868164062,-106.57722473144531, -23.188770294189453
334,1430098238,0.2749202,0.7273827,-0.45287406,0.4361634,3.3080461025238037,0.16814106702804565,18.323511123657227,-146.71212768554688,-130.29449462890625, -32.06999206542969
335,1430114905,0.27843258,0.7353567,-0.4611168,0.4112146,1.906160831451416,-2.3347878456115723,7.873727321624756,-103.73104858398438,-153.5645294189453, -40.62393569946289
336,1430131572,0.26706156,0.74875593,-0.46378157,0.39108774,5.4125189781188965,-6.851819038391113,7.87346076965332,12.973944664001465,-181.2529296875, -34.79593276977539
337,1430148239,0.2458665,0.76686597,-0.4619622,0.37156034,5.656796932220459,-1.319097638130188,11.65461254119873,86.13353729248047,-214.2032012939453, -45.56075668334961
338,1430164906,0.22097076,0.7849488,-0.4606225,0.35050565,6.6969380378723145,-1.6727148294448853,11.26746654510498,99.54928588867188,-235.11231994628906, -36.07602310180664
339,1430181573,0.19250244,0.8007345,-0.4590634,0.33320862,10.134336471557617,-3.4720427989959717,19.82512855529785,127.78170776367188,-220.60426330566406, -15.652316093444824
340,1430198240,0.16357371,0.812346,-0.45849246,0.32112733,6.88524055480957,2.737963914871216,24.79326629638672,138.969970703125,-185.6477813720703, 10.923489570617676
341,1430214907,0.15268141,0.817154,-0.4639147,0.3061553,4.039392471313477,3.746342420578003,23.236215591430664,8.270247459411621,-137.19110107421875, 22.884279251098633
342,1430231574,0.16172466,0.81534594,-0.47540477,0.2881782,4.863729000091553,2.8856687545776367,22.812421798706055,-133.0002899169922,-83.33863067626953, 32.9757080078125
343,1430248241,0.18197119,0.80864865,-0.4878051,0.2738977,6.741329669952393,0.9868754744529724,19.598663330078125,-190.9515380859375,-17.697317123413086, 35.86082077026367
344,1430264908,0.20803173,0.7981078,-0.49781868,0.2681851,8.127351760864258,-0.7777066230773926,15.84200668334961,-194.8598175048828,59.34775924682617, 35.05976104736328
345,1430281575,0.23362215,0.78497493,-0.5015784,0.27866533,10.812112808227539,-0.16261669993400574,13.321161270141602,-129.0342559814453,160.07325744628906, 33.440818786621094
346,1430298242,0.2589513,0.768181,-0.5011366,0.30282712,8.917525291442871,0.1541772037744522,9.594968795776367,-78.2546157836914,246.54075622558594, 45.74898147583008
347,1430314909,0.28009772,0.7475029,-0.49760592,0.33937195,7.400453090667725,-2.625293493270874,4.510124206542969,-13.96503734588623,311.0226745605469, 73.55987548828125
348,1430331576,0.29822108,0.72207105,-0.49097914,0.38550922,5.542013168334961,-1.2389463186264038,1.2382252216339111,32.41619873046875,367.10943603515625, 99.44097900390625
349,1430348243,0.31606725,0.69176686,-0.4800839,0.43712664,4.116603851318359,0.21368712186813354,-3.6495261192321777,53.56886672973633,415.24822998046875, 106.74649047851562
350,1430364910,0.33466396,0.65813285,-0.46353382,0.4898956,3.142874002456665,3.636229991912842,-8.15521240234375,63.525508880615234,445.8332824707031, 91.18970489501953
351,1430381577,0.35483488,0.6227687,-0.44275254,0.5387223,3.885469913482666,7.118068695068359,-14.964791297912598,54.082191467285156,448.9983215332031, 63.34648895263672
352,1430398244,0.38005313,0.5864088,-0.42109242,0.5782437,8.792556762695312,7.486255168914795,-23.874908447265625,4.923437118530273,430.9360656738281, 21.415725708007812
353,1430414911,0.4065743,0.5518615,-0.40744725,0.6034344,8.63104248046875,0.4432048797607422,-35.703880310058594,-69.00677490234375,349.54156494140625, 6.031831741333008
354,1430431578,0.41721198,0.5316723,-0.3933105,0.62335026,1.1652424335479736,-7.514995574951172,-43.714996337890625,18.7113094329834,227.97520446777344, 15.103233337402344
355,1430448245,0.41843584,0.5248279,-0.38549125,0.63313794,-4.502188205718994,6.021633148193359,-34.65803527832031,37.05936813354492,91.58110046386719, 13.197641372680664
356,1430464912,0.42094016,0.5216634,-0.39360473,0.6290883,-8.03665828704834,5.738908767700195,-29.620525360107422,-63.022762298583984,-15.759601593017578, 15.709237098693848
357,1430481579,0.41438904,0.5314961,-0.39767867,0.6226118,-9.44261646270752,1.6020283699035645,-26.089197158813477,17.967445373535156,-92.67293548583984, -1.6635969877243042
358,1430498246,0.3962161,0.55498046,-0.39031234,0.61859983,-6.9068522453308105,5.550739288330078,-18.4117431640625,155.08250427246094,-140.6293182373047, -24.095319747924805
359,1430514913,0.3731814,0.58470285,-0.39428404,0.6028255,-8.681047439575195,-0.2695304751396179,-44.83390808105469,110.80966186523438,-255.59625244140625, -8.951642990112305
360,1430531580,0.32923692,0.62576663,-0.39066276,0.589408,17.619462966918945,8.883965492248535,-9.433431625366211,261.9946594238281,-329.1873779296875, 22.195796966552734
361,1430548247,0.2834037,0.65844566,-0.37114248,0.5902414,7.978032112121582,4.155007362365723,8.425347328186035,353.86419677734375,-202.8639678955078, 16.04861831665039
362,1430564914,0.2570421,0.6795749,-0.36985272,0.57906514,7.176299571990967,2.6712915897369385,5.922503471374512,138.38848876953125,-196.71017456054688, 25.480152130126953
363,1430581581,0.24791558,0.6895455,-0.38355404,0.56209534,17.511272430419922,-2.365523338317871,6.872345924377441,-36.297847747802734,-162.47044372558594, 45.11532211303711
364,1430598248,0.23716363,0.7012933,-0.39012867,0.5474858,12.517581939697266,8.354341506958008,-0.6087122559547424,8.212450981140137,-150.84075927734375, 16.97258186340332
365,1430614915,0.22557798,0.7137723,-0.3943757,0.5330213,5.399918079376221,1.771041750907898,-0.7778192758560181,22.594039916992188,-151.62130737304688, 7.44488000869751
366,1430631582,0.21414536,0.7243528,-0.3961743,0.5220162,11.53711986541748,-0.652887761592865,3.5026698112487793,37.25702667236328,-123.67436218261719, 5.431524753570557
367,1430648249,0.21046285,0.7326422,-0.40148023,0.5076955,8.825159072875977,-1.185544729232788,0.8323296308517456,-26.34505844116211,-116.41654968261719, -3.5336923599243164
368,1430664916,0.21255547,0.7385179,-0.40961003,0.49156013,8.080732345581055,-4.314645767211914,4.478139400482178,-73.80946350097656,-105.54817962646484, -5.3990254402160645
369,1430681583,0.2170647,0.742412,-0.4175165,0.47685185,9.299261093139648,-1.2455048561096191,7.488349437713623,-84.2383041381836,-84.8273696899414, -7.079758644104004
370,1430698250,0.22518395,0.7467155,-0.42744416,0.4571649,9.419808387756348,0.5819432735443115,13.670190811157227,-122.98979949951172,-104.69282531738281, -17.169391632080078
371,1430714917,0.23601347,0.75084084,-0.43899727,0.43337905,6.273535251617432,1.9755542278289795,18.44864273071289,-154.33856201171875,-120.34554290771484, -23.098054885864258
372,1430731584,0.24703117,0.7554462,-0.45190197,0.40504512,3.0816242694854736,0.19237066805362701,9.553796768188477,-172.26214599609375,-147.55667114257812, -25.45273780822754
373,1430748251,0.24324954,0.7652562,-0.45850918,0.3807652,7.18971061706543,-5.757258892059326,8.947514533996582,-56.3765754699707,-176.59225463867188, -26.246278762817383
374,1430764918,0.22980767,0.778573,-0.4607999,0.3587149,6.1989030838012695,-0.45258575677871704,13.853729248046875,18.61093521118164,-197.6295928955078, -31.153602600097656
375,1430781585,0.21086393,0.7919072,-0.46313217,0.3375324,6.29573917388916,-2.2467868328094482,11.026813507080078,50.768798828125,-210.97132873535156, -16.04686737060547
376,1430798252,0.19440077,0.802435,-0.46735832,0.31604233,7.211763381958008,0.18235374987125397,14.513452529907227,27.809024810791016,-201.3158416748047, -3.046318531036377
377,1430814919,0.17745684,0.8097453,-0.47224143,0.29968277,5.2027459144592285,1.6963469982147217,24.24004554748535,41.24410629272461,-168.85272216796875, 18.833694458007812
378,1430831586,0.17318131,0.81246173,-0.4802467,0.2815627,2.801616668701172,2.8539886474609375,21.554744720458984,-47.00169372558594,-132.41119384765625, 22.91190528869629
379,1430848253,0.17723086,0.81157804,-0.48901457,0.2660737,2.4737579822540283,0.33763718605041504,18.25337028503418,-90.53367614746094,-84.55093383789062, 26.076974868774414
380,1430864920,0.1907381,0.8068737,-0.49846524,0.25319263,4.560057640075684,-1.5418715476989746,17.66706657409668,-140.4480743408203,-32.31914520263672, 28.502540588378906
381,1430881587,0.20799455,0.79954076,-0.50553954,0.24880287,6.3488945960998535,-4.605374336242676,12.226441383361816,-131.48138427734375,35.03859329223633, 28.769685745239258
382,1430898254,0.22358768,0.7917301,-0.5055827,0.25991943,8.2454833984375,-2.7350566387176514,10.843724250793457,-57.154884338378906,125.15995025634766, 16.6044979095459
383,1430914921,0.2430072,0.7802833,-0.5030182,0.28120893,6.235486030578613,1.5723637342453003,9.92821216583252,-43.55665969848633,204.12728881835938, 23.741548538208008
384,1430931588,0.27066797,0.7623066,-0.5023549,0.30539685,4.4810404777526855,0.22749197483062744,5.810633659362793,-92.28804779052734,257.49749755859375, 45.418739318847656
385,1430948255,0.30121705,0.73752946,-0.5036119,0.33420607,4.8580217361450195,-1.520526647567749,1.644336223602295,-108.16472625732422,302.422607421875, 81.44560241699219
386,1430964922,0.33169165,0.7067135,-0.50539124,0.3675822,4.472489356994629,-2.6376171112060547,-1.680534839630127,-105.73758697509766,338.2414245605469, 114.5287857055664
387,1430981589,0.3547985,0.6739832,-0.5013753,0.41047248,3.1003963947296143,-3.671984910964966,-5.484441757202148,-26.61588478088379,377.14178466796875, 133.24574279785156
388,1430998256,0.37040994,0.6419014,-0.48948094,0.45952994,3.821536064147949,0.9150377511978149,-6.3167314529418945,53.18894958496094,397.5919494628906, 130.66990661621094
389,1431014923,0.38064188,0.61133343,-0.46851808,0.5117365,6.4762396812438965,5.345308780670166,-10.92176342010498,120.09754180908203,412.02301025390625, 110.70584869384766
390,1431031590,0.39000908,0.58378845,-0.43887016,0.5607825,9.024796485900879,10.945021629333496,-18.850290298461914,152.0611114501953,408.464111328125, 59.498146057128906
391,1431048257,0.4104843,0.5543305,-0.4193788,0.590205,7.516901016235352,12.935139656066895,-25.142396926879883,3.8671789169311523,343.9454650878906, 10.941580772399902
392,1431064924,0.4331715,0.52793515,-0.4153862,0.600917,1.8761577606201172,-2.2130866050720215,-34.74836730957031,-112.86441802978516,223.703125, -0.24327205121517181
393,1431081591,0.4357355,0.5200163,-0.40561998,0.6125278,-4.21573543548584,-0.16300658881664276,-35.49359893798828,41.717140197753906,111.54106140136719, 11.797861099243164
394,1431098258,0.43029383,0.5234704,-0.40068895,0.616664,-8.149633407592773,9.770814895629883,-29.844228744506836,63.2622184753418,1.275383472442627, 8.667736053466797
395,1431114925,0.41990152,0.5372879,-0.3983493,0.6134512,-8.293201446533203,7.641165733337402,-27.29098129272461,80.45478820800781,-89.51333618164062, -11.103588104248047
396,1431131592,0.39657238,0.564785,-0.4068993,0.5984824,-10.727474212646484,-10.331933975219727,-64.07007598876953,89.61182403564453,-256.79217529296875, 12.393684387207031
397,1431148259,0.34328565,0.61790925,-0.3964167,0.5858304,20.469131469726562,15.046331405639648,-7.185024261474609,361.0908508300781,-383.50946044921875, -4.281777381896973
398,1431164926,0.28470224,0.65666425,-0.3694324,0.592669,4.80406379699707,1.9740047454833984,14.660249710083008,469.276123046875,-218.20761108398438, 31.99591827392578
399,1431181593,0.2594935,0.6786667,-0.37217596,0.57754624,6.4715576171875,8.190455436706543,-6.701040267944336,108.45319366455078,-223.1782989501953, 29.513723373413086
400,1431198260,0.25181976,0.68862206,-0.38705903,0.5590813,8.213164329528809,-5.413883209228516,5.165700435638428,-51.63852310180664,-167.74847412109375, 41.63197326660156
401,1431214927,0.2363155,0.70103616,-0.3893687,0.5487218,17.908143997192383,6.047831058502197,-0.17751727998256683,59.604774475097656,-138.33172607421875, 19.588897705078125
402,1431231594,0.22116424,0.71357626,-0.38876215,0.5392212,7.348066329956055,4.766769886016846,-0.5566713809967041,71.41724395751953,-129.34523010253906, 5.4510650634765625
403,1431248261,0.21174432,0.72277325,-0.39125207,0.52885246,7.864436149597168,0.6442822217941284,0.39538007974624634,24.420032501220703,-110.83391571044922, 7.1465559005737305
404,1431264928,0.2105227,0.7290418,-0.39875042,0.5149529,9.931084632873535,-1.3287177085876465,1.8862680196762085,-48.29487228393555,-103.23103332519531, 5.030290126800537
405,1431281595,0.21102594,0.7347777,-0.40535405,0.5012562,8.147619247436523,-3.801246166229248,3.2727456092834473,-53.999855041503906,-94.62494659423828, -3.763418436050415
406,1431298262,0.21407351,0.73991346,-0.41247925,0.48637596,9.61927318572998,-1.0957070589065552,5.18576192855835,-72.8512191772461,-92.5298843383789, -9.97398567199707
407,1431314929,0.22368073,0.7429027,-0.4237516,0.46743706,8.145210266113281,-1.0708866119384766,9.3485746383667,-134.78146362304688,-93.89987182617188, -10.639110565185547
408,1431331596,0.23324756,0.74673605,-0.43419614,0.4466036,7.744606018066406,0.041070133447647095,13.01124095916748,-136.14918518066406,-105.62017822265625, -20.065757751464844
409,1431348263,0.24256983,0.7512227,-0.44384667,0.42405736,4.085042476654053,3.4763355255126953,13.701598167419434,-136.51547241210938,-116.44546508789062, -28.047630310058594
410,1431364930,0.24933842,0.7568575,-0.45344245,0.39923304,1.909449577331543,0.27158674597740173,7.203833103179932,-128.15406799316406,-139.76812744140625, -28.090702056884766
411,1431381597,0.24066703,0.76701856,-0.4564581,0.38132393,5.09173583984375,-4.477325439453125,9.675479888916016,-0.3954038918018341,-153.3026123046875, -22.210060119628906
412,1431398264,0.23055336,0.7789933,-0.45831454,0.36050308,4.754237651824951,0.9391409158706665,13.160931587219238,4.088259220123291,-176.3819122314453, -35.181365966796875
413,1431414931,0.21251248,0.79281235,-0.45987168,0.33882916,5.517158031463623,-4.302975654602051,11.989357948303223,47.57898712158203,-210.46542358398438, -24.279932022094727
414,1431431598,0.19332911,0.8048311,-0.46342266,0.31640247,5.680788516998291,-1.3782758712768555,12.03103256225586,44.120140075683594,-217.28268432617188, -6.257153511047363
415,1431448265,0.1714323,0.8148445,-0.46508908,0.30055252,6.4196858406066895,1.6772501468658447,22.034000396728516,81.5300521850586,-183.02149963378906, 4.335774898529053
416,1431464932,0.16768041,0.81926244,-0.4727799,0.2777977,4.4812211990356445,5.603326797485352,21.1272029876709,-61.20675277709961,-159.80007934570312, 10.381230354309082
417,1431481599,0.1772479,0.8188252,-0.48333195,0.25396654,4.471319675445557,1.495994210243225,18.002208709716797,-150.69068908691406,-117.06906127929688, 15.630166053771973
418,1431498266,0.19490224,0.814578,-0.4939096,0.2335153,5.830589771270752,-0.988339900970459,16.625606536865234,-189.64320373535156,-64.90919494628906, 18.2906494140625
419,1431514933,0.21143754,0.80829865,-0.50177026,0.22399567,6.5587158203125,-4.902224540710449,13.422835350036621,-144.60610961914062,-0.9183492660522461, 26.219738006591797
420,1431531600,0.22295555,0.8016902,-0.5042037,0.23100302,7.229277610778809,-4.265311241149902,11.891383171081543,-51.89101028442383,81.73714447021484, 28.726293563842773
421,1431548267,0.2361318,0.79254085,-0.5033123,0.2505945,7.383731842041016,-2.008542060852051,10.501463890075684,-16.06492805480957,165.7268829345703, 35.73386001586914
422,1431564934,0.25345454,0.77889144,-0.5016021,0.2783606,5.783179759979248,-2.301988124847412,7.111123561859131,-16.272491455078125,233.4959716796875, 52.92876052856445
423,1431581601,0.2715925,0.7610201,-0.4979588,0.3148382,5.700034141540527,-1.8288490772247314,3.900937080383301,5.732738971710205,294.3455505371094, 70.72374725341797
424,1431598268,0.29266435,0.737779,-0.49344757,0.35572368,5.536352634429932,-0.5969346761703491,0.09181645512580872,-2.7111968994140625,340.7275695800781, 86.44754791259766
425,1431614935,0.31358242,0.71003115,-0.48604298,0.40160185,5.35894250869751,-0.779216468334198,-4.566967964172363,12.993070602416992,382.5295104980469, 97.52375793457031
426,1431631602,0.33359155,0.6797306,-0.47474366,0.4486664,3.167935609817505,3.0688729286193848,-6.775179386138916,26.635732650756836,401.0016174316406, 92.13290405273438
427,1431648269,0.35377747,0.64723617,-0.46065706,0.4936821,3.888216495513916,4.69955587387085,-12.224271774291992,22.667621612548828,405.5291442871094, 81.18195343017578
428,1431664936,0.37132153,0.6168261,-0.44084862,0.53600246,7.336136817932129,5.391458034515381,-18.877212524414062,50.40529251098633,392.5204162597656, 51.70167922973633
429,1431681603,0.38591403,0.5908884,-0.41942292,0.5709692,7.464747428894043,4.273797035217285,-26.648754119873047,57.99700164794922,340.695556640625, 23.592510223388672
430,1431698270,0.3978226,0.5721422,-0.40209925,0.59389126,2.5590672492980957,6.293661594390869,-31.331396102905273,37.12427520751953,245.8217315673828, -1.7582467794418335
431,1431714937,0.40873915,0.5602947,-0.39633465,0.60159874,-3.423799514770508,5.067843437194824,-34.758750915527344,-29.4177303314209,124.54299926757812, -12.745532035827637
432,1431731604,0.4139641,0.5563992,-0.39939886,0.59961164,-7.326265335083008,4.125177383422852,-31.228700637817383,-48.114070892333984,15.17317008972168, -3.966200351715088
433,1431748271,0.4098249,0.56396174,-0.4014311,0.59400666,-8.283011436462402,3.585325241088867,-25.490615844726562,14.61600399017334,-67.68077850341797, -10.964319229125977
434,1431764938,0.39654288,0.58207536,-0.3985535,0.5874498,-7.70506477355957,5.262343406677246,-21.205812454223633,97.21025848388672,-125.11002349853516, -24.434261322021484
435,1431781605,0.35636076,0.62138385,-0.3918458,0.57736146,-3.737262487411499,-6.761733055114746,-57.38687515258789,268.5608215332031,-287.6613464355469, 1.130604863166809
436,1431798272,0.31256795,0.66095966,-0.3831735,0.564457,13.901774406433105,10.770256042480469,2.9607596397399902,284.8856506347656,-303.9054870605469, -1.181775689125061
437,1431814939,0.26573804,0.6894374,-0.36334312,0.56748706,-0.36478427052497864,0.09793131053447723,4.389409065246582,360.1292419433594,-172.7920684814453, 23.28543472290039
438,1431831606,0.24703735,0.7031749,-0.3711933,0.55383503,12.879271507263184,-5.47229528427124,7.757596492767334,50.01884460449219,-174.9862518310547, 50.8604736328125
439,1431848273,0.23721248,0.7121668,-0.38154075,0.53942156,22.977821350097656,7.746351718902588,4.653648853302002,-12.384140968322754,-142.7386016845703, 39.84632873535156
440,1431864940,0.22749068,0.72284204,-0.388429,0.52428114,6.221495151519775,8.691758155822754,-2.9570436477661133,0.8142202496528625,-147.19114685058594, 17.250314712524414
441,1431881607,0.20937788,0.73502874,-0.38531038,0.5171363,3.972550630569458,-3.18485164642334,1.0461397171020508,102.34921264648438,-119.79666900634766, 6.468907833099365
442,1431898274,0.20002769,0.74355876,-0.38772023,0.5067371,12.245482444763184,-0.3422738015651703,2.3937361240386963,24.50200653076172,-108.20378875732422, 8.137207984924316
443,1431914941,0.20236166,0.7488518,-0.3962344,0.49119166,9.121986389160156,-4.828362941741943,2.5914523601531982,-74.67300415039062,-100.8498306274414, 0.2539960443973541
444,1431931608,0.2039487,0.75385404,-0.40187958,0.47812346,10.679472923278809,-2.1739933490753174,4.270699501037598,-54.8263053894043,-85.46324157714844, -7.806305408477783
445,1431948275,0.20993891,0.7574236,-0.40971786,0.46299756,10.660072326660156,-0.05499827861785889,7.91907262802124,-92.5702896118164,-82.70977783203125, -9.816230773925781
446,1431964942,0.21791482,0.7615333,-0.41897687,0.44389048,9.281076431274414,0.46463799476623535,14.281123161315918,-117.86909484863281,-102.10601806640625, -15.928788185119629
447,1431981609,0.22794572,0.7656705,-0.4302082,0.42036965,5.320531845092773,1.883234977722168,19.41905403137207,-147.31320190429688,-122.97773742675781, -18.499046325683594
448,1431998276,0.2383036,0.77063423,-0.44190645,0.39249635,3.0214931964874268,2.2939462661743164,12.217659950256348,-161.92160034179688,-148.74766540527344, -26.198612213134766
449,1432014943,0.2358945,0.7789237,-0.45022905,0.36732233,6.416728496551514,-7.2120513916015625,10.152403831481934,-71.45110321044922,-177.08518981933594, -15.261086463928223
450,1432031610,0.22025526,0.7918018,-0.45261428,0.34594536,5.620180130004883,-0.7709365487098694,13.940791130065918,33.54902267456055,-200.0568084716797, -21.900123596191406
451,1432048277,0.19578786,0.80504525,-0.45360392,0.32834905,6.1464619636535645,-1.143444299697876,13.63715648651123,97.28544616699219,-206.17507934570312, -3.910597562789917
452,1432064944,0.17797844,0.8142172,-0.45637575,0.31160107,6.836441993713379,-0.37110209465026855,15.682093620300293,53.57161331176758,-174.34361267089844, 4.773928165435791
453,1432081611,0.16015325,0.8214956,-0.45879802,0.29832953,3.13429594039917,5.475305557250977,29.11622428894043,63.017791748046875,-150.91470336914062, 13.066567420959473
454,1432098278,0.16395879,0.82259417,-0.46735746,0.27934474,1.9372234344482422,4.4460554122924805,19.867822647094727,-96.46440887451172,-109.6783218383789, 16.673566818237305
455,1432114945,0.17898855,0.82004756,-0.47636297,0.2618466,2.111096143722534,4.009578227996826,17.583662033081055,-160.05812072753906,-59.06034469604492, 10.996971130371094
456,1432131612,0.20546392,0.81249636,-0.4877935,0.24431944,3.587196111679077,0.04943448305130005,16.14809799194336,-235.16139221191406,-15.986695289611816, 20.299732208251953
457,1432148279,0.23006302,0.8027117,-0.49648243,0.2371289,4.12437105178833,-3.1560027599334717,9.993034362792969,-188.53402709960938,42.844974517822266, 29.994964599609375
458,1432164946,0.25162408,0.7915253,-0.50097084,0.24331328,5.79240083694458,-3.3303191661834717,8.454753875732422,-121.52186584472656,115.11053466796875, 37.472328186035156
459,1432181613,0.2730296,0.7778105,-0.5023699,0.26094088,7.8963823318481445,-3.2457194328308105,5.371748924255371,-80.5071792602539,186.31332397460938, 49.250328063964844
460,1432198280,0.291643,0.7612192,-0.50085264,0.29092342,6.615692138671875,-2.2969133853912354,1.2621562480926514,-23.0990047454834,253.2924041748047, 71.6722183227539
461,1432214947,0.30693105,0.74097747,-0.49778554,0.33008426,5.342750549316406,-2.8380563259124756,-2.4055845737457275,21.657068252563477,300.3389892578125, 101.17475891113281
462,1432231614,0.3181446,0.71828943,-0.4910994,0.37638515,2.561890125274658,0.10122217237949371,-4.078571319580078,69.8631362915039,336.13720703125, 115.44597625732422
463,1432248281,0.3292988,0.69313955,-0.48147675,0.42343852,2.805790662765503,1.005490779876709,-8.160242080688477,74.87142181396484,352.7025451660156, 111.19066619873047
464,1432264948,0.3414553,0.6667661,-0.4669619,0.46987003,2.738144636154175,4.966731071472168,-11.000504493713379,79.49288940429688,368.0725402832031, 87.7322998046875
465,1432281615,0.35744518,0.63974,-0.44977558,0.51055634,3.499619722366333,6.744448661804199,-15.831695556640625,50.56459426879883,362.8667297363281, 51.917293548583984
466,1432298282,0.37909126,0.6112009,-0.43538558,0.54144526,5.1554975509643555,6.825815677642822,-21.14231300354004,-18.169076919555664,336.289306640625, 25.17654800415039
467,1432314949,0.403384,0.5832241,-0.4300158,0.5587643,3.641828775405884,3.731539249420166,-26.76218605041504,-102.07339477539062,262.31695556640625, 16.363317489624023
468,1432331616,0.41801906,0.5655606,-0.42622527,0.56897587,-0.03596681356430054,0.3712822496891022,-31.67684555053711,-61.813724517822266,162.18148803710938, 9.697893142700195
469,1432348283,0.42043215,0.561133,-0.42043445,0.5758486,-4.993980884552002,5.246923923492432,-29.519794464111328,21.808195114135742,68.44945526123047, 1.376739740371704
470,1432364950,0.41984776,0.5626349,-0.4219531,0.5736948,-7.185213565826416,8.849234580993652,-23.70212745666504,-4.547412395477295,-18.65373992919922, -1.6356035470962524
471,1432381617,0.41288695,0.5734476,-0.42145693,0.5683805,-8.329596519470215,6.679927825927734,-21.491071701049805,45.72273254394531,-79.54024505615234, -20.18512535095215
472,1432398284,0.39064053,0.59870315,-0.4282139,0.5527997,-13.275592803955078,-7.891531944274902,-57.84430694580078,88.89573669433594,-240.7413330078125, -2.731818914413452
473,1432414951,0.34036446,0.64523363,-0.41946235,0.5402565,16.176815032958984,13.659777641296387,-8.915778160095215,329.6078796386719,-348.3048400878906, -15.051655769348145
474,1432431618,0.28483796,0.68100506,-0.39688596,0.54551,6.1315999031066895,-1.5689570903778076,14.526955604553223,430.45343017578125,-212.0302734375, 15.666475296020508
475,1432448285,0.2513599,0.7034154,-0.3908139,0.5378564,4.343620777130127,7.8637542724609375,-5.070013523101807,203.64427185058594,-195.16769409179688, 21.0205020904541
476,1432464952,0.24484621,0.7117471,-0.40511367,0.5189888,8.363699913024902,-3.676156759262085,4.704065322875977,-56.59492874145508,-160.11471557617188, 38.445098876953125
477,1432481619,0.23520522,0.7198572,-0.41160363,0.5070176,9.432384490966797,-0.7778483629226685,-0.660653293132782,5.431703567504883,-121.53755950927734, 23.57387924194336
478,1432498286,0.22433431,0.7284463,-0.4133906,0.49814504,11.97249984741211,5.06614875793457,-0.13856807351112366,37.45534896850586,-103.99182891845703, 8.243003845214844
479,1432514953,0.2159166,0.736756,-0.41453812,0.488599,11.519182205200195,4.709373474121094,1.5267832279205322,25.037504196166992,-98.75070190429688, -3.440437078475952
480,1432531620,0.2111258,0.74391675,-0.4177261,0.47698945,11.267190933227539,-0.16156397759914398,4.3982834815979,-7.753987789154053,-98.3794174194336, -4.903515338897705
481,1432548287,0.20853788,0.7508009,-0.42124715,0.46407008,10.707240104675293,-1.1523985862731934,4.387496471405029,-24.28348731994629,-98.7515869140625, -11.484183311462402
482,1432564954,0.21222651,0.755722,-0.42845201,0.44751886,9.106714248657227,-1.8163468837738037,7.78760290145874,-81.78631591796875,-98.7494125366211, -11.985100746154785
483,1432581621,0.2186874,0.7607858,-0.43704838,0.4270477,9.260289192199707,-0.9142304062843323,13.458250045776367,-111.83433532714844,-113.90013885498047, -19.40794563293457
484,1432598288,0.22660199,0.7662475,-0.4457043,0.40356445,7.799271106719971,2.468266248703003,17.588153839111328,-128.0674591064453,-127.18521118164062, -29.07400894165039
485,1432614955,0.23377238,0.772766,-0.45197254,0.37934703,2.9000985622406006,4.145763874053955,12.194246292114258,-118.07536315917969,-133.25196838378906, -43.89535140991211
486,1432631622,0.23088683,0.78149,-0.45512366,0.35892543,2.3841335773468018,-5.0467987060546875,4.503162384033203,-41.09035873413086,-145.4893798828125, -34.88718032836914
487,1432648289,0.21258543,0.79435825,-0.45206904,0.34559512,3.9503588676452637,-1.2179107666015625,10.169618606567383,85.78858184814453,-156.16287231445312, -32.04536819458008
488,1432664956,0.19073954,0.8083694,-0.45101252,0.32671878,5.917812824249268,-3.591390371322632,8.649138450622559,84.85302734375,-203.45639038085938, -24.397340774536133
489,1432681623,0.16569307,0.82114947,-0.4510174,0.30796564,5.743076801300049,1.4251030683517456,11.79982852935791,99.00247955322266,-211.64772033691406, -7.403023719787598
490,1432698290,0.1545751,0.8297787,-0.45633757,0.281656,6.257775783538818,5.697368621826172,22.85232925415039,-19.020671844482422,-208.7509002685547, -2.5833771228790283
491,1432714957,0.16125192,0.8331661,-0.46734804,0.24782644,5.040416717529297,5.545327663421631,21.953819274902344,-160.62184143066406,-192.33790588378906, 3.9339957237243652
492,1432731624,0.1736378,0.8334965,-0.4773681,0.21737854,4.392905235290527,-0.4924817681312561,18.21508026123047,-184.0191650390625,-148.8060302734375, 2.0430610179901123
493,1432748291,0.18461421,0.83196044,-0.48487803,0.1966032,5.018821716308594,-1.755733847618103,20.104087829589844,-142.6372833251953,-92.54645538330078, 7.27023458480835
494,1432764958,0.19595936,0.82834,-0.49096188,0.18549773,5.46016788482666,-4.704184532165527,16.163177490234375,-113.21355438232422,-31.733585357666016, 17.650236129760742
495,1432781625,0.20525843,0.823774,-0.4936682,0.1885666,5.4702653884887695,-3.748598337173462,13.565611839294434,-50.73683547973633,47.56427764892578, 23.123857498168945
496,1432798292,0.21908922,0.81655407,-0.49443194,0.20193198,6.253077507019043,-2.911325454711914,12.48085880279541,-42.719295501708984,127.22438049316406, 29.661548614501953
497,1432814959,0.23738031,0.80621004,-0.4926596,0.2257493,6.731368541717529,-2.5875139236450195,8.820334434509277,-33.42191696166992,209.0160369873047, 35.502933502197266
498,1432831626,0.25768963,0.7919735,-0.48879275,0.2597222,5.689807415008545,-1.3936867713928223,4.763736248016357,-13.31430435180664,281.47210693359375, 50.46376419067383
499,1432848293,0.28195065,0.7719756,-0.4848546,0.29912108,5.00063419342041,-0.49616217613220215,2.1558003425598145,-26.686193466186523,334.7017822265625, 71.97867584228516
500,1432864960,0.3107213,0.7451266,-0.48174775,0.34081945,5.668881416320801,-1.5365865230560303,-3.0495822429656982,-57.980438232421875,374.4956359863281, 94.40560913085938
501,1432881627,0.33792394,0.7133851,-0.47715655,0.38627818,4.258458614349365,-1.946826696395874,-7.613279342651367,-44.52185821533203,403.4005432128906, 114.68280792236328
502,1432898294,0.35936865,0.6807481,-0.46765634,0.43443516,3.101816415786743,-0.1964537799358368,-10.614689826965332,3.5064616203308105,411.8569030761719, 115.07404327392578
503,1432914961,0.3757627,0.64873433,-0.45191813,0.48344207,7.772335052490234,1.6541965007781982,-16.490589141845703,50.057395935058594,413.57769775390625, 101.12247467041016
504,1432931628,0.38685513,0.6204776,-0.4303074,0.5293265,10.734453201293945,4.788736343383789,-25.678525924682617,93.25489044189453,386.38824462890625, 72.92808532714844
505,1432948295,0.40286213,0.5952421,-0.41485327,0.55793,5.198139667510986,12.894082069396973,-29.747453689575195,6.72320556640625,300.6084289550781, 26.57762908935547
506,1432964962,0.42483333,0.57368875,-0.41522586,0.5639019,-2.046051502227783,3.085726499557495,-36.66415786743164,-132.85601806640625,168.05593872070312, -4.345783233642578
507,1432981629,0.4331217,0.56490386,-0.41878977,0.5638301,-5.649137496948242,0.00010776519775390625,-34.88190841674805,-71.25078582763672,47.60905075073242, 7.317181587219238
508,1432998296,0.4291751,0.56921905,-0.4219801,0.5601174,-7.944588661193848,7.031237602233887,-29.345170974731445,6.232517242431641,-50.24517822265625, 4.777318477630615
509,1433014963,0.4173208,0.58359176,-0.42364112,0.552985,-8.06981372833252,8.483221054077148,-23.158206939697266,62.771461486816406,-119.83732604980469, -9.83398151397705
510,1433031630,0.39833236,0.60495615,-0.4236447,0.54395294,-7.299943447113037,5.382906436920166,-17.341951370239258,112.17929077148438,-169.3560791015625, -15.013145446777344
511,1433048297,0.35639167,0.642749,-0.41490972,0.53638506,-4.5374627113342285,1.5246144533157349,-37.947914123535156,289.7019958496094,-267.2345275878906, -9.43631649017334
512,1433064964,0.31235924,0.6771751,-0.4081046,0.5266082,11.989850997924805,5.104522228240967,-1.741344928741455,277.24005126953125,-274.0867004394531, 10.638860702514648
513,1433081631,0.2640541,0.7048959,-0.38821128,0.53168523,4.973731517791748,3.63869047164917,1.4494589567184448,371.8824462890625,-164.7324676513672, 15.587212562561035
514,1433098298,0.25013795,0.7167296,-0.39457175,0.5177286,10.281896591186523,1.7624778747558594,8.459022521972656,29.400815963745117,-155.0157012939453, 24.82938575744629
515,1433114965,0.24775346,0.7227325,-0.40760627,0.5001334,21.997617721557617,4.479357719421387,4.312571048736572,-71.05394744873047,-132.9641571044922, 26.357704162597656
516,1433131632,0.23907502,0.7325678,-0.41084057,0.48723477,7.444909572601318,5.645594596862793,-1.8562387228012085,13.654840469360352,-124.32987976074219, -3.2204113006591797
517,1433148299,0.22387125,0.74366695,-0.40725145,0.48061156,4.556812286376953,-0.7426962852478027,0.4507538080215454,89.21267700195312,-104.36524200439453, -8.847652435302734
518,1433164966,0.21700233,0.7515738,-0.4092887,0.4696059,13.995071411132812,-0.06851186603307724,6.058599472045898,10.806902885437012,-101.7616958618164, -5.47749137878418
519,1433181633,0.21903297,0.75724316,-0.41684023,0.4526056,9.555365562438965,-5.107337951660156,5.096264839172363,-73.18531799316406,-109.23387908935547, -8.309203147888184
520,1433198300,0.22291777,0.76235294,-0.42506024,0.43410772,10.208613395690918,-1.651408314704895,9.347504615783691,-90.09343719482422,-111.39230346679688, -11.316604614257812
521,1433214967,0.2283333,0.7674357,-0.43421018,0.41275656,9.017916679382324,0.8453163504600525,11.9109468460083,-109.27590942382812,-123.76213836669922, -15.288444519042969
522,1433231634,0.23552345,0.772927,-0.44372645,0.38758188,6.946869850158691,2.1939291954040527,17.480772018432617,-130.4303741455078,-140.9558868408203, -25.550830841064453
523,1433248301,0.24525511,0.7783617,-0.4532259,0.35859385,2.9613144397735596,2.505920648574829,15.240023612976074,-155.56517028808594,-153.9691162109375, -38.354156494140625
524,1433264968,0.24894515,0.7859483,-0.4603237,0.32926282,3.797083616256714,-5.898612022399902,6.9539971351623535,-114.66923522949219,-176.3812713623047, -43.55403137207031
525,1433281635,0.2348881,0.7976114,-0.46250585,0.30778575,5.636192798614502,-6.987705707550049,8.501386642456055,24.165687561035156,-191.16587829589844, -29.5695858001709
526,1433298302,0.21338621,0.8108993,-0.46460596,0.28469288,4.8015851974487305,-2.4964709281921387,11.45304012298584,62.596641540527344,-227.34080505371094, -22.2252197265625
527,1433314969,0.19282553,0.8213007,-0.46909443,0.26121685,5.792391777038574,-1.2121293544769287,12.504182815551758,47.20329666137695,-224.6746368408203, -2.134664297103882
528,1433331636,0.17470951,0.8291027,-0.47340226,0.2407401,5.539201259613037,2.3621630668640137,21.393081665039062,39.95622634887695,-195.3081512451172, 4.800434589385986
529,1433348303,0.16946165,0.8326882,-0.48101836,0.21571937,4.1735663414001465,1.8435505628585815,20.462186813354492,-58.64846420288086,-176.8368377685547, 10.654136657714844
530,1433364970,0.16879466,0.83437586,-0.48701558,0.19529872,3.2244930267333984,1.0421407222747803,18.01513671875,-69.39747619628906,-131.0510711669922, 6.2106852531433105
531,1433381637,0.17706883,0.8328109,-0.4939922,0.17619461,3.7866618633270264,-0.1396549791097641,18.585525512695312,-121.32283782958984,-90.62580108642578, 12.176939964294434
532,1433398304,0.18916744,0.8282353,-0.5014541,0.1636637,4.482209205627441,-3.9354937076568604,15.732481956481934,-125.11719512939453,-37.23122787475586, 28.42803382873535
533,1433414971,0.19984278,0.82239044,-0.50666195,0.16441014,4.463671684265137,-3.786790132522583,13.746021270751953,-70.3986587524414,37.589210510253906, 38.663700103759766
534,1433431638,0.21416734,0.81425095,-0.50990385,0.17642632,5.193096160888672,-3.697511672973633,11.516878128051758,-52.75098419189453,119.1175308227539, 46.77340316772461
535,1433448305,0.23152031,0.8032156,-0.510971,0.20037931,5.4650068283081055,-3.0395748615264893,7.762050151824951,-29.51813507080078,203.10354614257812, 58.54685974121094
536,1433464972,0.25198358,0.7878744,-0.51139396,0.23288293,3.6476919651031494,-2.197108507156372,4.596442222595215,-22.6530818939209,268.1038513183594, 79.37251281738281
537,1433481639,0.2741426,0.76748365,-0.5115027,0.27236003,3.075591564178467,-2.4678268432617188,0.49803727865219116,-15.597957611083984,320.4848937988281, 104.76512908935547
538,1433498306,0.29495728,0.74285144,-0.50992084,0.31804523,2.1473379135131836,-1.220971941947937,-3.55114483833313,8.464184761047363,359.7619323730469, 124.94764709472656
539,1433514973,0.31134146,0.7174952,-0.5022006,0.36886534,2.1923305988311768,0.19197745621204376,-7.532902240753174,61.037864685058594,384.698974609375, 116.2822265625
540,1433531640,0.32480088,0.6917647,-0.48827899,0.4213666,1.615494966506958,2.0673747062683105,-11.94872760772705,96.2323226928711,397.42083740234375, 98.08401489257812
541,1433548307,0.33697596,0.66659945,-0.4689321,0.47137582,3.9831836223602295,5.797114849090576,-17.039772033691406,110.99275207519531,392.15582275390625, 68.6899185180664
542,1433564974,0.353465,0.64138436,-0.4500033,0.5110634,6.619838714599609,7.673137664794922,-24.159482955932617,56.46924591064453,358.4734191894531, 33.0994873046875
543,1433581641,0.37522042,0.61698705,-0.44064367,0.5332633,3.2164859771728516,6.933480262756348,-30.056852340698242,-52.52701187133789,272.2600402832031, 12.002188682556152
544,1433598308,0.39498058,0.59877634,-0.4407366,0.53963745,-0.8715387582778931,6.34844446182251,-31.793460845947266,-110.71544647216797,153.02169799804688, 0.05021360516548157
545,1433614975,0.4022483,0.59307325,-0.44050434,0.5407555,-4.229081153869629,4.4777021408081055,-31.674606323242188,-40.05276107788086,49.09846115112305, -6.900877475738525
546,1433631642,0.3957767,0.5999922,-0.43619996,0.5413868,-7.806986331939697,7.11693000793457,-26.66387939453125,64.52803802490234,-29.088115692138672, -11.866195678710938
547,1433648309,0.3820523,0.6158409,-0.4303055,0.5381573,-7.071935176849365,7.321682929992676,-20.78388786315918,113.05841064453125,-94.8001937866211, -28.58091163635254
548,1433664976,0.35887644,0.6397564,-0.42980525,0.5264855,-11.257547378540039,-3.85908842086792,-44.31528854370117,129.3202362060547,-201.9070281982422, -16.727718353271484
549,1433681643,0.31468907,0.6777695,-0.42335424,0.5122212,11.102246284484863,11.433791160583496,-10.860088348388672,270.5299377441406,-310.4549560546875, -15.289777755737305
550,1433698310,0.26784235,0.70688653,-0.40909383,0.5110913,8.81958293914795,-1.0978929996490479,7.9578537940979,329.43182373046875,-208.5923309326172, 11.915292739868164
551,1433714977,0.23685071,0.72559476,-0.4038484,0.5043019,3.665294647216797,3.8524460792541504,-1.956425428390503,185.49227905273438,-172.0152587890625, 18.537521362304688
552,1433731644,0.22876477,0.73246664,-0.41516694,0.48866722,10.453893661499023,0.1048627570271492,6.516169548034668,-30.052001953125,-138.61264038085938, 40.25037384033203
553,1433748311,0.22086595,0.73948795,-0.42209175,0.47562036,10.47244930267334,-1.0078446865081787,-0.2796653211116791,-8.575345039367676,-119.14482116699219, 21.199878692626953
554,1433764978,0.20983812,0.7473218,-0.4240457,0.46654442,10.073115348815918,3.8194472789764404,0.38808971643447876,36.352294921875,-103.43504333496094, 9.82794189453125
555,1433781645,0.20245701,0.75446856,-0.42627206,0.45615852,10.753469467163086,5.048668384552002,2.6420531272888184,11.958206176757812,-98.02897644042969, -0.23560652136802673
556,1433798312,0.20003349,0.7601417,-0.43098664,0.44319496,10.651023864746094,0.6610267758369446,3.8954734802246094,-31.125411987304688,-96.09275817871094, -1.9711217880249023
557,1433814979,0.2004851,0.76549673,-0.43578625,0.42884865,10.384140968322754,-0.2603798508644104,5.62002420425415,-50.941673278808594,-94.3514175415039, -11.176597595214844
558,1433831646,0.20491785,0.77047074,-0.44175437,0.41138393,9.223755836486816,-0.3899387717247009,9.634908676147461,-85.2165756225586,-99.76432037353516, -19.875240325927734
559,1433848313,0.21188505,0.77589476,-0.44906488,0.38914415,9.57800006866455,1.2552520036697388,16.06040382385254,-116.31226348876953,-121.05023956298828, -27.99919891357422
560,1433864980,0.22016473,0.7812759,-0.45678657,0.3639802,5.874526023864746,3.5205440521240234,18.92646026611328,-133.4793243408203,-133.7723388671875, -33.396549224853516
561,1433881647,0.22846676,0.7867404,-0.46339706,0.33779576,1.7369470596313477,2.439016103744507,10.48171329498291,-133.81710815429688,-138.36965942382812, -41.16914749145508
562,1433898314,0.228404,0.7941024,-0.46933874,0.3113748,5.151609420776367,-5.789302825927734,5.364834308624268,-84.7185287475586,-169.9705810546875, -31.757265090942383
563,1433914981,0.20826204,0.80636024,-0.46918398,0.29372898,6.536809921264648,-5.413304328918457,10.209211349487305,73.93433380126953,-187.99305725097656, -24.2518367767334
564,1433931648,0.18083376,0.81935215,-0.4692599,0.27523896,4.723206043243408,-2.878844738006592,10.021834373474121,112.15821075439453,-218.37249755859375, -11.961935997009277
565,1433948315,0.16093914,0.8286806,-0.47373405,0.25092524,6.065400123596191,4.430419445037842,14.799468994140625,38.01484298706055,-225.70242309570312, 3.0778896808624268
566,1433964982,0.15592387,0.8340192,-0.48104903,0.22066198,6.692222595214844,8.151328086853027,23.199508666992188,-75.360595703125,-207.80831909179688, 0.054519616067409515
567,1433981649,0.16677558,0.8352786,-0.4899873,0.18549488,4.444602012634277,4.23339319229126,20.542905807495117,-189.22976684570312,-179.57371520996094, -6.439809322357178
568,1433998316,0.17956199,0.83456063,-0.4963421,0.15783098,3.659410238265991,0.21556663513183594,18.14101791381836,-173.88621520996094,-124.8586196899414, -8.587918281555176
569,1434014983,0.19557895,0.83135694,-0.5018355,0.13695143,5.003345489501953,-3.1703104972839355,18.493436813354492,-171.34657287597656,-71.42302703857422, -0.3555730879306793
570,1434031650,0.20874283,0.82741064,-0.5048972,0.1299877,5.09617805480957,-4.600441932678223,15.467616081237793,-105.7223129272461,1.9508239030838013, 9.488429069519043
571,1434048317,0.22398464,0.8221247,-0.50555223,0.13549502,4.712703227996826,-3.940290689468384,13.77651309967041,-74.05667114257812,84.52186584472656, 16.303741455078125
572,1434064984,0.24280336,0.81483,-0.50392866,0.15216668,5.339372158050537,-4.549079418182373,12.084555625915527,-56.45302200317383,165.2533721923828, 24.13741683959961
573,1434081651,0.26273087,0.80547506,-0.4990936,0.18190171,6.042250156402588,-5.056640625,6.276757717132568,-17.492820739746094,249.63409423828125, 33.83540344238281
574,1434098318,0.28136474,0.7930908,-0.49180335,0.22354044,4.529811382293701,-4.4396867752075195,2.6260602474212646,28.097043991088867,319.2748718261719, 53.69032287597656
575,1434114985,0.3008983,0.7760176,-0.48330787,0.2714232,3.618389129638672,-3.8247287273406982,-1.3854023218154907,37.04490661621094,365.93890380859375, 73.6796875
576,1434131652,0.32102352,0.75417787,-0.47312135,0.3229797,4.256024360656738,-4.274287700653076,-6.297934055328369,39.34214782714844,400.0466613769531, 87.01239776611328
577,1434148319,0.33876702,0.7289785,-0.45985106,0.3773119,2.0121920108795166,-2.152524948120117,-9.612081527709961,60.079593658447266,421.2058410644531, 93.39717102050781
578,1434164986,0.35850534,0.69994164,-0.44720167,0.4261061,2.8762855529785156,-0.017233166843652725,-14.311934471130371,21.965957641601562,408.60467529296875, 90.5905532836914
579,1434181653,0.37420154,0.67096263,-0.4312717,0.47306168,8.278199195861816,1.3053109645843506,-23.695213317871094,45.49085235595703,395.72979736328125, 82.0142593383789
580,1434198320,0.38495177,0.64769185,-0.4115987,0.5127318,6.125411033630371,4.6547346115112305,-32.63155746459961,73.53364562988281,339.189697265625, 45.242374420166016
581,1434214987,0.4016383,0.6259542,-0.4073247,0.5300517,-0.3544182777404785,3.9189045429229736,-37.01628112792969,-66.50218963623047,211.28890991210938, 29.549840927124023
582,1434231654,0.41620204,0.61197436,-0.4128864,0.5308373,-3.2992496490478516,4.045403957366943,-32.05864334106445,-118.192138671875,79.99861145019531, 12.377791404724121
583,1434248321,0.42252508,0.60762054,-0.4218652,0.52373624,-7.3690290451049805,5.811463356018066,-30.300357818603516,-90.92314147949219,-20.420211791992188, 7.125025272369385
584,1434264988,0.41727173,0.6145417,-0.42948663,0.51357985,-7.844818115234375,5.883745193481445,-24.862382888793945,-13.869170188903809,-102.44309997558594, 1.7966512441635132
585,1434281655,0.39858252,0.63274205,-0.43043593,0.50546455,-7.276350975036621,4.228709697723389,-17.119176864624023,104.79574584960938,-153.4272918701172, -6.245149612426758
586,1434298322,0.3588121,0.6655558,-0.426582,0.49630386,-8.512713432312012,-1.3030327558517456,-44.02079391479492,250.22195434570312,-257.59033203125, -0.026034336537122726
587,1434314989,0.31115833,0.7025466,-0.4166357,0.48582262,12.160634994506836,19.342336654663086,-1.7574522495269775,313.5033264160156,-284.69158935546875, -16.910503387451172
588,1434331656,0.2598441,0.73082983,-0.40161014,0.48690695,7.385653018951416,2.8516416549682617,5.616549968719482,362.7276306152344,-199.54739379882812, 20.56998634338379
589,1434348323,0.23022605,0.74838024,-0.3976014,0.47836825,7.909763336181641,4.80644416809082,1.3932050466537476,170.93821716308594,-172.1144561767578, 15.50554084777832
590,1434364990,0.22427137,0.75464034,-0.4083846,0.46199834,9.294808387756348,0.19159160554409027,4.0776262283325195,-38.729007720947266,-134.29286193847656, 32.34066390991211
591,1434381657,0.2159344,0.76156026,-0.4123727,0.45094034,14.787285804748535,0.2876778244972229,0.8833924531936646,11.184918403625488,-105.43600463867188, 11.039227485656738
592,1434398324,0.20649278,0.76847416,-0.41319752,0.44280487,10.708069801330566,3.668588399887085,-0.7169440388679504,35.071739196777344,-88.94195556640625, 2.2807884216308594
593,1434414991,0.20206057,0.7742235,-0.41588947,0.43218723,9.313150405883789,1.7472628355026245,2.7221693992614746,-5.746708869934082,-87.20750427246094, -3.2083072662353516
594,1434431658,0.20171309,0.77916443,-0.42081466,0.41848528,10.71812915802002,-3.1263089179992676,4.85496711730957,-44.04634094238281,-92.98944091796875, -5.344802379608154
595,1434448325,0.2029164,0.78430986,-0.42629632,0.40243575,10.539020538330078,-1.941691517829895,6.688382148742676,-60.4854736328125,-102.85547637939453, -10.703190803527832
596,1434464992,0.21019074,0.7875843,-0.435498,0.3819326,9.612412452697754,-0.8577603101730347,10.270209312438965,-119.1854248046875,-109.54735565185547, -8.171784400939941
597,1434481659,0.21978053,0.79103744,-0.44525063,0.35736302,9.49856948852539,0.5338845252990723,15.775996208190918,-145.0850372314453,-126.422119140625, -17.65422248840332
598,1434498326,0.22917143,0.79550487,-0.45299152,0.33083475,5.203978538513184,3.0677077770233154,16.053613662719727,-143.48797607421875,-137.78041076660156, -34.14052200317383
599,1434514993,0.23559846,0.80137056,-0.4594671,0.30197477,1.8524802923202515,-0.84173184633255,7.491894245147705,-129.362548828125,-161.4890899658203, -42.30548858642578
600,1434531660,0.22627147,0.8100442,-0.46402165,0.27805302,5.314913272857666,-8.75845718383789,9.078660011291504,-18.38357925415039,-186.9794158935547, -21.102081298828125
601,1434548327,0.20411284,0.822064,-0.4651163,0.25732383,4.201085090637207,-0.3128715753555298,12.644980430603027,74.99474334716797,-211.478759765625, -21.752124786376953
602,1434564994,0.18189576,0.83202463,-0.46784797,0.23615076,5.208937644958496,-0.9319300651550293,11.379855155944824,68.162353515625,-213.18406677246094, -6.443809509277344
603,1434581661,0.16478027,0.83880496,-0.47172606,0.21616755,6.46533203125,1.624684453010559,19.814395904541016,36.97561264038086,-186.55258178710938, 3.53247332572937
604,1434598328,0.1604877,0.84142524,-0.47964332,0.19023636,4.9082136154174805,3.9820199012756348,22.000883102416992,-66.92034912109375,-178.1513214111328, 14.531803131103516
605,1434614995,0.16489449,0.84174377,-0.48716202,0.16416602,4.178524971008301,0.12847816944122314,16.429533004760742,-119.60687255859375,-147.25550842285156, 8.272500038146973
606,1434631662,0.17493051,0.84009314,-0.4941318,0.13955936,4.776555061340332,0.4274418354034424,17.884780883789062,-148.86135864257812,-117.36136627197266, 6.8660783767700195
607,1434648329,0.18795374,0.8358267,-0.5016256,0.12016175,4.974998474121094,-2.0480055809020996,15.413965225219727,-152.0161590576172,-75.52680206298828, 22.049592971801758
608,1434664996,0.20118304,0.8307393,-0.5068516,0.11179955,5.418400287628174,-2.6664180755615234,12.141122817993164,-114.32341766357422,-8.012335777282715, 25.769683837890625
609,1434681663,0.21550238,0.8244052,-0.5103409,0.116047435,6.291868686676025,-3.697234869003296,11.133462905883789,-77.01061248779297,70.98963165283203, 36.65006637573242
610,1434698330,0.23012489,0.81696665,-0.5113729,0.13455804,6.230155944824219,-2.6185808181762695,9.302932739257812,-28.38765525817871,157.23008728027344, 47.36962890625
611,1434714997,0.24730562,0.8065962,-0.511399,0.16344364,4.099403381347656,-2.5214297771453857,6.519282341003418,-9.992384910583496,228.6514129638672, 66.02283477783203
612,1434731664,0.26455158,0.7930216,-0.5102686,0.20187892,3.4251742362976074,-2.394918918609619,2.9201626777648926,19.063884735107422,287.3648986816406, 87.03113555908203
613,1434748331,0.28429416,0.7746695,-0.50834566,0.24626932,3.0665018558502197,-0.7188884019851685,0.06319696456193924,18.708871841430664,336.70648193359375, 106.86731719970703
614,1434764998,0.30609325,0.752169,-0.50424653,0.29374123,2.1158132553100586,0.8822734951972961,-3.939627170562744,14.069890975952148,371.68585205078125, 112.36572265625
615,1434781665,0.32732904,0.72747236,-0.49620685,0.34266397,0.8597933053970337,2.591663360595703,-7.6622700691223145,25.3342342376709,390.1653137207031, 103.87666320800781
616,1434798332,0.3455471,0.70265883,-0.48200563,0.39311382,1.1844260692596436,4.288552761077881,-11.829071998596191,59.9150276184082,401.971923828125, 84.13961791992188
617,1434814999,0.36364195,0.6777118,-0.4623753,0.4412261,4.3082661628723145,5.422831058502197,-16.885103225708008,67.1435775756836,403.9554138183594, 53.31126022338867
618,1434831666,0.38563913,0.651309,-0.44483864,0.4787461,6.983528137207031,5.087621212005615,-22.513587951660156,5.27011775970459,366.67596435546875, 29.547733306884766
619,1434848333,0.40684348,0.62791216,-0.43281746,0.5028655,4.269212245941162,5.204619884490967,-27.825353622436523,-42.42424774169922,280.3605651855469, 12.286041259765625
620,1434865000,0.42471057,0.6109226,-0.42820108,0.51287264,-0.15245497226715088,7.214052677154541,-31.030744552612305,-77.7704086303711,167.5180206298828, -2.5934953689575195
621,1434881667,0.43400073,0.60323364,-0.4281087,0.5142718,-6.332459449768066,4.3279128074646,-32.54169464111328,-55.9735221862793,61.137481689453125, -5.62980842590332
622,1434898334,0.43164042,0.60694396,-0.42827386,0.5117491,-7.242645740509033,4.140274524688721,-25.638858795166016,13.812911987304688,-29.404916763305664, -8.456603050231934
623,1434915001,0.41374034,0.6245641,-0.42127737,0.5111398,-7.083011627197266,2.0720512866973877,-19.792560577392578,150.71246337890625,-94.03720092773438, -18.859725952148438
624,1434931668,0.3854244,0.6498978,-0.411039,0.51002747,-6.7033891677856445,5.429689884185791,-17.678163528442383,227.3047637939453,-143.64797973632812, -20.03810691833496
625,1434948335,0.3450164,0.6836287,-0.4065355,0.4983417,-1.8173375129699707,3.100006580352783,-33.10441970825195,253.61717224121094,-269.2540283203125, -3.8289601802825928
626,1434965002,0.30404192,0.7144873,-0.4078419,0.48034504,12.20361328125,-0.27277782559394836,-8.216228485107422,211.84584045410156,-303.45709228515625, 18.29303550720215
627,1434981669,0.25133422,0.7381862,-0.39895862,0.48243588,24.025142669677734,-5.270138740539551,21.674697875976562,344.6527099609375,-192.7174072265625, 68.70220947265625
628,1434998336,0.2539388,0.7465581,-0.4226673,0.44667497,13.819221496582031,35.414939880371094,1.2478028535842896,-174.68641662597656,-239.70846557617188, 27.05590057373047
629,1435015003,0.24406897,0.75910056,-0.43792337,0.4152348,-2.676637887954712,-18.044509887695312,-7.855024337768555,-64.50782775878906,-252.23031616210938, 18.487199783325195
630,1435031670,0.20183094,0.77648747,-0.42294604,0.4212461,5.2847819328308105,1.8933900594711304,-4.461129665374756,311.61737060546875,-117.11023712158203, 0.7499318718910217
631,1435048337,0.19302486,0.78457075,-0.42512345,0.40799558,4.652390956878662,7.533653259277344,-1.8445854187011719,14.421449661254883,-119.62541198730469, -4.252821445465088
632,1435065004,0.19491354,0.7906744,-0.42860946,0.39132693,9.44457721710205,-11.168314933776855,0.5743865370750427,-59.480838775634766,-103.1440200805664, -25.71965789794922
633,1435081671,0.1905058,0.7943645,-0.42755267,0.38715848,13.122224807739258,-8.376336097717285,2.000570297241211,20.43706512451172,-41.46598434448242, -9.866960525512695
634,1435098338,0.19409357,0.7966794,-0.43147978,0.37610498,14.505805015563965,3.3190886974334717,7.394204139709473,-58.62132263183594,-58.85818099975586, -9.096369743347168
635,1435115005,0.21101364,0.7960157,-0.44378927,0.35338858,9.37320327758789,1.7056198120117188,11.016006469726562,-191.85968017578125,-87.28125, -4.216485023498535
636,1435131672,0.22369091,0.7963703,-0.45506006,0.32966232,8.930188179016113,0.3131043612957001,14.997902870178223,-167.66165161132812,-107.28268432617188, -4.056363105773926
637,1435148339,0.2316541,0.79960173,-0.4631378,0.30410048,7.080643653869629,5.260050296783447,19.996126174926758,-135.86676025390625,-134.325927734375, -22.678712844848633
638,1435165006,0.24113728,0.8039483,-0.4703848,0.2725039,5.1657490730285645,3.716651201248169,13.083273887634277,-159.7918243408203,-164.37501525878906, -43.49838638305664
639,1435181673,0.24072875,0.80984014,-0.47859213,0.23907782,8.596007347106934,-10.58265209197998,9.232200622558594,-110.13725280761719,-211.4129638671875, -27.666486740112305
640,1435198340,0.2137528,0.82285136,-0.47974887,0.21694806,6.536134243011475,-3.2158331871032715,12.139910697937012,98.24545288085938,-236.3702850341797, -28.286746978759766
641,1435215007,0.18694963,0.83272064,-0.48358285,0.19435538,7.309652328491211,-0.8887017965316772,12.379790306091309,87.12179565429688,-238.05548095703125, -3.784327507019043
642,1435231674,0.16618976,0.83905905,-0.4875307,0.17514172,6.265016078948975,3.5120856761932373,24.504100799560547,59.0734748840332,-194.4105682373047, 4.868626117706299
643,1435248341,0.16402286,0.8402255,-0.49433604,0.15082888,2.984663724899292,4.490527629852295,22.357860565185547,-74.49518585205078,-159.06112670898438, 10.489309310913086
644,1435265008,0.172315,0.8386016,-0.5005148,0.1286072,2.8729820251464844,0.4285376965999603,18.068147659301758,-130.1582794189453,-108.1680908203125, 7.847826957702637
645,1435281675,0.18796398,0.83443314,-0.50629705,0.10979122,3.576794385910034,-1.1789628267288208,17.443809509277344,-163.47129821777344,-60.71974563598633, 11.717873573303223
646,1435298342,0.20429686,0.82908005,-0.5107788,0.09997163,3.6129026412963867,-4.061226844787598,13.328446388244629,-136.59182739257812,-4.358536243438721, 19.32403564453125
647,1435315009,0.22021626,0.8234506,-0.5129712,0.10146265,3.240302324295044,-3.293120861053467,11.016593933105469,-93.36376953125,61.92786407470703, 23.238353729248047
648,1435331676,0.2397316,0.8160206,-0.5139648,0.1117128,4.130407810211182,-4.673092842102051,8.494664192199707,-84.74134826660156,127.17591094970703, 33.432926177978516
649,1435348343,0.25770414,0.8074476,-0.5131801,0.13514213,4.391656398773193,-4.988517761230469,4.386101245880127,-30.074695587158203,199.39064025878906, 50.28190612792969
650,1435365010,0.27649462,0.7958793,-0.51174283,0.16806592,2.936354875564575,-3.902597427368164,1.9755713939666748,-5.883177280426025,258.8961486816406, 73.21143341064453
651,1435381677,0.2956495,0.78040093,-0.51022214,0.20794068,2.3138322830200195,-4.15726375579834,-0.5749969482421875,9.189373016357422,302.9444274902344, 99.27336883544922
652,1435398344,0.3129815,0.7617485,-0.5070789,0.2542693,2.2765657901763916,-3.270250082015991,-3.998636245727539,37.40923309326172,339.1280822753906, 117.42516326904297
653,1435415011,0.32518837,0.7421203,-0.49927688,0.30697325,0.08328378200531006,-0.687755823135376,-7.830048084259033,92.50808715820312,366.5716247558594, 119.11612701416016
654,1435431678,0.33650887,0.7215909,-0.48667812,0.35946202,-0.8578529953956604,3.571686267852783,-9.870803833007812,104.36431884765625,375.3499755859375, 99.25269317626953
655,1435448345,0.34807187,0.701316,-0.46844944,0.4093376,1.8146307468414307,6.7342209815979,-14.574479103088379,108.94275665283203,375.96282958984375, 64.03459167480469
656,1435465012,0.364745,0.6802376,-0.4498942,0.44925863,3.158494472503662,8.771456718444824,-21.247737884521484,51.2680778503418,347.9063720703125, 27.069290161132812
657,1435481679,0.3866711,0.65913093,-0.43928888,0.47228932,1.4446295499801636,5.8628249168396,-28.44416618347168,-50.251869201660156,265.9416809082031, 6.045358180999756
658,1435498346,0.40221983,0.6459498,-0.4330699,0.48313424,-1.2209105491638184,3.234159231185913,-31.617443084716797,-51.38901138305664,154.99105834960938, -9.518026351928711
659,1435515013,0.4061503,0.64300483,-0.43034875,0.4861962,-3.921398162841797,2.7173280715942383,-32.0297966003418,-6.384188175201416,43.24146270751953, -7.257983684539795
660,1435531680,0.39865652,0.6492904,-0.42992294,0.4844187,-6.89448356628418,5.171798229217529,-25.51185417175293,47.800697326660156,-48.11670684814453, 0.3570404052734375
661,1435548347,0.38274541,0.6634914,-0.42831576,0.4794066,-7.167852401733398,4.691389560699463,-20.020471572875977,101.36869049072266,-109.69621276855469, -9.011181831359863
662,1435565014,0.35332224,0.6882365,-0.43140328,0.46409592,-11.533650398254395,-5.616297245025635,-51.3526611328125,144.93923950195312,-242.96963500976562, -1.1513468027114868
663,1435581681,0.30401558,0.7241224,-0.42555398,0.4495834,13.655929565429688,17.781782150268555,-9.923876762390137,296.959228515625,-310.4056701660156, -11.507745742797852
664,1435598348,0.25493717,0.75078803,-0.4163275,0.4449673,9.37101936340332,0.7190996408462524,10.464775085449219,316.0216979980469,-224.84078979492188, 18.71229362487793
665,1435615015,0.22136557,0.76840293,-0.41165936,0.43713918,4.242868423461914,1.7989789247512817,-2.436910629272461,196.9097137451172,-177.92919921875, 14.784520149230957
666,1435631682,0.21252319,0.7738021,-0.4222476,0.42162922,15.131468772888184,1.2496699094772339,7.786670207977295,-19.921367645263672,-135.15969848632812, 43.9090461730957
667,1435648349,0.2068838,0.77936935,-0.4306541,0.40536356,15.856752395629883,4.620464324951172,-0.36127665638923645,-32.51825714111328,-127.8533935546875, 21.51980972290039
668,1435665016,0.19639353,0.78697866,-0.43401504,0.39207804,6.864466667175293,3.214256525039673,-2.151550769805908,19.34477424621582,-125.20492553710938, 6.359462261199951
669,1435681683,0.18475789,0.79429805,-0.4352567,0.3814538,9.974565505981445,0.6496932506561279,3.367000102996826,38.86386489868164,-110.78199005126953, 2.5052809715270996
670,1435698350,0.18078148,0.7996611,-0.43950087,0.3670142,11.188204765319824,-1.3512184619903564,2.9103989601135254,-24.719127655029297,-107.80316925048828, -0.15383651852607727
671,1435715017,0.18216608,0.80447257,-0.4446109,0.34922847,10.121393203735352,-2.1893649101257324,4.133842468261719,-67.18476104736328,-110.11491394042969, -11.409172058105469
672,1435731684,0.18645206,0.80771846,-0.44997695,0.33218595,9.487507820129395,-0.7364342212677002,7.893590450286865,-83.56004333496094,-94.11912536621094, -11.253520965576172
673,1435748351,0.19341558,0.8100961,-0.45530713,0.3146908,8.819189071655273,2.437098503112793,10.47942066192627,-100.84867858886719,-86.81407928466797, -15.463032722473145
674,1435765018,0.20269658,0.81326026,-0.45963654,0.29369438,6.096629619598389,3.625990390777588,16.33372688293457,-121.44752502441406,-99.96061706542969, -33.10245132446289
675,1435781685,0.21242198,0.8168075,-0.46292397,0.27093178,1.6847529411315918,0.9960541129112244,13.060564994812012,-126.7658920288086,-108.33052062988281, -43.44717025756836
676,1435798352,0.21336494,0.822265,-0.465716,0.24791978,3.9075310230255127,-5.926174640655518,4.8156046867370605,-74.45843505859375,-140.86691284179688, -36.32027053833008
677,1435815019,0.19928482,0.8307252,-0.46725097,0.22772367,7.345273494720459,-4.235063552856445,9.454437255859375,25.963525772094727,-176.5213165283203, -23.46932601928711
678,1435831686,0.17892903,0.83931863,-0.47133482,0.20340192,5.864243507385254,-3.8156626224517822,9.295089721679688,44.714630126953125,-224.34326171875, -5.29307222366333
679,1435848353,0.1600042,0.84579605,-0.4772374,0.17683966,6.572426795959473,2.527479648590088,11.737701416015625,23.998212814331055,-232.2264862060547, 7.205770969390869
680,1435865020,0.1573806,0.84811413,-0.48557693,0.14194694,7.53981876373291,5.270423412322998,20.842424392700195,-105.6114501953125,-225.16510009765625, 6.043616771697998
681,1435881687,0.16649373,0.8475031,-0.49328327,0.10339338,6.340317726135254,3.98376727104187,20.0698299407959,-188.66294860839844,-204.2777557373047, -3.348095178604126
682,1435898354,0.17670959,0.8456009,-0.4985998,0.07163292,5.594507217407227,-1.0769484043121338,16.728971481323242,-171.64987182617188,-157.65927124023438, -5.990395545959473
683,1435915021,0.18704073,0.84232414,-0.5032286,0.047612876,5.612729072570801,-3.3239214420318604,17.120126724243164,-147.05836486816406,-110.9889907836914, 3.866834878921509
684,1435931688,0.19687606,0.8381996,-0.50746834,0.033725332,5.703472137451172,-6.431703090667725,12.896563529968262,-110.08345031738281,-53.46764373779297, 17.55025291442871
685,1435948355,0.20358717,0.83570296,-0.5088355,0.03520462,6.97459602355957,-6.492669582366943,10.03227424621582,-35.675655364990234,27.52884864807129, 16.660139083862305
686,1435965022,0.20941836,0.8340306,-0.5077062,0.05264292,7.000401020050049,-3.8869478702545166,9.091658592224121,26.893447875976562,119.24838256835938, 21.862993240356445
687,1435981689,0.2205805,0.83005977,-0.50614196,0.07852002,3.384882926940918,-2.183445930480957,7.968735218048096,22.628633499145508,187.51705932617188, 37.56612014770508
688,1435998356,0.23713873,0.8225319,-0.50505614,0.110113345,1.808149814605713,-2.8194844722747803,3.890242338180542,6.092466354370117,240.05030822753906, 58.45978927612305
689,1436015023,0.2582627,0.8110354,-0.50405955,0.1464451,1.159593105316162,-0.9951997399330139,2.414241313934326,-9.844949722290039,285.60894775390625, 77.02313232421875
690,1436031690,0.28764132,0.7934846,-0.50451046,0.18197238,0.956110954284668,-0.8348447680473328,-0.956070601940155,-70.89787292480469,313.34820556640625, 96.33873748779297
691,1436048357,0.31494555,0.77318615,-0.5036237,0.22216111,-0.41669464111328125,-1.7519099712371826,-4.56486177444458,-47.20133590698242,337.8164367675781, 110.39091491699219
692,1436065024,0.33474797,0.75335586,-0.49818775,0.26871538,-2.227965831756592,-0.34412312507629395,-5.9239420890808105,22.66305160522461,355.0711364746094, 109.83767700195312
693,1436081691,0.3466971,0.73459417,-0.48677137,0.32128873,-1.1673892736434937,1.538610577583313,-9.320548057556152,97.4861831665039,371.467529296875, 103.6817855834961
694,1436098358,0.35768476,0.71569014,-0.46982417,0.37298077,0.7531386017799377,6.465306758880615,-13.662382125854492,111.25310516357422,377.6588134765625, 76.42963409423828
695,1436115025,0.3711499,0.69634426,-0.45199627,0.41599506,0.6242087483406067,5.6108222007751465,-20.71355438232422,72.1845932006836,346.6746520996094, 46.089595794677734
696,1436131692,0.38365054,0.6813847,-0.4333047,0.44807857,1.5797615051269531,8.3597993850708,-26.411684036254883,56.45476531982422,281.65447998046875, 3.3891234397888184
697,1436148359,0.4016833,0.6664138,-0.42853248,0.45924202,0.7888898849487305,4.892181396484375,-32.66987991333008,-74.82598876953125,164.29200744628906, -3.3136651515960693
