Acc_X,Acc_Y,Acc_Z
3.370025873184204,-2.805133581161499,6.991223812103272
3.7007009983062735,-3.8695225715637207,8.784834861755371
4.044188499450684,-3.86981201171875,11.286952018737791
2.725555181503296,-3.4364330768585205,7.418406009674072
2.348632574081421,-4.188128471374512,6.820788860321045
2.324612617492676,-6.3200459480285645,4.742808818817139
6.16918420791626,-7.065146446228027,10.798623085021973
7.126724243164063,-4.751865386962891,11.111563682556152
6.501989364624023,-4.09243631362915,12.074331283569336
3.3592395782470703,-3.6960628032684326,12.27824878692627
0.9625380039215088,-2.3425216674804688,12.67936897277832
-0.040078729391098,-4.212158679962158,8.27347183227539
0.7232874631881714,-5.212317943572998,7.179088115692139
1.6578645706176758,-3.4696836471557617,6.320092678070068
2.680625915527344,-1.5519707202911377,5.636946678161621
3.2779693603515625,-0.0158989578485488,4.897922992706299
3.651846170425415,0.2837905883789062,3.509270191192627
4.092156887054443,0.3219358623027801,1.8256244659423828
3.5599558353424072,1.433243989944458,1.0396384000778198
3.8085858821868896,1.0228550434112549,-0.5530263185501099
3.923226594924927,1.4034395217895508,-0.8642186522483826
4.182374000549316,0.1940494179725647,-4.229531764984131
4.34867525100708,0.3742837011814117,-5.193773746490479
4.3796820640563965,0.3801542520523071,-6.531002521514893
6.222829818725586,0.7941216230392456,-7.462485313415527
7.343408584594727,0.4437861442565918,-9.079333305358888
7.672936916351318,-0.6969940662384033,-11.74907398223877
6.830193042755127,-0.5135324597358704,-15.413482666015623
4.44143009185791,-1.531491756439209,-18.51583480834961
3.0506365299224854,-2.175950765609741,-20.46603012084961
2.0549206733703613,-1.944734811782837,-19.8848934173584
1.5453789234161377,-1.8620740175247192,-17.26632308959961
2.377286195755005,-2.00708532333374,-13.050420761108398
2.431813240051269,-1.2137359380722046,-9.921545028686523
1.552823543548584,-0.4009059071540832,-7.251019477844238
0.6436449885368347,0.5231370329856873,-4.938529968261719
-0.52104252576828,1.9121389389038088,-3.654950618743897
0.3338762521743774,1.6360529661178589,-0.7043847441673279
14.01573657989502,-0.0603361874818801,1.401507019996643
12.484200477600098,14.642739295959473,3.815787553787232
-0.938873827457428,-7.869167804718018,-10.852099418640137
-0.1421553939580917,-0.7265699505805969,-3.222590923309326
0.7864551544189453,-1.566297173500061,-3.863980293273926
1.710038185119629,-6.221240043640137,-0.9644744992256165
0.2533405423164367,-2.9226016998291016,0.4839077889919281
1.8726054430007932,-1.2072689533233645,-2.217902660369873
2.276583433151245,2.603992223739624,-1.823364853858948
2.308943271636963,1.740716814994812,-0.7234596014022827
1.4176105260849,-1.028620719909668,0.5616289973258972
0.327197402715683,-0.8676921129226685,1.0606050491333008
0.2690946459770202,-1.909133553504944,1.752370834350586
0.2479411512613296,-1.84501588344574,1.33620285987854
0.128386378288269,-0.9869250655174256,1.6288615465164185
0.0722250193357467,-0.7782648801803589,2.152223825454712
0.4131097495555877,0.486253410577774,1.9685981273651123
0.8687648177146912,0.5786727070808411,1.0837081670761108
0.9957599639892578,0.3512749075889587,0.8358460664749146
1.2408961057662964,0.1821686625480651,0.3835212886333465
1.1816099882125854,0.6208207607269287,1.4769731760025024
2.564253330230713,0.4931960105895996,2.0461199283599854
1.7654554843902588,1.510899782180786,1.988308072090149
1.6540926694869995,2.0814027786254883,3.0116515159606934
1.4466451406478882,1.853580355644226,3.833059549331665
2.9469380378723145,2.219065427780152,3.4742836952209477
4.124272346496582,1.457700252532959,3.925729751586914
4.473648071289063,0.175367385149002,5.166617393493652
5.119755744934082,-0.8590797185897827,6.909603118896484
5.613517761230469,-2.130635499954224,7.660971641540527
6.302968978881836,-3.903473138809204,9.853774070739746
4.66561222076416,-6.545330047607422,10.351273536682127
2.290367364883423,-7.587599277496338,9.607497215270996
3.326641321182251,-9.237371444702148,3.228330135345459
9.51882553100586,-10.13902473449707,6.692777633666992
5.0317888259887695,-4.020735740661621,11.081989288330078
1.7969920635223389,-3.242219924926758,11.40965175628662
-0.4370019435882568,-5.16911506652832,11.12852382659912
-2.0816898345947266,-4.527306079864502,10.174050331115724
-1.3029584884643557,-1.671358942985535,8.467400550842285
-0.573497474193573,0.4486890137195587,8.179054260253906
-0.298347920179367,1.3999741077423096,7.000134944915772
0.1824812591075897,1.1025569438934326,4.9110493659973145
0.7048211693763733,1.1999828815460205,3.390776872634888
1.130380392074585,1.4200806617736816,2.7061431407928467
1.9339103698730469,0.8820687532424927,1.402091383934021
2.9523634910583496,1.083444118499756,0.3563961386680603
3.717571258544922,1.2858061790466309,-1.1051331758499146
4.517346382141113,1.6373252868652344,-2.0712766647338867
5.472538471221924,1.1465142965316772,-2.4600729942321777
6.056151390075684,0.9764541387557985,-3.240263700485229
7.178997993469238,1.743078112602234,-4.765002250671387
7.608049392700195,1.9663423299789429,-5.992862224578857
7.094156265258789,0.4385316967964172,-7.859492301940918
6.689379692077637,-1.4029220342636108,-9.815540313720703
6.661938667297363,-1.6466811895370483,-11.993657112121582
4.949993133544922,-1.3120734691619873,-15.447498321533203
2.789369344711304,-0.3073992729187011,-18.13187599182129
1.7913055419921875,-0.6574573516845703,-18.956329345703125
2.170219659805298,-2.2927231788635254,-18.140830993652344
2.505359172821045,-3.260810613632202,-15.679986953735352
2.3222110271453857,-3.932408094406128,-12.391798973083496
1.918873071670532,-3.6020071506500244,-10.60757064819336
0.3895649015903473,-1.648900032043457,-7.318275928497314
-0.8727543950080872,-1.4415299892425537,-1.9161648750305176
7.274573802947998,0.6777607202529907,14.96044921875
9.950568199157717,9.976021766662598,-3.644540548324585
3.8118882179260254,-3.911505937576294,-6.599699974060059
-1.799156665802002,-1.010083794593811,-2.568077802658081
2.2729392051696777,-0.6507697701454163,-3.699230909347534
1.7971447706222534,-1.967297077178955,-1.7852942943572998
1.393405795097351,-2.1060686111450195,-2.719645500183105
0.2292562574148178,-0.0235971063375473,-0.643441915512085
0.9504735469818116,0.7489086389541626,-1.051763892173767
0.9528295993804932,-0.1430337876081466,-1.0617018938064575
0.1670169681310653,-0.84737628698349,-0.6889967322349548
0.3742632567882538,-0.8189417123794556,-0.02343943528831
-0.2195897996425628,-0.7912029027938843,0.3260817229747772
-0.6194711923599243,-1.1348146200180054,0.6071664690971375
-0.5479226112365723,-1.6832044124603271,0.5470799803733826
-0.2617232203483581,-1.527124047279358,0.676851212978363
-0.3252486884593963,-1.0183442831039429,1.3556146621704102
-0.303941547870636,-0.8361791372299194,1.5115684270858765
0.2627492249011993,-0.9884712100028992,1.0039047002792358
0.1145664155483245,-3.9270384311676025,2.347006797790528
1.767870306968689,-0.0176139511168003,0.3464395105838775
2.110546112060547,-0.0566112659871578,0.9741224646568298
2.9417052268981934,1.5260955095291138,1.1620018482208252
4.083006858825684,3.764506340026856,1.5340063571929932
4.413058757781982,3.5024662017822266,1.6627782583236694
4.901890754699707,2.155712366104126,2.1621415615081787
5.507196426391602,1.7386424541473389,3.293240547180176
5.887679576873779,1.5824766159057615,5.008040428161621
6.363257884979248,1.351131558418274,6.598480224609375
6.909764289855957,0.1097699403762817,7.605903625488281
7.212895393371582,-1.8654282093048096,4.10979700088501
7.861767768859863,-7.928616046905518,8.559066772460938
6.734731197357178,-6.38431453704834,13.02149772644043
7.707634449005127,-12.84737491607666,12.358095169067385
4.358541488647461,-10.988781929016112,6.669381141662598
2.095620393753052,-9.072190284729004,3.987755060195923
2.9485583305358887,-6.359618186950684,12.924168586730955
-0.8999106287956238,-4.539734840393066,12.999488830566406
-0.8013046383857727,-7.278329372406006,11.078779220581056
-1.904211401939392,-2.8682565689086914,12.105552673339844
-1.797802448272705,-0.9354777932167052,11.711353302001951
-1.1949458122253418,-0.0304974988102912,9.968021392822266
-0.6995505094528198,1.2265381813049316,8.197473526000977
0.08621247112751,1.305298924446106,7.100559711456299
0.8530157804489136,1.1929386854171753,5.606112480163574
1.770944356918335,0.7437086701393127,4.074893474578857
2.584479570388794,0.5271393060684204,2.97580623626709
3.7991230487823486,-0.0574143156409263,1.4250879287719729
5.208885669708252,0.1776800751686096,0.5203393697738647
6.5126729011535645,0.1350411921739578,-0.9184820055961608
8.088470458984375,1.464671969413757,-2.7634599208831787
9.20139980316162,3.18804144859314,-3.1611037254333496
10.0650053024292,2.8012189865112305,-5.063685894012451
9.377300262451172,0.1381942182779312,-7.753833293914795
8.892269134521484,-1.817141056060791,-10.866500854492188
7.423913955688477,-1.3210504055023191,-14.424179077148438
4.921281814575195,-0.7142770290374756,-19.66325187683105
3.222858428955078,0.5166908502578735,-22.95306205749512
1.305649995803833,-0.6035103797912598,-23.85135269165039
1.591832160949707,-1.2996782064437866,-22.301179885864254
3.143609046936035,-2.542121648788452,-18.467849731445312
3.603903293609619,-3.887099504470825,-14.081209182739258
3.643686532974243,-3.345482587814331,-10.377318382263184
9.763383865356444,-0.777486264705658,16.963125228881836
9.917356491088867,15.207694053649902,-4.162651062011719
6.457022190093994,0.1638767123222351,-9.519896507263184
-0.9560678601264954,0.2145946472883224,-1.4347683191299438
1.3430404663085938,-5.228210926055908,-6.89557695388794
3.639571189880371,-1.3356553316116333,-2.6208479404449463
1.2707973718643188,-2.7020862102508545,-1.726111888885498
0.1983778476715088,-0.5068915486335754,-0.3287734091281891
1.643405556678772,-0.5485612154006958,-1.0870147943496704
1.2362667322158811,-1.3067344427108765,-1.8523865938186648
1.4940733909606934,0.3508172631263733,-1.4698123931884766
1.269614577293396,0.6413238048553467,0.0570841059088707
0.2700058817863464,0.1266474723815918,0.5127474069595337
0.2538295686244964,-0.5631332397460938,0.7763399481773376
-0.4032919406890869,-1.3403170108795166,1.00145161151886
-0.5410873293876648,-0.9223231077194214,0.3891083300113678
-0.2409369051456451,-0.6129482984542847,1.1157082319259644
0.1705666184425354,-0.2797220349311828,0.9991118907928468
0.7774243354797363,0.7845629453659058,1.078432321548462
1.4040485620498655,1.0219367742538452,0.7779624462127686
1.5498651266098022,1.562695860862732,0.95596444606781
2.1093499660491943,0.952073872089386,1.233455777168274
1.9301607608795168,0.7065751552581787,0.9374162554740906
2.194493293762207,1.2553889751434326,0.6773301362991333
3.127002716064453,1.6572649478912354,1.3377410173416138
3.0155160427093506,2.090462446212769,2.344712734222412
2.442257881164551,1.7354154586791992,2.9490108489990234
2.832757472991944,1.734730839729309,2.5386552810668945
3.467543363571167,2.000880718231201,3.4419350624084477
4.790029525756836,0.8153332471847534,1.841991662979126
7.246110916137695,-0.4816203117370605,7.42030668258667
7.660098075866699,-3.166733264923096,7.627392292022705
8.646309852600098,-6.313379287719727,8.1776123046875
8.648293495178223,-7.170989990234375,13.83698558807373
6.781985759735107,-8.3971586227417,10.882874488830566
3.5883443355560303,-10.945317268371582,4.745879173278809
3.405194044113159,-11.100600242614746,4.750955104827881
3.684753656387329,1.3984490633010864,13.863004684448242
0.733171284198761,-3.0379254817962646,10.886005401611328
-0.136336088180542,-7.004792213439941,9.715723991394045
-1.5341966152191162,-5.160772800445557,9.79990005493164
-1.5208070278167725,-3.018430709838867,10.020954132080078
-1.429676532745361,-2.466963529586792,8.30964469909668
-0.6366546750068665,0.1552108824253082,7.897343158721924
0.0130580812692642,2.214303731918335,6.686301231384277
0.9709092378616332,3.221271753311157,5.617846488952637
1.627879977226257,3.149340867996216,4.03243350982666
2.36435341835022,2.7640209197998047,2.565646171569824
2.9529545307159424,1.9105706214904783,1.303449034690857
3.6043004989624015,0.8059504628181458,-0.0386653840541839
4.443265438079834,0.6034886240959167,-0.676814079284668
5.474973201751709,0.4374988973140716,-2.0511176586151123
7.088898181915283,1.6496167182922363,-3.1741833686828613
8.178485870361328,1.5962237119674685,-5.216762542724609
8.259325981140137,0.2326804101467132,-7.488158702850342
8.237834930419922,-2.0630102157592773,-9.587815284729004
7.44352912902832,-1.7793298959732056,-11.959352493286133
5.451136112213135,-0.8140780925750732,-16.51887321472168
3.0981218814849854,0.2775135040283203,-19.86747169494629
1.9083012342453003,-0.580080509185791,-21.578275680541992
1.6443052291870115,-1.6540454626083374,-20.50279998779297
2.265776872634888,-2.667980909347534,-17.99514389038086
2.5570805072784424,-4.260267734527588,-14.014570236206056
2.872567176818848,-6.402972221374512,-6.983318328857422
9.458271980285645,-3.1675620079040527,1.893878936767578
9.666094779968262,7.426589965820312,0.5184124708175659
1.851337194442749,-3.346386671066284,-7.891585826873779
-0.8973828554153442,-1.3345057964324951,-2.641857862472534
2.240953207015991,-3.065246820449829,-7.038962364196777
4.178000450134277,-0.4470378458499908,-3.278710126876831
2.348015546798706,0.5170929431915283,-3.382883787155152
0.2899059355258941,-0.4601563513278961,-1.7100075483322144
0.5557211637496948,0.991030216217041,-0.400776743888855
1.0419106483459473,-0.1448016464710235,-1.027278184890747
0.4770815968513489,-1.999983549118042,-1.7988442182540894
-0.1291169673204422,-1.2877286672592163,-0.9034425020217896
-0.3973635137081146,-0.3500936925411224,-0.2706041932106018
-0.1670126765966415,-0.4648432731628418,0.7458220720291138
0.2772857844829559,-0.4787492156028747,1.4421896934509275
0.064945213496685,-0.5937424302101135,0.830954372882843
0.3649933934211731,-0.4743318557739258,0.4217944741249084
-0.0304525457322597,0.4662178754806518,0.8909332752227783
0.1480765491724014,0.1794986873865127,1.0906798839569092
0.3657738268375397,-3.003211498260498,2.806764602661133
-0.0434693470597267,-1.4935246706008911,1.6426212787628174
1.343821406364441,-0.8894426822662354,1.4021786451339722
1.5333764553070068,0.7809725403785706,1.313772439956665
2.515115737915039,1.200921893119812,0.71703040599823
3.3444783687591557,1.798411250114441,0.7877705693244934
3.070864200592041,2.3684487342834477,1.967239618301392
3.801356077194214,2.5348236560821533,1.8574514389038088
4.149097442626953,2.038569927215576,3.5040009021759038
4.36566972732544,1.2001737356185913,4.271462440490723
4.769053936004639,0.5599455237388611,6.05289363861084
5.977818489074707,0.3835348486900329,6.219517707824707
6.01118803024292,-0.1864773780107498,4.7791748046875
6.331788539886475,-5.002275943756104,2.8227829933166504
7.88884973526001,-6.874998569488525,13.049087524414062
3.869933843612671,-5.383159160614014,11.063457489013672
7.403351783752441,-7.597627639770508,13.490983963012695
4.321564674377441,-11.305590629577637,4.603261470794678
2.8465826511383057,-11.429495811462402,1.3101017475128174
3.936124324798584,-2.711662769317627,12.372092247009276
-1.0293731689453125,-1.7488503456115725,12.868733406066896
-0.1339237987995147,-4.613166332244873,9.116524696350098
-0.6360553503036499,-5.992506504058838,8.187132835388184
-1.1168408393859863,-2.792732000350952,9.19215488433838
-1.6391394138336182,-2.3744266033172607,7.600311756134033
-1.7237744331359863,-2.0454471111297607,7.1492767333984375
-1.1263457536697388,-0.6159526109695435,6.87523078918457
-0.2490946650505066,-0.8378040194511414,4.474373817443848
0.1833729594945907,-0.2447765916585922,3.888174057006836
0.4525692164897918,0.6905195713043213,3.0002920627593994
1.157626748085022,0.1509998738765716,1.4801994562149048
1.84906542301178,0.2504670321941376,0.6930578351020813
2.9385440349578857,0.7149863839149475,0.0793951526284217
4.414063453674316,1.737998366355896,-0.5538398027420044
6.223758220672607,1.508944034576416,-1.4130337238311768
8.119494438171387,0.817663848400116,-3.1755852699279785
8.60820198059082,-0.555711567401886,-5.5098161697387695
8.996591567993164,-1.6272772550582886,-9.11610984802246
9.000359535217285,-0.6391573548316956,-10.057347297668455
7.282565593719482,-0.3215271532535553,-11.292338371276855
6.188253879547119,-0.203376293182373,-16.037097930908203
4.0321221351623535,0.2342981547117233,-19.193500518798828
1.5905815362930298,0.3526391386985779,-21.954891204833984
1.162108063697815,0.6782020926475525,-21.86493682861328
2.1957812309265137,-0.5591104030609131,-19.196563720703125
2.9628453254699707,-1.870744228363037,-15.545595169067385
3.081008195877075,-2.907773971557617,-12.418452262878418
2.4555258750915527,-2.238929986953736,-7.02638053894043
7.026894569396973,-1.4499883651733398,26.445816040039062
5.1112260818481445,12.531279563903809,-6.601454257965088
8.608061790466309,-4.065017223358154,-12.93130111694336
0.5095787644386292,0.5023120641708374,2.2196147441864014
-0.8133046627044678,-3.311704397201538,-6.236793041229248
3.882276773452759,-0.8830941915512085,-4.908773422241211
1.1629180908203125,-1.1523419618606567,-1.7797681093215942
0.0316859893500804,-1.2452906370162964,-0.8133872151374817
0.4360877871513366,0.8146507740020752,-1.040774703025818
1.8386110067367556,1.3005638122558594,-1.2806541919708252
1.0775744915008545,-1.184528112411499,-1.7389519214630127
0.3366478383541107,-0.919498085975647,-0.9599648714065552
0.2389227747917175,-0.2053998708724975,-0.5557785034179688
0.3325887620449066,0.7138884663581848,0.153101310133934
0.3714572489261627,-0.5511502623558044,0.9624715447425842
0.084927424788475,-1.8910249471664429,0.6909475922584534
0.1182017922401428,-1.4063819646835327,0.458182692527771
-0.7507255673408508,-1.4896833896636963,0.913332462310791
-1.2522034645080566,-0.6871027946472168,1.5299115180969238
-0.9997996091842652,-1.1749391555786133,1.7838510274887085
-0.3618101179599762,-0.9252200126647948,2.266495943069458
1.1875653266906738,-0.5485652685165405,1.2058062553405762
2.0735509395599365,1.0949273109436035,1.3833367824554443
2.98319673538208,1.5616669654846191,0.6791902184486389
3.967252016067505,1.946310043334961,1.6844172477722168
4.338621616363525,1.7606366872787476,2.139711141586304
4.666262626647949,2.472700834274292,3.092128038406372
5.048134803771973,2.2146899700164795,4.112574100494385
5.620174407958984,0.4243109226226806,5.47109317779541
6.887477397918701,-1.045542597770691,6.295475482940674
6.893056869506836,-1.5561821460723877,3.8520450592041016
7.178781986236572,-4.33159875869751,10.441742897033691
7.62164831161499,-3.08807110786438,10.38955783843994
8.757706642150879,-8.403619766235352,11.064367294311523
8.24177074432373,-10.96523094177246,13.02764892578125
1.9651224613189695,-9.481590270996094,6.2547125816345215
0.1255497336387634,-7.445811748504639,1.0095603466033936
3.104336738586426,-5.461024761199951,12.06361961364746
-0.8797548413276672,-2.618281841278076,10.766901969909668
0.0785983502864837,-4.266231536865234,8.836760520935059
-1.290842890739441,-3.1443066596984863,9.026283264160156
-1.7006818056106567,-1.7024896144866943,8.826618194580078
-1.945845603942871,-1.0990642309188845,7.30889081954956
-1.6557272672653198,-0.4167492985725403,7.598874568939209
-0.7292008399963379,0.443608671426773,6.4890456199646
-0.4359411597251892,-0.1807732135057449,3.17383360862732
-0.3620631694793701,-0.0049402508884668,2.535581350326538
-0.1497659683227539,0.9044641256332396,1.877574563026428
0.8882781863212585,0.6293004155158997,0.4330482482910156
2.024770975112915,0.9608336091041564,-0.0955092385411262
3.0592288970947266,0.8912848830223083,-1.4646004438400269
4.235621929168701,0.9080066084861756,-2.0607895851135254
5.384634017944336,0.2649731040000915,-3.73600172996521
6.759904861450195,-0.12246635556221,-5.72402286529541
7.421420097351074,0.5827378630638123,-6.130631446838379
7.691639423370361,-0.0218291282653808,-7.860124588012695
7.428415298461914,-0.3614067733287811,-10.742597579956056
6.502097606658936,-0.8509756326675415,-14.360074043273926
3.690827369689941,-2.655590772628784,-18.55588722229004
2.3432393074035645,-2.1069436073303223,-21.064002990722656
2.588794708251953,-1.1315834522247314,-22.4460391998291
2.644563674926758,-0.5577612519264221,-18.87527084350586
3.43791937828064,-2.3003201484680176,-16.621450424194336
3.3913094997406006,-3.447962522506714,-11.527024269104004
7.672169208526611,-1.6577430963516235,12.947948455810549
5.698659896850586,8.216110229492188,2.5041446685791016
3.608610153198242,-0.2483071237802505,-13.490676879882812
4.412400722503662,-4.705196857452393,-5.455364227294922
5.059906959533691,2.026538848876953,-0.5516765713691711
-0.3657925724983215,-0.7131912112236023,-3.101271152496338
0.1654906123876571,1.3127436637878418,-3.2929673194885254
1.8249722719192505,-0.1714030504226684,-1.4821207523345947
1.5378392934799194,0.166500985622406,-0.5689999461174011
1.825718879699707,0.5099241137504578,-1.0203015804290771
1.1146076917648315,-1.712944269180298,-0.5585458874702454
0.4380548596382141,-1.244564652442932,-1.4430841207504272
-0.2536427974700928,-1.6977736949920654,-0.9585835933685304
0.3160163164138794,-1.4234203100204468,-1.3326925039291382
0.0958800315856933,-1.196052074432373,-0.5883234143257141
-0.4152122735977173,-0.5329425930976868,0.2277901470661163
-0.7676237225532532,-0.0405963659286499,-0.1872585117816925
-0.7708016633987427,0.1463943421840667,0.5800610780715942
-1.7193573713302612,-0.5562842488288879,2.593764543533325
-0.5505490899085999,-2.1690945625305176,1.6892147064208984
0.039629440754652,-2.029269933700561,1.4815430641174316
1.693274736404419,0.4028947651386261,1.0313936471939087
2.209099054336548,0.975241243839264,1.608731031417847
2.36918568611145,0.5865598917007446,1.1584068536758425
3.578472852706909,0.97562575340271,1.8141721487045288
4.371251106262207,1.333768606185913,0.355737566947937
4.453470706939697,3.0695273876190186,2.6792685985565186
4.889060020446777,2.1605961322784424,3.474733591079712
5.354770660400391,1.101536989212036,4.763627052307129
6.872076034545898,0.9660402536392212,5.97685432434082
8.454240798950195,1.6173664331436155,8.587882995605469
8.831287384033203,1.3603265285491943,8.963796615600586
7.721127033233643,-4.092630386352539,2.7013871669769287
11.880389213562012,-9.61948299407959,11.853394508361816
6.225472450256348,-9.28362274169922,13.367345809936523
4.917543411254883,-9.316550254821776,14.525604248046877
0.5184583067893982,-11.23812770843506,3.995561122894287
0.3032121956348419,-9.79725170135498,-0.5886962413787842
3.213505268096924,-3.807070255279541,12.71427059173584
-1.940958023071289,-0.5691206455230713,13.279842376708984
-0.2848299741744995,-2.193305969238281,9.958880424499512
-1.1324222087860107,-3.5521459579467773,8.599058151245117
-1.5675127506256104,-1.8879296779632568,9.49618434906006
-2.1814634799957275,-1.703660488128662,7.916467666625977
-2.480924606323242,-1.2296125888824463,7.403235912322998
-1.3045364618301392,-1.0012813806533811,6.828970909118652
-0.7113091349601746,-1.1111624240875244,5.124058723449707
-0.1411780267953872,-0.8939546346664429,3.674221992492676
0.852802038192749,0.3960490822792053,2.5270867347717285
2.3791632652282715,0.5241327285766602,1.1121211051940918
3.580561637878418,0.9045773148536682,0.3092401027679443
4.796137809753418,1.0107100009918213,-0.2710624039173126
6.923169136047363,1.255437254905701,-0.7796379327774048
9.008130073547363,0.2572387158870697,-2.734154224395752
9.97925853729248,-0.4092994332313537,-4.204249382019043
9.953425407409668,-2.6608006954193115,-8.462063789367676
9.912593841552734,-1.96031653881073,-11.566094398498535
7.551684379577637,-0.3475228548049927,-13.64878273010254
4.977329254150391,-1.270488739013672,-20.104536056518555
2.93412184715271,-0.4127473831176758,-23.827247619628903
2.0534396171569824,-0.1333670318126678,-25.95490455627441
2.681363105773926,-1.041792869567871,-23.83765411376953
4.069482803344727,-3.649007797241211,-19.879064559936523
8.338993072509766,-8.543817520141602,6.967412948608398
11.964130401611328,6.622783660888672,-4.232347011566162
6.832108497619629,5.846605777740479,-6.298104286193848
2.3119378089904785,-1.81963324546814,-5.843765735626221
-1.0776668787002563,0.0331758148968219,-4.188097953796387
4.715322017669678,-2.4082510471343994,-6.545592308044434
2.812162160873413,-0.4588950574398041,-2.269568920135498
1.508454203605652,1.9424351453781128,-2.246542930603028
1.319612979888916,0.6418284177780151,-1.1826660633087158
1.7827436923980713,0.9809993505477904,-1.814700722694397
1.0522129535675049,-1.3981425762176514,-1.2371697425842283
0.3670452535152435,-2.504685163497925,-1.1918691396713257
0.34646937251091,-1.8837711811065676,-0.861280083656311
0.0203054547309875,-0.3631910681724548,-0.6767182350158691
0.0172024443745613,-0.440482497215271,0.3301135003566742
-0.1628933548927307,-0.584751546382904,0.7917220592498779
-0.5497844219207764,-1.3019449710845947,0.6499163508415222
-0.8392245173454285,-0.8384321331977844,0.5787465572357178
-0.6474875211715698,0.0524943508207798,2.159799575805664
-0.926301896572113,0.0378320440649986,1.5379939079284668
0.1158669218420982,-0.1566561907529831,1.5455971956253052
0.7363715767860413,-3.2901926040649414,2.015942096710205
2.374568223953247,0.9079835414886476,1.4523887634277344
3.689961433410645,-0.2329678535461425,1.616206407546997
3.6910901069641113,0.7908041477203369,1.7628417015075684
4.515961170196533,1.3781551122665403,0.677224338054657
5.694693565368652,2.202409267425537,1.7078123092651367
6.240973949432373,2.175278902053833,2.593716621398926
6.88385534286499,2.4678988456726074,3.97707724571228
8.137066841125488,2.379559278488159,6.754220485687256
9.004343032836914,0.9807407855987548,8.051586151123047
7.1134934425354,-0.9105502367019652,2.99647855758667
7.07005786895752,-5.775393009185791,10.091540336608888
7.349774837493896,-4.443448543548584,9.926092147827148
6.897800922393799,-6.370927810668945,12.70470905303955
6.331747531890869,-12.157557487487791,11.711585998535156
1.1456397771835327,-12.354240417480469,2.6258833408355717
1.5606439113616943,-6.974432945251465,3.6530492305755615
0.7197174429893494,-0.3964559435844421,14.38486671447754
-2.755110502243042,-2.876264333724976,11.02595043182373
-0.8018807768821716,-5.411642074584961,6.923593044281006
-1.0568927526474,-3.645768880844116,7.403976440429687
-1.6247828006744385,-1.4333802461624146,7.142942428588867
-1.82850444316864,-1.9467034339904783,5.937077522277832
-1.7394708395004272,-0.3430144190788269,7.14706563949585
-0.5552752017974854,0.2179006934165954,3.5554423332214355
0.2765732705593109,-0.4904584288597107,1.7366364002227783
-0.2786978483200073,1.2369474172592163,1.9105345010757449
0.0719548612833023,-0.0185591448098421,0.1409288495779037
0.4561244249343872,0.2165763080120086,0.1746786683797836
0.9472796320915222,-0.4016443192958832,-0.6745860576629639
1.8932174444198608,0.2584955990314483,-1.0597323179244995
3.202389717102051,0.8067323565483093,-1.323139190673828
4.693552017211914,1.0460261106491089,-1.5199320316314695
6.142336368560791,0.4614818692207336,-2.774115085601806
7.694679260253906,-0.7833114862442017,-3.885905504226685
7.818168640136719,-1.2593324184417725,-5.512322425842285
7.638627052307129,-1.991365909576416,-10.407554626464844
6.92564868927002,-1.6616592407226562,-13.19460391998291
5.349177360534668,-0.230684608221054,-15.433629035949709
4.77995491027832,-0.4218006134033203,-19.804235458374023
2.486523389816284,-0.9111279845237732,-22.27250862121582
2.344243049621582,-0.6701280474662781,-21.677961349487305
3.863584756851196,-1.334094762802124,-18.985626220703125
3.879630565643311,-2.548194408416748,-16.116413116455078
9.762853622436523,-0.1340612322092056,16.984302520751953
3.713287830352783,12.918534278869627,3.213122844696045
5.638416767120361,0.852275550365448,-9.795083999633787
3.7435824871063232,-3.787800550460816,-9.749783515930176
3.097679853439331,3.3570125102996826,-1.731048345565796
2.9231672286987305,-4.057774066925049,-3.1394736766815186
-0.6391500234603882,0.7666548490524292,-1.7374963760375977
0.1786170899868011,0.0378169678151607,-1.6435576677322388
1.7834296226501465,-1.3703588247299194,0.1017951443791389
0.9495029449462892,0.0811696201562881,-0.6050638556480408
1.2073372602462769,-0.6182403564453125,-1.7665492296218872
0.4439571499824524,-1.7654274702072144,-1.097654104232788
-0.0002439199015498,-0.0580700226128101,-0.7239665389060974
0.5052083730697632,1.0243467092514038,-0.1546599566936493
0.6640520691871643,-0.1967833489179611,-0.417481392621994
0.0434580221772193,-0.5518853068351746,0.7034639120101929
-0.4641216695308685,-1.4418009519577026,0.2500209212303161
-0.1936204135417938,-0.8215240240097046,0.71805340051651
0.1553422808647155,0.009749686345458,0.522742509841919
0.0769622772932052,0.4138916730880737,0.5386204123497009
0.0450011752545833,0.0421601496636867,0.970642626285553
1.3536733388900757,-0.9913874864578248,1.3596339225769043
1.3668556213378906,-1.691759467124939,1.6601077318191528
3.440025806427002,1.005770921707153,1.4340540170669556
3.92602276802063,0.9596711993217468,1.4783581495285034
3.76768970489502,1.5493450164794922,1.5651733875274658
4.904041767120361,3.099112272262573,1.885750412940979
5.471826553344727,2.762115478515625,2.461672782897949
5.663381576538086,1.987531304359436,3.7077672481536874
6.507620334625244,1.3560103178024292,5.571694850921631
7.50327205657959,0.7675279974937439,7.926586627960205
8.051671028137207,0.4931302964687347,7.140156269073486
6.66896915435791,-2.6652934551239014,1.887168049812317
9.543456077575684,-7.858457088470459,12.3060884475708
9.156838417053224,-9.66026210784912,12.876751899719238
8.28348445892334,-9.87930679321289,14.953169822692873
1.6338326930999756,-8.557939529418945,4.315052032470703
-0.1084721907973289,-10.00334644317627,1.710439920425415
0.6651381850242615,-0.4124383926391601,16.047183990478516
-2.7184388637542725,-2.361002922058105,13.386133193969728
-0.6866624355316162,-4.629608154296875,9.59854221343994
-1.2766554355621338,-3.9121768474578857,9.355549812316896
-1.007736086845398,-1.6215790510177612,9.164877891540527
-0.5694038271903992,-1.339477300643921,7.381160259246826
0.2085928469896316,0.0005151033401489,7.3225178718566895
1.0588732957839966,0.796017050743103,5.422632694244385
1.4578615427017212,-0.0338664129376411,3.025712728500366
1.7509199380874634,0.7696589827537537,2.077026605606079
2.128516435623169,0.848772406578064,1.020716428756714
2.2522003650665283,0.6025221943855286,0.6823777556419373
2.3743326663970947,0.5902252197265625,0.1407897323369979
2.960258722305298,1.444227695465088,-0.5993320345878601
4.144340991973877,1.3643897771835327,-1.5112955570220947
5.473701477050781,1.3692160844802856,-2.200844049453736
6.246246814727783,0.8688997030258179,-3.657727479934693
7.0843000411987305,0.320302814245224,-5.0464067459106445
7.629261493682861,-1.074698567390442,-10.112557411193848
8.249921798706055,-1.7912747859954834,-12.881051063537598
6.405420303344727,-2.0940141677856445,-14.124155044555664
4.700948715209961,-2.505258798599243,-19.56075668334961
3.339542865753174,-1.7954511642456057,-22.7139949798584
2.6220803260803223,-1.8534804582595823,-23.05570411682129
2.8184354305267334,-2.7431750297546387,-22.546274185180664
3.3332016468048096,-3.7539660930633545,-16.020275115966797
10.89308738708496,-3.4093446731567383,5.629062175750732
8.688098907470703,8.7069673538208,0.1263882368803024
2.613812208175659,0.9416496753692628,-10.743106842041016
6.633112907409668,-1.9558484554290767,-8.111530303955078
3.361997127532959,0.6291876435279846,0.322801262140274
0.8933976292610168,-2.0473310947418213,-5.39491081237793
0.4373716413974762,-0.2478847503662109,-2.3581717014312744
0.3463725745677948,1.5891963243484497,-0.4954147040843963
2.636879205703736,-0.3992106020450592,0.6938607692718506
0.6274977326393127,-0.1221601068973541,-1.553266525268555
0.7812507748603821,-1.2005548477172852,-1.5990980863571167
0.2641173005104065,-2.171571493148804,-1.2073407173156738
0.081336110830307,-1.2136915922164917,-0.916961908340454
0.2056423723697662,-0.1269445717334747,-0.0585626624524593
0.1853863596916198,-0.274137407541275,0.2261857688426971
0.6542332172393799,-0.3598861396312713,1.0353227853775024
0.0179999954998493,-1.4423569440841677,0.1357319504022598
-0.0041447076946496,-0.6804872751235962,0.2893418967723846
0.2438792884349823,-0.3901796638965606,0.9021170139312744
0.6128403544425964,-0.308264285326004,1.7812721729278564
1.0102726221084597,-1.8046051263809204,1.7414830923080444
0.1257328689098358,-2.083405017852783,2.405762195587158
1.9449365139007568,0.3637308478355407,1.124580979347229
3.745714902877808,1.4159616231918335,1.3041536808013916
4.098276138305664,1.322033405303955,1.2413878440856934
4.265938758850098,1.4880375862121582,2.3363747596740723
4.521559238433838,2.045147180557251,2.3356809616088867
5.719049453735352,2.541335105895996,3.2476437091827397
6.209239959716797,1.828984260559082,4.490140914916992
6.549463748931885,1.89132821559906,5.620721340179443
7.671768188476562,1.1747143268585205,7.850058078765869
7.399069309234619,-0.4827775955200195,3.3440072536468506
7.064484596252441,-6.453258037567139,7.847746849060059
7.979650497436523,-3.5653090476989746,11.096261024475098
8.689329147338867,-8.99995231628418,11.83441162109375
6.66522216796875,-10.83021354675293,9.942021369934082
1.5491145849227903,-10.863186836242676,2.3198490142822266
1.9857747554779053,-6.188009262084961,4.258203506469727
1.551928997039795,-1.134978413581848,12.668472290039062
-0.4598487615585327,-3.7875165939331055,9.284590721130373
0.6538987159729004,-4.491297721862793,7.925385475158691
-0.550001323223114,-3.054262399673462,8.211244583129883
-1.5033713579177856,-1.4817038774490356,7.784209728240967
-2.1431562900543213,-1.2311935424804688,6.847633361816406
-2.101471424102783,-0.0551095455884933,7.339318752288818
-0.842352032661438,1.063437581062317,6.871298789978027
-0.1511288285255432,1.1272733211517334,4.136860370635986
0.1283051520586013,0.8002322912216187,3.333312511444092
0.3910317122936249,1.2683478593826294,2.650724411010742
1.1496278047561646,0.4338605403900146,1.6798733472824097
1.687997579574585,1.0855709314346311,1.7457302808761597
2.5518295764923096,0.8173722624778748,1.2053353786468506
3.788111686706543,0.5981320142745972,0.1016602218151092
5.416089057922363,0.0713501125574112,-1.9223809242248533
6.777055263519287,0.5406286120414734,-1.9587650299072263
7.880588531494141,0.1960511803627014,-3.6815571784973145
8.951568603515625,-0.4457463920116424,-5.885408878326416
9.571426391601562,-1.7742146253585815,-7.931066036224365
9.21878719329834,-3.704457998275757,-11.600738525390623
7.191512107849121,-3.2457475662231445,-16.543800354003906
4.19292688369751,-0.7479246854782104,-21.36174964904785
2.5746119022369385,0.7520842552185059,-24.450862884521484
1.8654392957687376,-1.8297182321548464,-25.07196617126465
2.8497862815856934,-3.900686740875244,-21.742595672607425
4.144433975219727,-4.3515167236328125,-17.423633575439453
7.112326145172119,-3.3756754398345947,2.910677194595337
9.260377883911133,8.325342178344727,15.75721263885498
7.48390531539917,7.690578460693359,-10.286563873291016
4.855927467346191,-5.133461952209473,-10.946000099182127
0.7999186515808105,4.711409091949463,1.1815396547317505
2.0956990718841557,-3.747857570648194,-7.1399922370910645
4.269753932952881,-0.6507564783096313,-3.1238696575164795
0.9290491342544556,0.5451858639717102,-1.778545618057251
0.4004709422588348,0.122176319360733,-1.2312250137329102
1.081573724746704,0.4019554853439331,-0.3820568323135376
1.1498351097106934,-0.0752736777067184,-1.1628674268722534
0.7612435221672058,-2.400913715362549,-1.4834401607513428
0.2707932889461517,-1.5167025327682495,-1.073310375213623
0.4074822664260864,0.2344425171613693,-0.7560043334960938
0.0741616412997245,0.4960543513298034,0.4516577124595642
0.1164626479148864,-0.1940514743328094,0.838524580001831
0.4203629791736603,-1.510082721710205,0.644622802734375
0.4368418753147125,-1.843891978263855,0.300675630569458
0.8192539215087891,-0.0189157221466302,0.5847898721694946
0.6860483288764954,0.9131150841712952,0.3343457281589508
1.1586153507232666,0.6741179823875427,1.4385579824447632
1.4334098100662231,-2.5285260677337646,1.8463032245635984
1.937736749649048,-0.4501921534538269,2.40697979927063
2.4652888774871826,-0.4977709054946899,1.351218819618225
2.7434725761413574,1.4913389682769775,1.431741714477539
3.1218972206115723,2.402793407440185,0.9675557613372804
4.2688984870910645,3.163336515426636,2.125406265258789
4.581033706665039,2.282763957977295,2.2033088207244877
5.081408977508545,1.9945456981658936,3.618624687194824
5.726311683654785,2.020392179489136,4.86311674118042
5.947114944458008,1.352006435394287,6.212118148803711
6.614325523376465,0.7202834486961365,7.176736831665039
6.4063262939453125,0.9690241813659668,2.3142788410186768
7.376286029815674,-7.289090156555176,10.41761875152588
8.803207397460938,-8.577310562133789,10.867472648620604
9.802237510681152,-13.03534698486328,13.886478424072266
5.424373626708984,-10.392742156982422,5.81641149520874
2.358501434326172,-8.645115852355957,1.9624642133712769
3.423104286193848,-2.6681792736053467,11.281587600708008
-0.0896597653627395,-1.9281435012817385,13.321391105651855
0.5748729109764099,-3.133119821548462,9.661595344543455
-0.2362854778766632,-2.83232045173645,9.32676601409912
-1.144880771636963,-0.2182648777961731,9.465951919555664
-1.436178207397461,-0.5812325477600098,7.529277801513672
-1.6142756938934326,-0.3839163780212402,6.187041282653809
-0.6459094285964966,1.176295042037964,6.459410667419434
0.1402955502271652,1.6854230165481567,4.326737880706787
0.3015722632408142,1.1563262939453125,2.407822132110596
0.3973115086555481,1.5748480558395386,1.6299080848693848
1.0710586309432983,0.9007530212402344,0.7657625675201416
1.6941856145858765,0.9772213101387024,0.5687221884727478
2.341262102127075,0.832054853439331,-0.1324591934680938
3.4783315658569336,1.4196794033050537,-0.7444692850112915
4.505017280578613,1.8923442363739011,-1.7548067569732666
5.619772911071777,1.705801248550415,-2.6981899738311768
6.148172378540039,0.6959717869758606,-5.376750946044922
7.113627433776856,-0.5108968019485474,-8.466670036315918
7.396524906158447,-0.1846659034490585,-8.744100570678711
7.53111457824707,-1.1328084468841553,-11.308210372924805
6.852818489074707,-2.1603732109069824,-14.296364784240724
5.052276611328125,-2.847862720489502,-17.64472007751465
3.400559186935425,-2.020347833633423,-19.90523338317871
2.832277297973633,-0.8929522633552551,-19.90727806091309
2.4682981967926025,-1.575850486755371,-18.3337516784668
3.2468583583831787,-2.3786869049072266,-15.617995262145996
3.5041792392730717,-3.9147446155548096,-12.311532020568848
4.408194541931152,-2.178934335708618,-2.919221878051758
6.83714485168457,4.100554943084717,19.94136047363281
3.62902569770813,7.809249401092529,-3.957001209259033
4.606403827667236,-5.404991149902344,-14.355167388916016
7.092305660247803,1.8619451522827148,-6.6663031578063965
6.842582702636719,2.2476978302001958,1.473103165626526
0.4652759134769439,-1.4798108339309692,-3.743361234664917
-1.7263541221618652,0.4438530504703522,-1.7972763776779177
0.4948212504386902,-0.3970484435558319,-1.2198247909545898
1.433747410774231,-1.1482328176498413,-0.554774820804596
0.1699724197387695,0.0673925280570983,-0.4942667186260223
-0.0921407714486122,-1.6812753677368164,-1.2801220417022705
-0.3583367466926574,-2.0459909439086914,-0.8435816764831543
-0.1839089691638946,-1.1653361320495603,0.0184512436389923
0.4245467185974121,-0.9806048274040222,0.7929295897483826
0.2521425187587738,-0.3668641149997711,1.2999333143234253
-0.3278801441192627,-0.3157488107681274,0.6776940226554871
-0.2499284595251083,-0.6228027939796448,0.0254428628832101
0.0143335675820708,-0.3398180305957794,0.4827745854854584
-0.571064829826355,-0.1738025695085525,1.375906229019165
-0.3077791631221771,0.2715055644512176,1.1663018465042114
0.6032902598381042,-0.2312656790018081,0.9374055862426758
1.8790818452835083,-0.0085627399384975,0.0817799866199493
1.4446275234222412,-3.485670566558838,0.7911921739578247
3.875405550003052,2.0742781162261963,-0.3839277029037475
3.61909556388855,0.7635859251022339,1.852090835571289
4.59673547744751,1.9945828914642332,1.1419682502746582
5.155867576599121,4.152573585510254,1.3244057893753052
5.869431495666504,4.960420608520508,1.9296362400054927
6.321087837219238,2.5030460357666016,3.3741610050201416
6.895731449127197,1.0262185335159302,5.507965564727783
7.354558944702148,-0.063300997018814,8.584070205688477
7.506956577301025,-0.7557031512260437,9.759794235229492
7.755441188812256,-0.8952022194862366,2.5940487384796143
10.874600410461426,-9.137511253356934,9.513267517089844
10.59314250946045,-9.064423561096191,13.531346321105955
6.29765510559082,-9.601274490356444,15.172609329223633
0.6386849880218506,-6.583916187286377,3.78262996673584
1.942326545715332,-7.459384441375732,4.578742980957031
2.44726824760437,-2.557458877563477,14.74104118347168
-1.5440125465393066,-0.7127175331115723,12.55492115020752
-0.4205056428909302,-2.895981788635254,9.740413665771484
-1.3421982526779177,-2.87647032737732,9.146623611450195
-1.4081658124923706,-1.5689334869384766,8.72801685333252
-1.5489007234573364,-1.4892035722732544,7.3676066398620605
-1.225600004196167,-0.679290771484375,7.649918079376221
-0.4112972021102905,-0.1500293910503387,6.570818901062012
0.0921801254153251,-0.8889157176017761,3.452888250350952
0.2641310095787048,0.2722148597240448,3.4935011863708496
0.5400838851928711,1.0361167192459106,2.6672821044921875
1.3738011121749878,0.9336148500442504,1.7006021738052368
2.096548795700073,1.4788349866867063,1.1981126070022583
3.1295294761657715,1.4781639575958252,0.4957396686077118
4.5187273025512695,1.6541197299957275,-0.3789936006069183
6.0965094566345215,1.2797296047210691,-1.3499890565872192
7.16572380065918,0.1785870641469955,-2.593636035919189
7.088255405426025,-1.5624332427978516,-5.121825218200684
6.794497489929199,-3.335015058517456,-9.306386947631836
7.585484504699707,-2.4488630294799805,-12.558659553527832
6.3597564697265625,-0.481208860874176,-13.098071098327637
4.184718608856201,-1.5533199310302734,-17.52545166015625
3.0096120834350586,-2.3349385261535645,-20.812679290771484
1.9553014039993288,-1.4870270490646362,-21.808500289916992
1.8127199411392207,-0.7676498293876648,-21.366878509521484
1.8043572902679443,-1.2549290657043457,-17.51595115661621
7.1157331466674805,-3.876411676406861,-13.918649673461914
17.687849044799805,5.742514133453369,1.8510959148406985
1.7554817199707031,7.969462871551514,-6.632079124450684
7.744928359985352,-6.422435760498047,-8.894730567932129
1.5566766262054443,3.4118449687957764,-0.756717324256897
-0.4955016374588012,-3.4650633335113525,-5.080266952514648
1.7145622968673706,0.4440111815929413,-3.3721749782562256
2.698060750961304,0.8918246626853943,-0.9736838340759276
1.777110576629639,1.4743897914886477,-1.3160227537155151
0.9309265613555908,0.5671845078468323,-1.5934836864471436
1.0085508823394775,-1.392064094543457,-2.041256189346313
1.1470073461532593,-1.2671221494674685,-0.7776066064834595
0.4237330257892608,-0.5009957551956177,0.2794702649116516
0.255841851234436,-0.8265045285224915,0.5990502834320068
0.4720903038978576,-0.8628023266792297,-0.3539215922355652
-0.3409605920314789,-2.8210701942443848,1.4464532136917114
-0.5819668769836426,-0.7618595957756042,0.9777982831001282
-0.0630689486861229,-1.6539897918701172,1.726975679397583
-0.3646588623523712,-1.1448501348495483,1.164499044418335
0.3079663813114166,-0.9786266088485718,0.2874982357025146
0.7280420660972595,0.1485283225774765,1.0279951095581057
1.0426437854766846,0.2295972555875778,1.0539368391036987
1.3265475034713743,0.4632577002048492,0.7099047303199768
1.8196935653686523,0.944463074207306,1.3204866647720337
2.1922237873077397,1.1304378509521484,1.170880675315857
3.013954401016236,1.5844677686691284,0.8525804877281189
3.107643842697144,1.5856986045837402,2.0864620208740234
3.161006450653076,1.2349934577941897,2.040487051010132
2.842926263809204,2.1423802375793457,2.414018392562866
3.3944880962371826,2.979808807373047,3.572458267211914
4.223823547363281,1.9326106309890747,4.298052787780762
5.298804759979248,0.2082663774490356,4.463776111602783
5.661187648773193,-2.4332387447357178,3.1350033283233643
7.006319522857666,-4.475339889526367,7.436092853546143
6.679534435272217,-5.78131914138794,9.862285614013672
6.1861677169799805,-4.794382095336914,10.189711570739746
8.223427772521973,-7.796296119689941,13.87446117401123
5.364324569702148,-10.030547142028809,5.253498554229736
4.152927875518799,-10.180593490600586,2.777850151062012
4.660758972167969,-3.403040647506714,9.9418306350708
1.0364757776260376,-2.555763959884644,12.18411350250244
0.2153894454240799,-4.570074558258057,9.91077709197998
-0.8485358953475952,-3.85530424118042,7.991428852081299
-1.3337008953094482,-0.3800511956214905,8.009206771850586
-1.1749110221862793,-0.2282631993293762,7.400516986846924
-1.103456974029541,0.2900467216968536,5.7758636474609375
-0.4979862570762634,1.5910176038742063,4.817692756652832
-0.0282133296132087,2.7736027240753174,3.768894910812378
0.416924238204956,2.882070779800415,2.5123348236083984
0.5837594866752625,2.897108316421509,2.081652879714966
0.6812042593955994,2.204584836959839,1.8133745193481443
0.7937716841697693,1.0362319946289062,1.3079853057861328
0.9866913557052612,1.0340487957000732,0.9821863770484924
1.7659685611724854,0.8616535067558289,0.8374801278114319
2.6627678871154785,1.125629186630249,-0.2175390124320984
3.4844257831573486,1.2429115772247314,-1.7790263891220093
4.366058826446533,0.8853382468223572,-3.37753963470459
5.402026653289795,0.1709070205688476,-4.162972927093506
6.160458087921143,-1.6731430292129517,-5.892271995544434
7.006582736968994,-3.0680510997772217,-8.255130767822266
7.402857303619385,-2.565943479537964,-11.321990966796877
5.6907453536987305,-2.260375022888184,-14.292251586914062
4.207990646362305,-2.318081378936768,-17.25920295715332
3.051706314086914,-2.308104991912842,-20.006471633911133
1.694149374961853,-2.2185463905334477,-21.502710342407227
1.3085196018218994,-1.5188342332839966,-20.382736206054688
2.0191423892974854,-2.3789055347442627,-17.272123336791992
2.3931586742401123,-2.694080114364624,-13.947532653808594
7.356548309326172,-2.1499907970428467,16.423120498657227
6.20721435546875,10.100587844848633,0.1909891366958618
6.196269512176514,0.5690340399742126,-11.044881820678713
5.750082492828369,-3.8084969520568848,-6.2008376121521
3.205775737762451,3.0197203159332275,-1.888054728507996
1.0319467782974243,-1.7350072860717771,-3.604419231414795
-0.2763087749481201,0.8234667778015137,-2.5082733631134038
0.8540410399436951,-0.3002919554710388,-2.1500158309936523
0.7902600765228271,-0.1327530443668365,-0.3036695122718811
0.7613871097564697,0.2332375049591064,-1.632069706916809
0.2617987394332886,-1.5357801914215088,-1.8448679447174072
0.0035140765830874,-0.4022928774356842,-0.4913229942321777
-0.1455477774143219,-0.5106289982795715,-0.4919895529747009
-0.2308893501758575,-0.5765337347984314,0.2231964468955993
0.1928995549678802,-1.6344444751739502,0.5498762726783752
-0.2978736162185669,-1.390455961227417,1.0413670539855957
-0.3100138306617737,-1.065813064575195,0.212646409869194
0.0188233815133571,0.1280169188976287,0.8917292356491089
0.2285936027765274,0.5589832663536072,0.7661677598953247
0.2040301412343979,0.0327870696783065,1.5430831909179688
-0.1257823258638382,-2.506060838699341,2.0613348484039307
1.3506585359573364,-0.0755845382809639,1.23613178730011
2.273201942443848,0.1190294474363327,1.225145936012268
2.490307331085205,1.6113325357437134,1.2252168655395508
3.7021830081939697,1.929696083068848,1.634714961051941
3.2197885513305664,1.9784358739852903,1.8630768060684204
3.7395308017730713,2.0959396362304688,2.231112241744995
4.33201265335083,1.309049367904663,2.9986650943756104
4.565344333648682,0.9518861770629884,4.010349273681641
5.252824306488037,0.7994169592857361,5.551512718200684
5.690142154693604,1.011711835861206,7.163145065307617
5.289883136749268,-0.5119796395301819,3.952712297439575
5.285080909729004,-3.945856809616089,5.222829341888428
6.452437877655029,-1.4099851846694946,9.122596740722656
4.867396354675293,-3.06828236579895,9.708800315856934
5.463122844696045,-4.987799167633057,11.385293960571287
4.653681755065918,-8.965546607971191,9.51318359375
3.500880002975464,-12.159963607788086,1.6306869983673096
5.328131675720215,-7.588418960571289,4.12324857711792
3.3093388080596924,-1.9749308824539185,14.153955459594728
-0.2658974826335907,-4.582333564758301,10.05057144165039
0.4709797203540802,-4.923652172088623,7.492608070373535
-0.6382213830947876,-2.136256217956543,8.95569896697998
-1.6184465885162354,-1.7029341459274292,8.131205558776855
-2.0916740894317627,-1.2618640661239624,6.237781524658203
-1.8087120056152344,0.2612514793872833,5.741904258728027
-0.9014344811439514,2.191190242767334,5.182226657867432
-0.4533016085624695,2.125827550888061,3.541846513748169
-0.0191832482814788,1.5793964862823486,2.286708354949951
0.2533068656921386,1.9731345176696775,1.4994083642959597
0.5783898830413818,1.249916672706604,0.999535083770752
0.9094254970550536,1.2939002513885498,0.4740709662437439
1.4593623876571655,1.8567161560058596,0.369893878698349
2.181140184402466,1.951283574104309,-0.0659462362527847
3.128856897354126,2.1551625728607178,-1.3941996097564695
4.06417989730835,1.1958757638931274,-2.4149773120880127
4.872412204742432,-0.4783197343349457,-3.2682881355285645
6.0255327224731445,-3.1263091564178467,-4.914032459259033
6.726114273071289,-2.9249935150146484,-6.866621494293213
7.198943614959717,-2.2351765632629395,-8.878015518188477
6.157958030700684,-1.1045629978179932,-11.568648338317873
4.505518913269043,-0.5335631966590881,-13.636345863342283
3.2815186977386475,-2.1823387145996094,-16.65047264099121
1.5958905220031738,-2.009488821029663,-19.51835823059082
0.774996280670166,-0.7152678370475769,-20.6396541595459
1.31622576713562,-0.3951497375965118,-19.824129104614254
1.459006428718567,-4.491837501525879,-12.975732803344728
10.521016120910645,-6.019627094268799,-1.927572965621948
10.87419319152832,7.48196268081665,3.712799310684204
0.8280978202819824,-3.494497537612915,-13.367473602294922
6.049427032470703,-0.7142137289047241,-2.9973607063293457
3.628767967224121,-0.5085204243659973,-2.9665417671203613
-0.6453169584274292,-0.3670958578586578,-3.0074918270111084
0.1987571120262146,0.1839942932128906,-3.53434157371521
1.6347157955169678,0.2205152958631515,-2.308394432067871
1.3830335140228271,-0.1090829297900199,-1.4555107355117798
0.4653373956680298,-0.2024723440408706,-1.4959721565246582
0.5682278275489807,-0.8571184873580933,-1.282067060470581
0.3329423367977142,-0.7811580300331116,-0.6604100465774536
-0.2420361638069152,-0.3869472444057464,0.2357314229011535
-0.2651956081390381,-1.378357172012329,0.2483021765947342
-0.4251503050327301,-2.2380130290985107,0.4236538410186767
-0.4323773980140686,-1.0098798274993896,0.6016306281089783
