PacketCounter,SampleTimeFine,Quat_W,Quat_X,Quat_Y,Quat_Z,Acc_X,Acc_Y,Acc_Z,Gyr_X,Gyr_Y,Gyr_Z 
1,707144139,0.61136883,0.40766504,-0.35487628,0.5780141,-0.008717907592654228,-0.03924006596207619,0.02003549598157406,0.002772789215669036,0.10708630084991455, -0.07340547442436218
2,707160806,0.6124475,0.40916094,-0.35341793,0.5767071,16.244007110595703,1.411170244216919,7.262323379516602,0.2644895017147064,2.881441354751587, 1.8397216796875
3,707177473,0.61190134,0.40926558,-0.3544589,0.57657385,15.864361763000488,1.877798080444336,7.281562328338623,1.9312552213668823,3.445286273956299, 1.503894567489624
4,707194140,0.612715,0.40939027,-0.35422605,0.57576376,16.048927307128906,1.4458729028701782,7.229213237762451,0.7123339176177979,3.7933881282806396, 1.4952372312545776
5,707210807,0.612891,0.40893298,-0.35469168,0.57561475,15.650208473205566,1.9221994876861572,7.17660665512085,-0.07316268235445023,3.7242982387542725, 1.24649977684021
6,707227474,0.6131518,0.40895757,-0.35419667,0.57562447,16.128576278686523,1.6644933223724365,7.202662944793701,0.47011470794677734,4.064511775970459, 1.977486252784729
7,707244141,0.6133642,0.4088312,-0.3540225,0.5755949,16.034900665283203,1.7535110712051392,7.314424991607666,1.034746766090393,4.711450576782227, 2.2701756954193115
8,707260808,0.6136852,0.40860012,-0.35376266,0.5755766,15.964432716369629,1.633612036705017,7.344579219818115,1.0312505960464478,4.969395637512207, 1.933790922164917
9,707277475,0.61383456,0.40833667,-0.35345057,0.5757961,15.69701099395752,1.8743079900741577,7.336950778961182,0.754287600517273,4.54231595993042, 1.6952084302902222
10,707294142,0.61414576,0.40795246,-0.3532117,0.57588315,15.870020866394043,1.8739302158355713,7.339040279388428,-0.7481981515884399,3.768057107925415, 2.154085636138916
11,707310809,0.61463475,0.40742812,-0.35310364,0.57579905,16.140880584716797,1.6709822416305542,7.400423049926758,-0.7989625930786133,3.8483402729034424, 2.7826600074768066
12,707327476,0.6148194,0.40711623,-0.35272822,0.5760524,15.918376922607422,1.8175289630889893,7.340521812438965,1.176346778869629,4.4090800285339355, 2.486154556274414
13,707344143,0.61489296,0.40682667,-0.35227484,0.5764559,15.670166969299316,1.5822663307189941,7.1491827964782715,1.0131168365478516,4.763380527496338, 2.787731409072876
14,707360810,0.61520076,0.40637168,-0.35208887,0.57656187,15.46153450012207,1.6632473468780518,7.183663845062256,1.1952486038208008,4.6642584800720215, 2.6127068996429443
15,707377477,0.6154316,0.40588495,-0.35197812,0.57672596,15.769791603088379,1.9214247465133667,7.298223972320557,-0.5652594566345215,4.197057247161865, 2.48530912399292
16,707394144,0.61545366,0.40553895,-0.3516336,0.5771561,15.934847831726074,1.5417665243148804,7.238358974456787,0.5554178357124329,4.764135360717773, 3.1278038024902344
17,707410811,0.6155843,0.40508205,-0.35142276,0.57746565,15.519444465637207,1.9302117824554443,7.210233688354492,0.2414829432964325,4.988028526306152, 2.859344005584717
18,707427478,0.6156062,0.4047796,-0.35110992,0.57784474,15.994963645935059,1.5008946657180786,7.35616397857666,1.493162989616394,4.699604034423828, 3.22851300239563
19,707444145,0.6156383,0.40434572,-0.35107183,0.5781373,15.486817359924316,1.8921549320220947,7.267096519470215,-1.083404302597046,3.863271951675415, 3.0518105030059814
20,707460812,0.61569065,0.40385416,-0.35110876,0.5784025,15.37477970123291,1.6094427108764648,7.160640239715576,-1.8999501466751099,3.6434645652770996, 3.4329285621643066
21,707477479,0.6156653,0.4034711,-0.35102755,0.57874614,16.13939094543457,1.5634052753448486,7.420287132263184,-0.41335055232048035,3.748079538345337, 3.4083268642425537
22,707494146,0.61557955,0.40320373,-0.35085967,0.5791255,15.329508781433105,1.5288037061691284,7.2422003746032715,0.9109092354774475,3.7347731590270996, 3.1368963718414307
23,707510813,0.615513,0.40291527,-0.35084307,0.57940674,15.372148513793945,1.542298436164856,7.207705497741699,-0.5683202743530273,2.793468952178955, 2.730269432067871
24,707527480,0.6154575,0.4026135,-0.35088587,0.5796496,15.81675910949707,1.6111016273498535,7.304258346557617,-1.0488145351409912,2.4760756492614746, 2.5938172340393066
25,707544147,0.615402,0.40221113,-0.3510485,0.57988936,15.400723457336426,1.8155059814453125,7.170762062072754,-1.2579549551010132,2.4996397495269775, 3.449422597885132
26,707560814,0.6153621,0.40182045,-0.35092342,0.5802782,15.892534255981445,1.0582646131515503,6.985894203186035,-0.4938768446445465,4.062923431396484, 3.0263259410858154
27,707577481,0.6152839,0.401512,-0.35082722,0.58063257,15.104186058044434,1.8444160223007202,7.247577667236328,0.5813634991645813,3.7772269248962402, 2.8223211765289307
28,707594148,0.6151645,0.40121856,-0.35077137,0.58099556,15.544634819030762,1.4693284034729004,7.183059215545654,-0.07898957282304764,3.255739212036133, 3.012072801589966
29,707610815,0.6151675,0.40080398,-0.35084763,0.5812327,15.736249923706055,1.3422313928604126,7.216147422790527,-0.8887349963188171,3.241178274154663, 2.989097833633423
30,707627482,0.6150515,0.40048704,-0.35072502,0.58164775,15.816109657287598,1.6030616760253906,7.361565113067627,0.5115432143211365,3.4216840267181396, 2.880385160446167
31,707644149,0.6149026,0.40026212,-0.3503044,0.58221275,15.339494705200195,1.4730043411254883,7.061635494232178,2.2897050380706787,4.132603168487549, 2.356323719024658
32,707660816,0.6148355,0.39992613,-0.3499673,0.5827173,15.139618873596191,1.5773892402648926,7.035770893096924,1.7500196695327759,4.146254062652588, 2.520718812942505
33,707677483,0.61498874,0.39922243,-0.3499025,0.5830771,15.746658325195312,1.4507107734680176,7.124083518981934,-2.0532679557800293,4.523632049560547, 2.552056074142456
34,707694150,0.6149199,0.39880204,-0.34942007,0.5837259,15.236172676086426,1.4676815271377563,7.026273250579834,2.0741872787475586,5.396116256713867, 2.8006272315979004
35,707710817,0.61489445,0.39822608,-0.3490989,0.58433783,15.405917167663574,1.4174790382385254,7.152740478515625,-0.4367862045764923,5.241082668304443, 2.795158863067627
36,707727484,0.61482245,0.3978691,-0.34866858,0.5849134,15.225016593933105,1.551771879196167,7.302050590515137,2.071216106414795,4.7075958251953125, 2.54524302482605
37,707744151,0.61487,0.39734513,-0.3486683,0.58521956,15.395942687988281,1.6418960094451904,7.308299541473389,-1.2274501323699951,3.115163803100586, 2.5581517219543457
38,707760818,0.61489785,0.39683557,-0.34870106,0.5855166,15.232779502868652,1.5258411169052124,7.162905216217041,-1.372456431388855,2.8351657390594482, 2.607046127319336
39,707777485,0.61481786,0.39647302,-0.3485316,0.58594716,15.537734031677246,1.2414636611938477,7.158732891082764,0.9625189304351807,3.2297422885894775, 2.8427088260650635
40,707794152,0.61486024,0.3960332,-0.348366,0.5862983,15.423158645629883,1.6719670295715332,7.18632698059082,0.1213337630033493,3.6066839694976807, 2.217144012451172
41,707810819,0.61475486,0.39572066,-0.3479865,0.5868451,15.365713119506836,1.5107773542404175,7.097671985626221,1.9951591491699219,4.143091678619385, 2.561084508895874
42,707827486,0.61478776,0.3951636,-0.3478781,0.5872502,15.4185791015625,1.5255999565124512,7.19556188583374,-0.4153611660003662,3.968092441558838, 2.9433798789978027
43,707844153,0.6149161,0.394475,-0.347955,0.58753294,15.32524585723877,1.6801179647445679,7.123218059539795,-2.1908719539642334,3.619094133377075, 2.900580644607544
44,707860820,0.61493117,0.39383516,-0.3479162,0.5879692,15.405098915100098,1.3652102947235107,7.064046859741211,-1.1778258085250854,4.029831886291504, 3.413104295730591
45,707877487,0.6148726,0.39337826,-0.3476573,0.5884895,15.154735565185547,1.578783392906189,7.211683750152588,0.7378699779510498,4.261729717254639, 2.955789089202881
46,707894154,0.6148787,0.39286944,-0.3474921,0.58892024,15.171603202819824,1.4636896848678589,7.078161716461182,0.2085321992635727,4.023979663848877, 2.927640438079834
47,707910821,0.6149963,0.3921954,-0.34739605,0.5893033,15.477187156677246,1.4300897121429443,7.133062362670898,-1.4636247158050537,4.51688289642334, 2.715336561203003
48,707927488,0.6149056,0.39181492,-0.3470206,0.58987236,15.384932518005371,1.222814917564392,7.206436634063721,1.8460801839828491,4.509404182434082, 2.8558995723724365
49,707944155,0.6149977,0.39130363,-0.34693292,0.59016687,14.761612892150879,1.5703363418579102,7.02903413772583,-0.8079397678375244,3.5382726192474365, 2.1468756198883057
50,707960822,0.61514515,0.39067957,-0.34694988,0.59041685,15.697511672973633,1.2132188081741333,7.163188934326172,-2.4652225971221924,3.524506092071533, 2.0334887504577637
51,707977489,0.6150544,0.39042994,-0.3464596,0.59096384,15.489957809448242,1.5784975290298462,7.326715469360352,2.5276730060577393,4.384658336639404, 1.9969137907028198
52,707994156,0.61510056,0.3900978,-0.3459958,0.5914068,14.923566818237305,1.2646732330322266,6.849735736846924,1.4074370861053467,4.650991439819336, 1.2499061822891235
53,708010823,0.6152066,0.3897781,-0.34567532,0.5916948,15.37806224822998,1.6164746284484863,7.311120510101318,0.5577101111412048,3.7416634559631348, 0.8115448355674744
54,708027490,0.61528873,0.3894934,-0.3453793,0.5919695,15.49519157409668,1.4646450281143188,7.275268077850342,0.47948893904685974,3.3901801109313965, 0.7577964663505554
55,708044157,0.6153641,0.38912895,-0.34526643,0.59219664,15.175236701965332,1.6693124771118164,7.175375461578369,-0.41539961099624634,2.8209123611450195, 1.4122908115386963
56,708060824,0.6153453,0.3887166,-0.34521797,0.5925152,14.944313049316406,1.6989394426345825,6.864794731140137,-0.8065183758735657,2.7350969314575195, 2.2674477100372314
57,708077491,0.61521083,0.38828495,-0.3451046,0.5930037,14.854320526123047,1.354875087738037,6.898953914642334,-0.0038547117728739977,3.2658050060272217, 3.28822922706604
58,708094158,0.6151656,0.3877619,-0.3450557,0.5934213,15.567107200622559,1.5035313367843628,7.239391803741455,-0.8496630787849426,3.406816244125366, 3.1201460361480713
59,708110825,0.6149674,0.3874619,-0.3446453,0.5940605,15.265244483947754,1.504246473312378,7.13889741897583,2.497936487197876,4.256325721740723, 3.1868155002593994
60,708127492,0.6150302,0.3867974,-0.34450758,0.59450835,15.099417686462402,1.2965869903564453,6.856431007385254,-1.4227728843688965,4.691779613494873, 2.8405959606170654
61,708144159,0.6150786,0.38629568,-0.34420627,0.59495884,15.327123641967773,1.4260871410369873,7.260902404785156,0.15420766174793243,4.704214096069336, 2.1780080795288086
62,708160826,0.615101,0.3858842,-0.34387797,0.5953924,15.005522727966309,1.6890640258789062,7.158623218536377,0.39117640256881714,4.317860126495361, 1.7754790782928467
63,708177493,0.6151142,0.38550273,-0.34351924,0.5958329,15.400750160217285,1.3251694440841675,7.089578628540039,0.8094062209129333,4.325736045837402, 1.7622114419937134
64,708194160,0.6149929,0.38524583,-0.3430445,0.59639746,15.352143287658691,1.3332921266555786,7.118850231170654,2.2398881912231445,4.303682804107666, 2.1137843132019043
65,708210827,0.6150586,0.38478428,-0.3429055,0.59670776,14.718366622924805,2.025606632232666,7.201171398162842,-0.9572492241859436,3.5016472339630127, 1.7169924974441528
66,708227494,0.61494863,0.3843612,-0.34274903,0.5971833,15.143068313598633,1.433607816696167,6.9475178718566895,-0.2275688648223877,3.4118356704711914, 2.817723512649536
67,708244161,0.6148711,0.38385805,-0.34253198,0.597711,15.323186874389648,1.2415492534637451,7.00290060043335,-0.29434117674827576,4.214538097381592, 2.9236319065093994
68,708260828,0.6147484,0.3835101,-0.3421348,0.59828764,15.077018737792969,1.6187052726745605,7.148422718048096,1.619817852973938,4.384658336639404, 2.622619390487671
69,708277495,0.6147181,0.38314497,-0.34179208,0.59874874,15.350422859191895,1.3704038858413696,7.109605312347412,0.7257294058799744,4.132462501525879, 1.8970621824264526
70,708294162,0.6147425,0.38271078,-0.34160206,0.59910953,15.013750076293945,1.540869116783142,7.130544185638428,-0.6101329326629639,3.6368558406829834, 1.7913968563079834
71,708310829,0.6147296,0.38228616,-0.34140086,0.59950835,15.092453956604004,1.6172523498535156,7.019805431365967,-0.5003312230110168,3.646716594696045, 1.966587781906128
72,708327496,0.61471206,0.38186434,-0.3411377,0.59994483,15.368356704711914,1.370578646659851,7.024679660797119,0.05066832900047302,4.000402927398682, 2.0786051750183105
73,708344163,0.61459213,0.38159645,-0.34069946,0.600487,15.121456146240234,1.6122143268585205,7.173036575317383,1.753887414932251,4.135317802429199, 2.0225775241851807
74,708360830,0.6144607,0.3813837,-0.34021834,0.6010292,15.44029426574707,1.373230218887329,7.007969379425049,2.261108636856079,4.06759786605835, 1.868721842765808
75,708377497,0.61448205,0.3809017,-0.3400841,0.6013889,14.834741592407227,1.8290183544158936,7.111980438232422,-1.0755285024642944,3.6031877994537354, 2.037329912185669
76,708394164,0.61439466,0.38048345,-0.33987728,0.6018597,15.212078094482422,1.516479253768921,6.973537921905518,-0.22249753773212433,3.6665027141571045, 2.4805197715759277
77,708410831,0.6143821,0.37999612,-0.33955958,0.60235953,15.343254089355469,1.260253667831421,6.828246593475342,-0.023947877809405327,4.687041759490967, 2.2535786628723145
78,708427498,0.61439496,0.3795381,-0.33922067,0.602826,14.960463523864746,1.664836049079895,7.148474216461182,0.09802620857954025,4.6388630867004395, 1.909420132637024
79,708444165,0.6141879,0.3794028,-0.3385946,0.60347366,15.33290958404541,1.444191813468933,7.08293342590332,3.50927996635437,4.465363502502441, 2.0114104747772217
80,708460832,0.61427397,0.37884098,-0.33860174,0.603735,15.376846313476562,1.7631092071533203,7.148315906524658,-2.249985933303833,3.260618209838867, 1.9948257207870483
81,708477499,0.61424255,0.37833533,-0.33846164,0.6041625,15.208555221557617,1.4035848379135132,6.878359317779541,-1.1034079790115356,3.788477659225464, 2.4533638954162598
82,708494166,0.6142744,0.37779576,-0.33818445,0.60462266,15.272483825683594,1.668917179107666,6.958338737487793,-0.6962044835090637,4.751496315002441, 2.088747978210449
83,708510833,0.6141253,0.37749785,-0.33753935,0.6053202,15.222944259643555,1.1237990856170654,6.8581929206848145,2.868769884109497,5.5022807121276855, 2.3260366916656494
84,708527500,0.6141493,0.37703398,-0.33718237,0.605784,15.441146850585938,1.8427234888076782,7.294632911682129,-0.022116566076874733,4.7780303955078125, 1.7453711032867432
85,708544167,0.61405253,0.37669662,-0.3368182,0.6062943,15.342105865478516,1.5444610118865967,7.133602142333984,0.987862765789032,4.125406265258789, 2.154815912246704
86,708560834,0.61407566,0.3761086,-0.33673912,0.60667974,14.981406211853027,1.6139363050460815,6.7675652503967285,-1.9002444744110107,3.9228217601776123, 2.4247474670410156
87,708577501,0.61410546,0.3755412,-0.33660054,0.60707796,15.261533737182617,1.3903677463531494,7.004889011383057,-1.6502773761749268,4.138365268707275, 2.196782112121582
88,708594168,0.61391735,0.37538755,-0.335997,0.6076971,15.548501968383789,1.4955172538757324,7.146799087524414,3.3666679859161377,4.460944652557373, 2.0262911319732666
89,708610835,0.6137985,0.37513953,-0.33550602,0.6082413,14.939984321594238,1.6583952903747559,6.904803276062012,2.0670156478881836,4.3484673500061035, 1.884281873703003
90,708627502,0.61388105,0.37455812,-0.33546838,0.6085371,15.116975784301758,1.6608021259307861,6.9043402671813965,-2.307947874069214,3.6560277938842773, 1.9483392238616943
91,708644169,0.6139537,0.3740771,-0.33524528,0.60888255,15.672921180725098,1.577266812324524,7.133726596832275,-0.914437472820282,4.126698970794678, 1.5224254131317139
92,708660836,0.6138948,0.37376916,-0.33479616,0.609378,15.0451021194458,1.4933916330337524,6.9429521560668945,1.4777439832687378,4.439596176147461, 1.741554617881775
93,708677503,0.6138278,0.37343338,-0.3343943,0.60987175,15.093364715576172,1.8209127187728882,7.0772833824157715,0.938161313533783,4.317808628082275, 1.8095824718475342
94,708694170,0.613684,0.37311542,-0.33396557,0.6104456,15.54621410369873,1.3064779043197632,6.9640889167785645,1.5573484897613525,4.3854265213012695, 2.392181873321533
95,708710837,0.61371017,0.37254798,-0.33384642,0.610831,15.286566734313965,1.847369909286499,7.133742332458496,-1.4447227716445923,4.047030925750732, 2.372946262359619
96,708727504,0.6136086,0.3721484,-0.33353546,0.6113463,15.161845207214355,1.5357736349105835,6.928003787994385,0.5515759587287903,4.182867527008057, 2.5010483264923096
97,708744171,0.6136017,0.37163785,-0.33335045,0.61176455,15.403600692749023,1.6928236484527588,7.078746795654297,-0.8835614323616028,4.090163230895996, 2.2853641510009766
98,708760838,0.61355495,0.37129992,-0.33296183,0.61222833,15.047794342041016,1.6422384977340698,6.927618026733398,1.1047077178955078,4.260820388793945, 1.8491153717041016
99,708777505,0.61354184,0.37090543,-0.33267114,0.61263835,15.55405330657959,1.547694444656372,7.020853519439697,0.10874512046575546,4.0211615562438965, 1.7805243730545044
100,708794172,0.613482,0.37064877,-0.33220693,0.6131052,15.274177551269531,1.7026721239089966,6.9127702713012695,1.6339176893234253,4.213872909545898, 1.4372889995574951
101,708810839,0.6136122,0.370063,-0.33214435,0.61336267,14.849018096923828,1.7369368076324463,6.810952186584473,-2.1854677200317383,3.822958469390869, 1.6667275428771973
102,708827506,0.61359334,0.36967567,-0.331829,0.61378574,15.511027336120605,1.628095269203186,6.893448829650879,0.512836754322052,4.138660430908203, 1.9246987104415894
103,708844173,0.61337507,0.36950898,-0.33121008,0.614438,15.626372337341309,1.354309320449829,6.916903495788574,3.722736120223999,4.622049331665039, 2.4407691955566406
104,708860840,0.61335087,0.36905327,-0.3309587,0.61487144,14.06231689453125,2.1387550830841064,6.555996894836426,0.06754710525274277,4.191922187805176, 2.3522257804870605
105,708877507,0.6133633,0.36852792,-0.33071566,0.61530477,15.853243827819824,1.0515222549438477,6.9482622146606445,-0.47629380226135254,4.529331207275391, 2.316035032272339
106,708894174,0.6133346,0.36819735,-0.3303175,0.6157449,15.16640567779541,1.986515760421753,6.991264820098877,1.3900845050811768,4.305232524871826, 1.8391008377075195
107,708910841,0.6133025,0.3677742,-0.33006835,0.61616313,14.911515235900879,1.5148454904556274,6.884998321533203,-0.07550624012947083,3.9920403957366943, 2.1095454692840576
108,708927508,0.61328614,0.3673315,-0.32989627,0.6165356,15.796609878540039,1.4837197065353394,6.963144302368164,-0.47866296768188477,3.679847240447998, 2.1827332973480225
109,708944175,0.6132085,0.36693367,-0.32963675,0.6169887,15.292826652526855,1.65310800075531,6.899834632873535,0.43346935510635376,3.9344823360443115, 2.4688596725463867
110,708960842,0.61313206,0.36646426,-0.3293544,0.617494,14.915507316589355,1.7723933458328247,6.684704303741455,0.24273799359798431,4.471472263336182, 2.729449987411499
111,708977509,0.61314625,0.36582306,-0.32921162,0.61793613,15.64339828491211,1.3158973455429077,6.941969871520996,-1.4419182538986206,4.665628910064697, 2.8291211128234863
112,708994176,0.61304903,0.36544448,-0.3288552,0.61844623,15.033437728881836,1.7424778938293457,6.907695770263672,1.2670412063598633,4.389588356018066, 2.6177141666412354
113,709010843,0.61305416,0.36494464,-0.3286783,0.6188301,15.435681343078613,1.418569564819336,6.830776214599609,-0.7116105556488037,4.061643123626709, 2.2811505794525146
114,709027510,0.61298305,0.36459067,-0.328378,0.6192687,15.35622501373291,1.834944248199463,6.981405258178711,0.5321870446205139,3.9287123680114746, 2.062699556350708
115,709044177,0.6128992,0.36431897,-0.3279885,0.6197178,15.753567695617676,1.478859782218933,6.8783135414123535,1.573663592338562,3.9687459468841553, 1.9267220497131348
116,709060844,0.61292756,0.36379665,-0.3278873,0.62004983,14.72607421875,1.8374221324920654,6.779232978820801,-1.5921496152877808,3.7829511165618896, 2.0286989212036133
117,709077511,0.61269844,0.36357313,-0.32748637,0.620619,15.102988243103027,1.2345467805862427,6.693355560302734,2.2199747562408447,3.7929787635803223, 2.774630546569824
118,709094178,0.6127088,0.36312068,-0.3273495,0.6209459,15.114396095275879,1.9754571914672852,6.819724082946777,-1.0049015283584595,3.6018178462982178, 1.9103937149047852
119,709110845,0.6124486,0.36294794,-0.32690653,0.6215367,15.498525619506836,1.3230136632919312,6.835443019866943,2.700225591659546,3.754047393798828, 2.7649104595184326
120,709127512,0.61232847,0.36259675,-0.3266596,0.6219898,15.603843688964844,1.6437400579452515,6.674490451812744,0.4658118188381195,3.6717920303344727, 2.481428861618042
121,709144179,0.6122749,0.36213496,-0.3266818,0.62229955,14.816040992736816,1.8440032005310059,6.77319860458374,-1.3696390390396118,2.8192343711853027, 2.688366651535034
122,709160846,0.61215085,0.3617058,-0.32671425,0.6226542,15.860517501831055,1.3226642608642578,6.914566516876221,-1.1106306314468384,2.5807034969329834, 3.064053535461426
123,709177513,0.61204016,0.3614335,-0.32637843,0.62309694,15.828259468078613,1.6893634796142578,6.837547302246094,0.9418622851371765,3.6996586322784424, 1.8731529712677002
124,709194180,0.61180866,0.3612932,-0.32582763,0.62369365,15.42112922668457,1.4834884405136108,6.757436752319336,3.2596325874328613,4.158394813537598, 2.3369476795196533
125,709210847,0.61187893,0.3608389,-0.325604,0.6240044,15.589994430541992,1.7273352146148682,6.956636428833008,-0.8010883331298828,4.095169544219971, 1.3877408504486084
126,709227514,0.6117961,0.36047938,-0.32537183,0.6244143,15.419953346252441,1.7809656858444214,6.77142333984375,-0.00416206382215023,3.620105266571045, 2.0719330310821533
127,709244181,0.6118329,0.3598867,-0.32535794,0.6247275,15.356461524963379,1.541846513748169,6.671266555786133,-2.4078245162963867,3.7331855297088623, 2.235060214996338
128,709260848,0.61154526,0.35966274,-0.3249792,0.62533486,15.39155101776123,1.5596548318862915,6.830045700073242,2.2036590576171875,3.691295862197876, 3.15873122215271
129,709277515,0.6113868,0.35931525,-0.32474178,0.6258129,16.150903701782227,1.3767346143722534,6.948290824890137,0.6071299910545349,3.6032397747039795, 2.778562068939209
130,709294182,0.6110692,0.35921252,-0.32435605,0.62638164,15.216593742370605,2.079033851623535,6.841805934906006,2.5919606685638428,3.043973445892334, 2.7412569522857666
131,709310849,0.61079884,0.35892183,-0.3242327,0.6268757,15.897245407104492,1.1564732789993286,6.757901191711426,0.31312164664268494,2.6724226474761963, 3.252370834350586
132,709327516,0.61069614,0.3584987,-0.3243479,0.62715816,15.551736831665039,1.707578182220459,6.886176109313965,-1.8730442523956299,2.109699249267578, 2.7089340686798096
133,709344183,0.61050814,0.35827044,-0.324224,0.62753564,15.687651634216309,1.2356925010681152,6.640009880065918,0.26009052991867065,2.31992769241333, 2.3637001514434814
134,709360850,0.6103946,0.3580865,-0.3240291,0.6278517,16.077043533325195,1.5001999139785767,6.938638687133789,0.31312164664268494,2.4498863220214844, 1.426121473312378
135,709377517,0.6101657,0.35802564,-0.32372016,0.6282682,14.9647855758667,1.9639084339141846,6.594696521759033,1.9518606662750244,2.4000444412231445, 1.876175045967102
136,709394184,0.6100803,0.35768932,-0.32373363,0.62853557,15.901144027709961,1.300067663192749,6.656330585479736,-1.4503448009490967,2.1917364597320557, 1.9353018999099731
137,709410851,0.60979414,0.35766894,-0.3233547,0.6290198,16.035999298095703,1.391797661781311,6.805378437042236,2.4886770248413086,2.5716748237609863, 2.001805305480957
138,709427518,0.6095977,0.35752392,-0.32325003,0.6293463,14.765657424926758,1.7419142723083496,6.621288299560547,0.5358496904373169,1.7903854846954346, 2.129049301147461
139,709444185,0.6092997,0.3575421,-0.32310188,0.6297004,16.17760467529297,1.3649895191192627,6.992129325866699,1.5262799263000488,1.1091516017913818, 2.091309070587158
140,709460852,0.6090592,0.35741538,-0.32317907,0.62996536,14.676091194152832,2.0648598670959473,6.502379417419434,-0.16509945690631866,0.7162911891937256, 2.5043392181396484
141,709477519,0.6090164,0.3568733,-0.32363412,0.6300805,15.044584274291992,1.2494277954101562,6.307215213775635,-4.762528419494629,1.0044084787368774, 2.6105167865753174
142,709494186,0.60871965,0.35676008,-0.3235174,0.63049126,15.994383811950684,0.9755239486694336,6.688718795776367,1.0338118076324463,1.7165054082870483, 2.7586476802825928
143,709510853,0.6083745,0.35684794,-0.32318863,0.6309432,15.423995018005371,1.6398900747299194,6.697093963623047,2.90342378616333,1.7412092685699463, 2.0940113067626953
144,709527520,0.6080309,0.3568733,-0.32308948,0.6313107,15.450118064880371,1.478346347808838,6.701181888580322,1.2862889766693115,0.8565847873687744, 2.328507900238037
145,709544187,0.6078912,0.3567063,-0.32318437,0.63149095,15.69137954711914,1.6975600719451904,6.535167217254639,-0.9759334921836853,0.887422502040863, 1.7803453207015991
146,709560854,0.60763246,0.35659802,-0.3232052,0.6317902,15.00478458404541,1.4343883991241455,6.515122890472412,0.0706334114074707,0.9857751727104187, 2.438783645629883
147,709577521,0.6073704,0.35656875,-0.32309106,0.6321171,14.792196273803711,1.4137365818023682,6.170467853546143,1.0936174392700195,1.27627432346344, 2.0926918983459473
148,709594188,0.6070246,0.3565662,-0.32299727,0.63249856,15.418623924255371,1.1827701330184937,6.535539627075195,1.396858811378479,1.0362833738327026, 2.647245168685913
149,709610855,0.6065772,0.35672045,-0.3228716,0.63290507,15.001296997070312,1.678621530532837,6.462721347808838,2.480929374694824,0.3375818133354187, 2.7563939094543457
150,709627522,0.60611963,0.35677344,-0.32301813,0.63323855,14.929665565490723,1.4712566137313843,6.346292972564697,0.6007266044616699,-0.5521329045295715, 3.302751064300537
151,709644189,0.6056993,0.35693422,-0.32320285,0.63345593,14.848978042602539,1.4305824041366577,6.445054531097412,0.7424033880233765,-1.3800764083862305, 2.6616015434265137
152,709660856,0.60536814,0.3569966,-0.32382113,0.6334215,14.96181583404541,1.5813519954681396,6.427756309509277,-2.4420814514160156,-3.1814305782318115, 2.4294097423553467
153,709677523,0.6049669,0.35706216,-0.3242572,0.6335449,14.913408279418945,1.2096259593963623,5.999911785125732,-1.346242070198059,-2.2087109088897705, 2.7744381427764893
154,709694190,0.60452336,0.35726044,-0.32427022,0.63384956,14.657541275024414,1.2735450267791748,6.000607490539551,1.5430817604064941,-0.6749202013015747, 2.3641610145568848
155,709710857,0.6040888,0.3575054,-0.32417142,0.6341764,14.880369186401367,1.25937819480896,6.138487339019775,2.684486150741577,-0.3424161672592163, 2.3420188426971436
156,709727524,0.6035909,0.35772145,-0.3241711,0.63452864,14.838257789611816,1.3717001676559448,6.132730960845947,1.8898009061813354,-0.7020440697669983, 2.6987781524658203
157,709744191,0.6030567,0.35781708,-0.3244287,0.63485086,14.51520824432373,1.3328577280044556,6.083299160003662,0.6172468066215515,-1.4041777849197388, 3.872403144836426
158,709760858,0.60239506,0.35784686,-0.32484922,0.63524723,14.020676612854004,1.4907490015029907,5.871462821960449,0.004539851564913988,-1.8949941396713257, 5.206146240234375
159,709777525,0.6015929,0.3580677,-0.3249521,0.63582987,14.787139892578125,1.0292829275131226,6.039220333099365,3.1954216957092285,-1.2736045122146606, 5.566837787628174
160,709794192,0.60047495,0.35870498,-0.3248176,0.6365958,13.868860244750977,1.4321627616882324,5.977442741394043,7.063849925994873,-2.361107349395752, 6.126975059509277
161,709810859,0.5998844,0.35886142,-0.32563105,0.6366489,13.785103797912598,1.953375220298767,6.177436828613281,-1.7945538759231567,-4.755958557128906, 4.41276741027832
162,709827526,0.59931356,0.35906377,-0.32657975,0.6365863,14.736135482788086,0.7329277992248535,5.749926567077637,-2.548067331314087,-5.761232852935791, 4.067458152770996
163,709844193,0.5987178,0.35942334,-0.32727522,0.63658696,13.901490211486816,1.305175542831421,5.466853618621826,-0.6669291853904724,-5.291866302490234, 3.391038417816162
164,709860860,0.5981862,0.35969955,-0.32799155,0.6365621,13.541341781616211,1.1494457721710205,5.561618804931641,-1.2967709302902222,-4.924835681915283, 3.265395164489746
165,709877527,0.5975713,0.3600897,-0.32853606,0.636638,13.760629653930664,1.0470335483551025,5.46876335144043,0.3683682382106781,-4.65273904800415, 3.3714957237243652
166,709894194,0.59710693,0.36029324,-0.32921723,0.6366067,13.820223808288574,1.0138012170791626,5.446617603302002,-1.3564999103546143,-4.323116779327393, 3.2132604122161865
167,709910861,0.59630376,0.3609156,-0.3293687,0.6369286,13.60571002960205,1.0114257335662842,5.447781562805176,4.1843414306640625,-3.8609611988067627, 3.7890474796295166
168,709927528,0.5955691,0.36144873,-0.32979175,0.637095,13.102177619934082,1.2027984857559204,5.277312755584717,2.09963321685791,-4.80718469619751, 3.7216479778289795
169,709944195,0.5949866,0.36175793,-0.33062604,0.63703114,13.039020538330078,1.3568463325500488,5.345454216003418,-1.504144549369812,-5.734326362609863, 3.659024953842163
170,709960862,0.59426963,0.36221632,-0.33151242,0.63697934,12.988243103027344,1.2280282974243164,5.216573238372803,-1.1721142530441284,-6.858519554138184, 3.8093204498291016
171,709977529,0.59371483,0.3624958,-0.332801,0.63666564,12.81783676147461,1.3589409589767456,5.175875663757324,-4.582676410675049,-7.997644424438477, 3.505694627761841
172,709994196,0.59313107,0.3628204,-0.333987,0.6364038,12.914545059204102,0.6892525553703308,4.771359443664551,-3.5519700050354004,-7.720475196838379, 3.6433236598968506
173,710010863,0.59234434,0.3634978,-0.33476946,0.6363388,12.764644622802734,0.9875317811965942,4.905900955200195,0.5548927783966064,-7.576659679412842, 3.472947835922241
174,710027530,0.5915783,0.36431485,-0.33533433,0.6362867,12.4193696975708,0.9278348684310913,4.817220687866211,2.0660810470581055,-7.21526575088501, 2.5830605030059814
175,710044197,0.590813,0.36523739,-0.33573535,0.63625735,12.534862518310547,0.8975394368171692,4.832376956939697,3.3765292167663574,-6.951608180999756, 2.100158214569092
176,710060864,0.5902631,0.36602104,-0.33636034,0.6359873,12.329463958740234,0.9485142827033997,4.578594207763672,0.779362678527832,-7.35454797744751, 1.093079924583435
177,710077531,0.5897031,0.3669609,-0.3368451,0.63570875,11.97386646270752,0.8573601841926575,4.527883529663086,1.9415645599365234,-7.4976582527160645, 0.3321647644042969
178,710094198,0.5893098,0.36800984,-0.33709067,0.6353368,12.333956718444824,0.7512816190719604,4.486408233642578,2.8005125522613525,-6.84824800491333, -1.6229746341705322
179,710110865,0.5885727,0.369846,-0.336477,0.6352792,12.046932220458984,0.4955475330352783,4.408653259277344,11.3612699508667,-6.79408073425293, -2.8341493606567383
180,710127532,0.5879866,0.37145928,-0.33647215,0.634883,11.352608680725098,1.3272473812103271,4.470427513122559,6.5824737548828125,-8.789077758789062, -2.842268466949463
181,710144199,0.58754283,0.37288776,-0.33709902,0.63412356,11.504223823547363,1.1825283765792847,4.387279033660889,2.2539761066436768,-11.163915634155273, -2.6295673847198486
182,710160866,0.58702713,0.37421408,-0.33816296,0.63325256,11.621719360351562,1.215003252029419,4.270363807678223,-0.282585084438324,-12.935932159423828, -1.4984334707260132
183,710177533,0.58652705,0.37526283,-0.33975956,0.63223994,11.161742210388184,1.551519513130188,3.9947197437286377,-4.054377555847168,-14.215274810791016, -0.09613733738660812
184,710194200,0.5859357,0.37602887,-0.3416135,0.6313333,11.024604797363281,1.249700903892517,3.8558566570281982,-5.949220180511475,-13.965617179870605, 1.988424301147461
185,710210867,0.5851712,0.37662646,-0.34361812,0.6305979,11.18645191192627,1.4189293384552002,3.837498188018799,-6.395598411560059,-13.812567710876465, 4.24121618270874
186,710227534,0.58459,0.37659484,-0.34621945,0.6297325,10.926216125488281,1.240317940711975,3.666217088699341,-12.368618965148926,-13.39255142211914, 5.917610168457031
187,710244201,0.5836968,0.376736,-0.34846878,0.6292358,11.048709869384766,0.7838874459266663,3.5240345001220703,-8.973328590393066,-12.482145309448242, 7.125531196594238
188,710260868,0.5827574,0.37689826,-0.35055676,0.62884957,10.846588134765625,0.9938706755638123,3.482028007507324,-7.61517333984375,-11.754303932189941, 7.414031028747559
189,710277535,0.58193016,0.37694106,-0.35265204,0.62841845,10.488394737243652,0.6302346587181091,3.265610933303833,-8.524516105651855,-11.11921215057373, 7.055619716644287
190,710294202,0.58111966,0.37707177,-0.35450658,0.62804615,10.505720138549805,0.48376351594924927,3.29201078414917,-7.213438034057617,-10.332735061645508, 6.268412113189697
191,710310869,0.58024913,0.3774804,-0.35606462,0.6277241,10.323431968688965,0.6718636155128479,3.538270950317383,-4.399662017822266,-10.374174118041992, 5.359095573425293
192,710327536,0.5796813,0.37775308,-0.3577009,0.62715405,10.300591468811035,0.6206009984016418,3.198539972305298,-6.546403408050537,-10.015748023986816, 3.6722543239593506
193,710344203,0.57911694,0.37818825,-0.35910666,0.62660974,9.747091293334961,0.3940935730934143,3.0132081508636475,-5.132044315338135,-9.701275825500488, 2.598966598510742
194,710360870,0.57860047,0.37886298,-0.35999584,0.6261689,10.01530647277832,0.5439665913581848,3.0996029376983643,-1.5861307382583618,-8.305956840515137, 0.9991964101791382
195,710377537,0.5781156,0.37969723,-0.36056215,0.62578547,9.80601692199707,0.29199862480163574,2.798492908477783,0.18140840530395508,-7.456165790557861, -0.32352691888809204
196,710394204,0.57750446,0.38084513,-0.36059576,0.62563276,9.624542236328125,0.298297256231308,2.861879825592041,5.177896976470947,-6.434769630432129, -0.7255438566207886
197,710410871,0.57686335,0.38209558,-0.36055663,0.62548447,9.105947494506836,0.9281084537506104,3.0033633708953857,5.606793403625488,-6.6190900802612305, -1.2409483194351196
198,710427538,0.5766107,0.38292786,-0.36084098,0.6250443,9.503875732421875,0.6610103249549866,2.6734180450439453,0.8094446063041687,-5.91355037689209, -2.172661542892456
199,710444205,0.5764455,0.38377082,-0.36048588,0.6248846,9.516263961791992,0.600398063659668,2.5266530513763428,4.334245204925537,-2.482651948928833, -2.995418071746826
200,710460872,0.57607174,0.38487878,-0.35926884,0.62524843,8.988658905029297,0.6764363050460815,2.7014360427856445,10.972734451293945,0.6665260195732117, -2.93437123298645
201,710477539,0.575495,0.3859163,-0.35830113,0.6256952,8.783145904541016,0.9363294243812561,2.7773709297180176,10.429795265197754,-0.3034593462944031, -0.8611248135566711
202,710494206,0.5754032,0.38601673,-0.3585947,0.6255495,8.580506324768066,1.4681910276412964,2.6608009338378906,-1.494949221611023,-1.639481782913208, 0.3487553298473358
203,710510873,0.57527876,0.38579282,-0.35919777,0.62545615,8.590137481689453,0.6039888858795166,2.2871286869049072,-3.711421489715576,-1.4249498844146729, 2.4376442432403564
204,710527540,0.57494247,0.38556147,-0.3598012,0.62556094,8.694170951843262,0.8215687274932861,2.4562957286834717,-3.0345420837402344,-1.356884241104126, 3.969949722290039
205,710544207,0.57433623,0.38549158,-0.36018223,0.6259416,8.41146183013916,0.46201616525650024,2.4051358699798584,-0.2449342906475067,-1.0860682725906372, 5.131434440612793
206,710560874,0.5733639,0.38587812,-0.36010414,0.6266396,7.721991539001465,1.0140986442565918,2.7148871421813965,5.706441402435303,-1.3313101530075073, 5.82898473739624
207,710577541,0.5728403,0.38558763,-0.36093855,0.6268171,7.835226058959961,0.9612859487533569,2.5560696125030518,-3.723203182220459,-2.2600135803222656, 5.771277904510498
208,710594208,0.5722398,0.3852796,-0.3619103,0.62699467,7.976102828979492,0.40823647379875183,2.1966493129730225,-4.1463518142700195,-2.9202840328216553, 6.540774822235107
209,710610875,0.57121426,0.38554808,-0.36232528,0.62752485,7.2990899085998535,0.47679975628852844,2.4916863441467285,2.877542734146118,-3.3623204231262207, 7.027760982513428
210,710627542,0.5705607,0.3856071,-0.36344033,0.6274385,6.724213600158691,1.1560032367706299,2.5691893100738525,-3.6341609954833984,-5.906687259674072, 5.304218769073486
211,710644209,0.5702797,0.38528305,-0.36521786,0.6268604,7.623703956604004,0.07098421454429626,2.1619789600372314,-10.378849029541016,-7.222529888153076, 4.417008876800537
212,710660876,0.5694559,0.38571376,-0.36627543,0.6267275,7.197641372680664,0.056238412857055664,2.099508047103882,-1.8759641647338867,-7.815281867980957, 4.632922649383545
213,710677543,0.5683456,0.386717,-0.36719054,0.62658143,6.437232971191406,0.9332258701324463,2.4742624759674072,1.8316354751586914,-10.488173484802246, 4.04955530166626
214,710694210,0.56808454,0.3865542,-0.36984462,0.62535655,6.838135719299316,0.5297975540161133,2.0121395587921143,-15.440792083740234,-12.970725059509277, 3.644097328186035
215,710710877,0.5670386,0.3873266,-0.37171087,0.62472117,7.105069160461426,-0.1674881875514984,1.8021104335784912,-4.705121040344238,-14.35076904296875, 4.9102091789245605
216,710727544,0.5652976,0.3888667,-0.3731205,0.6245018,5.938969135284424,0.6746097207069397,2.2770164012908936,3.1922357082366943,-16.52627944946289, 6.341257095336914
217,710744211,0.5644347,0.38918877,-0.3764675,0.6230715,5.939558506011963,1.431710958480835,2.106008768081665,-15.184728622436523,-19.840295791625977, 6.242911338806152
218,710760878,0.5632587,0.3896719,-0.38003376,0.6216672,6.815077304840088,-0.33560341596603394,1.4760174751281738,-14.347332954406738,-22.162687301635742, 8.000395774841309
219,710777545,0.5611666,0.39113617,-0.38303995,0.62079394,5.8456010818481445,0.5229254961013794,2.090362310409546,-4.302304744720459,-25.141557693481445, 9.893360137939453
220,710794212,0.5594148,0.39216274,-0.38731384,0.6190733,5.160956859588623,1.369463324546814,2.172576427459717,-14.548980712890625,-29.557790756225586, 9.740748405456543
221,710810879,0.5577391,0.39329317,-0.39197716,0.6169291,5.048509120941162,0.15568427741527557,1.7704112529754639,-17.15000343322754,-32.458702087402344, 8.590868949890137
222,710827546,0.5555474,0.39539856,-0.39603788,0.6149641,5.2304792404174805,-0.07178080081939697,1.6105598211288452,-8.973747253417969,-35.20090866088867, 7.206942558288574
223,710844213,0.5532897,0.39781827,-0.40013683,0.6127819,5.616085529327393,0.21972833573818207,1.4243018627166748,-8.340269088745117,-37.45244598388672, 5.897745132446289
224,710860880,0.5511748,0.40028095,-0.40451863,0.61020184,5.688928127288818,-0.5363636612892151,1.0903946161270142,-10.850961685180664,-39.401737213134766, 4.440070629119873
225,710877547,0.5484975,0.4038079,-0.40782273,0.6080876,4.737616062164307,-0.35510820150375366,1.4833601713180542,0.5570216774940491,-40.05355453491211, 2.620891809463501
226,710894214,0.54643553,0.40705055,-0.4115086,0.6052924,4.4707794189453125,0.36246928572654724,1.4690912961959839,-5.7223076820373535,-40.48104476928711, -0.6758718490600586
227,710910881,0.5453207,0.4094846,-0.415534,0.6018966,5.083383083343506,-0.28000256419181824,0.3412472605705261,-14.524455070495605,-37.406742095947266, -3.6281495094299316
228,710927548,0.543872,0.4121846,-0.4181449,0.5995516,6.553309440612793,-1.3476811647415161,-0.6722477674484253,-3.725700855255127,-31.176156997680664, -3.058154582977295
229,710944215,0.54126763,0.41592455,-0.41873142,0.5989157,4.915395259857178,0.3365148603916168,0.4361136853694916,16.71260643005371,-26.30657386779785, -0.6694670915603638
230,710960882,0.5397615,0.41792703,-0.42075396,0.59746206,4.570383071899414,1.5935721397399902,0.4311620593070984,-1.163407802581787,-23.65885353088379, 0.882967472076416
231,710977549,0.53808993,0.4198455,-0.42224297,0.5965735,4.68090295791626,0.3021622896194458,0.07322019338607788,2.812861442565918,-20.17902183532715, 2.4150187969207764
232,710994216,0.5355411,0.4225399,-0.42270193,0.59663975,4.648664474487305,0.15583720803260803,0.6037927865982056,15.212957382202148,-19.320262908935547, 4.325295925140381
233,711010883,0.53256905,0.42548254,-0.42312276,0.5969105,3.8524205684661865,0.1639537811279297,0.8222643136978149,18.107839584350586,-20.829856872558594, 5.982023239135742
234,711027550,0.52953506,0.4283874,-0.42398074,0.59692305,4.143740653991699,-0.03108845464885235,0.46303340792655945,15.606714248657227,-23.220422744750977, 6.679317951202393
235,711044217,0.52701163,0.430536,-0.42578676,0.5963247,4.404953479766846,-0.04963836073875427,-0.21231621503829956,5.680582523345947,-23.87510871887207, 7.351225852966309
236,711060884,0.5238306,0.43337628,-0.42657295,0.5965083,5.010623931884766,-0.8163459300994873,-0.27534249424934387,16.60784339904785,-22.599098205566406, 7.832854270935059
237,711077551,0.5200016,0.43689337,-0.4262129,0.5975496,5.2934722900390625,0.49856770038604736,0.18180420994758606,28.20220375061035,-20.55744743347168, 8.149683952331543
238,711094218,0.51586646,0.44043645,-0.42532194,0.59916514,5.996352195739746,1.9471616744995117,0.8341012001037598,33.07607650756836,-17.917510986328125, 9.803473472595215
239,711110885,0.51112306,0.44441125,-0.42317945,0.6018066,8.480730056762695,3.313523769378662,2.168041706085205,44.58883285522461,-13.923776626586914, 10.957091331481934
240,711127552,0.50446355,0.45032394,-0.41694292,0.6073581,11.49858570098877,6.688602447509766,5.385353088378906,82.63172912597656,-4.256589889526367, 11.06810188293457
241,711144219,0.49776143,0.46074304,-0.39917368,0.61693597,9.71545124053955,6.837001800537109,3.982895612716675,158.03921508789062,29.180477142333984, -23.211322784423828
242,711160886,0.48475,0.47787964,-0.3733031,0.6303122,-0.07525525242090225,6.122744560241699,2.7822799682617188,245.77565002441406,23.096826553344727, -27.376543045043945
243,711177553,0.47098294,0.4954797,-0.35112223,0.6398346,-4.438716411590576,6.237558841705322,1.2090232372283936,225.8858184814453,-6.19922399520874, -25.570579528808594
244,711194220,0.45597652,0.517081,-0.32322577,0.6482575,-0.768718957901001,5.844295024871826,-5.5355000495910645,265.21795654296875,-11.980320930480957, -52.7502326965332
245,711210887,0.45375994,0.5328073,-0.30776113,0.6445941,-1.619001865386963,18.116558074951172,2.541029214859009,117.28951263427734,-38.89388656616211, -90.571533203125
246,711227554,0.48287,0.5251216,-0.3275839,0.6194939,-4.083627700805664,7.971506118774414,1.4494155645370483,-272.45806884765625,-57.66741180419922, -117.0257339477539
247,711244221,0.51617223,0.509166,-0.35074133,0.59270287,-0.8339662551879883,-10.7708158493042,-0.021399319171905518,-333.12042236328125,-30.432680130004883, -109.71166229248047
248,711260888,0.53447354,0.5006138,-0.3598327,0.57813895,-2.7431719303131104,-12.333719253540039,-1.5100888013839722,-167.2747039794922,-4.135809421539307, -72.71835327148438
249,711277555,0.5439492,0.494574,-0.36257598,0.57276034,0.8176333904266357,-12.4921875,-3.0438363552093506,-77.67443084716797,18.966693878173828, -32.245338439941406
250,711294222,0.5426502,0.4957956,-0.35520682,0.5775341,0.3293161690235138,-9.633223533630371,-5.785362243652344,51.40044403076172,35.9725227355957, -4.751811504364014
251,711310889,0.54671586,0.4903052,-0.35726735,0.5771161,-0.6115333437919617,-2.54366397857666,-5.176496505737305,-42.284576416015625,23.023345947265625, 2.79530930519104
252,711327556,0.55684096,0.47825858,-0.37059763,0.56908214,0.18359310925006866,-5.801904201507568,-8.684869766235352,-150.38792419433594,-3.9882280826568604, 4.197391510009766
253,711344223,0.564839,0.46871468,-0.384501,0.55984163,-0.6630677580833435,-2.0013160705566406,-18.826332092285156,-138.7510223388672,-25.140844345092773, 3.2902519702911377
254,711360890,0.5614294,0.48190016,-0.39852217,0.54198647,10.21144962310791,13.775748252868652,-44.682010650634766,-36.7815055847168,-170.5272979736328, -46.0385856628418
255,711377557,0.55624926,0.49659786,-0.41484043,0.52142596,27.574827194213867,-14.720636367797852,26.210098266601562,-43.8945198059082,-197.62986755371094, -46.11214828491211
256,711394224,0.5447385,0.5152721,-0.4248306,0.50722164,2.2334887981414795,-6.841457843780518,-10.152241706848145,33.934547424316406,-184.8031463623047, -32.559837341308594
257,711410891,0.5475185,0.51846755,-0.4451341,0.482981,1.5422959327697754,-1.442659616470337,-1.3808839321136475,-140.00869750976562,-163.0873260498047, -38.37742233276367
258,711427558,0.5423563,0.53123957,-0.44775954,0.4723832,-0.8882133960723877,0.8228742480278015,-2.1115710735321045,24.811914443969727,-104.07804870605469, -52.94417953491211
259,711444225,0.5330167,0.5472773,-0.44159648,0.4705035,2.634089708328247,7.2830328941345215,-1.1791609525680542,107.61211395263672,-63.00505447387695, -48.98306655883789
260,711460892,0.5275716,0.5564192,-0.44112292,0.46634385,0.4415912330150604,6.344722270965576,-0.17476709187030792,42.33871078491211,-58.38728713989258, -27.39439582824707
261,711477559,0.52646744,0.55963457,-0.4455641,0.45947155,4.938661098480225,-0.49145185947418213,-2.6200101375579834,-19.74529457092285,-54.525291442871094, -14.186078071594238
262,711494226,0.5208891,0.5660134,-0.44735888,0.4562603,3.84043288230896,1.1382250785827637,-0.47007954120635986,28.49870491027832,-54.583740234375, -6.709592342376709
263,711510893,0.5168135,0.57100374,-0.45159784,0.45046443,2.4675161838531494,1.7976261377334595,0.4984196424484253,2.0748450756073,-64.4990463256836, -6.88320779800415
264,711527560,0.5117457,0.5765182,-0.45567372,0.4450896,0.13239866495132446,0.4423182010650635,-1.4658732414245605,9.664143562316895,-67.07083892822266, -4.5404372215271
265,711544227,0.50792086,0.5804571,-0.4591223,0.44078666,-0.9271128177642822,-0.36010974645614624,-4.679728984832764,4.478763103485107,-51.93175506591797, -2.1108009815216064
266,711560894,0.5053993,0.5826473,-0.46138597,0.43842542,0.7358155250549316,-0.2729526460170746,-3.6543331146240234,2.8790624141693115,-30.5665283203125, 1.506345272064209
267,711577561,0.50334746,0.5845654,-0.46294928,0.4365809,5.553413391113281,-0.040580444037914276,-0.10841512680053711,3.796712636947632,-23.72337532043457, -0.06837323307991028
268,711594228,0.4989631,0.5890699,-0.46267045,0.4358539,4.849032878875732,-1.4656524658203125,-0.7230591773986816,31.224246978759766,-28.131542205810547, -4.870118618011475
269,711610895,0.49544704,0.59402966,-0.4620242,0.43381432,0.4611521363258362,4.252072334289551,-0.9433992505073547,26.199308395385742,-30.8509578704834, -14.982375144958496
270,711627562,0.49020872,0.59940714,-0.46115574,0.43329242,1.2626134157180786,-0.17804406583309174,-2.5650713443756104,40.15675735473633,-30.650959014892578, -6.793766975402832
271,711644229,0.48475996,0.6037367,-0.4616325,0.43290344,2.5012457370758057,2.813917636871338,-0.014787916094064713,33.90433120727539,-32.178401947021484, 3.126662254333496
272,711660896,0.4794826,0.6090432,-0.46023127,0.4328395,4.623460292816162,2.9206125736236572,0.520349383354187,43.093082427978516,-27.010404586791992, -7.138388633728027
273,711677563,0.46877408,0.6200682,-0.45478743,0.43466642,4.493950843811035,3.086350679397583,3.343848943710327,102.72859191894531,-40.06817626953125, -19.72784996032715
274,711694230,0.45553905,0.6335896,-0.44988438,0.43434122,2.967944860458374,2.811795473098755,3.454291343688965,113.24195098876953,-66.51732635498047, -24.576560974121094
275,711710897,0.44250193,0.64674556,-0.44706878,0.431326,2.7298660278320312,-2.111762523651123,-1.0399755239486694,96.71866607666016,-83.22138977050781, -23.32906150817871
276,711727564,0.4278268,0.6601413,-0.44538838,0.42755952,3.047755002975464,-3.5986735820770264,1.5686006546020508,99.04603576660156,-95.7808837890625, -16.539609909057617
277,711744231,0.41210023,0.673349,-0.44707617,0.420592,7.399352073669434,-1.7137863636016846,4.043391704559326,83.5541763305664,-122.98133087158203, -7.124112606048584
278,711760898,0.39354956,0.6880374,-0.45007065,0.41129047,10.576075553894043,0.6654617786407471,10.811568260192871,89.88833618164062,-150.65013122558594, -4.151871681213379
279,711777565,0.3705283,0.7041627,-0.45314005,0.40190527,19.28667640686035,2.805640935897827,15.865691184997559,114.52494049072266,-169.54678344726562, 4.153911113739014
280,711794232,0.34494245,0.7209821,-0.45435914,0.39339224,22.076745986938477,12.107670783996582,11.509538650512695,136.64761352539062,-171.1142120361328, 2.3589894771575928
281,711810899,0.33635068,0.72986096,-0.46682528,0.36911476,12.172609329223633,6.266836643218994,13.185710906982422,-45.93946075439453,-201.85513305664062, -0.217228502035141
282,711827566,0.32099962,0.74150693,-0.471956,0.35268202,4.262287616729736,1.4268878698349,15.958024024963379,38.305816650390625,-174.61387634277344, -10.547196388244629
283,711844233,0.3124656,0.74917907,-0.47192204,0.3440725,-3.1596975326538086,2.764096975326538,19.633373260498047,32.760292053222656,-91.8630142211914, -23.24529457092285
284,711860900,0.3064499,0.75282174,-0.464452,0.3516139,-4.156754016876221,-2.4458203315734863,23.27246856689453,81.22595977783203,24.76484489440918, -19.641752243041992
285,711877567,0.31539184,0.747314,-0.4588759,0.36260557,-2.9740378856658936,4.527480125427246,21.89541244506836,-9.012782096862793,108.22811889648438, -9.536251068115234
286,711894234,0.34125215,0.73069,-0.4571593,0.3750263,-3.459777593612671,-0.6044617891311646,18.460132598876953,-125.08966064453125,188.03517150878906, 6.354930400848389
287,711910901,0.36546943,0.7106157,-0.45154852,0.39694008,0.25046807527542114,-2.379276990890503,11.097976684570312,-85.05596160888672,248.42225646972656, 24.075504302978516
288,711927568,0.38856757,0.6873137,-0.4426725,0.42503673,4.8632707595825195,-0.5730682611465454,7.235880374908447,-59.64885711669922,292.1253967285156, 36.644561767578125
289,711944235,0.409455,0.66201174,-0.43041983,0.45697454,6.719351768493652,-0.8764579892158508,3.0390918254852295,-33.033714294433594,318.401611328125, 43.462852478027344
290,711960902,0.42745373,0.63669634,-0.41350552,0.49083048,7.141134738922119,0.7292625308036804,-0.9795478582382202,0.3460162580013275,331.82818603515625, 36.733367919921875
291,711977569,0.44672543,0.61029667,-0.39487275,0.5215842,5.84782600402832,1.9960534572601318,-4.074099540710449,-11.500393867492676,330.7555236816406, 18.897075653076172
292,711994236,0.46895486,0.5821996,-0.37774527,0.5462908,4.677779674530029,1.5714232921600342,-6.517145156860352,-51.016239166259766,315.1375427246094, 0.6727478504180908
293,712010903,0.4944222,0.5502238,-0.36650524,0.5643354,5.80448055267334,0.051011957228183746,-8.234713554382324,-115.98731994628906,292.7951965332031, 0.6611220836639404
294,712027570,0.51702255,0.51814747,-0.3578389,0.5797952,5.5677056312561035,-0.748055100440979,-11.445390701293945,-122.04222106933594,267.79620361328125, 12.921775817871094
295,712044237,0.5346388,0.4887612,-0.35092068,0.5934042,3.784419536590576,0.5073567628860474,-13.677353858947754,-106.29692840576172,232.4375457763672, 25.749820709228516
296,712060904,0.54792666,0.46440327,-0.34466887,0.6044083,2.769730567932129,3.3262808322906494,-14.731429100036621,-82.3292465209961,190.74407958984375, 23.927478790283203
297,712077571,0.5601955,0.44420817,-0.34138492,0.61017746,2.1388497352600098,4.084409236907959,-15.985466003417969,-84.57853698730469,143.75698852539062, 7.424140930175781
298,712094238,0.57025063,0.4308257,-0.3388086,0.61189234,1.1099143028259277,3.186654806137085,-16.74211883544922,-64.13593292236328,95.3644027709961, -12.498767852783203
299,712110905,0.5780037,0.42321762,-0.3399284,0.6093008,0.03894391655921936,1.2172449827194214,-18.790584564208984,-60.28010940551758,38.952571868896484, -22.04515838623047
300,712127572,0.5808697,0.42318726,-0.34298196,0.60486895,-0.7179092168807983,0.7613519430160522,-19.788864135742188,-28.493755340576172,-16.752870559692383, -20.89885902404785
301,712144239,0.57952785,0.4293641,-0.34790352,0.5989634,-0.4998317360877991,0.8849232792854309,-16.938980102539062,-2.7858593463897705,-63.75153350830078, -18.495969772338867
302,712160906,0.5747165,0.44225493,-0.3601138,0.58688116,3.4980907440185547,1.734020471572876,-29.08643913269043,-10.368471145629883,-146.5796661376953, -23.483413696289062
303,712177573,0.5661073,0.46213502,-0.37589285,0.56978816,10.423600196838379,6.421689033508301,1.322266936302185,1.9594556093215942,-212.78591918945312, -34.573638916015625
304,712194240,0.56922376,0.4658603,-0.40218422,0.5451663,6.5973052978515625,-14.378287315368652,-1.6776834726333618,-158.98770141601562,-184.10723876953125, -34.65750503540039
305,712210907,0.56103647,0.47975895,-0.41677716,0.53043985,3.9108693599700928,-1.361264705657959,-9.603342056274414,-15.252785682678223,-176.4684600830078, -18.482677459716797
306,712227574,0.56146073,0.4851826,-0.43225166,0.51236546,-2.6058294773101807,0.5278927683830261,-3.696830987930298,-89.17105102539062,-135.1857452392578, -35.61735916137695
307,712244241,0.55699897,0.49523142,-0.437169,0.5033701,2.7590768337249756,1.138634443283081,-2.616154909133911,9.152046203613281,-95.03369140625, -32.273040771484375
308,712260908,0.5521281,0.503911,-0.4403156,0.49734345,1.3056979179382324,1.628861665725708,0.691913902759552,20.348064422607422,-74.71253204345703, -21.397640228271484
309,712277575,0.55042404,0.50843674,-0.4459816,0.48951602,1.9643086194992065,-0.13199494779109955,-0.22269727289676666,-20.451082229614258,-66.89984893798828, -17.730873107910156
310,712294242,0.5469592,0.5142912,-0.44824615,0.48519662,1.4658825397491455,-3.104670763015747,-1.2652610540390015,12.95355224609375,-51.77033615112305, -14.516846656799316
311,712310909,0.54158163,0.5219063,-0.44817212,0.48316154,1.049219012260437,1.4418905973434448,-0.3154246211051941,41.20327377319336,-46.76222610473633, -13.358187675476074
312,712327576,0.5385977,0.5259532,-0.45241305,0.47812992,0.3983134329319,0.5460440516471863,0.4347414970397949,-4.232594013214111,-54.466854095458984, -5.968678951263428
313,712344243,0.5355733,0.5288597,-0.45852667,0.47246373,0.23476622998714447,1.7451767921447754,-0.14827223122119904,-16.42101287841797,-60.20283126831055, 2.1441643238067627
314,712360910,0.53272384,0.5309371,-0.46556568,0.4664332,-0.3680539131164551,1.206065058708191,-0.3686537742614746,-24.250049591064453,-61.79319381713867, 6.261602878570557
315,712377577,0.52976245,0.53300923,-0.47225246,0.46068504,-0.12980936467647552,0.6906687021255493,-0.7665542364120483,-21.811527252197266,-59.90122604370117, 6.418936729431152
316,712394244,0.5275423,0.5353282,-0.47827944,0.45428175,0.7929657697677612,-0.29733046889305115,-0.26674139499664307,-23.653018951416016,-58.34318923950195, -1.5193921327590942
317,712410911,0.5234096,0.53989196,-0.48166198,0.45006782,0.8620637059211731,-0.05238933116197586,-0.6906039118766785,7.001157283782959,-54.071319580078125, -4.741971969604492
318,712427578,0.51890916,0.544972,-0.4847416,0.44583037,0.871214747428894,0.5428162813186646,0.3183562755584717,11.09338092803955,-55.942420959472656, -6.543148040771484
319,712444245,0.5135337,0.550607,-0.4874718,0.4421387,1.203819751739502,1.3390828371047974,0.8367960453033447,19.2537841796875,-57.35118103027344, -5.077322959899902
320,712460912,0.5073479,0.5570734,-0.48976094,0.43863624,1.7944302558898926,1.803593397140503,0.8103656768798828,27.246084213256836,-60.41307067871094, -6.387523174285889
321,712477579,0.49878594,0.56617916,-0.4901321,0.4363765,2.2998387813568115,1.6539256572723389,0.5513390898704529,55.53526306152344,-65.01002502441406, -11.100106239318848
322,712494246,0.4886501,0.57685965,-0.49004647,0.43394572,1.8008761405944824,0.03010292910039425,3.189250946044922,67.8698501586914,-74.21176147460938, -14.04033088684082
323,712510913,0.476476,0.5891412,-0.49181965,0.42894858,3.1005191802978516,-0.10164199769496918,3.6339433193206787,67.16240692138672,-102.42861938476562, -14.637097358703613
324,712527580,0.46423563,0.60130924,-0.49640462,0.4201132,3.3859150409698486,-1.932365894317627,4.031576633453369,45.810401916503906,-127.23900604248047, -15.27920150756836
325,712544247,0.4513741,0.614051,-0.5030033,0.4076649,4.120794296264648,-2.3373122215270996,4.319355010986328,32.07820129394531,-152.55348205566406, -18.731538772583008
326,712560914,0.43753114,0.62789726,-0.5105448,0.39198956,5.5536208152771,-1.6762138605117798,4.6031293869018555,25.85713005065918,-175.7772216796875, -25.925762176513672
327,712577581,0.4211167,0.64365095,-0.5174802,0.37495166,7.023909568786621,-1.9691193103790283,7.742551803588867,39.56031036376953,-194.20443725585938, -32.480674743652344
328,712594248,0.40175998,0.66036624,-0.5235013,0.35840216,7.041216850280762,-2.0701746940612793,7.62647008895874,59.48146057128906,-202.64614868164062, -31.030614852905273
329,712610915,0.38218898,0.6762756,-0.52849036,0.34246308,7.222148895263672,-0.7646058797836304,4.427799224853516,62.979957580566406,-196.0966339111328, -30.675397872924805
330,712627582,0.3580697,0.6934377,-0.53122485,0.32974312,15.023087501525879,3.2715067863464355,8.927539825439453,104.4412612915039,-194.8818817138672, -26.56884002685547
331,712644249,0.33531007,0.7090233,-0.5320295,0.31905758,16.800010681152344,5.98228120803833,17.334468841552734,105.96419525146484,-172.319091796875, -28.027101516723633
332,712660916,0.3149107,0.7226056,-0.52988666,0.31287834,10.735008239746094,5.750550746917725,15.1172456741333,112.95172882080078,-131.1857147216797, -29.722091674804688
333,712677583,0.2967393,0.7352742,-0.52643186,0.30689967,2.926255941390991,7.328439235687256,8.492256164550781,103.61051940917969,-117.72157287597656, -37.11308288574219
334,712694250,0.28474692,0.74524814,-0.5242597,0.29778573,1.7291932106018066,7.900432109832764,8.255860328674316,52.96842956542969,-108.24262237548828, -40.11378860473633
335,712710917,0.27721187,0.7518693,-0.51921016,0.29709738,4.417538166046143,-1.7740199565887451,15.989030838012695,59.97966384887695,-36.56658172607422, -35.21686935424805
336,712727584,0.26471668,0.7571335,-0.5102417,0.31036675,3.901775360107422,-2.948200225830078,14.173410415649414,140.8741912841797,27.837968826293945, -13.908831596374512
337,712744251,0.26204568,0.7578815,-0.5003335,0.32651824,0.05208972096443176,4.293124198913574,15.332032203674316,93.58186340332031,88.44317626953125, -18.677881240844727
338,712760918,0.2792801,0.75083613,-0.4940407,0.3378929,-0.9444851875305176,1.9865682125091553,15.16008472442627,-48.67304611206055,142.85177612304688, -26.212871551513672
339,712777585,0.30144903,0.74064684,-0.48537058,0.35353386,0.40570250153541565,-0.46903735399246216,12.703428268432617,-60.15357971191406,193.37242126464844, -31.087387084960938
340,712794252,0.32916605,0.7256943,-0.47590002,0.37220532,0.5954621434211731,-0.4732774496078491,9.823701858520508,-86.25052642822266,240.46383666992188, -26.55264663696289
341,712810919,0.36044788,0.70526844,-0.46584517,0.3945404,-0.039378970861434937,-3.789034605026245,6.192178249359131,-102.98502349853516,285.7141418457031, -12.476602554321289
342,712827586,0.38981274,0.6816635,-0.4521749,0.42298803,1.6705703735351562,-5.800929546356201,3.5538265705108643,-72.2524642944336,326.8789367675781, 0.3716141879558563
343,712844253,0.41585037,0.655735,-0.43453476,0.4563548,2.824584484100342,-4.571250915527344,0.1334041953086853,-36.11472702026367,357.11163330078125, 11.680071830749512
344,712860920,0.44112253,0.62643653,-0.41511434,0.49057972,3.798990249633789,-2.446120500564575,-2.83833646774292,-34.2106819152832,374.555908203125, 18.45980453491211
345,712877587,0.46595842,0.5941978,-0.39470142,0.5234717,6.331613063812256,-0.4021916687488556,-4.555083751678467,-41.75979232788086,380.7596435546875, 19.943113327026367
346,712894254,0.4878896,0.56236774,-0.3710529,0.555001,8.876250267028809,2.1681928634643555,-7.671172618865967,-20.66737937927246,376.4908142089844, 11.690177917480469
347,712910921,0.5098732,0.5302642,-0.34737152,0.58153456,9.379556655883789,4.301938533782959,-11.511612892150879,-34.47400665283203,358.8337097167969, -4.654358863830566
348,712927588,0.5303885,0.49915087,-0.32513443,0.6031785,9.51729965209961,0.41973811388015747,-15.310115814208984,-43.205955505371094,328.9573669433594, -12.939159393310547
349,712944255,0.5434992,0.47417825,-0.30257514,0.6230666,6.437352180480957,-0.5246939659118652,-17.737062454223633,1.9414323568344116,282.6640625, -3.483501434326172
350,712960922,0.5548181,0.45245546,-0.28665403,0.63662434,3.766988754272461,5.49186897277832,-17.149755477905273,-21.76643180847168,220.17245483398438, -4.617639541625977
351,712977589,0.56731385,0.43332836,-0.27910483,0.6422478,2.2405693531036377,0.8063201904296875,-20.03158950805664,-67.97992706298828,155.0417022705078, -18.99484634399414
352,712994256,0.574634,0.42469302,-0.2733264,0.643991,0.15894034504890442,-1.3007071018218994,-22.350955963134766,-27.004791259765625,80.87701416015625, -26.125133514404297
353,713010923,0.57722473,0.4245755,-0.27455404,0.64122343,-0.3071477711200714,-0.8896892666816711,-22.16065788269043,-19.118803024291992,-6.005041122436523, -18.586286544799805
354,713027590,0.57710046,0.4307157,-0.28340816,0.63333964,0.00777493417263031,-0.12455441057682037,-20.06119155883789,-29.721811294555664,-83.39274597167969, -16.477079391479492
355,713044257,0.57604563,0.43991244,-0.29871464,0.6208205,0.49256980419158936,-1.181380033493042,-16.18178367614746,-52.05274963378906,-137.39808654785156, -17.63059425354004
356,713060924,0.5709161,0.45595458,-0.30978748,0.608434,9.835418701171875,7.353828430175781,7.131658554077148,5.683982849121094,-157.47718811035156, -26.570755004882812
357,713077591,0.57617486,0.45617393,-0.33561933,0.58931106,10.367420196533203,-14.489861488342285,4.812649250030518,-165.1618194580078,-148.44432067871094, -16.284120559692383
358,713094258,0.5646002,0.4736991,-0.33892205,0.58478016,1.3067817687988281,-7.649722576141357,-15.131597518920898,81.42823028564453,-122.50967407226562, -1.2402485609054565
359,713110925,0.56004745,0.4903344,-0.34851772,0.56960917,11.044877052307129,4.996059417724609,-8.713565826416016,5.022928714752197,-161.3001708984375, -48.42635726928711
360,713127592,0.5545899,0.5040933,-0.35946032,0.5559753,3.311042547225952,-3.135819673538208,2.4723730087280273,-4.7201642990112305,-151.96469116210938, -27.40614128112793
361,713144259,0.5473784,0.5178347,-0.36715832,0.54536134,-1.939408302307129,1.4915188550949097,-1.6664973497390747,21.20195770263672,-133.5921630859375, -20.469995498657227
362,713160926,0.54121184,0.5284138,-0.37462544,0.5362131,0.24645531177520752,5.915878772735596,-3.5770702362060547,10.122661590576172,-113.11470031738281, -11.645515441894531
363,713177593,0.5358171,0.5363144,-0.38125616,0.52906585,-0.7509965896606445,2.267880439758301,-3.411012887954712,5.534150123596191,-90.89893341064453, -3.004802942276001
364,713194260,0.53159136,0.54154676,-0.3880394,0.52303267,1.9655818939208984,0.7897087335586548,-2.051816463470459,-6.250339031219482,-74.62015533447266, 4.483687400817871
365,713210927,0.5298558,0.54425395,-0.39641678,0.5156496,0.9585319757461548,-0.46774566173553467,-0.16610416769981384,-34.0703010559082,-69.81798553466797, 3.2995688915252686
366,713227594,0.5308279,0.5442912,-0.4071718,0.50614226,0.46417537331581116,0.20064115524291992,-1.1806352138519287,-68.11721801757812,-69.7164306640625, 2.1524546146392822
367,713244261,0.5305419,0.54544765,-0.41564462,0.4982486,0.2752859890460968,-1.2653825283050537,-2.1802518367767334,-46.842586517333984,-62.86030960083008, 0.7857570648193359
368,713260928,0.52735543,0.54909194,-0.4199354,0.49401283,-0.003907172940671444,1.5463396310806274,-0.6409587264060974,-2.089515447616577,-50.75528335571289, 1.2461905479431152
369,713277595,0.5245992,0.5522145,-0.42372638,0.49021527,0.5241860151290894,1.1349667310714722,-0.9949778318405151,-2.628892660140991,-44.377445220947266, 1.0341646671295166
370,713294262,0.5213058,0.5554473,-0.42708173,0.4871548,0.7157606482505798,-0.10194763541221619,-0.8349907994270325,3.437290668487549,-42.02771759033203, 3.5517160892486572
371,713310929,0.51823723,0.5584056,-0.43120718,0.48339826,0.8591918349266052,-0.8787720799446106,-0.832512617111206,-3.007888078689575,-45.949188232421875, 4.036405563354492
372,713327596,0.51556385,0.56113493,-0.4365507,0.47827318,0.9598020911216736,-1.5396122932434082,-0.543317437171936,-13.424324989318848,-53.68897247314453, 3.1700477600097656
373,713344263,0.5122669,0.56494254,-0.4417092,0.47256288,0.3674819767475128,-0.7150086760520935,0.12898463010787964,-8.321650505065918,-60.79031753540039, -0.8516591191291809
374,713360930,0.5084437,0.56970865,-0.4470804,0.46587148,0.4022408127784729,-0.01176461298018694,1.6199427843093872,-6.554494380950928,-70.16007995605469, -4.704123497009277
375,713377597,0.5046227,0.5743718,-0.45443684,0.4570997,0.5741590261459351,1.4368776082992554,1.2729499340057373,-19.654741287231445,-85.05329132080078, -3.889021396636963
376,713394264,0.49969372,0.5798802,-0.4618587,0.44803113,1.303842544555664,0.022752933204174042,0.5803123116493225,-13.462194442749023,-92.69072723388672, -3.775928020477295
377,713410931,0.49252778,0.58752316,-0.4673048,0.4402947,1.767842173576355,1.5387550592422485,0.16826492547988892,13.122851371765137,-94.36256408691406, -6.9729228019714355
378,713427598,0.48342487,0.59703684,-0.47116363,0.43341935,2.491405487060547,1.8810203075408936,0.928966760635376,34.866539001464844,-97.47088623046875, -10.590794563293457
379,713444265,0.47190064,0.60875523,-0.47351855,0.42720857,2.2725276947021484,2.7594029903411865,1.373468279838562,58.78670883178711,-104.25735473632812, -14.458353042602539
380,713460932,0.4579387,0.62259316,-0.47618273,0.41942814,3.8790788650512695,1.854198694229126,2.8262293338775635,69.87234497070312,-126.10186004638672, -17.952381134033203
381,713477599,0.44080698,0.6388273,-0.47812393,0.4110796,4.458860874176025,0.658279299736023,4.039000034332275,91.24552154541016,-143.7073974609375, -21.534168243408203
382,713494266,0.42193487,0.65580153,-0.48144987,0.40012687,6.626740455627441,-0.7921792268753052,6.822242736816406,88.69609832763672,-167.3562774658203, -20.88779067993164
383,713510933,0.4024478,0.67230535,-0.48559892,0.38760182,8.708724021911621,-3.8573179244995117,4.406777858734131,82.67894744873047,-177.87693786621094, -18.563844680786133
384,713527600,0.3807152,0.6891749,-0.48984295,0.37436342,13.335342407226562,-3.430169105529785,7.303889274597168,91.44223022460938,-190.15866088867188, -15.496794700622559
385,713544267,0.35913286,0.7046408,-0.4946516,0.36031213,15.503155708312988,-1.7381653785705566,10.171533584594727,82.87537384033203,-191.76531982421875, -10.76268196105957
386,713560934,0.3362774,0.7186527,-0.5017099,0.3445911,16.511404037475586,0.4852338433265686,7.393671035766602,74.23088073730469,-206.65771484375, 4.014992713928223
387,713577601,0.31542122,0.73108655,-0.5067229,0.33053574,13.072196960449219,3.7585556507110596,16.284435272216797,71.32496643066406,-183.5045928955078, -1.561268925666809
388,713594268,0.29518536,0.7404799,-0.5089657,0.32482222,7.201807498931885,-0.6473546624183655,13.340909957885742,97.08236694335938,-127.11682891845703, 11.882955551147461
389,713610935,0.26920915,0.75239396,-0.5079267,0.3216212,-1.1018832921981812,10.45102596282959,5.028430461883545,147.58230590820312,-133.80484008789062, 4.312878608703613
390,713627602,0.2706629,0.75456005,-0.51505196,0.30348402,0.7531560659408569,13.812786102294922,12.877717018127441,-82.42424774169922,-108.82540130615234, -7.426224231719971
391,713644269,0.2838098,0.7502897,-0.5213352,0.2910793,1.777868628501892,-2.488118886947632,19.764373779296875,-132.75881958007812,-22.92276954650879, -2.489713668823242
392,713660936,0.28174135,0.74968934,-0.5174483,0.30138874,1.7443912029266357,-5.965753078460693,16.512596130371094,54.66663360595703,51.81563949584961, 6.542696952819824
393,713677603,0.28014013,0.74735695,-0.50862265,0.32292747,-0.5330800414085388,1.2523016929626465,16.039525985717773,99.0204086303711,124.23745727539062, 7.949950218200684
394,713694270,0.29039508,0.73947555,-0.499848,0.3449622,-1.5258212089538574,1.8862768411636353,13.177374839782715,29.056106567382812,180.2596435546875, 2.360814094543457
395,713710937,0.30672538,0.7286985,-0.48849297,0.36917832,-1.0895237922668457,3.3160924911499023,10.877507209777832,6.0216875076293945,224.1416015625, -10.774487495422363
396,713727604,0.32953885,0.7138135,-0.4752802,0.39494732,0.505817174911499,1.7719730138778687,7.947969436645508,-25.172462463378906,267.98712158203125, -19.366071701049805
397,713744271,0.35285148,0.69650155,-0.4582856,0.42468324,2.2581889629364014,0.6985718011856079,5.054203033447266,-9.891530990600586,304.2430725097656, -22.313814163208008
398,713760938,0.37668866,0.67637306,-0.43849435,0.45645165,4.2743353843688965,-0.08397054672241211,2.3654842376708984,-4.694744110107422,330.6889953613281, -23.4066162109375
399,713777605,0.39998963,0.65427494,-0.41574037,0.488971,5.360438346862793,0.04303719848394394,0.09323495626449585,4.219831943511963,346.5233154296875, -27.616302490234375
400,713794272,0.4266188,0.62834793,-0.39332965,0.51813835,6.1313910484313965,1.4152239561080933,-2.147036075592041,-32.078460693359375,353.04962158203125, -35.55081558227539
401,713810939,0.45394668,0.5994292,-0.37165925,0.5445058,7.372717380523682,-2.3642489910125732,-5.022994041442871,-54.14500045776367,351.5536804199219, -34.970577239990234
402,713827606,0.47495914,0.57223535,-0.3457108,0.5722281,8.535022735595703,-1.8764277696609497,-6.414391040802002,-3.280785322189331,348.2181396484375, -29.24693489074707
403,713844273,0.49309587,0.5438787,-0.32076773,0.5984654,9.926687240600586,-0.8559208512306213,-9.584267616271973,-3.302189350128174,337.2037353515625, -16.138195037841797
404,713860940,0.50980985,0.51387256,-0.29993087,0.6213459,7.478255748748779,0.5419726371765137,-13.467513084411621,-27.958587646484375,314.8512268066406, -2.7381038665771484
405,713877607,0.5264268,0.48425958,-0.2838193,0.6386033,7.222221851348877,2.606322765350342,-16.273181915283203,-58.136993408203125,277.1015625, -6.19285249710083
406,713894274,0.5429777,0.45801318,-0.27294344,0.6487691,5.5347065925598145,0.8667575120925903,-20.099220275878906,-82.70358276367188,220.24298095703125, -20.70890235900879
407,713910941,0.55464864,0.44068354,-0.26594543,0.6537861,2.126859188079834,-1.2885680198669434,-24.898029327392578,-61.12749481201172,141.30201721191406, -22.71202850341797
408,713927608,0.5608733,0.43465084,-0.2658128,0.6525668,-1.1330788135528564,2.413337469100952,-26.579648971557617,-43.91161346435547,36.238826751708984, -21.916765213012695
409,713944275,0.5636,0.43790236,-0.27625716,0.6436447,-1.0504035949707031,1.1202855110168457,-25.35700225830078,-59.36453628540039,-74.91020202636719, -21.216716766357422
410,713960942,0.56352663,0.44744143,-0.29550472,0.62841946,1.3941320180892944,0.249631866812706,-20.64411735534668,-77.63668060302734,-160.51722717285156, -18.61372947692871
411,713977609,0.55837184,0.4634844,-0.31184834,0.61331385,7.384516716003418,2.766331434249878,2.7908291816711426,-24.084394454956055,-186.8045654296875, -18.285869598388672
412,713994276,0.5635905,0.46738353,-0.33945575,0.5904984,13.88590145111084,-5.70171594619751,12.50716495513916,-167.81732177734375,-181.3079376220703, -29.57197380065918
413,714010943,0.56089866,0.47234723,-0.3609753,0.5761751,0.7401344776153564,-14.846635818481445,-14.307343482971191,-93.52523803710938,-153.54202270507812, 13.295955657958984
414,714027610,0.55632925,0.48782778,-0.37482098,0.5585975,8.833253860473633,11.312127113342285,-13.896660804748535,-24.383289337158203,-180.47781372070312, -43.18474197387695
415,714044277,0.555305,0.49714723,-0.39267105,0.53878605,9.63544750213623,-8.469123840332031,-0.8108837604522705,-81.17916107177734,-170.08319091796875, -35.68457794189453
416,714060944,0.5482637,0.5103144,-0.40068522,0.52767193,-1.7979835271835327,-0.41072484850883484,-2.08719539642334,14.106086730957031,-133.322021484375, -24.430992126464844
417,714077611,0.54033935,0.52247566,-0.4051915,0.52045435,2.4010672569274902,3.498544692993164,-3.4631283283233643,36.87325668334961,-105.27590942382812, -16.09088897705078
418,714094278,0.5326165,0.53247327,-0.40838912,0.515762,-0.49358630180358887,3.3755857944488525,-2.5179271697998047,39.79520797729492,-83.02957153320312, -6.036427974700928
419,714110945,0.5277087,0.5381608,-0.41373122,0.5106203,3.085456371307373,0.9290342926979065,-1.449900507926941,4.820782661437988,-69.37318420410156, 2.3740365505218506
420,714127612,0.5241782,0.5419371,-0.42011842,0.5050166,1.4368789196014404,-0.18360814452171326,-2.1006124019622803,-12.177821159362793,-64.30644226074219, 5.180202484130859
421,714144279,0.5216305,0.5443329,-0.42653543,0.49967077,0.6089773774147034,-0.34321752190589905,-2.0837502479553223,-20.15345001220703,-55.86808776855469, 6.792296886444092
422,714160946,0.5196185,0.5457677,-0.43294027,0.4946685,0.8061925172805786,0.7065211534500122,-2.280032157897949,-24.533275604248047,-49.71760559082031, 8.954610824584961
423,714177613,0.51644164,0.5482119,-0.43730953,0.49143896,0.1637294590473175,1.039206862449646,-0.2359304577112198,-4.342329025268555,-42.738311767578125, 8.627880096435547
424,714194280,0.5128132,0.5510662,-0.44135913,0.4884168,0.013089120388031006,1.5025227069854736,0.3109343349933624,0.5402332544326782,-43.679691314697266, 8.473771095275879
425,714210947,0.5094265,0.5538646,-0.44656032,0.48404834,0.12474623322486877,0.5561074018478394,-0.017176415771245956,-8.506701469421387,-52.048301696777344, 7.483356952667236
426,714227614,0.5057544,0.5572606,-0.4523816,0.47856468,0.5933956503868103,-0.9156311750411987,-0.24007649719715118,-10.79322338104248,-61.44514846801758, 5.062386989593506
427,714244281,0.50143784,0.5618372,-0.45791104,0.47245803,1.0454216003417969,-1.152207851409912,0.5872699022293091,-5.170382022857666,-68.80731201171875, 0.18857024610042572
428,714260948,0.49684602,0.5672437,-0.4631759,0.4656681,1.558144450187683,-1.0389621257781982,0.6308853030204773,-2.5135769844055176,-74.22162628173828, -4.955718994140625
429,714277615,0.4918562,0.5730943,-0.46818286,0.45874342,1.8531001806259155,0.21654383838176727,0.7620821595191956,0.9725792407989502,-76.67657470703125, -6.608316898345947
430,714294282,0.48608473,0.5798836,-0.47280264,0.451569,1.9229865074157715,0.5816066861152649,0.851919412612915,7.658247470855713,-81.94957733154297, -9.544942855834961
431,714310949,0.47784674,0.5884741,-0.47705665,0.44472247,1.6278445720672607,0.37232545018196106,0.8362963199615479,25.72858428955078,-93.14948272705078, -8.109850883483887
432,714327616,0.46820682,0.5983685,-0.4817638,0.4366247,1.5176799297332764,2.015270709991455,2.9955060482025146,30.209735870361328,-108.39825439453125, -10.390810012817383
433,714344283,0.45659742,0.61033344,-0.48612186,0.42743123,2.787130832672119,1.9911668300628662,1.8389275074005127,42.419498443603516,-124.70026397705078, -16.266366958618164
434,714360950,0.44250646,0.6244895,-0.49006328,0.41717982,3.3968067169189453,2.335482597351074,3.3413188457489014,57.42271423339844,-142.7067413330078, -21.344161987304688
435,714377617,0.42464694,0.64197636,-0.49352506,0.40493777,6.225917339324951,2.1537930965423584,4.249294281005859,78.44208526611328,-172.2413787841797, -29.848480224609375
436,714394284,0.4038227,0.6619197,-0.49540216,0.3916202,7.353376865386963,0.5037136673927307,5.979602813720703,99.5096664428711,-189.50477600097656, -40.06227111816406
437,714410951,0.38007733,0.68363696,-0.49602583,0.37701494,10.111305236816406,-2.8050453662872314,5.162158966064453,116.76842498779297,-206.919921875, -47.567378997802734
438,714427618,0.3536877,0.706036,-0.49467483,0.36292604,12.140958786010742,-5.427352428436279,8.640307426452637,137.88223266601562,-210.4313507080078, -51.11533737182617
439,714444285,0.32356873,0.727033,-0.49222124,0.3527672,17.06612205505371,-3.9601826667785645,10.127480506896973,168.70228576660156,-198.30691528320312, -33.03205108642578
440,714460952,0.2900945,0.746491,-0.48864558,0.34615335,16.866329193115234,3.1706106662750244,9.212757110595703,196.7900848388672,-186.29368591308594, -17.535131454467773
441,714477619,0.26874894,0.75919443,-0.4911068,0.33198228,8.278741836547852,8.071206092834473,9.990251541137695,81.35914611816406,-180.81884765625, -7.703999042510986
442,714494286,0.257176,0.7660819,-0.4994384,0.31231463,4.924078464508057,5.252890110015869,8.515049934387207,-12.218579292297363,-174.45541381835938, 10.313268661499023
443,714510953,0.25353524,0.76920664,-0.5053342,0.29778954,2.292997360229492,2.594512701034546,16.822256088256836,-37.66132354736328,-107.9814224243164, 2.5501246452331543
444,714527620,0.24475749,0.7716869,-0.5035228,0.30175808,-0.07485532760620117,-6.121941089630127,17.103429794311523,68.49991607666016,-13.64378833770752, 6.83541202545166
445,714544287,0.23022538,0.7735374,-0.49530703,0.32141426,-0.7058419585227966,0.8329206705093384,16.890483856201172,165.50830078125,61.46043395996094, 13.30938720703125
446,714560954,0.23093957,0.76925373,-0.48871174,0.34070024,-0.983585000038147,5.439889430999756,15.632303237915039,69.882080078125,122.12911224365234, 8.667522430419922
447,714577621,0.24786413,0.75827265,-0.48600316,0.3569132,-1.336358666419983,5.04882287979126,11.993167877197266,-45.854637145996094,169.62237548828125, 9.03181266784668
448,714594288,0.27401686,0.74215394,-0.48412323,0.37382776,-0.1758376657962799,3.428828716278076,8.133177757263184,-102.38787078857422,215.1702423095703, 9.138779640197754
449,714610955,0.30227467,0.72271603,-0.48007187,0.39476916,1.1722723245620728,0.6074331998825073,5.302634239196777,-100.40834045410156,255.27359008789062, 11.285411834716797
450,714627622,0.32652313,0.7027568,-0.4710553,0.421453,3.2047371864318848,-0.029694130644202232,3.0970265865325928,-49.17110824584961,282.2835693359375, 11.101269721984863
451,714644289,0.34992144,0.6812098,-0.45888686,0.45047885,4.209297180175781,0.7079035639762878,1.1417192220687866,-31.9577579498291,302.5445556640625, 8.700581550598145
452,714660956,0.37281632,0.6583553,-0.44356763,0.4804419,4.918957233428955,-0.06597115099430084,-1.234738826751709,-20.072372436523438,317.05340576171875, 1.8792893886566162
453,714677623,0.3941593,0.6354056,-0.42399886,0.5110022,4.351235389709473,-0.26899170875549316,-3.673828601837158,2.5291991233825684,326.3904724121094, -10.423060417175293
454,714694290,0.41350108,0.6131806,-0.4015713,0.54015476,3.4312660694122314,-0.4540618360042572,-4.891984939575195,19.14121437072754,319.8546447753906, -21.81418800354004
455,714710957,0.4330733,0.5901308,-0.3797004,0.5657039,4.909345626831055,0.6134350895881653,-6.573876857757568,3.7668864727020264,307.070068359375, -28.30322265625
456,714727624,0.4529254,0.56536585,-0.36011636,0.5878234,4.630640983581543,-0.08876778930425644,-8.724778175354004,-20.37738800048828,294.0900573730469, -25.849933624267578
457,714744291,0.47252667,0.53892016,-0.34383968,0.60667795,5.568999290466309,-1.0995514392852783,-9.697385787963867,-46.14659881591797,277.6830139160156, -18.026161193847656
458,714760958,0.49071583,0.5119742,-0.3313661,0.6223159,6.2628374099731445,-0.09336778521537781,-11.340836524963379,-66.05305480957031,252.59124755859375, -7.393500804901123
459,714777625,0.5076162,0.48674813,-0.32284173,0.633384,5.423349857330322,2.079763889312744,-13.73709774017334,-83.07660675048828,213.36390686035156, -7.369431972503662
460,714794292,0.5232201,0.4660886,-0.31789201,0.6387073,2.630635976791382,1.3910281658172607,-17.066604614257812,-91.20121765136719,159.42721557617188, -19.935327529907227
461,714810959,0.53465,0.45263606,-0.31511816,0.6402895,2.2591404914855957,-0.601838231086731,-18.34076690673828,-69.70770263671875,99.4243392944336, -23.827617645263672
462,714827626,0.53987026,0.4481089,-0.3144419,0.63942546,-0.044927485287189484,-0.16818533837795258,-19.769325256347656,-32.15287780761719,31.953500747680664, -18.315643310546875
463,714844293,0.54042107,0.4516394,-0.31824693,0.63457555,0.3142775893211365,0.7880443334579468,-19.687458038330078,-16.2320499420166,-41.89434051513672, -16.197193145751953
464,714860960,0.53727543,0.4617659,-0.32612035,0.62590164,1.5116299390792847,2.735750198364258,-14.85693359375,-6.430965900421143,-105.19548034667969, -16.05278778076172
465,714877627,0.531608,0.47868434,-0.34160507,0.60955745,14.936573028564453,1.1784573793411255,-10.824569702148438,-23.369792938232422,-192.16885375976562, -24.5180606842041
466,714894294,0.5324033,0.48534164,-0.36538258,0.5894792,6.516434669494629,-9.628656387329102,10.764312744140625,-125.71673583984375,-176.18235778808594, -13.793790817260742
467,714910961,0.53016496,0.49380878,-0.38319537,0.5729219,2.986832857131958,-7.569024562835693,-10.897012710571289,-75.75057983398438,-157.95391845703125, -13.268244743347168
468,714927628,0.5274638,0.50484216,-0.39513877,0.557478,2.6403427124023438,1.739903211593628,-10.942291259765625,-38.70882797241211,-143.81582641601562, -34.234432220458984
469,714944295,0.52127445,0.5194911,-0.39989683,0.54633737,5.970840930938721,2.5056676864624023,-5.17963171005249,25.67730140686035,-125.8828353881836, -39.95709228515625
470,714960962,0.5146783,0.5309851,-0.40301353,0.53920424,0.5054092407226562,-2.3599324226379395,-1.1671608686447144,32.95602798461914,-94.867919921875, -21.21265983581543
471,714977629,0.50409627,0.5447318,-0.40239993,0.53593737,2.9592695236206055,4.139925479888916,0.19567576050758362,80.04183197021484,-87.03363037109375, -12.723831176757812
472,714994296,0.50018746,0.5514408,-0.40925843,0.527478,-0.8712207078933716,4.48067045211792,0.19827908277511597,-11.272848129272461,-88.09909057617188, -7.764015197753906
473,715010963,0.50106883,0.5528616,-0.42172542,0.5151913,1.7946029901504517,-0.35383403301239014,-1.303870439529419,-78.75291442871094,-89.36798858642578, -1.984430193901062
474,715027630,0.4989203,0.55627066,-0.4310011,0.5058454,0.6206123232841492,-0.9646026492118835,-1.6278408765792847,-40.53443145751953,-83.08349609375, 1.0077427625656128
475,715044297,0.49634346,0.55946624,-0.43957213,0.49741057,0.24566523730754852,2.1692934036254883,-1.1085926294326782,-34.45726013183594,-77.7559585571289, 3.552783250808716
476,715060964,0.4974286,0.55919325,-0.4510343,0.48624682,0.8111305832862854,0.6034113764762878,-1.1464990377426147,-78.51277923583984,-75.25503540039062, 3.4180359840393066
477,715077631,0.49563834,0.56116885,-0.45924658,0.47804284,1.1676747798919678,-1.3576205968856812,-1.135603427886963,-39.70706558227539,-69.25352478027344, 3.7307586669921875
478,715094298,0.49214837,0.56464297,-0.46557248,0.47139248,0.9415386319160461,0.9760065078735352,0.713082492351532,-16.91339111328125,-67.1781997680664, 2.565469264984131
479,715110965,0.4888097,0.5683237,-0.47218117,0.46380854,0.5651882886886597,-0.2625293731689453,0.11823774874210358,-20.69049072265625,-72.05935668945312, -0.6214276552200317
480,715127632,0.4838308,0.57362527,-0.4778415,0.45665047,0.36384040117263794,-0.7380863428115845,-0.2610521912574768,-4.409167289733887,-77.79142761230469, -2.941617727279663
481,715144299,0.4786937,0.5791364,-0.48353606,0.44905066,0.5363472104072571,0.9878138303756714,0.0011659334413707256,-4.631600856781006,-80.89924621582031, -4.498910903930664
482,715160966,0.47350636,0.5847376,-0.4890224,0.44128326,1.5687477588653564,0.4249258041381836,-0.7347919940948486,-4.037949562072754,-81.40989685058594, -6.005307197570801
483,715177633,0.46669066,0.5920062,-0.49217802,0.4353038,2.1763343811035156,0.3478725552558899,0.30165624618530273,21.0291690826416,-77.22882843017578, -10.228781700134277
484,715194300,0.457894,0.6009914,-0.4937412,0.43053716,2.012450933456421,0.5253975987434387,1.1063385009765625,43.482025146484375,-79.1223373413086, -12.725093841552734
485,715210967,0.44851226,0.61022085,-0.49623796,0.4245176,1.9554842710494995,0.4230518937110901,1.1399060487747192,39.6653938293457,-90.07035827636719, -11.931845664978027
486,715227634,0.43835205,0.6199094,-0.49957523,0.41711456,2.6124205589294434,-0.10740027576684952,1.7650294303894043,37.18833541870117,-102.58322143554688, -11.98776626586914
487,715244301,0.42664722,0.63085157,-0.5025673,0.40917596,2.4933860301971436,0.49649637937545776,0.19269530475139618,46.717220306396484,-112.87057495117188, -14.988851547241211
488,715260968,0.4143852,0.64214003,-0.5062446,0.39957172,3.3539257049560547,1.053934097290039,2.609407663345337,42.47758483886719,-125.09211730957031, -16.550065994262695
489,715277635,0.4002139,0.654686,-0.5097872,0.38901445,4.645266532897949,0.5594971776008606,2.6386289596557617,51.565731048583984,-139.1918182373047, -18.99555778503418
490,715294302,0.383886,0.66855264,-0.5127609,0.3778165,5.0226874351501465,0.22235974669456482,3.3300535678863525,64.20755004882812,-151.7887420654297, -22.206968307495117
491,715310969,0.3642891,0.6844361,-0.514701,0.36595574,6.377216815948486,-0.7978366017341614,5.387338638305664,84.93048095703125,-169.08592224121094, -27.360870361328125
492,715327636,0.34287104,0.70112777,-0.516163,0.3527538,6.597940444946289,-1.9926929473876953,5.564763069152832,92.00635528564453,-182.970947265625, -31.315593719482422
493,715344303,0.32068753,0.7176764,-0.5170037,0.3388325,8.388627052307129,-4.144313335418701,7.000611305236816,94.32129669189453,-187.63522338867188, -33.73020553588867
494,715360970,0.29534784,0.733927,-0.5170192,0.326821,10.987473487854004,-3.9156625270843506,5.512747287750244,117.9377670288086,-187.2788848876953, -25.314937591552734
495,715377637,0.270561,0.74774384,-0.51808006,0.31506982,14.70166015625,2.975991725921631,11.34101390838623,108.75153350830078,-181.01368713378906, -12.214920997619629
496,715394304,0.25445294,0.7567213,-0.5212586,0.3015231,12.773407936096191,2.6980316638946533,11.253623962402344,44.22083282470703,-153.36668395996094, -6.159934043884277
497,715410971,0.23548041,0.7644383,-0.52277595,0.29476893,8.721652030944824,2.3334906101226807,11.53243350982666,84.78440856933594,-123.29574584960938, 7.6075544357299805
498,715427638,0.21737882,0.7716387,-0.52405304,0.28755635,3.7575631141662598,9.360193252563477,6.880055904388428,78.27100372314453,-121.5530776977539, 5.780808925628662
499,715444305,0.21828496,0.7734774,-0.52885383,0.2727605,1.3787932395935059,8.462186813354492,9.056811332702637,-64.71145629882812,-88.12698364257812, -4.902336120605469
500,715460972,0.22319306,0.77298844,-0.5303332,0.2672467,1.1508234739303589,-1.918941617012024,15.980143547058105,-49.347373962402344,-15.013679504394531, -7.535764217376709
501,715477639,0.21906991,0.7732568,-0.5258275,0.27854612,1.6127396821975708,-5.597631931304932,13.57983112335205,72.09845733642578,48.928138732910156, 0.2351500689983368
502,715494306,0.21361254,0.7721983,-0.5181899,0.29926386,-0.888108491897583,0.8683806657791138,11.902170181274414,117.1565933227539,101.22050476074219, 5.0620036125183105
503,715510973,0.22016108,0.7668073,-0.51226467,0.31799498,-1.2076334953308105,2.759099245071411,10.68813705444336,36.44888687133789,139.7249755859375, 2.0625948905944824
504,715527640,0.23558031,0.75804013,-0.5066949,0.33635917,-0.3819088637828827,1.8731554746627808,9.443029403686523,-17.47785186767578,175.7838592529297, -4.043037414550781
505,715544307,0.25440243,0.74742687,-0.4983962,0.35809764,0.27064377069473267,0.9945070743560791,6.430943012237549,-20.130104064941406,213.8281707763672, -14.205265045166016
506,715560974,0.27243015,0.7360123,-0.48635426,0.38409325,0.8562285304069519,0.20679961144924164,4.752647399902344,6.354477405548096,241.47386169433594, -21.26726531982422
507,715577641,0.2904418,0.7232131,-0.47165933,0.41248524,2.050680637359619,0.05247212573885918,3.751938581466675,18.85068130493164,262.1722412109375, -25.506925582885742
508,715594308,0.31002083,0.7081148,-0.45594907,0.44110224,2.8161909580230713,-0.5490986108779907,1.896518588066101,10.056943893432617,276.9198303222656, -27.0733642578125
509,715610975,0.3299059,0.69092846,-0.4393585,0.46983418,3.318422794342041,-1.3098907470703125,-0.3086159825325012,7.120226860046387,286.6864929199219, -25.4975643157959
510,715627642,0.34906396,0.67224115,-0.42207184,0.49809805,3.3121824264526367,-0.9080063700675964,-1.1619938611984253,7.972039699554443,288.7962341308594, -23.01239585876465
511,715644309,0.3700192,0.65089256,-0.40640017,0.5237019,4.1603779792785645,-0.30425360798835754,-1.6281139850616455,-20.012771606445312,287.0881652832031, -20.39419174194336
512,715660976,0.39280012,0.6268513,-0.39216927,0.5467804,5.349762439727783,0.8224152326583862,-2.9656341075897217,-47.3148307800293,287.0674133300781, -19.464378356933594
513,715677643,0.4159958,0.6012161,-0.37855557,0.5676114,4.030855655670166,1.0718799829483032,-6.578608512878418,-61.82823944091797,283.01629638671875, -20.16493034362793
514,715694310,0.43847662,0.5750394,-0.36477104,0.58652395,3.6294097900390625,0.5119686722755432,-9.282651901245117,-64.80029296875,276.1499938964844, -22.185583114624023
515,715710977,0.45856428,0.5486337,-0.35097116,0.60459834,5.687489032745361,-1.3032180070877075,-9.920205116271973,-58.123558044433594,268.2179870605469, -14.58670425415039
516,715727644,0.4749249,0.5237043,-0.33653727,0.62203133,6.767352104187012,0.5488382577896118,-12.4198579788208,-38.35527420043945,253.09927368164062, -7.151194095611572
517,715744311,0.49020404,0.5010541,-0.32437852,0.6351565,4.958415985107422,3.719290256500244,-14.932778358459473,-46.778934478759766,218.41680908203125, -13.704200744628906
518,715760978,0.5062921,0.48159355,-0.31741202,0.6410818,2.8166890144348145,3.02140474319458,-17.873756408691406,-77.6641845703125,164.54518127441406, -30.67596435546875
519,715777645,0.5197011,0.46813816,-0.3172245,0.6404109,-0.20746096968650818,1.1495780944824219,-22.277639389038086,-92.276123046875,87.39628601074219, -32.43988800048828
520,715794312,0.5265922,0.46516803,-0.3221458,0.63446164,-2.062685489654541,0.24486179649829865,-24.373563766479492,-67.92903137207031,-7.541011333465576, -28.99855613708496
521,715810979,0.526748,0.47251892,-0.33143958,0.6240276,-0.8367231488227844,0.23452228307724,-18.9081974029541,-38.10628128051758,-96.9525146484375, -24.708328247070312
522,715827646,0.5201871,0.49034455,-0.34657297,0.6073344,13.931243896484375,0.03259396180510521,-12.943350791931152,-17.715225219726562,-198.185546875, -23.43084144592285
523,715844313,0.5182264,0.49916595,-0.36909863,0.58825266,8.875312805175781,-15.596235275268555,12.021650314331055,-102.01011657714844,-183.6471710205078, -4.777383327484131
524,715860980,0.51203406,0.5122331,-0.3844244,0.5724127,0.7374962568283081,1.4539207220077515,-13.48111343383789,-34.73194885253906,-175.18939208984375, -11.984575271606445
525,715877647,0.5154922,0.52067107,-0.40712553,0.54536074,8.01509952545166,3.0307154655456543,-10.194643020629883,-143.77182006835938,-196.57928466796875, -51.11647415161133
526,715894314,0.5078279,0.5357824,-0.41761407,0.529761,3.679746150970459,-5.47156286239624,-2.540820598602295,-2.4943065643310547,-168.1573028564453, -31.074260711669922
527,715910981,0.49284986,0.5546587,-0.4173555,0.5246593,-0.672866940498352,1.363796591758728,-4.538294792175293,106.93569946289062,-126.68596649169922, -18.37923240661621
528,715927648,0.47926214,0.57025445,-0.41647774,0.52121425,2.443378210067749,4.348894119262695,-1.7820276021957397,97.47703552246094,-102.40103149414062, -10.759671211242676
529,715944315,0.476322,0.5755829,-0.4240028,0.51190174,-0.11454407870769501,3.4197964668273926,-2.519732713699341,-25.04920196533203,-85.86074829101562, -5.810790061950684
530,715960982,0.47647128,0.5775233,-0.43288642,0.5020471,3.37650990486145,-2.66532039642334,-2.56689453125,-54.75058364868164,-71.55277252197266, -3.0738937854766846
531,715977649,0.4697417,0.58377993,-0.43490577,0.4994005,0.3609936833381653,-0.4221310019493103,-1.6924277544021606,31.878032684326172,-55.83867263793945, 4.0999674797058105
532,715994316,0.4668576,0.58645827,-0.44044515,0.4940838,0.26679983735084534,3.816279172897339,-0.14585399627685547,-15.169075012207031,-54.185909271240234, 7.080013275146484
533,716010983,0.4660929,0.587165,-0.44805917,0.4870706,0.2556053698062897,-0.4747958481311798,-1.1101619005203247,-42.22553253173828,-54.671260833740234, 8.898228645324707
534,716027650,0.46202022,0.59030336,-0.45301902,0.48254865,-0.3513104319572449,1.0286966562271118,-0.4597741663455963,-4.4947829246521,-54.5024528503418, 9.74963665008545
535,716044317,0.45838654,0.5932924,-0.4589768,0.47668257,-0.39062032103538513,1.8673352003097534,-0.5714980959892273,-14.233602523803711,-61.34096145629883, 8.569920539855957
536,716060984,0.4547911,0.5964834,-0.46514526,0.4701199,-0.4755137860774994,-0.0789983943104744,-0.6073678731918335,-16.629955291748047,-65.45697784423828, 6.529929161071777
537,716077651,0.45031172,0.6007626,-0.46982467,0.46429345,0.13568395376205444,-0.0036716230679303408,-0.6849393248558044,-2.4174387454986572,-64.18853759765625, 2.098088264465332
538,716094318,0.44524688,0.60555935,-0.47360498,0.459077,0.6453348398208618,-0.44304463267326355,-0.24228930473327637,6.4562764167785645,-62.4859733581543, 0.45935097336769104
539,716110985,0.43936756,0.6109376,-0.47664735,0.45444345,1.2303783893585205,-0.5621606707572937,-0.7019702196121216,15.868406295776367,-62.36033248901367, -0.18190404772758484
540,716127652,0.43249577,0.61710924,-0.47905558,0.45014405,1.4523988962173462,-0.7920077443122864,0.10164695978164673,25.521821975708008,-64.83084106445312, -1.3758482933044434
541,716144319,0.4245014,0.6242176,-0.48146498,0.4453568,1.2877674102783203,-0.5185337066650391,1.1302791833877563,31.472230911254883,-73.58905792236328, -2.483617067337036
542,716160986,0.4156585,0.63197774,-0.48501286,0.4388562,0.9252597689628601,0.2331191599369049,2.997809886932373,27.872404098510742,-89.19031524658203, -2.1978297233581543
543,716177653,0.40646893,0.6402333,-0.48975837,0.43014097,1.4203194379806519,0.9191162586212158,2.5849788188934326,19.8148136138916,-105.0655517578125, -3.941863536834717
544,716194320,0.39559937,0.6497537,-0.49434388,0.42064893,2.0686750411987305,1.0807242393493652,2.6311728954315186,28.62091636657715,-117.59916687011719, -6.0993146896362305
545,716210987,0.3824931,0.66122085,-0.4979599,0.4105144,2.621769905090332,2.0850155353546143,0.44140374660491943,44.54935073852539,-131.23284912109375, -12.31985855102539
546,716227654,0.36745828,0.6741761,-0.50056964,0.39986372,3.9510657787323,0.8328667879104614,3.1793735027313232,58.32237243652344,-141.8347930908203, -17.87395477294922
547,716244321,0.3488407,0.6894408,-0.5017776,0.3888454,5.727367401123047,0.08206763863563538,3.8232157230377197,83.37954711914062,-158.88104248046875, -23.4154109954834
548,716260988,0.32783875,0.7058144,-0.5031375,0.3757667,6.932220935821533,-0.7961455583572388,6.32738733291626,89.85160827636719,-180.4492645263672, -25.129831314086914
549,716277655,0.3058987,0.72236013,-0.5048904,0.36014962,8.256108283996582,-2.4329347610473633,6.373029708862305,85.01913452148438,-197.67779541015625, -27.177457809448242
550,716294322,0.28232634,0.7388494,-0.50547844,0.34479716,9.457806587219238,-4.791730880737305,7.315527439117432,96.8169174194336,-199.78880310058594, -28.26490592956543
551,716310989,0.2552102,0.754443,-0.5052708,0.33224228,12.2601957321167,-3.803694725036621,7.619738578796387,124.6693115234375,-194.61666870117188, -15.504504203796387
552,716327656,0.22747299,0.7678815,-0.5061565,0.320031,15.37860107421875,4.941706657409668,9.716084480285645,122.7802505493164,-192.43743896484375, -0.41378509998321533
553,716344323,0.20814942,0.77700335,-0.50848955,0.30721074,12.618354797363281,3.1619937419891357,12.571700096130371,66.39257049560547,-159.68740844726562, 2.929563045501709
554,716360990,0.1801714,0.78602767,-0.5075735,0.30342734,6.699613571166992,3.67620849609375,10.806388854980469,151.03237915039062,-137.36444091796875, 17.248178482055664
555,716377657,0.16368921,0.7928155,-0.5081301,0.29402933,1.4268971681594849,15.002631187438965,7.625265121459961,63.524818420410156,-125.0718994140625, 2.2146596908569336
556,716394324,0.17496888,0.7927831,-0.51403874,0.27684903,0.8290197849273682,6.5187811851501465,14.521162033081055,-133.23452758789062,-62.86818313598633, -9.357587814331055
557,716410991,0.18016188,0.791854,-0.5129835,0.27813154,-0.2534557282924652,-5.552341461181641,16.179079055786133,-22.507221221923828,26.092626571655273, -10.287693977355957
558,716427658,0.17455399,0.7911563,-0.5057169,0.2964005,-0.4594849944114685,-2.6480441093444824,13.201659202575684,108.27261352539062,87.51835632324219, -3.3416225910186768
559,716444325,0.17455967,0.78723866,-0.49779323,0.31935334,-1.9318896532058716,2.8486714363098145,11.635786056518555,91.43592071533203,139.7281494140625, -1.525142788887024
560,716460992,0.18640903,0.77886903,-0.49267638,0.34041867,-1.7375601530075073,2.693518877029419,9.260095596313477,9.366665840148926,176.36865234375, 0.7378357648849487
561,716477659,0.205781,0.76724744,-0.48851222,0.36102864,-0.6632905602455139,2.766150951385498,6.794732093811035,-38.87194061279297,205.75250244140625, -1.2876087427139282
562,716494326,0.22957702,0.7526624,-0.48378646,0.38307258,0.7129793763160706,0.9148535132408142,4.926335334777832,-60.21198272705078,236.2977752685547, -3.227659225463867
563,716510993,0.2522502,0.7365618,-0.47666132,0.40821666,2.326789617538452,-0.23735879361629486,2.9993221759796143,-40.19948196411133,256.36090087890625, -2.773207426071167
564,716527660,0.27278778,0.7195429,-0.4665999,0.43603835,2.946915626525879,-0.520681619644165,1.3879262208938599,-14.003589630126953,270.5880432128906, -4.0274739265441895
565,716544327,0.2924582,0.70160955,-0.45404834,0.46481442,3.1367433071136475,-0.2676141858100891,-0.08462771773338318,-0.9451267123222351,279.9728088378906, -9.04744815826416
566,716560994,0.3114863,0.682998,-0.43901882,0.49371335,3.244899272918701,-0.3519638776779175,-2.0012552738189697,9.05518913269043,285.7880554199219, -16.59192657470703
567,716577661,0.33060905,0.6636748,-0.42260176,0.5211922,2.823911428451538,-0.6854665279388428,-2.90104079246521,7.475269794464111,284.92767333984375, -24.333152770996094
568,716594328,0.3511474,0.64351535,-0.40686652,0.5450169,2.6890294551849365,0.8206684589385986,-3.043344497680664,-13.978856086730957,273.97625732421875, -32.20420837402344
569,716610995,0.37547192,0.6204561,-0.3950826,0.56388384,2.9288923740386963,0.6768118143081665,-5.576518535614014,-66.4463882446289,264.127685546875, -32.78379440307617
570,716627662,0.39998332,0.59585136,-0.38469967,0.58050054,2.6188182830810547,0.1120917797088623,-7.607603549957275,-82.81314849853516,257.66253662109375, -29.189842224121094
571,716644329,0.42332402,0.5701112,-0.37546033,0.5956506,3.932584047317505,-1.0721399784088135,-8.031328201293945,-89.6199722290039,250.26629638671875, -20.925622940063477
572,716660996,0.44532079,0.5428758,-0.36919397,0.6088278,5.4364495277404785,-0.4146651029586792,-9.291040420532227,-106.00057983398438,236.86886596679688, -5.7444610595703125
573,716677663,0.4638338,0.51778,-0.36323053,0.62034357,4.868923187255859,1.2422289848327637,-12.654417991638184,-91.95563507080078,212.31065368652344, -0.6157301664352417
574,716694330,0.4803693,0.49668485,-0.35700092,0.6285697,3.6067137718200684,2.3106014728546143,-12.560883522033691,-79.2803955078125,179.92030334472656, -13.620189666748047
575,716710997,0.4951382,0.48054132,-0.35131058,0.6328502,2.48917555809021,1.3546348810195923,-15.10526180267334,-68.96416473388672,139.37921142578125, -29.29712677001953
576,716727664,0.50549746,0.4705353,-0.3486204,0.6336662,0.3550994396209717,0.6594932079315186,-17.609149932861328,-54.968196868896484,80.87110900878906, -26.796859741210938
577,716744331,0.51151603,0.46771896,-0.35069576,0.62976414,-1.2221407890319824,1.695807695388794,-18.312097549438477,-48.048423767089844,7.868338584899902, -26.08441162109375
578,716760998,0.5140969,0.4719277,-0.35777992,0.62046945,-1.5256805419921875,1.4489389657974243,-17.670835494995117,-47.034454345703125,-65.26461029052734, -30.94388198852539
579,716777665,0.5138284,0.48076046,-0.3690604,0.6071609,-1.1444368362426758,0.28690776228904724,-15.402738571166992,-49.26983642578125,-119.373046875, -30.675233840942383
580,716794332,0.510626,0.49267244,-0.38097548,0.5927838,1.170900583267212,-0.9214991331100464,-6.5606207847595215,-34.07648849487305,-145.0464630126953, -27.881311416625977
581,716810999,0.5070033,0.50584716,-0.39423445,0.57588696,14.416141510009766,-1.772489070892334,7.6421356201171875,-40.2867317199707,-164.42478942871094, -33.76927947998047
582,716827666,0.50936395,0.5052455,-0.41692004,0.55808,4.460087299346924,-19.464710235595703,-0.9531715512275696,-148.8643035888672,-129.94027709960938, 9.481829643249512
583,716844333,0.49962118,0.52216935,-0.42345735,0.5462618,4.303804397583008,11.491866111755371,-20.782230377197266,33.93304443359375,-154.54367065429688, -29.927513122558594
584,716861000,0.4985434,0.5323314,-0.44023833,0.5237061,16.969894409179688,-7.87350606918335,3.394652843475342,-90.31903839111328,-177.04908752441406, -42.54878616333008
585,716877667,0.49255028,0.54398775,-0.451093,0.50792384,-6.885218143463135,-0.3088599443435669,-3.391042470932007,-25.284685134887695,-152.36878967285156, -28.047832489013672
586,716894334,0.4865852,0.55455256,-0.45911852,0.4948904,-0.4141729474067688,2.817775249481201,-1.9136161804199219,-10.699398040771484,-128.5931854248047, -26.007339477539062
587,716911001,0.4785055,0.56410515,-0.46425876,0.4871159,0.9228237867355347,2.9460208415985107,-4.792850494384766,20.372169494628906,-102.1481704711914, -8.945169448852539
588,716927668,0.46981755,0.5726562,-0.46706226,0.48289675,0.6825591325759888,1.9330164194107056,-2.006483793258667,38.59276580810547,-79.19126892089844, -1.0165830850601196
589,716944335,0.46715733,0.5764064,-0.47347206,0.47470438,2.1382994651794434,-0.8831305503845215,-1.9891246557235718,-25.383800506591797,-71.217041015625, -4.203961372375488
590,716961002,0.46749362,0.5774378,-0.48160666,0.46483395,0.756122887134552,-3.423833131790161,-2.497450113296509,-57.0750846862793,-64.81625366210938, -3.6932950019836426
591,716977669,0.4650744,0.58043265,-0.48659423,0.45829034,0.38120144605636597,0.27394962310791016,-1.247053623199463,-18.733415603637695,-56.90400695800781, -3.265071392059326
592,716994336,0.4631054,0.5828407,-0.491562,0.4518818,-0.43314388394355774,1.9887378215789795,0.024535715579986572,-21.88874053955078,-52.996551513671875, -2.3508377075195312
593,717011003,0.46101275,0.5852767,-0.49614525,0.44582325,-0.6830821633338928,1.1226985454559326,-1.441845417022705,-18.924114227294922,-50.959774017333984, -2.423280954360962
594,717027670,0.45728487,0.5890198,-0.49953863,0.44091684,-0.40075257420539856,0.44888079166412354,-0.5421910881996155,-0.6212547421455383,-52.16756057739258, -2.9720747470855713
595,717044337,0.45287478,0.5935778,-0.5025953,0.43585303,0.19733838737010956,-0.49578285217285156,-0.2927727699279785,5.188046455383301,-56.61833190917969, -5.5568413734436035
596,717061004,0.44819164,0.59866697,-0.50560343,0.430218,0.8545953035354614,-1.5170994997024536,0.43688496947288513,6.133973598480225,-61.401859283447266, -8.577234268188477
597,717077671,0.44274074,0.6046918,-0.50781566,0.42479637,1.3964872360229492,-1.6084591150283813,0.7349459528923035,15.279092788696289,-63.59915542602539, -12.237133026123047
598,717094338,0.4368486,0.61113286,-0.5100937,0.4189087,1.2766635417938232,0.22318226099014282,0.7339345216751099,16.565908432006836,-68.59619140625, -13.6117582321167
599,717111005,0.4305705,0.61829007,-0.5122575,0.412212,0.7942571043968201,0.2574073076248169,0.08712445199489594,17.83197021484375,-75.16734313964844, -17.931732177734375
600,717127672,0.4215571,0.6264946,-0.5142398,0.406635,1.6151831150054932,-0.061285387724637985,1.165463924407959,37.01932907104492,-82.54373168945312, -11.336345672607422
601,717144339,0.41181168,0.63525385,-0.5165323,0.4000729,1.4746803045272827,1.427049994468689,2.095120429992676,37.435821533203125,-91.93754577636719, -12.7971830368042
602,717161006,0.40130326,0.6445062,-0.51960695,0.3918879,1.9973030090332031,0.5163519978523254,2.0886850357055664,34.26141357421875,-105.44630432128906, -13.61117172241211
603,717177673,0.38825476,0.65550417,-0.5219845,0.38354242,2.12850022315979,0.26938676834106445,1.5717121362686157,51.649898529052734,-118.1544189453125, -16.545854568481445
604,717194340,0.3739225,0.66728234,-0.5247255,0.37360364,2.8063011169433594,0.06103476136922836,3.307199239730835,52.85063552856445,-133.09579467773438, -18.59622573852539
605,717211007,0.35921305,0.67955804,-0.52801895,0.36105824,3.2750000953674316,-2.139160633087158,3.087437629699707,45.04816436767578,-149.29977416992188, -23.61289405822754
606,717227674,0.34385553,0.69208044,-0.532084,0.34594014,4.600554466247559,-3.7590842247009277,3.027740001678467,37.42473602294922,-166.3736572265625, -25.72916603088379
607,717244341,0.32798782,0.7045575,-0.53689677,0.3282755,5.510836124420166,-3.834984540939331,4.090802192687988,28.626649856567383,-182.2167205810547, -26.9332218170166
608,717261008,0.31192416,0.7165584,-0.5425537,0.30803072,6.738003730773926,-3.4481406211853027,5.783700942993164,17.04193878173828,-196.51150512695312, -26.576786041259766
609,717277675,0.29385915,0.7292539,-0.54689664,0.28764558,7.6712141036987305,-2.9205284118652344,6.599692344665527,30.625534057617188,-203.6285400390625, -31.80567169189453
610,717294342,0.27010143,0.74403965,-0.5477733,0.27091426,10.340543746948242,-2.490046739578247,5.55316162109375,83.97209167480469,-204.19161987304688, -38.48414611816406
611,717311009,0.23751442,0.7608131,-0.5433749,0.26361763,15.620230674743652,1.6150405406951904,13.611624717712402,178.19589233398438,-183.47311401367188, -39.04310607910156
612,717327676,0.20887356,0.7753,-0.53632337,0.2600754,15.070558547973633,4.604492664337158,12.67956829071045,172.7249298095703,-141.28785705566406, -45.32239532470703
613,717344343,0.18209073,0.7874342,-0.5309413,0.25473848,7.990795135498047,5.98667573928833,7.685122489929199,149.96534729003906,-142.81402587890625, -33.46916580200195
614,717361010,0.16763943,0.7951469,-0.5300997,0.24214241,5.7751054763793945,8.704523086547852,7.904610633850098,43.33769989013672,-135.32864379882812, -23.24120330810547
615,717377677,0.16441184,0.79912734,-0.52969056,0.23193157,4.037869453430176,0.5472027659416199,11.70300006866455,-14.163725852966309,-75.89208221435547, -23.022247314453125
616,717394344,0.1521019,0.8024459,-0.52442527,0.24067368,1.3684755563735962,-8.214569091796875,15.45625114440918,111.79361724853516,1.4775021076202393, -11.355010986328125
617,717411011,0.1352703,0.8036772,-0.5167036,0.26234058,-0.4901737868785858,-2.8669323921203613,14.491801261901855,185.09695434570312,62.303184509277344, 3.5518510341644287
618,717427678,0.13215674,0.80064255,-0.51097995,0.28355926,-2.194932699203491,4.09984016418457,13.817768096923828,100.05319213867188,114.25640106201172, 4.637165546417236
619,717444345,0.1478824,0.79270846,-0.5099337,0.29951936,-1.9100370407104492,3.266136646270752,11.815549850463867,-35.66401672363281,156.7060089111328, 6.201316833496094
620,717461012,0.16933912,0.78208154,-0.5089316,0.31727198,-1.6140060424804688,1.306226134300232,7.9727325439453125,-63.43025207519531,191.9983367919922, 5.918238639831543
621,717477679,0.19236542,0.76959974,-0.5059141,0.33876655,-1.007300615310669,0.01755092665553093,5.783742427825928,-56.552371978759766,223.99581909179688, 2.47218656539917
622,717494346,0.21427004,0.7556442,-0.5002168,0.36451834,0.40096616744995117,-1.6132428646087646,4.55674409866333,-31.536705017089844,249.61273193359375, 1.6173096895217896
623,717511013,0.2347876,0.7403611,-0.49196908,0.39332798,2.1888465881347656,-1.7742499113082886,2.189440965652466,-9.409080505371094,267.81671142578125, 0.852715253829956
624,717527680,0.25513333,0.72327083,-0.48226658,0.42332652,2.6852097511291504,-1.9234158992767334,0.1530689299106598,-3.5244274139404297,280.5440979003906, 1.8958848714828491
625,717544347,0.27480307,0.70494473,-0.47053266,0.4540213,3.2020905017852783,-1.413558006286621,-1.2248613834381104,5.872524738311768,288.9906311035156, -0.9677917957305908
626,717561014,0.29598817,0.6850809,-0.4587332,0.4823062,2.4758877754211426,0.17406348884105682,-2.2346575260162354,-11.982051849365234,287.2290954589844, -5.632452964782715
627,717577681,0.32028216,0.6631357,-0.44910866,0.50593674,2.641932249069214,1.2946547269821167,-2.772000551223755,-52.7620964050293,277.7207336425781, -8.621591567993164
628,717594348,0.34897715,0.6379793,-0.4435347,0.52390325,3.7404417991638184,1.9528127908706665,-4.191529750823975,-111.49320220947266,267.8935546875, -8.041254043579102
629,717611015,0.37892815,0.6104278,-0.439979,0.5387115,3.9444713592529297,1.2450779676437378,-6.23488187789917,-139.6637725830078,261.8531799316406, -4.015793800354004
630,717627682,0.40636984,0.58231837,-0.43567616,0.55313236,4.629817962646484,-0.8295323252677917,-8.64436149597168,-128.9927520751953,256.9162292480469, 2.776066541671753
631,717644349,0.42738524,0.556874,-0.4271479,0.569893,4.692399978637695,-0.49773144721984863,-11.18914794921875,-72.71477508544922,249.05203247070312, 8.781126976013184
632,717661016,0.44292668,0.535465,-0.41445938,0.5876366,4.078582763671875,1.5367563962936401,-12.77690315246582,-20.6928768157959,233.58905029296875, 5.313098430633545
633,717677683,0.45633638,0.5176467,-0.4004987,0.60282654,3.0170657634735107,2.812398910522461,-13.61763858795166,-4.054713249206543,207.96585083007812, -8.719587326049805
634,717694350,0.46923319,0.5029673,-0.39030096,0.61197186,1.8080992698669434,1.8516885042190552,-16.99441909790039,-24.65704345703125,160.72056579589844, -20.72975730895996
635,717711017,0.47925282,0.49261907,-0.3864346,0.61507034,0.7239437103271484,0.4081835150718689,-20.078231811523438,-43.63189697265625,94.03207397460938, -17.808319091796875
636,717727684,0.4841537,0.48995915,-0.38699543,0.6130007,-1.8519922494888306,2.2843048572540283,-21.688251495361328,-33.429908752441406,16.50136947631836, -18.603961944580078
637,717744351,0.48479185,0.49479204,-0.39226085,0.6052184,-1.9849286079406738,1.767584204673767,-20.83053207397461,-29.204946517944336,-60.641143798828125, -23.669713973999023
638,717761018,0.47598577,0.512185,-0.39697683,0.5945701,8.421841621398926,4.338702201843262,-14.657978057861328,39.30411911010742,-145.6756134033203, -29.62400245666504
639,717777685,0.46834075,0.5259291,-0.41168123,0.578424,12.905496597290039,-9.533517837524414,8.4125394821167,-32.637447357177734,-179.18185424804688, -7.114490985870361
640,717794352,0.4577324,0.54101646,-0.42065978,0.5664167,3.815869092941284,-11.167379379272461,-6.395401954650879,17.01824188232422,-159.8271942138672, -6.770925045013428
641,717811019,0.44967395,0.5574033,-0.4301745,0.5495862,1.5226343870162964,9.81655216217041,-8.985594749450684,-4.332193374633789,-177.00094604492188, -33.95805740356445
642,717827686,0.4501919,0.56694,-0.44695976,0.5254838,5.030372142791748,2.029336929321289,-4.433021545410156,-107.50804901123047,-175.88951110839844, -40.393245697021484
643,717844353,0.44603205,0.57703227,-0.4565067,0.5095987,-1.4375156164169312,-3.5157971382141113,-3.69016170501709,-36.17633819580078,-137.7738037109375, -27.86142349243164
644,717861020,0.4337004,0.59099424,-0.4560264,0.5046483,2.934630870819092,1.6463679075241089,-4.87645149230957,77.57543182373047,-102.81658172607422, -17.736316680908203
645,717877687,0.42482203,0.6004424,-0.45684755,0.5002857,0.23954306542873383,3.373166561126709,-3.2404487133026123,47.387393951416016,-77.76207733154297, -8.526001930236816
646,717894354,0.42366728,0.60337627,-0.46322155,0.49180174,1.794607400894165,1.5375593900680542,-2.0379719734191895,-35.59135437011719,-64.3222885131836, -3.648918390274048
647,717911021,0.42487985,0.60436565,-0.4708105,0.4822416,2.368631362915039,-3.1976895332336426,-1.0832194089889526,-58.61568069458008,-58.25774383544922, -3.476316452026367
648,717927688,0.42033255,0.60808074,-0.47433394,0.47808588,0.40035584568977356,-0.7342501878738403,-1.8583269119262695,4.27503776550293,-51.68247604370117, 5.611763954162598
649,717944355,0.41719583,0.6108468,-0.47927195,0.4723479,-1.1048119068145752,4.23801326751709,0.6165117025375366,-14.165006637573242,-54.70161056518555, 5.3924880027771
650,717961022,0.41679063,0.6116491,-0.48716024,0.46351492,0.017387142404913902,-0.5210045576095581,-0.25215739011764526,-51.04765319824219,-60.89617919921875, 6.653361797332764
651,717977689,0.41285118,0.6149328,-0.49194232,0.45760745,-0.2077750861644745,0.6353806257247925,-0.19095580279827118,-9.362650871276855,-59.52051544189453, 4.926198959350586
652,717994356,0.40893748,0.6184261,-0.49665594,0.45127857,-0.12757402658462524,0.6986652612686157,-0.7172083258628845,-10.075996398925781,-61.758934020996094, 2.669001817703247
653,718011023,0.40411976,0.6227111,-0.50003713,0.4459608,0.17619596421718597,-0.6308003067970276,-1.3470239639282227,3.5868396759033203,-59.31425857543945, -0.03552524745464325
654,718027690,0.39831766,0.62767804,-0.50257766,0.44133797,0.4900643527507782,-0.623173713684082,-0.7071835398674011,14.669144630432129,-59.51292037963867, -1.0617116689682007
655,718044357,0.39154902,0.63361204,-0.50416243,0.4370878,0.9660335183143616,-0.04070984199643135,0.9560355544090271,25.681406021118164,-61.61930465698242, -4.613022327423096
656,718061024,0.38414615,0.6406815,-0.50502473,0.4323297,0.6920813918113708,1.1492971181869507,1.4650567770004272,31.914691925048828,-67.61335754394531, -11.182923316955566
657,718077691,0.37482736,0.64904284,-0.5060198,0.42683974,1.1903289556503296,-0.33776605129241943,1.241762638092041,40.836360931396484,-81.80572509765625, -11.313814163208008
658,718094358,0.36499143,0.6578256,-0.5079162,0.41960448,1.4833461046218872,-0.9165485501289368,1.5066933631896973,35.515445709228516,-95.07339477539062, -11.774168968200684
659,718111025,0.3550089,0.6667345,-0.5110342,0.410217,1.7396363019943237,-1.0769617557525635,1.7464262247085571,25.455923080444336,-108.87551879882812, -11.71504020690918
660,718127692,0.3443429,0.6760785,-0.5147016,0.39928466,1.9849109649658203,-0.7185534238815308,0.7991654276847839,22.673107147216797,-121.06473541259766, -12.614615440368652
661,718144359,0.33219746,0.68647707,-0.51765025,0.3878562,2.6634490489959717,0.20953461527824402,1.8626171350479126,32.26226043701172,-129.9093780517578, -16.83635902404785
662,718161026,0.31790572,0.69831914,-0.5200981,0.3752126,4.314174175262451,0.429082989692688,2.0562195777893066,42.70426559448242,-146.14414978027344, -21.399707794189453
663,718177693,0.30181664,0.7111124,-0.52174324,0.36195314,4.476231575012207,-0.3087053894996643,3.185396432876587,53.289215087890625,-156.4158935546875, -25.37372398376465
664,718194360,0.2834989,0.7248673,-0.5227152,0.34779957,5.718893527984619,-1.295745611190796,4.223824977874756,64.65328979492188,-170.00225830078125, -28.4527530670166
665,718211027,0.26315966,0.73934144,-0.52285,0.3327899,7.193871974945068,-1.6234945058822632,4.861813545227051,75.052490234375,-181.8974151611328, -32.10003662109375
666,718227694,0.24001291,0.7547521,-0.5201674,0.31963894,9.54206371307373,-2.025118112564087,7.850088596343994,104.1451644897461,-179.9053955078125, -40.0614013671875
667,718244361,0.2106672,0.7705829,-0.51360774,0.3130957,13.237117767333984,-1.716248631477356,9.756107330322266,169.17181396484375,-162.7610626220703, -37.212127685546875
668,718261028,0.17790589,0.7849314,-0.5078156,0.3071738,13.820754051208496,2.6424813270568848,6.774958610534668,185.67922973632812,-170.0299835205078, -19.66670036315918
669,718277695,0.1545731,0.796157,-0.5051394,0.29508552,9.772239685058594,7.79683256149292,10.592825889587402,102.91218566894531,-168.08474731445312, -19.27478790283203
670,718294362,0.14120954,0.803681,-0.5070061,0.2776721,5.974411487579346,5.03680419921875,7.692514896392822,16.846141815185547,-160.37826538085938, -7.210816860198975
671,718311029,0.13272232,0.80910325,-0.5082308,0.26351166,2.6793019771575928,5.003375053405762,10.687224388122559,0.5338284373283386,-121.02913665771484, -9.47105598449707
672,718327696,0.12661576,0.81158483,-0.5074327,0.2604051,1.25225031375885,-3.0998549461364746,15.559500694274902,26.997751235961914,-44.25894546508789, -4.572268486022949
673,718344363,0.105037995,0.81325954,-0.5006408,0.27737147,1.2083735466003418,-4.5312581062316895,14.295900344848633,193.3376007080078,20.195344924926758, 9.950664520263672
674,718361030,0.08920116,0.81190276,-0.4936163,0.2986642,-0.2657381296157837,4.331119537353516,14.799222946166992,174.26287841796875,69.90296173095703, 11.272382736206055
675,718377697,0.094492264,0.8066976,-0.49233365,0.31291825,-1.250797986984253,6.607620716094971,13.560513496398926,18.2933349609375,106.51715850830078, 8.83272647857666
676,718394364,0.11366581,0.7987739,-0.49389285,0.324207,-0.9455475211143494,5.016462802886963,11.307197570800781,-76.57585906982422,140.92738342285156, 2.102205753326416
677,718411031,0.13777909,0.7887248,-0.49479517,0.33779892,0.2221934050321579,2.8881449699401855,8.011091232299805,-96.06267547607422,175.48776245117188, -3.4825003147125244
678,718427698,0.16172548,0.77698386,-0.49306446,0.3564109,1.3136354684829712,1.3661303520202637,6.525273323059082,-73.57158660888672,208.4874267578125, -6.883371353149414
679,718444365,0.18371905,0.76378477,-0.48827222,0.38009262,2.2478020191192627,0.9983514547348022,4.456833362579346,-40.090999603271484,235.8556365966797, -7.899744987487793
680,718461032,0.20548785,0.7491427,-0.48077202,0.4067164,2.185601234436035,0.8850352168083191,2.360597848892212,-23.802547454833984,257.70159912109375, -12.98055362701416
681,718477699,0.22632197,0.73346627,-0.46979678,0.4360007,2.312798500061035,-0.036542247980833054,0.18559390306472778,-1.9571473598480225,276.1383972167969, -21.07707405090332
682,718494366,0.24570127,0.71706754,-0.4553406,0.46702263,1.7900149822235107,-0.5998404026031494,-1.0245046615600586,20.282955169677734,287.8652648925781, -29.23314094543457
683,718511033,0.26419362,0.6999874,-0.43857503,0.49786687,1.5324450731277466,-0.6220348477363586,-1.788304328918457,30.340896606445312,290.4273986816406, -35.93993377685547
684,718527700,0.28296345,0.68189234,-0.42077407,0.52716583,1.139986515045166,0.7212786078453064,-3.510108709335327,26.02410888671875,289.3323974609375, -41.62456512451172
685,718544367,0.305032,0.661315,-0.40495032,0.5528411,2.5565290451049805,0.19463327527046204,-5.515727996826172,-11.952348709106445,287.24188232421875, -44.16704559326172
686,718561034,0.3282192,0.63870263,-0.39070946,0.5759143,3.886791706085205,-0.684908390045166,-7.221928596496582,-34.60400390625,283.1933898925781, -41.037837982177734
687,718577701,0.35297868,0.61336476,-0.38149822,0.59468406,5.610879421234131,-0.6742612719535828,-9.153158187866211,-79.17525482177734,268.2573547363281, -27.64008331298828
688,718594368,0.37711018,0.5865893,-0.3778916,0.60901487,6.228222846984863,0.5454974174499512,-11.892969131469727,-114.61917114257812,240.51861572265625, -8.525093078613281
689,718611035,0.39926863,0.56155366,-0.37666947,0.6191625,5.745687007904053,2.8692986965179443,-13.363118171691895,-123.0481948852539,205.49839782714844, -6.06954288482666
690,718627702,0.4202705,0.54132515,-0.37616602,0.6235696,3.126802921295166,2.951414108276367,-16.522153854370117,-123.37088012695312,158.3937225341797, -26.559547424316406
691,718644369,0.43640158,0.5286204,-0.37444246,0.62442535,1.9500610828399658,-0.5397566556930542,-19.452260971069336,-87.51242065429688,104.43775177001953, -39.89604187011719
692,718661036,0.44467497,0.52453893,-0.37395677,0.6223179,0.27190226316452026,-0.49510037899017334,-20.205907821655273,-46.038841247558594,33.38993835449219, -32.790035247802734
693,718677703,0.4465907,0.5284209,-0.37717876,0.61568207,-0.12356726825237274,-1.0930970907211304,-19.83490753173828,-26.292036056518555,-44.00946044921875, -26.563085556030273
694,718694370,0.44170976,0.54185444,-0.3846811,0.60274935,4.493582248687744,-0.009387914091348648,-20.741472244262695,-6.731136798858643,-137.44638061523438, -26.3853759765625
695,718711037,0.43442816,0.5566948,-0.40630835,0.5798938,16.391372680664062,-6.856592178344727,-1.11751127243042,-78.33019256591797,-228.84774780273438, 2.3531334400177
696,718727704,0.42978153,0.56815284,-0.42352223,0.55957067,4.0504069328308105,-12.778111457824707,2.612213373184204,-73.74931335449219,-185.1103057861328, -8.178577423095703
697,718744371,0.42586046,0.5810411,-0.4402142,0.53595334,2.351364850997925,6.293497562408447,-15.939192771911621,-79.83229064941406,-200.0052490234375, -27.228120803833008
698,718761038,0.42384458,0.59261143,-0.45442343,0.5125104,5.451846599578857,-3.1183319091796875,-4.757826805114746,-81.719482421875,-180.9434814453125, -39.407501220703125
699,718777705,0.41332498,0.6067674,-0.45733353,0.50183845,-0.2605312466621399,-1.7604469060897827,-5.197447299957275,40.188758850097656,-131.6015625, -26.41645050048828
