PacketCounter,SampleTimeFine,Quat_W,Quat_X,Quat_Y,Quat_Z,Acc_X,Acc_Y,Acc_Z,Gyr_X,Gyr_Y,Gyr_Z 
1,253565179,0.774076,0.15121417,-0.57323515,0.22213073,0.022677920758724213,-0.8126393556594849,0.49017447233200073,-0.42310094833374023,0.9524387121200562, -0.022746475413441658
2,253581846,0.7737646,0.15136625,-0.57351255,0.22239591,9.398192405700684,-0.23591352999210358,2.952579975128174,1.2566933631896973,-0.5926138162612915, 0.2558772563934326
3,253598513,0.77376777,0.15115657,-0.5734482,0.22269335,9.421282768249512,-0.21041803061962128,2.942106008529663,1.13729989528656,-0.6486160159111023, 0.23492608964443207
4,253615180,0.77385694,0.15093635,-0.57341415,0.22262107,9.379669189453125,-0.2420654147863388,2.932866096496582,1.022017240524292,-0.5902830958366394, 0.17582479119300842
5,253631847,0.77390414,0.15070707,-0.57340163,0.22264433,9.390438079833984,-0.21092072129249573,2.9144716262817383,0.708799421787262,-0.5004337430000305, 0.11327855288982391
6,253648514,0.77381045,0.15081881,-0.57339114,0.2229209,9.407951354980469,-0.2287530153989792,2.932713747024536,0.6066943407058716,-0.534165620803833, 0.2632024884223938
7,253665181,0.7737845,0.150771,-0.5734374,0.22292426,9.421512603759766,-0.23269499838352203,2.956859588623047,0.6581759452819824,-0.5854551196098328, 0.13668856024742126
8,253681848,0.7737158,0.15090019,-0.57341313,0.22313768,9.428159713745117,-0.2270645648241043,2.9369332790374756,0.8387583494186401,-0.5915509462356567, 0.04061534255743027
9,253698515,0.773682,0.150968,-0.57341695,0.22319949,9.428077697753906,-0.20164941251277924,2.9523608684539795,0.9757989645004272,-0.5427971482276917, -0.08814609795808792
10,253715182,0.7736617,0.15107003,-0.5734024,0.22323827,9.442032814025879,-0.2189679890871048,2.9306325912475586,1.0478858947753906,-0.497898131608963, -0.1224927306175232
11,253731849,0.7736419,0.1511601,-0.573405,0.22323915,9.410239219665527,-0.19405528903007507,2.9074604511260986,1.4010980129241943,-0.4685843288898468, -0.0517120398581028
12,253748516,0.7735193,0.1515033,-0.5733456,0.22358362,9.45057201385498,-0.1844777911901474,2.937894582748413,1.032159686088562,-0.3484991788864136, -0.010654882527887821
13,253765183,0.77348864,0.15167698,-0.5732971,0.22369635,9.451957702636719,-0.16707953810691833,2.9489076137542725,1.0260510444641113,-0.05566919967532158, 0.007677406072616577
14,253781850,0.7735174,0.15173164,-0.57325524,0.22366726,9.431059837341309,-0.19685590267181396,2.919680118560791,0.6188220381736755,0.13047750294208527, 0.028385275974869728
15,253798517,0.77351725,0.15184401,-0.5732069,0.22371481,9.405696868896484,-0.25464382767677307,2.9141690731048584,0.7911314368247986,0.10494162887334824, 0.06723973900079727
16,253815184,0.7735353,0.1518521,-0.57320225,0.22365913,9.415861129760742,-0.27341192960739136,2.9285635948181152,1.0208901166915894,-0.0018953395774587989, 0.15361855924129486
17,253831851,0.7733434,0.15239045,-0.5730647,0.22430837,9.427230834960938,-0.23158004879951477,2.9444620609283447,1.2934478521347046,-0.07600568234920502, 0.033136434853076935
18,253848518,0.7736031,0.15176558,-0.5732415,0.22338314,9.420943260192871,-0.19065386056900024,2.959296226501465,1.379019856452942,-0.15016724169254303, 0.01866525411605835
19,253865185,0.7735588,0.1519724,-0.5731955,0.22351338,9.41620922088623,-0.229172945022583,2.9266774654388428,1.3179590702056885,-0.17923767864704132, -0.2501080334186554
20,253881852,0.7740876,0.15066996,-0.5735692,0.2215977,9.41818904876709,-0.2987232208251953,2.96402907371521,1.7113447189331055,-0.34706491231918335, -0.14796458184719086
21,253898519,0.7742633,0.15023802,-0.573723,0.22087748,9.428811073303223,-0.183156818151474,2.969766616821289,1.4339206218719482,-0.4674445390701294, -0.24288523197174072
22,253915186,0.77427036,0.1502208,-0.57378334,0.22070797,9.453798294067383,-0.1656237244606018,2.9891269207000732,0.9671548008918762,-0.6156781315803528, -0.3317357301712036
23,253931853,0.77373976,0.15153778,-0.5735604,0.22224209,9.460509300231934,-0.25537776947021484,3.041576862335205,0.48361262679100037,-1.202990174293518, -0.6809136271476746
24,253948520,0.7732302,0.15287594,-0.5732746,0.22383107,9.494063377380371,-0.19572608172893524,2.934971570968628,0.9156219959259033,-0.8450396656990051, -0.6060603857040405
25,253965187,0.77337354,0.15259558,-0.5733175,0.22341695,9.416973114013672,-0.16802094876766205,3.0781917572021484,0.12881265580654144,0.050911638885736465, -0.27287769317626953
26,253981854,0.7732833,0.1528368,-0.5732769,0.22366865,9.51858901977539,-0.04991653561592102,2.8152973651885986,-0.02746962197124958,-0.507105827331543, -0.3139604926109314
27,253998521,0.77333444,0.15282317,-0.57321465,0.22366053,9.43730354309082,-0.1096930056810379,2.9182066917419434,-0.05336405709385872,0.3771405816078186, -0.034756433218717575
28,254015188,0.7727122,0.15446837,-0.5728075,0.2257148,9.391962051391602,-0.260976105928421,2.784303903579712,1.0735243558883667,-0.4439065456390381, -0.1692103147506714
29,254031855,0.77237153,0.15543501,-0.57250834,0.22697227,9.376611709594727,-0.25549769401550293,2.932011127471924,1.6911616325378418,0.23461870849132538, 0.3122636079788208
30,254048522,0.77240175,0.15551446,-0.5724168,0.22704662,9.46915340423584,-0.17034058272838593,2.9477319717407227,1.3870491981506348,0.49908262491226196, 0.1478557139635086
31,254065189,0.7725561,0.15532199,-0.5723684,0.22677438,9.46179485321045,-0.22204044461250305,2.9469802379608154,1.1005969047546387,0.7569641470909119, 0.08607788383960724
32,254081856,0.77230996,0.15616794,-0.57202697,0.22789055,9.4403715133667,-0.23716971278190613,2.9363772869110107,1.2276614904403687,0.8416397571563721, 0.018857350572943687
33,254098523,0.77248067,0.1560113,-0.571942,0.22763252,9.40776252746582,-0.1831539124250412,2.9599621295928955,1.2440409660339355,0.9812289476394653, -0.13529908657073975
34,254115190,0.77246827,0.15625432,-0.5717656,0.2279513,9.336808204650879,-0.17191660404205322,2.9232521057128906,0.6227536201477051,0.837733805179596, -0.11569257080554962
35,254131857,0.77219445,0.15712926,-0.57142156,0.22913659,9.38268756866455,-0.19066229462623596,2.9338226318359375,0.6403750777244568,0.7863419055938721, -0.03337334468960762
36,254148524,0.7721655,0.15736619,-0.571261,0.22947218,9.43954849243164,-0.1843196451663971,3.0009491443634033,0.7042275667190552,0.7144598960876465, 0.060542017221450806
37,254165191,0.7723038,0.15716602,-0.571201,0.22929274,9.45881175994873,-0.18444932997226715,2.9807474613189697,0.23027737438678741,0.8691477179527283, 0.20385786890983582
38,254181858,0.7728483,0.15594286,-0.5714452,0.22767892,9.439492225646973,-0.2700215280056,2.972994089126587,0.41393324732780457,0.6639004349708557, 0.09537529200315475
39,254198525,0.77285963,0.15607351,-0.5713452,0.22780234,9.345707893371582,-0.23366715013980865,2.917309522628784,1.3283578157424927,0.42501071095466614, 0.0018889365019276738
40,254215192,0.7729224,0.15601948,-0.5713277,0.22767015,9.338644981384277,-0.20614629983901978,2.913486957550049,1.3971664905548096,0.16665545105934143, 0.06084936857223511
41,254231859,0.77368194,0.15418735,-0.5718043,0.22512758,9.3531494140625,-0.22843793034553528,2.906445264816284,1.4840445518493652,0.0779842659831047, 0.09324942529201508
42,254248526,0.7736035,0.15443632,-0.57175004,0.2253644,9.359929084777832,-0.30047592520713806,2.9183242321014404,1.6009153127670288,-0.18999500572681427, 0.038143713027238846
43,254265193,0.7731195,0.15573834,-0.571433,0.22692785,9.377886772155762,-0.2658514380455017,3.0121304988861084,2.1224284172058105,-0.385189414024353, -0.21008817851543427
44,254281860,0.772924,0.15627028,-0.57135916,0.22741362,9.467849731445312,-0.19193853437900543,3.0132668018341064,1.7505959272384644,-0.6838206052780151, -0.4147080183029175
45,254298527,0.77224356,0.15805689,-0.5709319,0.22955362,9.480772018432617,-0.19234398007392883,3.047400712966919,1.2988263368606567,-0.6261921525001526, -0.760581910610199
46,254315194,0.77226233,0.15806013,-0.57102716,0.22925098,9.448351860046387,-0.1570979207754135,3.0185465812683105,1.1035807132720947,-0.9005041122436523, -0.8721123933792114
47,254331861,0.7721479,0.15836273,-0.5710374,0.22940223,9.404808044433594,-0.09963168203830719,2.9916224479675293,0.8924168348312378,-0.8893113136291504, -0.7146455645561218
48,254348528,0.77171266,0.1593949,-0.5708486,0.2306184,9.414132118225098,-0.11716001480817795,2.9372410774230957,0.5747553706169128,-0.9258221983909607, -0.42815467715263367
49,254365195,0.77147585,0.15992476,-0.57078916,0.2311905,9.417268753051758,-0.16505131125450134,2.889105796813965,0.7723957300186157,-0.8426193594932556, -0.21864280104637146
50,254381862,0.7723993,0.15755185,-0.5715182,0.22791152,9.428213119506836,-0.1341637372970581,2.929701566696167,1.0698682069778442,-0.6762841939926147, 0.15092283487319946
51,254398529,0.772189,0.157971,-0.5714396,0.22853035,9.465811729431152,-0.0382554829120636,2.9960789680480957,0.70304936170578,-0.39571622014045715, 0.5177030563354492
52,254415196,0.77196246,0.15839705,-0.5713182,0.22930321,9.481966972351074,-0.03468170017004013,2.958523750305176,0.19703207910060883,-0.058460984379053116, 0.934831440448761
53,254431863,0.7718804,0.15846612,-0.5712616,0.22967267,9.451027870178223,-0.13416360318660736,2.956087112426758,-0.05587410181760788,0.22848445177078247, 1.150644063949585
54,254448530,0.77184504,0.1584151,-0.5712339,0.22989562,9.359848022460938,-0.2465154230594635,2.8867039680480957,-0.07226622849702835,0.26622480154037476, 1.2099504470825195
55,254465197,0.77161986,0.15889116,-0.57106894,0.2307309,9.34169864654541,-0.3056585490703583,2.8866019248962402,0.7402135133743286,0.18495571613311768, 1.0253725051879883
56,254481864,0.7717388,0.15861045,-0.57110894,0.23042725,9.428910255432129,-0.24067963659763336,2.9135208129882812,0.8432276844978333,0.23440101742744446, 0.5021305680274963
57,254498531,0.7717099,0.15869507,-0.5710612,0.23058364,9.393860816955566,-0.3620525598526001,2.9937407970428467,0.9216281771659851,0.12485549598932266, 0.39892417192459106
58,254515198,0.7719098,0.1582153,-0.5712061,0.22988439,9.394582748413086,-0.22225722670555115,2.974144697189331,0.9182215929031372,-0.17846928536891937, 0.0444188192486763
59,254531865,0.77224654,0.15739714,-0.5714573,0.22868817,9.362406730651855,-0.2718169689178467,2.9508960247039795,0.6551023721694946,-0.28746411204338074, -0.18493647873401642
60,254548532,0.7721375,0.15770297,-0.5714185,0.22894202,9.374454498291016,-0.2721724808216095,2.9574296474456787,1.0025004148483276,-0.46406370401382446, -0.3461172580718994
61,254565199,0.77214575,0.15771717,-0.5714975,0.22870703,9.405987739562988,-0.26206764578819275,2.938286781311035,1.3276535272598267,-0.7795864939689636, -0.5844433307647705
62,254581866,0.7719441,0.15828954,-0.57145464,0.22909911,9.423517227172852,-0.19601289927959442,2.944246292114258,1.7345623970031738,-1.0522338151931763, -0.9535225033760071
63,254598533,0.7717379,0.15881704,-0.5714472,0.22944735,9.427851676940918,-0.20542125403881073,2.970736265182495,1.6871150732040405,-1.2432148456573486, -0.8333220481872559
64,254615200,0.7718398,0.15860222,-0.5716459,0.22875696,9.451690673828125,-0.08576127141714096,2.9327151775360107,2.04219651222229,-1.2532294988632202, -0.8877361416816711
65,254631867,0.77168095,0.15897089,-0.5716444,0.22904041,9.46521282196045,-0.07435669004917145,2.969494342803955,1.1078325510025024,-0.9201490879058838, -0.42855170369148254
66,254648534,0.771931,0.15827657,-0.5719156,0.22799942,9.441058158874512,-0.07091928273439407,2.950618028640747,0.6203331351280212,-0.7294240593910217, -0.12703898549079895
67,254665201,0.7718568,0.15836313,-0.57194215,0.22812396,9.42937183380127,-0.17317426204681396,2.914973735809326,0.5818884372711182,-0.49912744760513306, 0.30301740765571594
68,254681868,0.7715528,0.1589952,-0.5717859,0.22910191,9.410967826843262,-0.12033580243587494,2.919891119003296,0.1688709259033203,-0.23033501207828522, 0.6175798177719116
69,254698535,0.7715584,0.15879485,-0.5718428,0.22908023,9.487919807434082,-0.15860900282859802,2.9111006259918213,0.10564597696065903,-0.08015494048595428, 1.1114566326141357
70,254715202,0.7715614,0.1586077,-0.5718846,0.22909568,9.495033264160156,-0.1434122920036316,3.0197062492370605,-0.06695160269737244,0.021546686068177223, 1.1160670518875122
71,254731869,0.77140695,0.1588577,-0.5717805,0.22970134,9.389985084533691,-0.17963500320911407,2.8866217136383057,0.17002348601818085,0.21216918528079987, 1.135174036026001
72,254748536,0.7712939,0.15898615,-0.5716972,0.23019935,9.382899284362793,-0.30505791306495667,2.920579195022583,0.15915091335773468,0.3235076069831848, 1.3500133752822876
73,254765203,0.7712596,0.15891789,-0.57163805,0.23050772,9.40726375579834,-0.15923061966896057,2.9155116081237793,0.3301413357257843,0.5708622336387634, 1.6472233533859253
74,254781870,0.77133244,0.15863565,-0.5715906,0.23057622,9.59422492980957,-0.16735708713531494,2.95306396484375,-0.45179519057273865,0.9809343814849854, 1.507749080657959
75,254798537,0.7712482,0.1588079,-0.57140785,0.23119159,9.472187995910645,-0.14648181200027466,3.079289674758911,-0.787091076374054,1.0664423704147339, 1.088174819946289
76,254815204,0.7716115,0.15807292,-0.5714636,0.23034327,9.431234359741211,-0.12273779511451721,2.946035861968994,-0.3468855619430542,1.1522191762924194, 0.1377514898777008
77,254831871,0.7717691,0.15773219,-0.57142675,0.23014054,9.334856986999512,-0.40954944491386414,2.9327304363250732,-0.6589123010635376,1.0190589427947998, 0.5934655070304871
78,254848538,0.7717177,0.15782575,-0.57133573,0.23047414,9.324088096618652,-0.35877376794815063,2.9266865253448486,0.5790326595306396,0.45123809576034546, 0.8973985910415649
79,254865205,0.771718,0.15779741,-0.5712831,0.23062274,9.345829010009766,-0.2285155951976776,2.9171838760375977,0.2744464874267578,0.4179544150829315, 0.7056618332862854
80,254881872,0.77147424,0.15833855,-0.5711045,0.23150817,9.391647338867188,-0.29509875178337097,2.929368257522583,0.447613924741745,0.15573160350322723, 0.6956473588943481
81,254898539,0.7716011,0.15799291,-0.57118183,0.23113094,9.431787490844727,-0.28914541006088257,3.0115320682525635,0.8849763870239258,0.06285996735095978, 0.5579918026924133
82,254915206,0.7714533,0.15838557,-0.57107234,0.23162538,9.420234680175781,-0.2617582082748413,3.0191569328308105,0.9659508466720581,-0.08941392600536346, 0.05995292589068413
83,254931873,0.77159715,0.15806071,-0.5711953,0.2310644,9.37427806854248,-0.3355000615119934,2.9768764972686768,1.0767771005630493,-0.37498268485069275, -0.209896057844162
84,254948540,0.7717338,0.15775865,-0.5713575,0.23041235,9.376692771911621,-0.324984073638916,2.9388890266418457,1.4949941635131836,-0.763437807559967, -0.5207830667495728
85,254965207,0.7717983,0.15765545,-0.57147163,0.22998369,9.425844192504883,-0.25071951746940613,2.954211950302124,1.6465187072753906,-0.8227695226669312, -0.6673900485038757
86,254981874,0.7716402,0.15808052,-0.57146496,0.23023877,9.433500289916992,-0.17170152068138123,2.9958343505859375,1.3964236974716187,-1.0246104001998901, -0.8196063041687012
87,254998541,0.7714203,0.15869546,-0.57139033,0.23073776,9.47396183013916,-0.2038862705230713,2.9761548042297363,1.4100748300552368,-0.9038464426994324, -0.9013875722885132
88,255015208,0.7711408,0.15949024,-0.5712628,0.23143813,9.417604446411133,-0.2498350292444229,2.9604880809783936,1.8856005668640137,-0.8974049091339111, -0.9440072774887085
89,255031875,0.7712945,0.15926054,-0.5714276,0.23067582,9.380311012268066,-0.26584967970848083,2.909637689590454,2.358769416809082,-0.9643437266349792, -1.1401622295379639
90,255048542,0.77103966,0.16006209,-0.57130426,0.23127806,9.354247093200684,-0.24995540082454681,2.9145193099975586,2.842247486114502,-0.9683520197868347, -1.1165599822998047
91,255065209,0.77103007,0.16027226,-0.57134825,0.23105629,9.387279510498047,-0.29330745339393616,2.9025158882141113,3.0581114292144775,-0.9886757731437683, -1.167503833770752
92,255081876,0.77089417,0.1608393,-0.57128596,0.23126921,9.397900581359863,-0.25537848472595215,2.9466230869293213,3.444812297821045,-0.9448269009590149, -1.2791622877120972
93,255098543,0.7710328,0.16067529,-0.57145685,0.23049738,9.40517807006836,-0.185015469789505,2.977627754211426,3.056638717651367,-1.1650704145431519, -1.3304132223129272
94,255115210,0.7710161,0.1608702,-0.5715046,0.2302993,9.428016662597656,-0.16722549498081207,2.9769675731658936,2.5231776237487793,-0.9758566617965698, -1.1512268781661987
95,255131877,0.77092004,0.16126607,-0.5714935,0.230371,9.487756729125977,-0.07437052577733994,2.956244945526123,2.451667070388794,-0.9617952108383179, -1.183831810951233
96,255148544,0.7708177,0.1616944,-0.57145536,0.23050758,9.537165641784668,-0.01393614150583744,2.989497184753418,1.8967167139053345,-0.8074916005134583, -1.2985126972198486
97,255165211,0.7708643,0.16171935,-0.5715056,0.23020977,9.439665794372559,-0.08529598265886307,3.0317397117614746,1.0648159980773926,-0.5859161615371704, -1.119364619255066
98,255181878,0.77082056,0.161924,-0.5715032,0.23021854,9.442286491394043,-0.0936405286192894,2.9375598430633545,1.3044227361679077,-0.5832011103630066, -0.7528852224349976
99,255198545,0.77078915,0.16203943,-0.57150143,0.2302465,9.408166885375977,-0.08402260392904282,2.9088094234466553,0.853255033493042,-0.37495705485343933, -0.32898229360580444
100,255215212,0.7708914,0.16175239,-0.5715999,0.22986105,9.472418785095215,-0.18328280746936798,2.8533108234405518,1.329382300376892,-0.2678576409816742, 0.3664216995239258
101,255231879,0.7709519,0.16163307,-0.5716012,0.22973922,9.405014991760254,-0.0035202435683459044,3.010111093521118,1.152616262435913,0.14964862167835236, 0.3506186902523041
102,255248546,0.7710855,0.16124247,-0.57165354,0.229435,9.43333625793457,-0.11809754371643066,2.8918354511260986,0.44047442078590393,0.3620867133140564, 0.9006321430206299
103,255265213,0.77081907,0.1618424,-0.5714057,0.23052269,9.523780822753906,-0.12548960745334625,3.0357582569122314,0.3365572988986969,0.5331987738609314, 1.0652514696121216
104,255281880,0.7708939,0.1616797,-0.5713203,0.23059884,9.46794605255127,-0.04468629136681557,3.0555803775787354,-0.21218839287757874,0.9728535413742065, 0.841357946395874
105,255298547,0.7709043,0.16163936,-0.5712089,0.23086727,9.426045417785645,-0.19953078031539917,2.8898465633392334,-0.7974385023117065,0.899882972240448, 0.8110965490341187
106,255315214,0.77084273,0.16181327,-0.5710253,0.23140456,9.402053833007812,-0.3009302318096161,2.9110214710235596,-0.029736345633864403,0.9871070384979248, 0.9262001514434814
107,255331881,0.7708904,0.16175157,-0.5709332,0.2315164,9.333795547485352,-0.24183480441570282,2.941537618637085,0.047453928738832474,0.7835245728492737, 0.522415816783905
108,255348548,0.77095073,0.16164608,-0.57086945,0.23154655,9.355530738830566,-0.3329060673713684,2.883615493774414,0.40176716446876526,0.6437302827835083, 0.5641900897026062
109,255365215,0.7706064,0.16259089,-0.57054216,0.23283446,9.373745918273926,-0.32388997077941895,2.9245848655700684,1.3274868726730347,0.34698158502578735, 0.20971037447452545
110,255381882,0.7705302,0.16288286,-0.5704123,0.23320025,9.409684181213379,-0.20476801693439484,2.9623124599456787,1.5942431688308716,0.23988214135169983, 0.12933772802352905
111,255398549,0.77062553,0.1627334,-0.57040477,0.23300773,9.48481559753418,-0.15743355453014374,3.015596389770508,0.9631719589233398,0.27792978286743164, 0.09086745232343674
112,255415216,0.7705832,0.16291742,-0.5703182,0.23323113,9.47217845916748,-0.12465214729309082,3.0410382747650146,0.6422192454338074,0.14675436913967133, -0.1212761327624321
113,255431883,0.7706695,0.16276413,-0.57033104,0.2330215,9.401566505432129,-0.13447275757789612,3.0124330520629883,0.3432934284210205,0.1201043426990509, -0.09964619576931
114,255448550,0.7706511,0.16286033,-0.5702703,0.23316364,9.412498474121094,-0.23122325539588928,2.86726713180542,0.3402070701122284,0.1337687224149704, -0.04094189777970314
115,255465217,0.7706931,0.1628563,-0.5702371,0.23310907,9.334153175354004,-0.2719578146934509,2.9170682430267334,1.388547658920288,0.13257774710655212, 0.002503641415387392
116,255481884,0.77070564,0.16291164,-0.5701966,0.2331277,9.356921195983887,-0.1961953043937683,2.907656669616699,1.7233953475952148,0.04738989844918251, 0.09155900031328201
117,255498551,0.77070093,0.16301042,-0.57016003,0.23316391,9.4468994140625,-0.20737972855567932,2.951714038848877,1.906692624092102,-0.0879283919930458, 0.005077717360109091
118,255515218,0.7706978,0.16310352,-0.57012784,0.23318756,9.435872077941895,-0.17647647857666016,2.986400604248047,1.7960330247879028,-0.10930220782756805, -0.047690846025943756
119,255531885,0.7708193,0.16289608,-0.57018024,0.23280296,9.391225814819336,-0.182477205991745,2.996889352798462,1.5701289176940918,-0.0959835946559906, -0.13018935918807983
120,255548552,0.77074933,0.16310191,-0.570153,0.23295681,9.378907203674316,-0.19528955221176147,2.974001407623291,1.196068286895752,-0.41180098056793213, -0.24095149338245392
121,255565219,0.7706471,0.16336145,-0.5701353,0.23315659,9.39008617401123,-0.22587986290454865,2.983668804168701,1.2356528043746948,-0.6194559931755066, -0.29014068841934204
122,255581886,0.7703567,0.16402386,-0.570053,0.23385152,9.390043258666992,-0.17553289234638214,2.983819007873535,1.3714128732681274,-1.0455360412597656, -0.34096911549568176
123,255598553,0.7703092,0.16406259,-0.5701683,0.2336997,9.417659759521484,-0.18236413598060608,2.974966287612915,1.448148250579834,-1.203130841255188, -0.2872207760810852
124,255615220,0.7702212,0.16422269,-0.57025176,0.23367375,9.436506271362305,-0.12786005437374115,2.9985291957855225,1.6533702611923218,-1.2331233024597168, -0.3866877555847168
125,255631887,0.7697955,0.16520683,-0.5700883,0.23477878,9.475919723510742,-0.13912852108478546,2.960242986679077,1.7511787414550781,-1.167222023010254, -0.2955833673477173
126,255648554,0.7696504,0.16551752,-0.57010835,0.23498677,9.420950889587402,-0.11089324951171875,3.0020740032196045,1.626322865486145,-1.0780127048492432, -0.30614855885505676
127,255665221,0.7695022,0.16585703,-0.57007474,0.23531407,9.384703636169434,-0.09708055108785629,2.8841066360473633,1.2724964618682861,-0.7065263390541077, -0.1695176512002945
128,255681888,0.76937306,0.1660778,-0.57005,0.23564056,9.448259353637695,-0.24373555183410645,2.893784761428833,0.9340758919715881,-0.4905984103679657, 0.3783571720123291
129,255698555,0.76948994,0.16582806,-0.57011855,0.23526862,9.411636352539062,-0.035926319658756256,2.965132236480713,1.2741998434066772,-0.1340312510728836, 0.0772671177983284
130,255715222,0.7694879,0.16573742,-0.5701319,0.23530656,9.519610404968262,-0.2866876423358917,2.8880057334899902,0.728918194770813,-0.05688580498099327, 0.7679007649421692
131,255731889,0.7694215,0.1659349,-0.5700559,0.23556884,9.47768783569336,-0.09082808345556259,3.066267490386963,1.6752307415008545,-0.01964494213461876, 0.30153191089630127
132,255748556,0.7694768,0.16584073,-0.57003266,0.23551027,9.314779281616211,-0.12468089163303375,2.986783981323242,0.5086233615875244,0.2509596049785614, 0.1881188601255417
133,255765223,0.7695162,0.16569681,-0.570051,0.23543823,9.444814682006836,-0.28178009390830994,2.8068811893463135,0.8923400044441223,0.017551099881529808, 0.6145702600479126
134,255781890,0.76951224,0.16573183,-0.5700132,0.23551857,9.418670654296875,-0.1926061511039734,3.0419108867645264,1.5682721138000488,0.0505402572453022, 0.40822160243988037
135,255798557,0.7697998,0.16504233,-0.5701935,0.23462488,9.394567489624023,-0.11520393937826157,2.969564437866211,0.6565878391265869,-0.009271795861423016, 0.16134080290794373
136,255815224,0.76984894,0.16492438,-0.5702078,0.23451152,9.462064743041992,-0.24770599603652954,2.9075028896331787,0.7528020739555359,-0.012178837321698666, 0.23064874112606049
137,255831891,0.7699472,0.16474347,-0.57024133,0.2342345,9.441444396972656,-0.16557921469211578,3.0212619304656982,1.2113717794418335,-0.024396097287535667, 0.01641133800148964
138,255848558,0.7697128,0.16537528,-0.5700369,0.23505585,9.389081001281738,-0.20073553919792175,2.90975284576416,0.8877041339874268,-0.0026893331669270992, -0.08590499311685562
139,255865225,0.76988745,0.16501328,-0.57014424,0.23447736,9.379779815673828,-0.2692563235759735,2.9229044914245605,1.2389440536499023,-0.20415882766246796, -0.17622818052768707
140,255881892,0.7699888,0.16487053,-0.5701808,0.23415552,9.402944564819336,-0.18922623991966248,2.9893031120300293,1.7841615676879883,-0.1526901125907898, -0.21272629499435425
141,255898559,0.7699749,0.16498508,-0.5701608,0.23416927,9.494049072265625,-0.1559031754732132,2.9519381523132324,1.2071071863174438,-0.2948661744594574, -0.3997245728969574
142,255915226,0.77000177,0.16504367,-0.5701328,0.2341079,9.478035926818848,-0.18430101871490479,3.0248658657073975,1.2649279832839966,-0.09568905085325241, -0.4429844617843628
143,255931893,0.769669,0.16600728,-0.5698374,0.2352373,9.432544708251953,-0.1221032366156578,2.9882733821868896,1.0833722352981567,-0.06018983572721481, -0.6540073752403259
144,255948560,0.7696569,0.16617946,-0.56976753,0.23532452,9.364240646362305,-0.17054113745689392,2.9111616611480713,0.8422031402587891,-0.02740558795630932, -0.6177014708518982
145,255965227,0.7697051,0.1662223,-0.56970555,0.23528667,9.359216690063477,-0.16437898576259613,2.934098482131958,0.7740477323532104,0.2186235934495926, -0.49451717734336853
146,255981894,0.7696096,0.16659872,-0.56953543,0.23574445,9.371429443359375,-0.13083554804325104,2.907606840133667,0.6011236906051636,0.30743563175201416, -0.37694206833839417
147,255998561,0.7696835,0.1665467,-0.56949794,0.23563045,9.436333656311035,-0.2217044234275818,2.956709384918213,0.9311689734458923,0.24258428812026978, -0.22397024929523468
148,256015228,0.7694749,0.16717488,-0.569284,0.23638234,9.501193046569824,-0.24229811131954193,3.001228094100952,1.5863291025161743,0.04653187468647957, -0.20755252242088318
149,256031895,0.7689174,0.16868156,-0.5687958,0.23829421,9.438970565795898,-0.10586707293987274,3.0267550945281982,1.625362753868103,0.15707626938819885, -0.35990968346595764
150,256048562,0.7689451,0.16875607,-0.5687151,0.23834474,9.409822463989258,-0.09539856016635895,2.9324941635131836,0.9646319150924683,0.2817716896533966, -0.26994502544403076
151,256065229,0.76901054,0.16872127,-0.5686475,0.23831879,9.412073135375977,-0.14079487323760986,2.932711362838745,0.6993098855018616,0.442952424287796, -0.07893833518028259
152,256081896,0.76892275,0.16902635,-0.56848025,0.2387842,9.395973205566406,-0.16876837611198425,2.94507098197937,0.632140576839447,0.4345386326313019, 0.04078181833028793
153,256098563,0.76897174,0.16895308,-0.5684563,0.23873626,9.424175262451172,-0.18914560973644257,2.9886221885681152,0.6771805882453918,0.1810113489627838, 0.12976035475730896
154,256115230,0.76909363,0.16872887,-0.5684883,0.23842525,9.461700439453125,-0.15017719566822052,3.0052859783172607,0.8747056722640991,0.08431059867143631, -0.04574427753686905
155,256131897,0.7692171,0.16852643,-0.56850207,0.23813717,9.44304084777832,-0.13131491839885712,2.9671077728271484,0.8941841125488281,0.17736153304576874, -0.10493522882461548
156,256148564,0.769192,0.16868924,-0.56839824,0.23835094,9.422904014587402,-0.14630265533924103,2.970155954360962,0.9644526243209839,0.2520737648010254, -0.06960251182317734
157,256165231,0.76922315,0.16871908,-0.56833017,0.2383913,9.362405776977539,-0.15151366591453552,2.9474337100982666,0.9522353410720825,0.2806191146373749, -0.055656395852565765
158,256181898,0.76927686,0.16863592,-0.5683068,0.23833258,9.353577613830566,-0.16684436798095703,2.9355010986328125,0.7750210762023926,0.1906929612159729, 0.15894600749015808
159,256198565,0.7693636,0.16846555,-0.56832093,0.2381401,9.359673500061035,-0.1045394092798233,3.0346384048461914,0.8268483281135559,0.09583631157875061, 0.13157883286476135
160,256215232,0.76911473,0.16892189,-0.56819016,0.23893099,9.485396385192871,-0.2694028615951538,2.9616897106170654,0.2174069881439209,-0.23947873711585999, 0.6542827486991882
161,256231899,0.769044,0.16901498,-0.5681922,0.23908812,9.52381420135498,-0.05958876013755798,3.1153135299682617,1.1539226770401,-0.4548303484916687, 0.36995625495910645
162,256248566,0.7690778,0.16885267,-0.5682515,0.23895308,9.353999137878418,-0.04924079775810242,3.063021659851074,-0.31766149401664734,-0.2924201786518097, 0.11106306314468384
163,256265233,0.768834,0.16929923,-0.5681583,0.23964196,9.409481048583984,-0.24381865561008453,2.8298635482788086,0.12584158778190613,-0.5391345024108887, 0.32761842012405396
164,256281900,0.7691534,0.16845532,-0.56842583,0.23857483,9.403411865234375,-0.2145538628101349,2.976475715637207,0.9699913263320923,-0.35573479533195496, 0.4801868498325348
165,256298567,0.76910263,0.16851074,-0.5684188,0.23871632,9.382970809936523,-0.09045368432998657,2.930406332015991,0.7777743935585022,-0.2928299903869629, 0.35567712783813477
166,256315234,0.7691062,0.16845867,-0.56841373,0.23875351,9.441834449768066,-0.23187355697155,2.9366440773010254,0.729558527469635,-0.04726823419332504, 0.45201924443244934
167,256331901,0.7692978,0.1680008,-0.56852317,0.23819745,9.406362533569336,-0.19044794142246246,2.9751813411712646,1.1971440315246582,-0.00796554982662201, 0.3762185573577881
168,256348568,0.7691515,0.16832362,-0.5684057,0.23872216,9.427200317382812,-0.13081416487693787,2.976599931716919,0.948790431022644,-0.036613356322050095, 0.41709643602371216
169,256365235,0.76909506,0.16844676,-0.56833905,0.2389752,9.44619369506836,-0.17004507780075073,2.974757194519043,0.7365123629570007,0.030869703739881516, 0.3215354084968567
170,256381902,0.7690888,0.16847986,-0.5682914,0.23908533,9.38093090057373,-0.14992043375968933,2.999255418777466,1.0040881633758545,0.08924104273319244, 0.2935919165611267
171,256398569,0.7690059,0.1686475,-0.568237,0.23936322,9.407288551330566,-0.18251173198223114,2.9560320377349854,0.7443882822990417,-0.18072320520877838, 0.23274900019168854
172,256415236,0.76902956,0.16859244,-0.56824815,0.23929937,9.427057266235352,-0.22816045582294464,3.0150794982910156,1.183172345161438,-0.18327169120311737, 0.18432821333408356
173,256431903,0.7687406,0.16929637,-0.5680446,0.24021211,9.402558326721191,-0.1510663628578186,3.011064291000366,1.0077636241912842,-0.2733387053012848, -0.06957690417766571
174,256448570,0.76897746,0.16871761,-0.5682452,0.23938592,9.433566093444824,-0.2126065045595169,2.977343797683716,1.0831674337387085,-0.46279579401016235, -0.001408698270097375
175,256465237,0.76899815,0.16865847,-0.5682987,0.23923378,9.402629852294922,-0.1761539876461029,3.025475025177002,1.2269699573516846,-0.5279033780097961, -0.06939761340618134
176,256481904,0.7689864,0.16868408,-0.56833446,0.23916873,9.364554405212402,-0.12981997430324554,2.9660308361053467,1.0993801355361938,-0.5893226265907288, -0.21629923582077026
177,256498571,0.7687641,0.16919738,-0.56822264,0.23978548,9.396272659301758,-0.2205216884613037,2.9190406799316406,1.075304388999939,-0.5701002478599548, -0.1290367841720581
178,256515238,0.76863796,0.16947506,-0.56820333,0.24003945,9.47327709197998,-0.24481406807899475,2.9678804874420166,1.5642890930175781,-0.7593652606010437, -0.11902221292257309
179,256531905,0.76832336,0.17024527,-0.5680341,0.24090067,9.451866149902344,-0.10753784328699112,3.01322078704834,1.7288763523101807,-0.7412570714950562, -0.3438248336315155
180,256548572,0.7682673,0.17039044,-0.56804484,0.24095187,9.41677188873291,-0.11640870571136475,2.9808719158172607,1.1172195672988892,-0.6806318759918213, -0.389056921005249
181,256565239,0.7682376,0.1704962,-0.56805754,0.24094144,9.380626678466797,-0.1835154891014099,2.935136556625366,1.4260318279266357,-0.6067264676094055, -0.3566184341907501
182,256581906,0.76814073,0.17075871,-0.568028,0.24113409,9.370012283325195,-0.19017285108566284,2.930562973022461,1.5186729431152344,-0.6459265947341919, -0.3553377687931061
183,256598573,0.7679539,0.17121907,-0.56793714,0.24161619,9.41129207611084,-0.1659703552722931,2.9593048095703125,1.6251577138900757,-0.6344265341758728, -0.23453548550605774
184,256615240,0.76805365,0.17101146,-0.56803393,0.24121796,9.431025505065918,-0.08719242364168167,2.959981679916382,1.329817771911621,-0.5207318067550659, -0.25579404830932617
185,256631907,0.76826036,0.17056203,-0.56818306,0.24052583,9.442096710205078,-0.14714036881923676,2.989461898803711,1.1583408117294312,-0.35440292954444885, -0.21440389752388
186,256648574,0.7682961,0.17055741,-0.5681829,0.24041557,9.413840293884277,-0.14446941018104553,2.9466264247894287,1.518327236175537,-0.2317308932542801, -0.23299872875213623
187,256665241,0.7682891,0.1706296,-0.5681682,0.2404211,9.351839065551758,-0.187217578291893,2.9593007564544678,1.4509273767471313,-0.3014870882034302, -0.17948098480701447
188,256681908,0.7685293,0.17011401,-0.56833494,0.23962352,9.358856201171875,-0.18144498765468597,2.895360231399536,1.8500115871429443,-0.35009995102882385, -0.07962988317012787
189,256698575,0.7684497,0.1704427,-0.56820077,0.23996353,9.377442359924316,-0.05401681736111641,2.975696086883545,2.018465995788574,0.04297170042991638, -0.1761513203382492
190,256715242,0.76855034,0.1702231,-0.56824756,0.23968579,9.522577285766602,-0.2115316390991211,2.870087146759033,1.4551278352737427,-0.0893499106168747, 0.2514718770980835
191,256731909,0.76856995,0.17033644,-0.56815237,0.23976824,9.511049270629883,-0.07977588474750519,3.0661721229553223,2.095778465270996,0.25519853830337524, -0.0656837671995163
192,256748576,0.76889044,0.16976099,-0.56823736,0.2389455,9.368379592895508,0.014244033955037594,3.0340077877044678,0.4367924928665161,0.4796426296234131, -0.5280826091766357
193,256765243,0.76886,0.16987829,-0.5681993,0.23905085,9.404806137084961,-0.32041385769844055,2.8751060962677,0.5170243382453918,-0.21244452893733978, -0.3145751655101776
194,256781910,0.7688663,0.16994818,-0.5680912,0.23923773,9.546295166015625,-0.03732454404234886,3.2023940086364746,1.1774990558624268,0.4724070429801941, 0.3074740767478943
195,256798577,0.7692472,0.16914956,-0.5680694,0.23863032,9.770123481750488,0.32231053709983826,3.1977310180664062,-2.0257723331451416,1.9100732803344727, 0.57024747133255
196,256815244,0.77000415,0.16806316,-0.56766045,0.23792915,10.01092529296875,0.36667901277542114,3.3530209064483643,-3.710972547531128,5.781612396240234, 0.16643773019313812
197,256831911,0.7709819,0.16737327,-0.5664931,0.2380312,9.865649223327637,-0.17695403099060059,3.0824716091156006,-1.5939429998397827,10.976434707641602, 0.37998372316360474
198,256848578,0.77149856,0.16769277,-0.5651425,0.23933922,9.343079566955566,0.09227079898118973,3.1307425498962402,2.1625001430511475,9.979819297790527, 1.1129554510116577
199,256865245,0.7720269,0.16712071,-0.56453687,0.2394654,9.12870979309082,0.29370757937431335,2.952854633331299,-0.8333094120025635,6.077254772186279, 1.579215407371521
200,256881912,0.770807,0.16973731,-0.5634869,0.24398436,8.996315002441406,-0.24802593886852264,3.1259255409240723,-2.0573530197143555,1.9687907695770264, 2.669964075088501
201,256898579,0.7702181,0.1699937,-0.5637044,0.24516107,9.002662658691406,-0.750514030456543,3.1216702461242676,-0.8032527565956116,-2.6527459621429443, 4.061002731323242
202,256915246,0.7697119,0.16964658,-0.5643335,0.24554315,9.221441268920898,-0.38706088066101074,3.030346632003784,2.9993176460266113,-4.597416400909424, 6.0018181800842285
203,256931913,0.7691978,0.16918345,-0.5651887,0.24550691,9.371416091918945,0.24420331418514252,3.149017572402954,0.7475771903991699,-6.129145622253418, 4.614211559295654
204,256948580,0.76864177,0.16855799,-0.56616294,0.24543338,9.422386169433594,-0.28667008876800537,3.0096023082733154,-4.326292991638184,-6.629336357116699, 4.0244927406311035
205,256965247,0.7681219,0.16778816,-0.56724024,0.24510114,9.222957611083984,-0.4400334358215332,2.7540550231933594,-3.674846649169922,-7.141424655914307, 4.106132984161377
206,256981914,0.76759654,0.16729698,-0.5681107,0.24506615,9.15829086303711,-0.25822892785072327,2.6584219932556152,-1.0858250856399536,-6.184187412261963, 4.217208385467529
207,256998581,0.7671361,0.1667286,-0.56891334,0.24503379,9.262186050415039,-0.3983984887599945,2.8868565559387207,-3.0219016075134277,-5.392920970916748, 3.8429102897644043
208,257015248,0.7667642,0.16602413,-0.56975496,0.2447209,9.467469215393066,-1.1834636926651,2.915548801422119,-2.915750503540039,-5.396596908569336, 3.428971290588379
209,257031915,0.7664632,0.16567223,-0.5702923,0.24465013,9.382660865783691,-1.1190638542175293,2.6113245487213135,2.745124578475952,-3.8936171531677246, 3.5494277477264404
210,257048582,0.76618975,0.16585636,-0.5705295,0.24482946,9.277968406677246,-0.646777868270874,2.5038528442382812,6.106895446777344,-2.783191680908203, 2.048600196838379
211,257065249,0.76618207,0.16588916,-0.5706611,0.24452372,9.392789840698242,-0.5144099593162537,2.6841530799865723,7.841719627380371,-1.5834671258926392, 0.8996270895004272
212,257081916,0.76612043,0.16678335,-0.570298,0.24495538,9.586625099182129,-0.12011893093585968,3.0220541954040527,8.532751083374023,0.4166610836982727, -1.42765212059021
213,257098583,0.76635754,0.16733575,-0.56997746,0.24458258,9.750855445861816,-0.3206349313259125,3.0646839141845703,7.4144110679626465,0.9143032431602478, -3.463977336883545
214,257115250,0.76574755,0.17035118,-0.5687398,0.24727808,9.742000579833984,0.08172938227653503,3.30265212059021,6.890246868133545,2.454869031906128, -5.226477146148682
215,257131917,0.76689506,0.16965388,-0.568397,0.24497877,9.566285133361816,-0.07225795090198517,3.03372859954834,3.5006866455078125,4.212348937988281, -6.792912006378174
216,257148584,0.7678395,0.16993241,-0.5675508,0.24378684,9.392269134521484,-0.2659834921360016,2.8452835083007812,5.720553874969482,5.91157341003418, -7.573729515075684
217,257165251,0.76853454,0.17060772,-0.56658643,0.24336702,9.31545352935791,-0.3505163788795471,3.043513059616089,4.581031322479248,5.931281566619873, -6.862156867980957
218,257181918,0.76970536,0.17019506,-0.56581724,0.24173993,9.278882026672363,-0.3093486428260803,3.003659725189209,4.717841148376465,7.003340244293213, -5.960589408874512
219,257198585,0.770426,0.17079152,-0.56466013,0.2417293,9.240495681762695,-0.025947315618395805,3.0317771434783936,4.24728536605835,7.693910121917725, -5.230165958404541
220,257215252,0.7711416,0.17099784,-0.5637854,0.241343,9.221890449523926,-0.13253282010555267,3.0198240280151367,2.6172149181365967,6.359038829803467, -4.604971885681152
221,257231919,0.771447,0.17170063,-0.56309545,0.2414789,9.39922046661377,-0.31286391615867615,3.745722770690918,4.922153472900391,3.6023433208465576, -3.671785831451416
222,257248586,0.77126825,0.17326757,-0.56248295,0.24235694,9.545980453491211,0.2005961835384369,3.6716601848602295,6.272697925567627,0.77239590883255, -4.310451984405518
223,257265253,0.771756,0.17252995,-0.5624267,0.24145934,10.1321382522583,0.21756593883037567,4.35748291015625,-10.531818389892578,2.0700254440307617, -3.9526045322418213
224,257281920,0.7737786,0.16718425,-0.56222564,0.23920399,9.947712898254395,0.07580329477787018,4.444023132324219,-52.670509338378906,14.86627197265625, 0.41054385900497437
225,257298587,0.77728856,0.1570137,-0.5628133,0.2332608,9.01662540435791,-0.5392590761184692,2.3222596645355225,-88.90645599365234,20.056270599365234, 0.04855669289827347
226,257315254,0.77920127,0.15318854,-0.56259763,0.22991899,8.373368263244629,-0.7411055564880371,0.8934133052825928,-40.34736251831055,10.850639343261719, -8.435148239135742
227,257331921,0.7797331,0.15368263,-0.56196886,0.22932255,8.575542449951172,-0.28504878282546997,1.9532567262649536,-13.932787895202637,4.06825590133667, -11.922919273376465
228,257348588,0.779311,0.15590933,-0.5613827,0.2306867,8.798965454101562,-0.6368709802627563,2.857996940612793,-13.213017463684082,-0.18178632855415344, -12.359306335449219
229,257365255,0.77983856,0.15496844,-0.5619373,0.22817317,8.880518913269043,-0.8476593494415283,2.7059173583984375,-20.817646026611328,-2.262284755706787, -12.00245475769043
230,257381922,0.77991545,0.15484692,-0.56284326,0.22574738,9.134989738464355,-1.2560206651687622,1.5096126794815063,-10.106142044067383,-7.164174556732178, -11.602283477783203
231,257398589,0.77833414,0.15922359,-0.5632435,0.22715801,9.611055374145508,-1.345177412033081,2.4657821655273438,30.499820709228516,-13.681156158447266, -6.763598918914795
232,257415256,0.77657044,0.16550978,-0.56285495,0.22965083,9.820298194885254,2.0231971740722656,5.262083053588867,45.427860260009766,-11.926420211791992, -9.306732177734375
233,257431923,0.77624846,0.1688224,-0.5624052,0.2294291,9.295804023742676,3.61191987991333,6.093806266784668,17.427993774414062,-4.510353088378906, -14.554749488830566
234,257448590,0.77722025,0.1673061,-0.5629668,0.22584452,8.780451774597168,0.7462747693061829,3.5200107097625732,-22.957338333129883,-1.3224639892578125, -14.031866073608398
235,257465257,0.7772877,0.16804378,-0.5627722,0.22554988,8.662458419799805,-2.072772741317749,2.362739086151123,2.40964937210083,-0.5329362750053406, -5.137460231781006
236,257481924,0.7769576,0.1699497,-0.56228566,0.2264715,7.94183349609375,0.03074445202946663,2.323526382446289,14.839097023010254,-0.8899397253990173, -2.7962305545806885
237,257498591,0.7765202,0.17038535,-0.56252813,0.2270408,7.339625835418701,1.3700506687164307,2.1965503692626953,4.7414164543151855,-3.3065102100372314, 2.0666825771331787
238,257515258,0.7757521,0.16929501,-0.56361014,0.22779745,8.910955429077148,0.3342238664627075,1.8038699626922607,-3.706569194793701,-6.456209659576416, 10.500065803527832
239,257531925,0.774712,0.16810618,-0.5650286,0.22870176,10.5232572555542,-0.01097261905670166,3.6190481185913086,-3.868443250656128,-8.92973518371582, 12.501882553100586
240,257548592,0.773936,0.16649719,-0.5670059,0.2276099,12.266593933105469,-0.4410223960876465,5.601006984710693,-15.233316421508789,-12.535116195678711, 3.670362710952759
241,257565259,0.7733525,0.16601646,-0.5692384,0.22434865,11.187104225158691,-2.1122381687164307,6.199377059936523,-18.136734008789062,-17.46331024169922, -12.24817943572998
242,257581926,0.7734803,0.16694546,-0.5709938,0.21868667,10.399662971496582,-4.16146183013916,5.405740737915039,-19.88979148864746,-17.168079376220703, -32.205387115478516
243,257598593,0.77454156,0.16978543,-0.5716086,0.21100286,11.52521800994873,-5.616893768310547,4.786928653717041,-17.085559844970703,-12.718416213989258, -53.39258575439453
244,257615260,0.77569693,0.17847787,-0.569852,0.20422707,13.339899063110352,-5.884830474853516,4.8868794441223145,20.983198165893555,-7.1985907554626465, -74.73072052001953
245,257631927,0.7757706,0.19383611,-0.5660619,0.20045352,12.453459739685059,-5.813655853271484,5.048596382141113,72.63084411621094,-6.301443099975586, -86.0533447265625
246,257648594,0.7746793,0.21193863,-0.56155324,0.19902825,14.521653175354004,-7.551394462585449,3.461991548538208,99.03663635253906,-7.724827766418457, -83.82080078125
247,257665261,0.7729949,0.23273148,-0.5562922,0.19711465,13.562182426452637,-5.501663684844971,7.197324752807617,113.4903564453125,-10.388911247253418, -97.44322204589844
248,257681928,0.7741575,0.24596016,-0.5514631,0.18992767,11.075557708740234,-3.745123863220215,4.496986389160156,48.08795166015625,-0.13420355319976807, -99.97359466552734
249,257698595,0.7748452,0.24986842,-0.5515117,0.18170218,9.036397933959961,-4.2687296867370605,-5.939293384552002,-10.948578834533691,-17.522098541259766, -61.4990119934082
250,257715262,0.7727739,0.24492653,-0.5572372,0.17977268,9.522504806518555,-14.269487380981445,-4.677518844604492,-36.595699310302734,-35.97483825683594, 18.572050094604492
251,257731929,0.7616663,0.25315037,-0.5596709,0.20627168,8.256146430969238,-16.6046085357666,1.3029875755310059,161.67739868164062,-21.265607833862305, 124.18185424804688
252,257748596,0.7543795,0.24756059,-0.5610468,0.2342054,4.545290470123291,-3.9795029163360596,7.357793807983398,89.8768539428711,20.9471378326416, 176.895263671875
253,257765263,0.7516963,0.22929087,-0.5610271,0.26005185,3.961388349533081,4.501583576202393,6.999286651611328,10.539460182189941,62.45997619628906, 205.07150268554688
254,257781930,0.750775,0.21057309,-0.5563686,0.28714103,4.385752201080322,9.007134437561035,4.54103422164917,18.519121170043945,95.69232940673828, 203.0010223388672
255,257798597,0.75336117,0.19161855,-0.5477189,0.3094085,4.486643314361572,11.80836009979248,6.039982318878174,0.32363325357437134,123.060791015625, 166.33016967773438
256,257815264,0.7580694,0.17019695,-0.53921354,0.32498083,9.526352882385254,9.513349533081055,-1.8733733892440796,-39.66520690917969,126.5022201538086, 137.55174255371094
257,257831931,0.759266,0.17270677,-0.5240159,0.3451013,13.611021995544434,7.290514945983887,-6.423052787780762,120.89466094970703,100.39527893066406, 73.00621032714844
258,257848598,0.75701076,0.18715706,-0.5099645,0.3631021,14.63700008392334,9.065279006958008,-7.643558025360107,176.9081573486328,51.527198791503906, 28.872156143188477
259,257865265,0.7554533,0.18796532,-0.5100749,0.36576402,13.019131660461426,10.857589721679688,-6.411378860473633,15.722491264343262,-4.9089765548706055, 13.774962425231934
260,257881932,0.75420517,0.18052033,-0.5189159,0.35960168,11.018854141235352,6.965982913970947,-4.857488632202148,-80.6181411743164,-39.35633850097656, 7.8672614097595215
261,257898599,0.7512411,0.17731701,-0.5279258,0.3542458,10.133697509765625,3.382391929626465,-4.238996982574463,-54.13592529296875,-55.478294372558594, 1.6966787576675415
262,257915266,0.7465302,0.17958929,-0.5348967,0.35259932,10.407593727111816,1.2462118864059448,-1.3236632347106934,-5.332798004150391,-59.790313720703125, 2.934567451477051
263,257931933,0.74066746,0.18497132,-0.5398959,0.35455585,10.491265296936035,0.6718713045120239,-0.37027043104171753,30.068870544433594,-56.80201721191406, 10.440321922302246
264,257948600,0.73413855,0.19328149,-0.5427002,0.35938752,8.899145126342773,-0.540122926235199,3.274898052215576,61.84680938720703,-51.427337646484375, 13.100080490112305
265,257965267,0.7278157,0.19979839,-0.54576164,0.36401805,9.123517036437988,-1.6029144525527954,2.465327262878418,51.13733673095703,-47.80956268310547, 18.60552978515625
266,257981934,0.7226799,0.20247565,-0.5498195,0.36665517,9.83796501159668,0.046276215463876724,0.826237142086029,20.330791473388672,-41.45778274536133, 21.39849090576172
267,257998601,0.7188672,0.20292754,-0.5542181,0.36727768,9.923036575317383,1.190456509590149,-0.729196310043335,-1.038216233253479,-35.26692581176758, 16.982521057128906
268,258015268,0.71497077,0.20370995,-0.5594641,0.36649585,9.80284595489502,2.492342710494995,-3.7325544357299805,-6.787500858306885,-42.43928909301758, 10.268502235412598
269,258031935,0.70694715,0.21076046,-0.5674644,0.3657734,17.052492141723633,8.154987335205078,-8.277620315551758,23.08402442932129,-87.3333511352539, 0.8447631597518921
270,258048602,0.6973209,0.21662176,-0.5796471,0.36170137,16.007644653320312,1.8149027824401855,10.914041519165039,-3.9925930500030518,-115.31023406982422, -0.3169592618942261
271,258065269,0.6822147,0.22863427,-0.58995193,0.3664236,16.020967483520508,-1.3223453760147095,-0.29610446095466614,73.34410095214844,-130.6286163330078, 28.273120880126953
272,258081936,0.66832954,0.2390639,-0.6012468,0.36699668,11.022908210754395,4.398724555969238,3.1722333431243896,44.73503494262695,-132.72080993652344, 13.694575309753418
273,258098603,0.6568935,0.24395385,-0.6133863,0.3643283,10.121346473693848,-4.714998245239258,-0.6126843094825745,-0.2885414659976959,-117.89276885986328, 17.103036880493164
274,258115270,0.6468172,0.24889374,-0.6230452,0.36262134,9.380509376525879,-6.072923183441162,-0.23737579584121704,7.989226341247559,-99.409912109375, 13.523214340209961
275,258131937,0.6374953,0.25646234,-0.6292378,0.36316243,10.03779411315918,-6.2730607986450195,-1.215909481048584,36.70486831665039,-83.4384765625, 4.238354206085205
276,258148604,0.6291586,0.26526856,-0.6330392,0.36476493,9.746851921081543,-3.428201198577881,-0.510989785194397,50.979923248291016,-69.84993743896484, -3.3624727725982666
277,258165271,0.62180454,0.272882,-0.6368237,0.36517146,9.705462455749512,-1.9429028034210205,-0.7217110395431519,38.88010025024414,-64.66822052001953, -5.952920913696289
278,258181938,0.614768,0.27972928,-0.6410723,0.36446992,10.643608093261719,0.025640277191996574,-0.8432417511940002,28.985124588012695,-65.39501190185547, -7.312405586242676
279,258198605,0.607493,0.28626752,-0.64587355,0.3631126,10.650205612182617,1.101867437362671,-0.04970063269138336,23.866119384765625,-69.25336456298828, -7.028412342071533
280,258215272,0.60006833,0.29226744,-0.6508458,0.3617977,10.252311706542969,1.0592105388641357,-1.3183367252349854,21.667102813720703,-69.2266845703125, -3.6777701377868652
281,258231939,0.593256,0.29725933,-0.6557689,0.3600715,9.614612579345703,0.5281107425689697,-1.3094351291656494,14.567235946655273,-64.5856704711914, -2.414879322052002
282,258248606,0.5872801,0.30145225,-0.6604731,0.3577767,9.379881858825684,-2.032355546951294,-1.9155693054199219,7.577272891998291,-59.095802307128906, -3.5978102684020996
283,258265273,0.5819541,0.3052676,-0.66496295,0.35491613,9.863298416137695,-2.9963371753692627,-1.2720892429351807,2.6653573513031006,-55.494956970214844, -6.250784397125244
284,258281940,0.57746446,0.30768967,-0.6702822,0.3501197,10.598259925842285,-3.166195869445801,0.3987341821193695,-15.543086051940918,-55.65652847290039, -7.992885589599609
285,258298607,0.57411647,0.30695328,-0.67759293,0.34210804,10.241789817810059,-2.8572754859924316,0.5152109861373901,-50.12625503540039,-57.575401306152344, -4.794039249420166
286,258315274,0.5704751,0.30528367,-0.68615896,0.3324845,10.017938613891602,-1.2927194833755493,-0.6770462989807129,-63.66984176635742,-65.18756866455078, -3.5036377906799316
287,258331941,0.5646751,0.3063341,-0.69465953,0.32365066,10.985143661499023,0.8569972515106201,-0.3898678719997406,-44.606136322021484,-79.72349548339844, -8.421948432922363
288,258348608,0.5563247,0.30993882,-0.70324534,0.3160492,12.147003173828125,2.0638530254364014,-1.1335556507110596,-23.610008239746094,-95.39766693115234, -9.899930000305176
289,258365275,0.54593605,0.31533507,-0.71208805,0.3089473,12.417459487915039,2.9364993572235107,-1.0744473934173584,-10.53956413269043,-109.12903594970703, -11.559159278869629
290,258381942,0.53395844,0.32246214,-0.72109324,0.30154806,12.820789337158203,2.041553020477295,-0.8439052700996399,-2.3737707138061523,-121.92129516601562, -17.285858154296875
291,258398609,0.52281815,0.32704434,-0.732107,0.28934863,13.731821060180664,1.0402566194534302,2.152588129043579,-41.506595611572266,-130.6188201904297, -19.47222900390625
292,258415276,0.5127519,0.32849228,-0.7455441,0.27081823,13.408737182617188,3.062927722930908,0.9628661870956421,-91.86962127685547,-142.1690673828125, -23.065677642822266
293,258431943,0.50506675,0.3252999,-0.76160926,0.24298002,15.808669090270996,3.73106050491333,4.465315341949463,-166.17860412597656,-151.8562469482422, -30.44821548461914
294,258448610,0.5027757,0.31063342,-0.78154504,0.19977725,19.0535945892334,2.2846968173980713,9.259406089782715,-305.03973388671875,-152.7122344970703, -23.923185348510742
295,258465277,0.49800178,0.29289883,-0.8022728,0.15021057,22.1496639251709,-6.766329765319824,6.50637674331665,-345.6189270019531,-178.8740234375, -24.31048011779785
296,258481944,0.4799036,0.28734997,-0.8209577,0.11467855,23.95027732849121,-15.923988342285156,0.02819502353668213,-197.4647674560547,-230.26002502441406, -34.16809844970703
297,258498611,0.45571446,0.29320046,-0.83577853,0.08849899,21.905269622802734,-10.23148250579834,6.352062702178955,-92.1894302368164,-242.75918579101562, -71.10417938232422
298,258515278,0.43387896,0.29944298,-0.84756815,0.060920224,19.97688865661621,-11.374317169189453,4.889778137207031,-102.05216979980469,-223.3360137939453, -85.73265838623047
299,258531945,0.42084074,0.3023204,-0.8546887,0.031662334,17.296865463256836,-6.207608222961426,11.132373809814453,-138.23182678222656,-160.64309692382812, -84.90347290039062
300,258548612,0.41666567,0.30151203,-0.8575752,0.0067245206,10.860331535339355,-9.815434455871582,10.066021919250488,-141.048583984375,-87.08765411376953, -61.845890045166016
301,258565279,0.41734982,0.30207762,-0.85706824,-0.0016071456,5.616734981536865,-9.806194305419922,10.844291687011719,-49.21917724609375,-14.729214668273926, -30.01814842224121
302,258581946,0.4221746,0.30378726,-0.8540686,0.006997739,4.670163154602051,-8.239664077758789,9.834757804870605,45.15287780761719,51.73752975463867, 6.465477466583252
303,258598613,0.4319708,0.30554572,-0.848078,0.028411712,4.657005310058594,-5.288764476776123,8.41169261932373,110.2370834350586,116.15299987792969, 36.78268814086914
304,258615280,0.44768572,0.3056037,-0.83835983,0.05776333,5.538629055023193,-3.3597991466522217,6.82781457901001,139.79640197753906,178.60360717773438, 61.34298324584961
305,258631947,0.4693222,0.30321997,-0.82435566,0.09073112,6.59559440612793,-1.613609790802002,4.493501663208008,142.44207763671875,234.428955078125, 75.323486328125
306,258648614,0.4959518,0.29821172,-0.806017,0.12425245,7.93369197845459,-0.5801165699958801,1.8330546617507935,129.47457885742188,279.52947998046875, 80.00548553466797
307,258665281,0.52609557,0.28961924,-0.7840541,0.15685518,10.039897918701172,-0.4517894983291626,-0.38016772270202637,108.11687469482422,312.65478515625, 86.48275756835938
308,258681948,0.55828863,0.27776542,-0.7588935,0.18772703,11.794793128967285,0.8010031580924988,-1.7415592670440674,86.40348052978516,335.52142333984375, 89.38258361816406
309,258698615,0.5922636,0.26132748,-0.7312468,0.21496457,13.155068397521973,0.5054920315742493,-2.338016986846924,49.683807373046875,353.5729064941406, 92.46339416503906
310,258715282,0.62635404,0.24180019,-0.70100003,0.24044234,15.276653289794922,-0.3043508231639862,-3.81535267829895,31.927568435668945,366.41925048828125, 96.11463165283203
311,258731949,0.6579676,0.22184281,-0.668478,0.26646197,16.660085678100586,-2.476969003677368,-4.684751510620117,40.6049690246582,366.19781494140625, 100.9403305053711
312,258748616,0.6841169,0.20492338,-0.6346265,0.2953637,17.41253662109375,-3.1586554050445557,-6.875525951385498,78.41272735595703,346.23602294921875, 108.07740020751953
313,258765283,0.70490396,0.19540255,-0.59789926,0.32778826,18.239686965942383,-0.566260576248169,-7.034066677093506,141.98974609375,326.66998291015625, 99.28617858886719
314,258781950,0.72186005,0.19129641,-0.5602631,0.35837042,18.598392486572266,2.678814649581909,-7.14339542388916,167.90185546875,300.98388671875, 75.65689086914062
315,258798617,0.73674035,0.18662748,-0.5256968,0.38213453,19.002758026123047,2.3583524227142334,-8.216629028320312,133.97784423828125,270.4870910644531, 53.307273864746094
316,258815284,0.7493101,0.17975773,-0.49564546,0.40069586,16.914724349975586,0.22936861217021942,-10.19626235961914,95.10896301269531,238.70465087890625, 46.903133392333984
317,258831951,0.75819206,0.17411202,-0.47147167,0.41538462,15.02359676361084,-1.0206282138824463,-12.213518142700195,76.59097290039062,188.02395629882812, 40.26821517944336
318,258848618,0.7635021,0.17167304,-0.45274985,0.4273295,13.637292861938477,0.4111880362033844,-13.56637954711914,73.14328002929688,135.89691162109375, 32.326786041259766
319,258865285,0.76506513,0.16910772,-0.44359002,0.4350932,12.12766170501709,0.9011746644973755,-15.723320960998535,35.80426025390625,69.76081848144531, 33.10247039794922
320,258881952,0.7630404,0.17083895,-0.44212064,0.43944612,10.50365924835205,1.9776397943496704,-13.722381591796875,29.183879852294922,1.8155710697174072, 21.766870498657227
321,258898619,0.75797033,0.17577186,-0.44829655,0.44001788,10.819581985473633,-0.84418785572052,-11.932404518127441,14.96700382232666,-61.4732666015625, 10.417943000793457
322,258915286,0.7501075,0.1813958,-0.46260417,0.43638504,10.715572357177734,-1.6772531270980835,-12.041581153869629,-15.59572982788086,-119.48876190185547, 4.6598734855651855
323,258931953,0.7393058,0.18842006,-0.48263365,0.43010426,15.488485336303711,1.7756370306015015,-8.819649696350098,-30.281145095825195,-165.7355499267578, 2.5009653568267822
324,258948620,0.72729975,0.1967659,-0.5027189,0.423783,17.94352912902832,4.922000885009766,8.712813377380371,-22.300830841064453,-173.88377380371094, 1.5924818515777588
325,258965287,0.71499646,0.2047714,-0.5232594,0.41599083,17.07765769958496,8.370144844055176,-0.279925674200058,-30.052064895629883,-178.29161071777344, -3.03047251701355
326,258981954,0.70215917,0.21068664,-0.54555106,0.40614992,15.885223388671875,1.2809909582138062,2.1216490268707275,-51.98546600341797,-185.74737548828125, -1.4804162979125977
327,258998621,0.6868398,0.2203383,-0.5622988,0.40437874,12.692078590393066,-8.527504920959473,-4.006143569946289,15.417370796203613,-167.08131408691406, 22.38264274597168
328,259015288,0.67236024,0.23391068,-0.57291406,0.40618584,10.841817855834961,-1.7872686386108398,1.4191843271255493,63.58781814575195,-140.3429412841797, 12.39310073852539
329,259031955,0.66198,0.24219058,-0.5820868,0.40534094,10.457632064819336,-5.327661514282227,1.5808746814727783,26.124773025512695,-107.06702423095703, 7.183574676513672
330,259048622,0.65398145,0.24899094,-0.5886756,0.4046889,11.225504875183105,-3.280200719833374,2.4297149181365967,23.38533592224121,-81.38583374023438, 2.981092691421509
331,259065289,0.6477912,0.25464913,-0.5936515,0.40385464,11.241372108459473,-2.59198260307312,1.6194591522216797,18.912567138671875,-64.01397705078125, -1.035857915878296
332,259081956,0.64200926,0.26192793,-0.5958556,0.405184,11.150749206542969,-0.17379149794578552,-0.5492819547653198,41.93366241455078,-50.76968765258789, -4.023074626922607
333,259098623,0.6361338,0.27145758,-0.595172,0.409164,10.823575019836426,-0.7757421731948853,-0.8454168438911438,70.93705749511719,-39.93842697143555, -6.486133575439453
334,259115290,0.6311596,0.28040752,-0.59311944,0.41378593,11.003171920776367,-0.5741115212440491,0.19199976325035095,73.19578552246094,-27.46528434753418, -6.405721187591553
335,259131957,0.6288609,0.2838646,-0.59341395,0.41450584,10.745497703552246,-0.45391061902046204,0.04398767650127411,21.602794647216797,-18.672992706298828, -4.0295305252075195
336,259148624,0.6282304,0.28464693,-0.5946904,0.41309336,10.11996841430664,-0.5105655193328857,0.48070788383483887,-4.720359802246094,-12.6865816116333, -5.1706061363220215
337,259165291,0.6289794,0.28190947,-0.59825045,0.40866676,10.082132339477539,-1.043540120124817,1.0532816648483276,-41.439674377441406,-12.850207328796387, -3.241039514541626
338,259181958,0.6298751,0.27825385,-0.6030331,0.40272,9.729146003723145,-0.9288771152496338,0.9188945889472961,-55.38818359375,-17.939350128173828, -4.077988147735596
339,259198625,0.6297239,0.27629438,-0.6080277,0.3967512,9.048605918884277,-1.2678909301757812,0.5143452286720276,-46.72210693359375,-27.969955444335938, -7.8985676765441895
340,259215292,0.6276369,0.27688652,-0.61306566,0.39186257,8.619484901428223,-2.7524397373199463,0.7121280431747437,-27.60252571105957,-41.18767166137695, -8.527490615844727
341,259231959,0.6237094,0.27954027,-0.6183257,0.38796568,8.20749282836914,-2.1109743118286133,1.3060775995254517,-11.62318229675293,-53.59872055053711, -7.570722579956055
342,259248626,0.61826646,0.28313047,-0.6247583,0.38374567,8.342253684997559,-1.9449467658996582,1.387733817100525,-9.201173782348633,-68.21778106689453, -6.6521406173706055
343,259265293,0.611183,0.2877593,-0.6321782,0.37947407,8.511688232421875,-2.743934392929077,1.6398286819458008,-4.423125267028809,-82.33219146728516, -5.091158866882324
344,259281960,0.6022399,0.2934507,-0.640334,0.37572116,9.104981422424316,-2.2670609951019287,1.2584019899368286,4.050950527191162,-95.28124237060547, -1.2360954284667969
345,259298627,0.59220594,0.29980502,-0.6487307,0.3722336,10.075608253479004,-0.8327760100364685,0.5302681922912598,9.54753303527832,-102.28425598144531, 0.2394172102212906
346,259315294,0.58143306,0.30640954,-0.65753096,0.36837783,10.83899974822998,-0.5125377178192139,0.3489059805870056,9.3983154296875,-108.64139556884766, 0.3486355245113373
347,259331961,0.5699917,0.31289402,-0.6670748,0.36361834,11.008736610412598,0.28414133191108704,0.1835150271654129,4.36618709564209,-116.25615692138672, 0.5414782762527466
348,259348628,0.5579001,0.31913552,-0.67754805,0.35753152,11.0133638381958,1.0074247121810913,-0.15721698105335236,-3.6010243892669678,-125.14816284179688, 0.08825983852148056
349,259365295,0.54504305,0.32566157,-0.68852824,0.3504306,11.571185111999512,0.7590464353561401,-0.4573115110397339,-6.798974990844727,-133.6015167236328, -2.121633768081665
350,259381962,0.5316146,0.33245376,-0.6998067,0.34224424,12.298776626586914,-0.26907649636268616,0.08779647946357727,-10.376354217529297,-140.51319885253906, -5.395423889160156
351,259398629,0.51821214,0.3368477,-0.7136673,0.3296499,13.220013618469238,-0.26037758588790894,-0.6335829496383667,-46.48686599731445,-154.28517150878906, -4.123202800750732
352,259415296,0.505919,0.33850256,-0.72971815,0.31140617,14.265735626220703,0.1290481686592102,-0.25452113151550293,-91.51050567626953,-163.54721069335938, -8.248029708862305
353,259431963,0.4962464,0.33938238,-0.74515283,0.2886285,16.43609046936035,1.4016989469528198,2.749577045440674,-121.73222351074219,-157.17872619628906, -27.173629760742188
354,259448630,0.4879578,0.33891004,-0.76041824,0.26230037,18.721477508544922,-0.7334551215171814,5.613133907318115,-147.4317169189453,-155.16554260253906, -35.494483947753906
355,259465297,0.48069993,0.33632687,-0.77599144,0.23162341,21.284404754638672,1.3314369916915894,9.415129661560059,-180.2376708984375,-157.21273803710938, -40.19230270385742
356,259481964,0.47343272,0.33104715,-0.7921343,0.19695818,23.54847526550293,-4.177013874053955,8.957356452941895,-211.31298828125,-164.18087768554688, -37.66721725463867
357,259498631,0.46677843,0.32713717,-0.8043713,0.1675885,23.829252243041992,-11.41607666015625,11.699793815612793,-174.119873046875,-138.00894165039062, -37.64056396484375
358,259515298,0.4576552,0.32164586,-0.81960857,0.12384477,14.633609771728516,-10.183233261108398,10.60836410522461,-256.6930236816406,-191.95057678222656, -65.5302505493164
359,259531965,0.44519478,0.31775573,-0.8333487,0.07976829,16.83733367919922,-12.910280227661133,0.5588189363479614,-244.89491271972656,-208.21498107910156, -76.15523529052734
360,259548632,0.4349012,0.31573358,-0.84195846,0.0477425,14.024662017822266,-7.461423397064209,-1.1868529319763184,-172.04734802246094,-154.76939392089844, -62.42531967163086
361,259565299,0.42950296,0.31393275,-0.846224,0.029641109,11.096660614013672,-8.761245727539062,9.546768188476562,-99.97807312011719,-83.27137756347656, -33.145538330078125
362,259581966,0.42948967,0.3111626,-0.8474327,0.02397079,2.182079315185547,-8.043340682983398,10.017599105834961,-41.535423278808594,-15.933323860168457, 1.4734512567520142
363,259598633,0.43448913,0.30757987,-0.8459465,0.031438507,4.374308109283447,-3.14015793800354,6.080202579498291,22.321744918823242,49.449256896972656, 38.39155960083008
364,259615300,0.444488,0.3036796,-0.8413719,0.04798533,4.303714752197266,-4.530120372772217,4.849543571472168,64.27722930908203,107.0095443725586, 59.756473541259766
365,259631967,0.45961264,0.30013034,-0.8326245,0.07358328,3.9935240745544434,-2.319331407546997,5.5653862953186035,108.39083862304688,168.19923400878906, 74.9925765991211
366,259648634,0.48225847,0.2923262,-0.81986105,0.09899507,4.763293266296387,-1.5349621772766113,6.104714393615723,80.40349578857422,225.72145080566406, 86.68434143066406
367,259665301,0.51051486,0.28111705,-0.80299675,0.12467618,6.862053394317627,-1.962722897529602,3.8533949851989746,62.1621208190918,273.81781005859375, 94.72301483154297
368,259681968,0.5415363,0.26792043,-0.7819882,0.15313916,8.857827186584473,-1.2697652578353882,2.206929922103882,68.76828002929688,310.7332458496094, 105.09452056884766
369,259698635,0.57449776,0.252471,-0.75670195,0.18333843,10.832388877868652,1.1264379024505615,1.5383756160736084,70.66567993164062,342.6946716308594, 113.76426696777344
370,259715302,0.6093096,0.23301056,-0.7274173,0.21286675,13.737504959106445,1.459843635559082,0.21677613258361816,53.170310974121094,372.04278564453125, 122.73812866210938
371,259731969,0.64361906,0.21402976,-0.692375,0.24609502,16.492408752441406,2.026693344116211,-0.9065180420875549,82.96273040771484,398.931640625, 127.38511657714844
372,259748636,0.67609614,0.19449149,-0.6537637,0.27867606,19.097679138183594,0.15224233269691467,-3.2067618370056152,86.17854309082031,406.0205078125, 125.0565185546875
373,259765303,0.7042556,0.178918,-0.61115974,0.31384173,21.24456214904785,-2.580397844314575,-5.952624320983887,129.68016052246094,401.0738525390625, 122.2131118774414
374,259781970,0.7281899,0.16498023,-0.56737804,0.34727982,22.934858322143555,0.05295221507549286,-5.880073547363281,138.06004333496094,383.4083251953125, 114.64488983154297
375,259798637,0.7488075,0.14362341,-0.53118306,0.369465,24.101211547851562,2.211073875427246,-9.709613800048828,42.62508773803711,337.4248046875, 103.78340148925781
376,259815304,0.7635298,0.12754743,-0.49891198,0.38966766,20.055511474609375,1.3884083032608032,-13.009840965270996,58.41901779174805,280.3794250488281, 93.15802001953125
377,259831971,0.77374303,0.12130124,-0.46902364,0.4081968,16.54116439819336,3.7980587482452393,-13.798885345458984,101.88355255126953,224.69082641601562, 64.8521728515625
378,259848638,0.780383,0.11599675,-0.44831893,0.42018735,13.577427864074707,1.9721860885620117,-17.891613006591797,63.01643371582031,156.3046112060547, 44.75885009765625
379,259865305,0.78239185,0.11080723,-0.44187126,0.42465857,11.06510066986084,1.9769039154052734,-20.931442260742188,2.9797444343566895,59.322139739990234, 28.83863639831543
380,259881972,0.77916956,0.11309645,-0.4474068,0.42418322,10.776654243469238,0.99725741147995,-19.38248634338379,-2.798170566558838,-46.50222396850586, 3.937079906463623
381,259898639,0.77038735,0.13046992,-0.45784834,0.42409426,11.559995651245117,0.16269685328006744,-14.91873550415039,69.2436752319336,-133.46954345703125, -20.348045349121094
382,259915306,0.7583922,0.15219271,-0.47181895,0.42316145,14.67096996307373,0.7797343134880066,1.2325941324234009,82.23927307128906,-175.63136291503906, -25.97469139099121
383,259931973,0.7469999,0.16676985,-0.48773554,0.41987282,12.81058406829834,0.3228171765804291,17.096805572509766,31.033897399902344,-165.47157287597656, -14.787506103515625
384,259948640,0.7342207,0.18129791,-0.50279045,0.41863233,17.399831771850586,6.997898578643799,-3.4387450218200684,41.71498489379883,-163.28030395507812, -1.0815532207489014
385,259965307,0.7207194,0.19374011,-0.5217191,0.4133252,18.286401748657227,3.991382122039795,-1.9276626110076904,6.874691486358643,-184.35958862304688, -7.444393157958984
386,259981974,0.70800036,0.20312968,-0.5400972,0.4071472,10.611790657043457,1.356734275817871,1.33989417552948,-10.845441818237305,-171.27613830566406, -3.731748104095459
387,259998641,0.69554937,0.20928282,-0.55618006,0.40382603,13.994811058044434,-6.0864081382751465,-3.758408546447754,-9.945135116577148,-146.06101989746094, 18.24293327331543
388,260015308,0.68285733,0.22158198,-0.5658007,0.40555757,13.652462005615234,-1.9333181381225586,1.6327266693115234,57.09516906738281,-125.84869384765625, 10.245408058166504
389,260031975,0.6747335,0.22677042,-0.5760447,0.40184915,11.314477920532227,-0.508492112159729,2.5566041469573975,-6.163015365600586,-99.46885681152344, 0.5625706315040588
390,260048642,0.6682066,0.22988582,-0.58473057,0.39842537,11.440409660339355,-1.8581557273864746,2.6113343238830566,-12.834076881408691,-79.76756286621094, 3.2550582885742188
391,260065309,0.66346717,0.23094225,-0.59280646,0.39377353,10.202192306518555,-2.1157026290893555,1.3424158096313477,-28.391950607299805,-66.10186004638672, 0.023288771510124207
392,260081976,0.6592579,0.23254791,-0.5991252,0.39031982,9.812097549438477,-3.186441421508789,0.21748065948486328,-17.084156036376953,-55.528472900390625, -0.980414628982544
393,260098643,0.6545719,0.23814744,-0.60216373,0.39015427,10.195588111877441,-2.34287691116333,-0.11322009563446045,24.124792098999023,-48.09446334838867, -6.509265899658203
394,260115310,0.6496176,0.2466292,-0.60289216,0.39203575,9.201444625854492,-3.743373155593872,-0.6782968044281006,52.2044677734375,-43.19633483886719, -12.304880142211914
395,260131977,0.6444887,0.25686786,-0.6018543,0.39550567,9.224678993225098,-3.314520835876465,-0.1397404670715332,71.69426727294922,-38.0788688659668, -15.040701866149902
396,260148644,0.63858885,0.2690131,-0.5992592,0.40090534,9.18493366241455,-1.6914639472961426,0.777793288230896,93.71986389160156,-36.1533203125, -15.055191993713379
397,260165311,0.63249266,0.28041962,-0.59729224,0.40566018,9.431412696838379,-0.8663215637207031,0.8008994460105896,86.4450912475586,-38.890052795410156, -13.152353286743164
398,260181978,0.62635005,0.2898918,-0.59711856,0.40877613,9.887864112854004,-0.951097846031189,0.764704704284668,66.38704681396484,-44.65664291381836, -8.754389762878418
399,260198645,0.6206183,0.29716158,-0.59893405,0.40964144,10.087861061096191,-0.1665414571762085,1.3011929988861084,41.25089645385742,-49.84426498413086, -6.5985307693481445
400,260215312,0.6151576,0.30287918,-0.60217136,0.40894392,9.992181777954102,-0.14853352308273315,1.427976369857788,23.629470825195312,-53.63176727294922, -4.73087739944458
401,260231979,0.6096099,0.3079807,-0.60638577,0.40721032,9.804612159729004,-0.7388858795166016,1.1682075262069702,14.163498878479004,-58.566864013671875, -4.279194355010986
402,260248646,0.6038757,0.31301993,-0.61121505,0.40468383,9.588485717773438,-0.7776139378547668,1.3626712560653687,9.266982078552246,-63.440879821777344, -5.5182085037231445
403,260265313,0.59770674,0.31751886,-0.6172217,0.4012055,9.51801586151123,-1.0184317827224731,1.0700838565826416,0.6837366819381714,-70.71778869628906, -3.455381155014038
404,260281980,0.5908933,0.3216305,-0.62455267,0.39665222,9.432126998901367,-1.1582622528076172,0.931247353553772,-7.719498634338379,-80.18812561035156, -1.561757206916809
405,260298647,0.5833067,0.32572883,-0.6328493,0.39135176,9.612207412719727,-1.040442705154419,0.786535918712616,-11.907516479492188,-89.06201934814453, -0.2971285879611969
406,260315314,0.57491463,0.32991308,-0.642035,0.38525543,10.68071174621582,-0.6503990888595581,0.521821916103363,-15.623815536499023,-98.16038513183594, 0.2962275743484497
407,260331981,0.56624264,0.3333656,-0.652524,0.37742475,11.40530014038086,-0.7516921162605286,0.8160600066184998,-28.9831600189209,-106.55868530273438, 0.37149620056152344
408,260348648,0.55687,0.33721936,-0.66352266,0.3686689,11.772344589233398,-0.47243162989616394,0.4329681396484375,-31.29899024963379,-114.86485290527344, -2.041037082672119
409,260365315,0.54677546,0.34114596,-0.67514616,0.35893434,11.567193984985352,0.285371869802475,0.5785294771194458,-35.390018463134766,-123.02265167236328, -2.838050603866577
410,260381982,0.5356168,0.34406668,-0.68846333,0.34749222,11.567728996276855,0.596677303314209,-1.3546278476715088,-48.78132247924805,-135.8734588623047, 2.0187039375305176
411,260398649,0.5234668,0.3459681,-0.70352906,0.33366963,12.052688598632812,0.6907269358634949,0.04772201180458069,-65.63325500488281,-150.2161407470703, 4.59254264831543
412,260415316,0.510338,0.34733146,-0.7199105,0.3172457,13.636913299560547,0.16208770871162415,0.08963033556938171,-80.84830474853516,-164.66598510742188, 3.2189319133758545
413,260431983,0.49719197,0.3468592,-0.7379906,0.29640976,14.557318687438965,-0.5275989174842834,1.582817792892456,-112.79249572753906,-177.2786865234375, 0.9230653047561646
414,260448650,0.4853192,0.34383315,-0.7574151,0.269382,17.697025299072266,-0.2134232372045517,4.573383331298828,-158.73614501953125,-185.02780151367188, -6.672725677490234
415,260465317,0.4779094,0.33806545,-0.775503,0.2364519,21.842754364013672,0.40146368741989136,8.48337173461914,-206.7171173095703,-166.2758026123047, -23.519289016723633
416,260481984,0.4743174,0.3272041,-0.793633,0.19521058,23.30142593383789,-0.2784995436668396,11.051112174987793,-276.7621154785156,-157.21755981445312, -29.787927627563477
417,260498651,0.46835977,0.31638232,-0.8106056,0.15316713,20.89278221130371,-8.815540313720703,7.729214668273926,-274.1473388671875,-168.34127807617188, -32.07025909423828
418,260515318,0.46177784,0.3080937,-0.8242276,0.11175282,19.728775024414062,-10.264159202575684,8.175224304199219,-257.61468505859375,-162.4202880859375, -50.87607192993164
419,260531985,0.45144683,0.30394602,-0.8360482,0.069543414,14.624634742736816,-12.44504451751709,3.354340076446533,-239.6978759765625,-182.91465759277344, -77.89076232910156
420,260548652,0.4386407,0.30494747,-0.84423625,0.04320479,12.82248592376709,-10.247690200805664,-2.2539918422698975,-125.5608139038086,-155.17367553710938, -64.70993041992188
421,260565319,0.43060747,0.30562648,-0.84880275,0.026526695,12.804288864135742,-6.635522365570068,5.077970504760742,-79.44058227539062,-96.20221710205078, -42.75883865356445
422,260581986,0.42912823,0.30624554,-0.84952027,0.019445235,2.3761696815490723,-8.989270210266113,12.561463356018066,-36.70603942871094,-26.43863296508789, -23.31761932373047
423,260598653,0.43327987,0.3060501,-0.84729755,0.026246712,4.3669328689575195,-4.083733558654785,6.770813465118408,30.494108200073242,44.40765380859375, 15.425861358642578
424,260615320,0.44275317,0.30386692,-0.8426357,0.039997995,4.975680828094482,-4.08783483505249,5.022524833679199,54.29961013793945,97.62508392333984, 41.6077995300293
425,260631987,0.45523736,0.30356923,-0.83433825,0.06696534,4.6584296226501465,-4.751186370849609,4.349366188049316,131.32554626464844,153.21217346191406, 62.498207092285156
426,260648654,0.47340965,0.30132774,-0.821866,0.098088145,5.434909820556641,-1.0988521575927734,5.019251346588135,139.13339233398438,208.47068786621094, 75.33080291748047
427,260665321,0.49943444,0.29217714,-0.8060149,0.12465138,6.663722515106201,-1.9629857540130615,3.903207540512085,76.88988494873047,259.0423583984375, 87.24990844726562
428,260681988,0.53001237,0.27890792,-0.7863485,0.15150367,8.426692962646484,-2.1953799724578857,2.794604539871216,58.483707427978516,301.4967956542969, 99.50093078613281
429,260698655,0.5625708,0.26308778,-0.76290137,0.17966805,10.690596580505371,-0.4484243094921112,1.3527799844741821,56.421112060546875,331.1676025390625, 108.76205444335938
430,260715322,0.5959686,0.24427177,-0.73622876,0.20765348,12.6898193359375,0.7761297225952148,0.28148794174194336,46.3820915222168,351.4381408691406, 116.91524505615234
431,260731989,0.6286031,0.2235488,-0.70597845,0.23765238,14.981611251831055,0.16514329612255096,-0.8072894215583801,55.1657600402832,368.365478515625, 129.92105102539062
432,260748656,0.6592143,0.20562796,-0.6700949,0.27226213,17.499547958374023,0.6636227965354919,-1.2775180339813232,102.02583312988281,385.4447021484375, 130.9188232421875
433,260765323,0.6872128,0.19156888,-0.62900794,0.30885115,20.402334213256836,-0.6589405536651611,-3.7607245445251465,142.1472625732422,392.5986633300781, 119.66670227050781
434,260781990,0.7112129,0.17985636,-0.5859228,0.34427097,22.657032012939453,-1.5617424249649048,-6.50776481628418,157.6503143310547,378.2601318359375, 109.86783599853516
435,260798657,0.7318051,0.16625963,-0.5455315,0.3731146,23.10035514831543,1.4269553422927856,-7.244882106781006,119.75851440429688,347.7156677246094, 96.70597839355469
436,260815324,0.7483763,0.14866982,-0.5122006,0.3943106,21.192256927490234,-0.3300473093986511,-10.386860847473145,57.45118713378906,298.6549072265625, 91.62152099609375
437,260831991,0.7593744,0.13906841,-0.481923,0.4144403,17.36907386779785,0.9700565338134766,-12.685959815979004,92.27386474609375,240.66429138183594, 76.27005004882812
438,260848658,0.76641077,0.13496406,-0.45662546,0.43115234,14.512739181518555,2.705124855041504,-14.044364929199219,99.27106475830078,182.72340393066406, 56.29874801635742
439,260865325,0.7698943,0.13224114,-0.4406719,0.442248,12.55212116241455,1.8683547973632812,-17.22376823425293,64.53202819824219,113.15340423583984, 41.617431640625
440,260881992,0.7693938,0.1337812,-0.43441576,0.4487972,11.140881538391113,2.2074437141418457,-17.040939331054688,47.49006652832031,32.80795669555664, 25.608928680419922
441,260898659,0.7651074,0.14153661,-0.43715927,0.4510766,10.9021635055542,1.5746264457702637,-15.167765617370605,43.3557243347168,-49.06475067138672, 4.45590877532959
442,260915326,0.75751454,0.15599571,-0.44593123,0.45053598,11.645368576049805,0.7620360851287842,-12.602511405944824,54.69488525390625,-114.12357330322266, -14.378332138061523
443,260931993,0.7481133,0.17059404,-0.46088368,0.44588163,13.707479476928711,-0.8753852844238281,-1.9070324897766113,25.624357223510742,-156.59280395507812, -23.983057022094727
444,260948660,0.73892385,0.18319005,-0.47569308,0.44062352,14.211456298828125,-2.465358018875122,14.198697090148926,13.610729217529297,-149.70326232910156, -21.554546356201172
445,260965327,0.7272801,0.19807982,-0.48922694,0.43873143,14.239607810974121,2.617109537124634,-1.087768316268921,43.215763092041016,-154.01913452148438, -6.1405205726623535
446,260981994,0.71432126,0.21212062,-0.5054811,0.43501613,18.78644561767578,4.495797157287598,-4.711301803588867,26.434926986694336,-171.93455505371094, -4.69822883605957
447,260998661,0.70234793,0.22128129,-0.52400845,0.42796883,10.563248634338379,2.693342685699463,2.9071905612945557,-17.344552993774414,-169.8665313720703, -3.687929153442383
448,261015328,0.6900509,0.22631422,-0.54156834,0.42345655,14.137652397155762,-4.323553562164307,-5.811442852020264,-24.794248580932617,-150.37184143066406, 22.934911727905273
449,261031995,0.67588985,0.23910753,-0.5515123,0.426421,14.468268394470215,0.16073963046073914,1.152888536453247,64.96440124511719,-132.08502197265625, 23.058015823364258
450,261048662,0.6660853,0.24493052,-0.56255615,0.4241107,11.840209007263184,2.9601688385009766,3.828028678894043,2.1735286712646484,-108.90847778320312, 14.008841514587402
451,261065329,0.65842575,0.24777164,-0.5726656,0.42087886,11.536415100097656,-1.6492912769317627,3.4434494972229004,-15.912694931030273,-89.22306823730469, 13.526487350463867
452,261081996,0.65259504,0.24843223,-0.58199465,0.41675362,9.638065338134766,-1.5682377815246582,2.614262342453003,-30.170068740844727,-73.73068237304688, 11.437453269958496
453,261098663,0.6486076,0.24632089,-0.59114325,0.41131997,9.67516803741455,-3.90999698638916,1.390620231628418,-50.472286224365234,-59.86783218383789, 11.066116333007812
454,261115330,0.6456751,0.24392226,-0.599147,0.40574455,9.972604751586914,-3.1039700508117676,0.35151976346969604,-50.88716125488281,-49.92112350463867, 6.658967018127441
455,261131997,0.6428286,0.24312834,-0.60560703,0.4011238,9.530394554138184,-2.8567824363708496,0.3547482490539551,-35.66692352294922,-45.602088928222656, 1.4469105005264282
456,261148664,0.6394411,0.24559218,-0.61010313,0.3982134,9.347363471984863,-3.0906763076782227,0.6346328854560852,-7.829619407653809,-45.3116455078125, -6.3622307777404785
457,261165331,0.6354256,0.25054967,-0.6131001,0.39694792,8.917805671691895,-3.293105125427246,0.21676906943321228,15.196443557739258,-45.418739318847656, -10.418949127197266
458,261181998,0.6308751,0.25741905,-0.61480314,0.3971766,9.345290184020996,-2.825031280517578,0.4849722981452942,34.29198455810547,-44.6746711730957, -12.74071216583252
459,261198665,0.6255112,0.26555556,-0.6157057,0.39890146,9.59065055847168,-4.107743740081787,0.2291555106639862,49.73490905761719,-45.465782165527344, -10.82009506225586
460,261215332,0.6189814,0.2758951,-0.6152916,0.40269127,9.433670043945312,-1.6919264793395996,0.23285946249961853,73.67735290527344,-47.01947021484375, -10.50167179107666
461,261231999,0.61195207,0.28643304,-0.6151621,0.40625936,9.856143951416016,-0.3672090768814087,0.6637548804283142,73.74503326416016,-51.325523376464844, -10.373019218444824
462,261248666,0.6053484,0.29516038,-0.61662555,0.4076847,9.971733093261719,0.18854552507400513,1.5208128690719604,51.76600646972656,-55.401939392089844, -9.783035278320312
463,261265333,0.59922695,0.30077595,-0.6210396,0.40591958,9.830815315246582,0.15109692513942719,0.8064528107643127,16.04116439819336,-63.411502838134766, -5.225403308868408
464,261282000,0.5931366,0.30428338,-0.6279157,0.4016499,9.550216674804688,-0.560621976852417,0.8226993083953857,-10.277956008911133,-72.73445129394531, -1.5300421714782715
465,261298667,0.5861485,0.30643782,-0.63704884,0.395847,9.285680770874023,-1.6145223379135132,0.9043908715248108,-26.773874282836914,-85.30343627929688, 5.2641921043396
466,261315334,0.5776321,0.308367,-0.64816254,0.3887626,9.887487411499023,-1.1159855127334595,0.596328616142273,-35.4621467590332,-102.0860824584961, 9.416302680969238
467,261332001,0.56844664,0.31015414,-0.66032547,0.38032022,10.207622528076172,-1.7175259590148926,0.5392714738845825,-43.475074768066406,-111.751708984375, 8.670615196228027
468,261348668,0.5586099,0.31426495,-0.6707152,0.37327474,10.94736385345459,-0.9873672723770142,0.12229330837726593,-22.032779693603516,-110.89300537109375, 1.499466896057129
469,261365335,0.5481756,0.31922808,-0.6809603,0.36591,11.118477821350098,-0.7206164598464966,-0.04862770438194275,-18.55942726135254,-115.98999786376953, -2.433990716934204
470,261382002,0.5370253,0.32452494,-0.69167554,0.3575928,11.197099685668945,-0.7270362377166748,-0.8224100470542908,-21.37555503845215,-124.06332397460938, -4.749115467071533
471,261398669,0.5248792,0.33012488,-0.7029441,0.34840947,11.201887130737305,-0.5670534372329712,-0.2862555980682373,-23.512165069580078,-133.53550720214844, -5.702550411224365
472,261415336,0.51201653,0.3354599,-0.7150407,0.33767265,11.852034568786621,-1.141388177871704,-0.4328635334968567,-32.34495162963867,-142.90054321289062, -6.426547050476074
473,261432003,0.49897644,0.34039727,-0.7278227,0.32469416,13.017614364624023,-0.8969434499740601,-0.39113327860832214,-45.94563293457031,-150.4599151611328, -10.371196746826172
474,261448670,0.4864887,0.34383604,-0.7417471,0.3080861,13.888419151306152,-0.5878165364265442,-0.11460128426551819,-73.10195922851562,-156.79641723632812, -13.87941837310791
475,261465337,0.47544155,0.34488943,-0.7571265,0.28594798,15.721076011657715,1.1565465927124023,1.3677600622177124,-115.77667999267578,-162.38125610351562, -19.8196964263916
476,261482004,0.46664202,0.3431232,-0.77324915,0.25806555,18.527503967285156,1.4882341623306274,4.8227949142456055,-161.70384216308594,-161.2536163330078, -26.559938430786133
477,261498671,0.46025208,0.33868974,-0.7894464,0.2241249,22.27107810974121,1.6283819675445557,8.811347961425781,-208.30006408691406,-158.3484649658203, -35.9095344543457
478,261515338,0.45293447,0.3332673,-0.8058263,0.18554606,23.525020599365234,-4.041826248168945,9.453121185302734,-234.75474548339844,-173.39309692382812, -43.36522674560547
479,261532005,0.43753988,0.33401603,-0.8205315,0.15401447,22.957761764526367,-10.869705200195312,7.635495185852051,-155.8419189453125,-204.7984161376953, -49.186119079589844
480,261548672,0.42446864,0.335161,-0.83197075,0.123767294,21.36484718322754,-12.079318046569824,17.305492401123047,-149.33694458007812,-179.46023559570312, -57.60088348388672
481,261565339,0.41970423,0.33303,-0.8399828,0.08584068,15.747626304626465,-10.828652381896973,3.79551362991333,-219.1537628173828,-137.04153442382812, -76.34085083007812
482,261582006,0.41308278,0.33330178,-0.84561896,0.056578442,14.19841194152832,-12.202659606933594,-6.7284440994262695,-156.5652618408203,-122.55113220214844, -69.63946533203125
483,261598673,0.40496227,0.3358441,-0.8493613,0.042424046,13.871196746826172,-6.710585594177246,-1.0963257551193237,-58.17278289794922,-92.1482162475586, -43.757904052734375
484,261615340,0.40495655,0.3355904,-0.8499258,0.031868655,4.963513374328613,-5.383724689483643,14.527076721191406,-62.79312515258789,-26.830156326293945, -27.159042358398438
485,261632007,0.41179287,0.3367084,-0.84601974,0.03612198,1.4671802520751953,-3.3325986862182617,6.782201290130615,12.752415657043457,59.377410888671875, -5.78599739074707
486,261648674,0.42499736,0.33333358,-0.8404152,0.044368014,5.861972808837891,-0.876964271068573,5.412259578704834,8.936461448669434,111.56609344482422, 26.128698348999023
487,261665341,0.44011688,0.33175972,-0.83164424,0.0678283,4.595395565032959,-3.8667385578155518,4.401884078979492,98.71092987060547,166.17771911621094, 52.34556198120117
488,261682008,0.45928895,0.32961664,-0.81870264,0.10066206,4.372050762176514,-0.6338637471199036,6.040151119232178,143.30221557617188,223.6160888671875, 72.57501220703125
489,261698675,0.4852876,0.32198945,-0.80218744,0.13158302,4.908238887786865,-2.3748435974121094,4.3074870109558105,102.22512817382812,272.7736511230469, 84.60651397705078
490,261715342,0.5152715,0.3108132,-0.78159064,0.16433652,6.601754188537598,-3.2340986728668213,2.381751775741577,95.37657165527344,315.6541442871094, 97.65911102294922
491,261732009,0.54805595,0.29625848,-0.7565395,0.19878018,9.212808609008789,-1.626984715461731,1.360302448272705,91.5307846069336,353.9427795410156, 109.12201690673828
492,261748676,0.5838124,0.276746,-0.72715956,0.23197801,12.437255859375,0.5468145608901978,0.018066048622131348,66.21857452392578,389.9915771484375, 117.3399429321289
493,261765343,0.61975044,0.2533557,-0.6943241,0.26388353,14.980194091796875,1.1046786308288574,-2.18107533454895,49.39847946166992,408.5272521972656, 124.6813735961914
494,261782010,0.65289223,0.22927888,-0.6582704,0.29638335,18.330595016479492,-0.18925149738788605,-3.6988821029663086,60.05369567871094,411.2067565917969, 129.97525024414062
495,261798677,0.6818465,0.2090085,-0.6170289,0.3326804,22.075599670410156,-0.6772071719169617,-5.675304889678955,111.56121826171875,413.8377380371094, 130.1733856201172
496,261815344,0.7080539,0.18995686,-0.5730114,0.36637995,24.748550415039062,1.909935712814331,-6.763586521148682,116.4771957397461,408.75897216796875, 115.11166381835938
497,261832011,0.7314567,0.16614394,-0.533554,0.39075238,25.296855926513672,0.8892249464988708,-8.958572387695312,48.7254524230957,375.364501953125, 101.51702880859375
498,261848678,0.7491777,0.14455046,-0.49910995,0.41076455,21.95072364807129,-0.6890770792961121,-12.291080474853516,36.947723388671875,318.4479675292969, 92.47120666503906
499,261865345,0.7606829,0.13332713,-0.46791437,0.42969954,18.691198348999023,1.114599585533142,-15.130017280578613,83.74272918701172,250.15399169921875, 72.1592788696289
500,261882012,0.76681423,0.1324183,-0.44190964,0.44629303,15.451156616210938,2.896899461746216,-18.632932662963867,119.79964447021484,173.260009765625, 47.426353454589844
501,261898679,0.7684514,0.13634655,-0.42647472,0.45717767,11.960199356079102,3.601120948791504,-21.43157196044922,99.64893341064453,84.02851867675781, 26.114727020263672
502,261915346,0.7654164,0.14235707,-0.4258357,0.46101654,11.413901329040527,2.01965069770813,-21.1911678314209,47.90241622924805,-20.78788948059082, 11.406111717224121
503,261932013,0.7571628,0.15612112,-0.4354178,0.4612398,11.506099700927734,0.5264162421226501,-17.126073837280273,50.87767791748047,-117.77597045898438, -3.730847120285034
504,261948680,0.7445843,0.17706172,-0.45030144,0.45986065,12.207330703735352,0.5530309081077576,-11.123760223388672,71.32279968261719,-182.6490936279297, -14.128570556640625
505,261965347,0.73353714,0.19295883,-0.466773,0.45476708,15.453317642211914,1.0149661302566528,18.888137817382812,27.142372131347656,-174.4839630126953, -20.422550201416016
506,261982014,0.7257748,0.1968848,-0.4849796,0.44641048,7.24433708190918,1.32333242893219,14.056983947753906,-53.52413558959961,-139.67979431152344, -6.410365104675293
507,261998681,0.7165932,0.19903666,-0.5050459,0.43795806,19.877044677734375,6.391729831695557,-10.958627700805664,-66.51165771484375,-148.4817657470703, 5.914966583251953
508,262015348,0.70497996,0.20642637,-0.5255299,0.42919672,17.404508590698242,-0.16430306434631348,2.997835159301758,-39.66079330444336,-175.04774475097656, -5.802781581878662
509,262032015,0.6933709,0.21177833,-0.54554904,0.4204321,11.311038970947266,-2.03613543510437,-0.22262269258499146,-48.178749084472656,-166.75926208496094, 0.8871580362319946
510,262048682,0.67839605,0.22391519,-0.5597308,0.41993147,15.268608093261719,-4.650432109832764,-2.5926849842071533,36.96770095825195,-159.12255859375, 16.051959991455078
511,262065349,0.6655233,0.23497306,-0.5723296,0.41749907,10.275489807128906,0.6808441281318665,2.877440929412842,25.868988037109375,-143.46792602539062, 2.6534886360168457
512,262082016,0.65543723,0.24110526,-0.5839391,0.41386673,11.009763717651367,-2.7426135540008545,0.9022801518440247,-3.082237482070923,-115.79337310791016, 6.944194793701172
513,262098683,0.64687365,0.2479158,-0.59214854,0.4116462,9.539103507995605,-3.2860093116760254,1.5689352750778198,12.818965911865234,-93.9606704711914, 0.5992984175682068
514,262115350,0.64037335,0.25280714,-0.59865075,0.4094241,9.895228385925293,-3.354940176010132,0.855362594127655,5.583858489990234,-72.55747985839844, -0.37139105796813965
515,262132017,0.6351035,0.25832167,-0.6028594,0.40801245,10.302054405212402,-3.4329521656036377,0.04088706523180008,15.965936660766602,-57.75337600708008, -6.846707344055176
516,262148684,0.62957555,0.26720148,-0.60367674,0.40964937,10.040221214294434,-2.306330680847168,-0.8286962509155273,53.27286148071289,-48.05074691772461, -12.807421684265137
517,262165351,0.6221717,0.2818243,-0.5999231,0.41661727,10.107340812683105,-1.728643536567688,-0.9428964257240295,116.57108306884766,-42.43281173706055, -16.70964813232422
518,262182018,0.6147252,0.29618755,-0.5953762,0.42416155,10.580934524536133,-1.0111178159713745,-0.18283382058143616,120.19872283935547,-37.35612869262695, -14.611001014709473
519,262198685,0.6085916,0.30683503,-0.5931777,0.42849618,10.276755332946777,-0.3400250971317291,0.41214242577552795,81.82152557373047,-37.6127815246582, -12.02733039855957
520,262215352,0.6040316,0.31354982,-0.5935578,0.4295599,10.01379108428955,-1.1431485414505005,0.7693955302238464,41.105003356933594,-37.313533782958984, -8.87268352508545
521,262232019,0.6002734,0.3183026,-0.59527034,0.42896223,9.951702117919922,-0.6707811951637268,0.36495018005371094,20.50749969482422,-37.37958526611328, -7.266293525695801
522,262248686,0.5962883,0.3228155,-0.59741193,0.42817026,9.926800727844238,-0.0490802526473999,0.9841488599777222,17.952363967895508,-39.81098556518555, -5.477517604827881
523,262265353,0.5918114,0.32725564,-0.6001609,0.4271652,10.06865119934082,0.00847863219678402,0.7082569003105164,16.075021743774414,-44.5993766784668, -3.251788377761841
524,262282020,0.58711135,0.33123082,-0.6040527,0.42509598,9.437098503112793,-0.6624869108200073,0.5607396364212036,6.930957794189453,-51.2174186706543, -2.43056583404541
525,262298687,0.5820042,0.33476454,-0.6092514,0.4219202,9.42346477508545,-1.0437742471694946,0.6462135910987854,-2.340658664703369,-59.431026458740234, -0.8963531851768494
526,262315354,0.5764102,0.33818218,-0.6156206,0.4176069,9.077445983886719,-1.7541087865829468,1.399873971939087,-9.849273681640625,-68.45413208007812, -0.8580271005630493
527,262332021,0.56996834,0.3416686,-0.62320286,0.41233104,9.144670486450195,-1.586098074913025,0.7954295873641968,-15.170353889465332,-79.31134796142578, 0.2837695777416229
528,262348688,0.56255066,0.34536716,-0.63181484,0.40628624,9.58901596069336,-1.2003464698791504,0.9767382144927979,-18.268583297729492,-89.95711517333984, 1.5414372682571411
529,262365355,0.5543275,0.34918052,-0.64133894,0.39934763,10.520467758178711,-0.9641901850700378,0.7176504731178284,-22.345233917236328,-99.45201873779297, 1.9998679161071777
530,262382022,0.54565656,0.35266623,-0.6520045,0.39086562,11.663804054260254,-0.5627662539482117,0.6822942495346069,-32.470455169677734,-108.60664367675781, 1.5325987339019775
531,262398689,0.5369488,0.3547703,-0.6645342,0.37976098,11.970253944396973,-1.096928358078003,-0.10811841487884521,-54.33547592163086,-118.44181823730469, 2.5138001441955566
532,262415356,0.5273554,0.35657355,-0.67844385,0.36669555,11.667410850524902,-0.004480824805796146,-0.623494029045105,-65.85379028320312,-131.6061553955078, 2.3311703205108643
533,262432023,0.5165872,0.35798824,-0.69371486,0.35177013,12.072244644165039,0.2356553077697754,-0.146563321352005,-76.48078918457031,-145.629638671875, 3.708387613296509
534,262448690,0.5043123,0.35962424,-0.7098503,0.33533937,13.629766464233398,0.973301887512207,0.6767915487289429,-81.26338195800781,-160.16058349609375, 3.0902223587036133
535,262465357,0.4915845,0.3601366,-0.72747415,0.31532195,14.937646865844727,1.3374500274658203,0.4746018350124359,-104.98721313476562,-173.86155700683594, 0.8805582523345947
536,262482024,0.47965297,0.3584805,-0.7467183,0.28954566,17.395126342773438,1.9638313055038452,2.604025363922119,-146.60301208496094,-184.97695922851562, -5.4378767013549805
537,262498691,0.47174665,0.35527983,-0.76418346,0.25933602,21.74134635925293,3.1925246715545654,6.577295780181885,-180.84042358398438,-166.37844848632812, -24.51215171813965
538,262515358,0.46999687,0.3480238,-0.7802401,0.22182879,26.065832138061523,3.871608257293701,13.118578910827637,-244.89993286132812,-140.19602966308594, -41.27550506591797
539,262532025,0.46924698,0.33802933,-0.795404,0.18131717,23.4523868560791,-8.116009712219238,12.328205108642578,-270.9023742675781,-135.16712951660156, -39.95790481567383
540,262548692,0.4589696,0.33651015,-0.80914843,0.14624175,18.97136688232422,-11.656916618347168,7.827552795410156,-189.95433044433594,-180.803466796875, -60.273406982421875
541,262565359,0.4445087,0.33557233,-0.82395273,0.104427926,17.200572967529297,-16.802978515625,4.521646976470947,-217.09829711914062,-223.75253295898438, -78.23658752441406
542,262582026,0.42706394,0.34116355,-0.8336508,0.07905797,14.042908668518066,-12.972050666809082,0.4467071294784546,-93.49806213378906,-191.84466552734375, -74.71111297607422
543,262598693,0.41840118,0.34311637,-0.83899856,0.0573863,13.65229320526123,-6.748021602630615,5.9605393409729,-101.29608917236328,-118.11128997802734, -58.05364990234375
544,262615360,0.41790327,0.344112,-0.8396794,0.043387,4.494321346282959,-10.368850708007812,11.22281551361084,-77.2540054321289,-39.1874885559082, -44.7318000793457
545,262632027,0.4218992,0.3459551,-0.836806,0.045517556,2.6090149879455566,-5.2099103927612305,8.278668403625488,8.68057918548584,34.80773162841797, -13.07304573059082
546,262648694,0.4323112,0.34551612,-0.8310495,0.05552096,5.651119232177734,-0.5388765335083008,7.159441947937012,32.996307373046875,99.49247741699219, 14.00989818572998
547,262665361,0.4469426,0.34394395,-0.8223691,0.07519523,4.854245662689209,-2.9827237129211426,5.445444107055664,76.00443267822266,155.6659393310547, 40.685611724853516
548,262682028,0.46425092,0.34277087,-0.8097063,0.10655998,4.902707099914551,-2.20558500289917,4.0223259925842285,139.0836639404297,210.47801208496094, 63.567901611328125
549,262698695,0.487257,0.3370154,-0.7936824,0.13809279,5.737607955932617,-2.52323317527771,2.6401314735412598,114.42930603027344,256.6837158203125, 77.53992462158203
550,262715362,0.51569784,0.32588917,-0.77399415,0.16966137,6.824488639831543,-3.333116054534912,1.616295337677002,87.51883697509766,303.828125, 93.32524108886719
551,262732029,0.5479151,0.3098657,-0.7505201,0.20122567,9.25359058380127,-2.522455930709839,1.0414754152297974,66.07230377197266,343.0934753417969, 106.4795913696289
552,262748696,0.5820619,0.28937298,-0.72340566,0.2327052,12.432666778564453,-0.7877107858657837,-0.15981245040893555,49.735137939453125,372.8141784667969, 118.78527069091797
553,262765363,0.6155054,0.26520377,-0.6933849,0.26464665,15.307756423950195,-0.2457175850868225,-2.0010228157043457,43.37749099731445,387.789794921875, 134.26611328125
554,262782030,0.6453865,0.24384883,-0.6578045,0.30217132,18.09158706665039,0.15943928062915802,-2.65329647064209,98.59649658203125,399.4595031738281, 140.83938598632812
555,262798697,0.6707204,0.23182948,-0.61332405,0.34673172,21.129262924194336,0.9435096979141235,-4.602384090423584,198.0782012939453,410.8851013183594, 124.4063491821289
556,262815364,0.6942003,0.2190176,-0.5671094,0.38536233,23.79245948791504,1.268523931503296,-5.20114278793335,176.36166381835938,403.55731201171875, 102.05366516113281
557,262832031,0.71660316,0.19667807,-0.52794933,0.41117778,25.372468948364258,1.0491760969161987,-9.076519012451172,63.85112380981445,371.6418151855469, 91.55660247802734
558,262848698,0.73505944,0.17050111,-0.4964551,0.42912614,22.26152229309082,0.398101270198822,-11.66926097869873,0.11308552324771881,319.8412170410156, 88.30685424804688
559,262865365,0.7478328,0.15178612,-0.46948153,0.44417816,17.204980850219727,1.8073270320892334,-14.761388778686523,21.267900466918945,252.31568908691406, 70.26667785644531
560,262882032,0.7559083,0.14159681,-0.4483101,0.45559996,14.358680725097656,5.0062384605407715,-18.765010833740234,40.654903411865234,177.63552856445312, 44.562068939208984
561,262898699,0.7587107,0.1375611,-0.43824974,0.46192247,11.636350631713867,3.131261110305786,-23.13272476196289,27.28498077392578,79.5769271850586, 26.510263442993164
562,262915366,0.7554148,0.14378187,-0.43869495,0.46499717,10.292816162109375,1.4336344003677368,-21.388057708740234,43.46367263793945,-29.035995483398438, 8.039976119995117
563,262932033,0.7465413,0.16172984,-0.4467464,0.46576515,11.56484317779541,1.5836689472198486,-17.381576538085938,78.66842651367188,-124.95449829101562, -13.923887252807617
564,262948700,0.73458,0.18396538,-0.46063396,0.46299607,14.052265167236328,2.7471630573272705,-5.685825824737549,74.6009292602539,-181.90521240234375, -28.846208572387695
565,262965367,0.7267168,0.19225611,-0.47991905,0.45232517,12.654279708862305,-1.6353480815887451,21.45381736755371,-43.20850372314453,-161.69361877441406, -30.762523651123047
566,262982034,0.7178787,0.19764723,-0.49830016,0.44416535,14.33294677734375,3.2866973876953125,-1.7518316507339478,-45.34469985961914,-148.17959594726562, -6.819652557373047
567,262998701,0.7059853,0.20649125,-0.51844615,0.4360733,20.066259384155273,0.5862404108047485,-4.8519134521484375,-29.286508560180664,-177.7676239013672, -6.5331268310546875
568,263015368,0.69397193,0.21676613,-0.5375019,0.4272088,11.678262710571289,2.86883807182312,2.5843594074249268,-21.61498260498047,-178.2000274658203, -16.535106658935547
569,263032035,0.6814305,0.22323243,-0.5557981,0.4206046,14.097436904907227,-4.190808296203613,-4.594501972198486,-28.40447998046875,-161.9746551513672, 8.779674530029297
570,263048702,0.6672782,0.23594493,-0.5679676,0.4200986,13.322770118713379,-1.0845394134521484,0.7335548400878906,44.384464263916016,-148.06521606445312, 8.704307556152344
571,263065369,0.65655106,0.24300869,-0.57979614,0.4168021,11.076027870178223,1.0612156391143799,1.9584904909133911,3.030313014984131,-121.32659149169922, 7.5118207931518555
572,263082036,0.64778745,0.24786845,-0.5899755,0.41335434,11.689295768737793,-2.2852261066436768,2.213296890258789,-6.0906476974487305,-100.00137329101562, 7.239001750946045
573,263098703,0.6406553,0.25183308,-0.598076,0.4104221,9.928586959838867,-1.8035954236984253,1.1503915786743164,-4.834163188934326,-80.72003936767578, 4.9777960777282715
574,263115370,0.6353278,0.25406352,-0.60526675,0.4067708,9.875629425048828,-3.2060694694519043,-0.03400655835866928,-16.01055335998535,-65.65135955810547, 2.257699728012085
575,263132037,0.63068104,0.25750336,-0.6106526,0.40377825,9.364751815795898,-3.946058750152588,0.0829952284693718,-4.109362602233887,-57.17240905761719, -4.970522403717041
576,263148704,0.6246348,0.26719108,-0.6114682,0.4056443,9.819600105285645,-3.0759263038635254,-1.0124331712722778,58.53115463256836,-51.97493362426758, -14.377690315246582
577,263165371,0.61683154,0.28265747,-0.60769016,0.41271824,9.632366180419922,-3.463557243347168,-0.8344759345054626,121.29078674316406,-46.17562484741211, -19.88091278076172
578,263182038,0.6078236,0.3000312,-0.60188854,0.42221117,9.573019027709961,-2.887645721435547,-0.45504137873649597,147.5676727294922,-43.331119537353516, -18.15493392944336
579,263198705,0.5999919,0.31408086,-0.5978442,0.4288886,9.650155067443848,-1.545711636543274,0.4067445695400238,114.48353576660156,-41.96209716796875, -15.997699737548828
580,263215372,0.5937483,0.32394347,-0.5966013,0.43196157,10.120311737060547,-0.7146814465522766,0.5585392713546753,70.69831085205078,-42.43566131591797, -12.311046600341797
581,263232039,0.58848125,0.3310975,-0.5972882,0.43279472,10.529841423034668,0.9194753766059875,1.032352328300476,42.537471771240234,-43.26131057739258, -8.954842567443848
582,263248706,0.5837867,0.33637872,-0.5994498,0.43209094,10.620759963989258,0.527490496635437,0.6201791763305664,22.954517364501953,-44.81898880004883, -5.8159918785095215
583,263265373,0.5790383,0.34047726,-0.6030357,0.43027654,10.143170356750488,0.21351274847984314,0.4377857744693756,9.529220581054688,-49.826934814453125, -1.9328287839889526
584,263282040,0.57418096,0.3438164,-0.6079304,0.4272321,9.618206977844238,-0.5933170914649963,0.2767292261123657,-2.2086846828460693,-56.13550567626953, -0.28586652874946594
585,263298707,0.56903607,0.34689412,-0.6138712,0.42311317,9.140271186828613,-1.5667756795883179,0.7717537879943848,-10.126676559448242,-63.25128936767578, -0.11469531059265137
586,263315374,0.56321055,0.35014397,-0.62074536,0.4181727,9.247400283813477,-2.29496693611145,0.48128804564476013,-14.025639533996582,-72.25310516357422, 0.1432865709066391
587,263332041,0.5567326,0.3536689,-0.6283343,0.41250855,9.906496047973633,-1.8063973188400269,0.8401635885238647,-16.532419204711914,-80.35535430908203, -0.24911506474018097
588,263348708,0.55014426,0.3561609,-0.6374159,0.4052059,10.265806198120117,-0.8641390204429626,1.2979190349578857,-31.54963493347168,-87.6236343383789, 1.877243995666504
589,263365375,0.5429144,0.35838023,-0.6475512,0.39684406,10.957233428955078,-0.42108091711997986,-0.3098464906215668,-38.5931396484375,-96.28438568115234, 3.4378345012664795
590,263382042,0.5347466,0.36165228,-0.6577641,0.38807243,11.449738502502441,0.347368985414505,0.0060080885887146,-34.37907791137695,-104.64886474609375, -0.020542262122035027
591,263398709,0.5254345,0.36499208,-0.6690992,0.37816122,11.64991569519043,0.37438830733299255,-1.1622649431228638,-39.43336868286133,-116.98883056640625, 1.3419406414031982
592,263415376,0.5150311,0.3676794,-0.68190825,0.36681908,11.25692081451416,0.7515471577644348,-0.1525382548570633,-49.460289001464844,-129.24603271484375, 5.725831031799316
593,263432043,0.50332135,0.3697702,-0.6962761,0.35374743,12.369311332702637,1.0082796812057495,-0.23117472231388092,-60.30441665649414,-143.79232788085938, 9.651419639587402
594,263448710,0.4905877,0.37146333,-0.71187496,0.33848625,13.238470077514648,0.316781222820282,0.2706385850906372,-72.55024719238281,-157.59315490722656, 9.618599891662598
595,263465377,0.4768883,0.37245548,-0.729076,0.319848,14.505439758300781,-0.5451433062553406,0.8319644927978516,-92.7108154296875,-174.77505493164062, 8.013418197631836
596,263482044,0.46408936,0.37128788,-0.74816805,0.29497623,16.910118103027344,-1.2800848484039307,3.475510358810425,-137.49916076660156,-187.7548065185547, 1.264029622077942
597,263498711,0.45452958,0.36759984,-0.76748264,0.26314247,20.827560424804688,-0.6907587051391602,6.671464443206787,-190.12046813964844,-184.58172607421875, -13.98505973815918
598,263515378,0.45123306,0.35934144,-0.786354,0.22115606,24.5979061126709,1.8150027990341187,10.07751178741455,-273.1033935546875,-167.7212371826172, -34.04421615600586
599,263532045,0.4485563,0.3482806,-0.8049537,0.1718946,23.616647720336914,-6.348202228546143,8.248502731323242,-322.2926025390625,-177.49569702148438, -43.094173431396484
600,263548712,0.44764867,0.33665082,-0.8189474,0.124908455,21.771278381347656,-11.138778686523438,11.79745864868164,-310.2884521484375,-147.56666564941406, -46.14129638671875
601,263565379,0.44248164,0.33144075,-0.82958215,0.078426756,15.552865982055664,-13.889782905578613,2.434621810913086,-275.0535583496094,-165.79371643066406, -84.9978256225586
602,263582046,0.4304134,0.33308035,-0.83742124,0.05027473,14.079373359680176,-14.14460277557373,-1.1709904670715332,-132.47569274902344,-158.64906311035156, -71.08319854736328
603,263598713,0.42037064,0.33546704,-0.8424005,0.0333455,12.636075019836426,-5.151782989501953,3.3003273010253906,-69.44202423095703,-113.151611328125, -49.52786636352539
604,263615380,0.41724896,0.3352064,-0.84442776,0.02195503,7.228802680969238,-8.611934661865234,10.219073295593262,-60.353668212890625,-51.256317138671875, -26.636363983154297
605,263632047,0.41621688,0.33812734,-0.84346706,0.031576,3.3028159141540527,-7.429574489593506,7.590149402618408,66.33516693115234,17.256200790405273, 7.908149242401123
606,263648714,0.42120373,0.3401817,-0.8392051,0.05098013,6.215312480926514,1.0608094930648804,8.07055950164795,107.26009368896484,84.4515609741211, 31.931598663330078
607,263665381,0.43294305,0.3393027,-0.8318525,0.07386363,4.3040032386779785,-2.7132716178894043,5.608424186706543,104.17041778564453,141.43212890625, 49.359703063964844
608,263682048,0.44906178,0.3380658,-0.8202623,0.10594731,5.091886043548584,-1.9955577850341797,5.245550632476807,147.66554260253906,200.6901092529297, 66.7001724243164
609,263698715,0.47174937,0.332282,-0.8050981,0.13732563,6.1938910484313965,-1.28732430934906,3.7328948974609375,116.97679901123047,250.3914031982422, 77.08582305908203
610,263715382,0.49976665,0.32306734,-0.7854814,0.16994092,7.500726699829102,-2.6191940307617188,1.9059538841247559,104.71775817871094,300.37664794921875, 84.895263671875
611,263732049,0.5314373,0.3110716,-0.7610965,0.20381632,9.22601318359375,-0.9554688334465027,1.7959014177322388,99.41570281982422,342.53851318359375, 89.3688735961914
612,263748716,0.56675446,0.2933485,-0.7331036,0.23514956,11.734416007995605,0.46229586005210876,0.9016557931900024,62.438289642333984,377.39093017578125, 97.21037292480469
613,263765383,0.6033257,0.26997066,-0.7019964,0.26517004,15.023585319519043,0.14072979986667633,-1.1748210191726685,36.303810119628906,402.35467529296875, 112.28096008300781
614,263782050,0.6371597,0.24755889,-0.66574097,0.29921764,17.657068252563477,0.12999314069747925,-2.026129722595215,74.26988983154297,416.2485656738281, 119.75357055664062
615,263798717,0.6668586,0.2283788,-0.6237361,0.33778134,21.31401824951172,-1.1423839330673218,-3.8450701236724854,128.0106201171875,423.6053161621094, 123.48991394042969
616,263815384,0.6935323,0.20598146,-0.5808572,0.3730813,24.407466888427734,-0.16277652978897095,-5.820244312286377,106.00354766845703,417.0474853515625, 127.98445129394531
617,263832051,0.7170735,0.18157957,-0.5401133,0.40138787,25.423141479492188,3.186039447784424,-8.206486701965332,67.47340393066406,389.6752014160156, 113.71198272705078
618,263848718,0.73590004,0.15632778,-0.50518686,0.42284662,23.116416931152344,0.3725684583187103,-10.241996765136719,27.71554946899414,337.40716552734375, 103.45320129394531
619,263865385,0.7475717,0.1442468,-0.47093445,0.44558972,18.809402465820312,1.130788803100586,-14.248786926269531,104.63312530517578,272.4200744628906, 85.79143524169922
620,263882052,0.75390065,0.14388439,-0.44039026,0.46581936,15.19198226928711,4.041479587554932,-18.130699157714844,150.76766967773438,197.89419555664062, 55.09041213989258
621,263898719,0.75611955,0.145695,-0.42286384,0.47774735,11.626337051391602,4.779141902923584,-22.34600067138672,99.3217544555664,103.0654525756836, 31.657995223999023
622,263915386,0.7539731,0.15013579,-0.4207107,0.48164982,10.192460060119629,2.4454026222229004,-21.57969093322754,43.60636520385742,-5.909430027008057, 12.159390449523926
623,263932053,0.7471014,0.16398865,-0.42784292,0.48155773,11.093396186828613,1.1771330833435059,-17.180461883544922,55.05686569213867,-102.70600128173828, -10.449178695678711
624,263948720,0.7366852,0.18278617,-0.44218734,0.47786447,12.536160469055176,-0.41669762134552,-11.10593318939209,50.056556701660156,-170.36163330078125, -23.568384170532227
625,263965387,0.7268606,0.19410239,-0.4633344,0.4683153,15.32024097442627,-4.432209014892578,9.412528991699219,-28.670995712280273,-185.60128784179688, -23.83980369567871
626,263982054,0.7188018,0.19969366,-0.4832763,0.4581383,10.000870704650879,-1.8892582654953003,12.114855766296387,-57.752159118652344,-156.36785888671875, -16.063657760620117
627,263998721,0.7079068,0.20697226,-0.50250244,0.45113397,18.97295379638672,4.440615653991699,-8.044050216674805,-32.743568420410156,-163.31063842773438, 1.9428426027297974
628,264015388,0.69454783,0.21884939,-0.5212681,0.44495827,17.037614822387695,0.6801994442939758,-0.3667925000190735,-2.4849798679351807,-182.4931640625, -2.8045873641967773
629,264032055,0.6829937,0.22737698,-0.5397121,0.4364977,10.66412353515625,3.252072334289551,1.4451179504394531,-28.37067413330078,-167.60809326171875, -7.681224822998047
630,264048722,0.6690092,0.23575015,-0.5553938,0.43403494,16.000356674194336,-7.001182556152344,-5.221895694732666,5.28878927230835,-153.8133544921875, 24.089887619018555
631,264065389,0.6549468,0.24941374,-0.5651415,0.4352615,12.671544075012207,2.998096466064453,3.831299304962158,61.581722259521484,-136.51429748535156, 11.380070686340332
632,264082056,0.64499027,0.2537614,-0.5773793,0.43153915,11.357935905456543,-1.594491720199585,2.9898016452789307,-14.067798614501953,-112.41535186767578, 17.321269989013672
633,264098723,0.63599765,0.25953776,-0.58552736,0.43047065,10.403376579284668,-1.94149649143219,1.6461409330368042,13.2536039352417,-90.09454345703125, 13.402994155883789
634,264115390,0.629981,0.260826,-0.5939879,0.4269335,10.47834300994873,-1.5715984106063843,2.620549201965332,-22.529977798461914,-70.62860870361328, 12.410014152526855
635,264132057,0.6273813,0.2544452,-0.6053989,0.41850045,10.79050064086914,-1.9518218040466309,0.955735981464386,-90.5487060546875,-55.76723861694336, 17.780200958251953
636,264148724,0.62616694,0.24596001,-0.6167494,0.40870425,10.395099639892578,-1.682884693145752,-0.6039296388626099,-107.5526123046875,-46.10078430175781, 16.57451629638672
637,264165391,0.624788,0.23949857,-0.62586796,0.4007117,10.676034927368164,-0.6465477347373962,-0.6150525808334351,-84.61616516113281,-39.84257507324219, 12.460886001586914
638,264182058,0.62320125,0.23501328,-0.6335763,0.39366263,10.308692932128906,-1.2968682050704956,-0.46746963262557983,-67.84717559814453,-38.5802001953125, 6.27833890914917
639,264198725,0.6217928,0.23148543,-0.64039665,0.3868857,9.677809715270996,-1.803411602973938,-0.6970312595367432,-60.43796157836914,-36.16792678833008, 1.3654818534851074
640,264215392,0.6208092,0.22803065,-0.6471036,0.37928233,9.156452178955078,-2.7492716312408447,-0.35540422797203064,-64.13802337646484,-35.336204528808594, -3.8004586696624756
641,264232059,0.61985314,0.22505406,-0.6533475,0.37184656,9.274614334106445,-3.007683515548706,-0.08625677973031998,-60.19642639160156,-34.239891052246094, -6.024990558624268
642,264248726,0.61839324,0.22329944,-0.6590701,0.3651767,9.276537895202637,-2.929516553878784,-0.5127784609794617,-49.4531364440918,-36.240535736083984, -7.78846549987793
643,264265393,0.6160572,0.22405721,-0.6634878,0.36063293,8.940569877624512,-3.1513924598693848,-0.3298460841178894,-24.51942253112793,-37.72171401977539, -9.957587242126465
644,264282060,0.6131478,0.22607668,-0.6673648,0.3571602,8.500456809997559,-3.1737964153289795,-0.7951914668083191,-12.080819129943848,-39.540706634521484, -10.615930557250977
645,264298727,0.60942876,0.22943981,-0.6708732,0.3548,8.268731117248535,-3.866260051727295,-0.4569873809814453,0.8343843817710876,-43.2805061340332, -10.707362174987793
646,264315394,0.6047697,0.23449112,-0.6739687,0.35360092,8.410209655761719,-4.291183948516846,-0.02050897292792797,15.73111629486084,-48.18475341796875, -12.029770851135254
647,264332061,0.59938776,0.24061632,-0.6769119,0.3530279,8.792537689208984,-3.6934194564819336,-0.21994169056415558,24.616687774658203,-52.52198791503906, -12.938299179077148
648,264348728,0.59364337,0.24677245,-0.6806418,0.3513087,9.54604434967041,-1.6995168924331665,0.17578032612800598,18.080543518066406,-59.438751220703125, -15.663021087646484
649,264365395,0.5868775,0.25322008,-0.68548495,0.34866175,10.081147193908691,-0.594157338142395,0.3174035847187042,13.956367492675781,-71.06513214111328, -16.469003677368164
650,264382062,0.5779842,0.26126885,-0.69138896,0.3459104,10.717329025268555,0.4281947910785675,-0.16586586833000183,21.089780807495117,-89.42362213134766, -17.488018035888672
651,264398729,0.5664432,0.2719312,-0.69828445,0.34292018,11.44399356842041,0.7997750639915466,0.13500474393367767,32.744415283203125,-112.623046875, -22.771514892578125
652,264415396,0.55202866,0.2852489,-0.706031,0.3397319,11.667868614196777,0.26747646927833557,-0.41919535398483276,45.5106201171875,-136.4015655517578, -27.91339683532715
653,264432063,0.53552955,0.29993853,-0.71464807,0.33544487,12.178582191467285,1.0288926362991333,-0.14657647907733917,47.43802261352539,-155.21624755859375, -32.16414260864258
654,264448730,0.5184799,0.31446835,-0.7239262,0.32896692,12.771234512329102,0.21649470925331116,-0.22263696789741516,35.72140884399414,-164.5483856201172, -36.804744720458984
655,264465397,0.50202143,0.32768288,-0.73374957,0.31970325,13.839861869812012,-0.5703496932983398,-0.19413632154464722,14.658646583557129,-166.6412353515625, -40.3463134765625
656,264482064,0.48730516,0.33841088,-0.7441204,0.30707783,14.53205394744873,-1.9015398025512695,0.4340663552284241,-16.03814125061035,-161.9017333984375, -42.001564025878906
657,264498731,0.4749311,0.3456814,-0.7558208,0.289275,15.618046760559082,-0.7830413579940796,1.5225965976715088,-62.373138427734375,-159.19436645507812, -43.52973175048828
658,264515398,0.46587256,0.34885907,-0.76906186,0.2642047,17.498188018798828,-0.1915774792432785,4.677290439605713,-124.49971771240234,-156.22927856445312, -48.9192008972168
659,264532065,0.4587392,0.34849763,-0.78364116,0.23241031,20.492488861083984,-1.976531744003296,8.254281044006348,-178.46315002441406,-160.1964569091797, -52.0377311706543
660,264548732,0.4504266,0.3474054,-0.7983902,0.19748002,22.77880859375,-4.5814409255981445,8.868452072143555,-195.17210388183594,-173.64859008789062, -55.726593017578125
661,264565399,0.4356634,0.35033965,-0.81248534,0.16530973,23.653230667114258,-8.360517501831055,8.691303253173828,-151.31927490234375,-206.14149475097656, -62.143028259277344
662,264582066,0.42922285,0.34740072,-0.82418805,0.1256769,23.40484619140625,-11.144648551940918,17.824251174926758,-228.04879760742188,-164.01287841796875, -67.0240707397461
663,264598733,0.42296088,0.34845877,-0.8320644,0.08572977,16.56137466430664,-11.97565746307373,1.4805212020874023,-215.29100036621094,-156.23133850097656, -100.03816986083984
664,264615400,0.41225794,0.35280266,-0.8377699,0.06095549,15.240032196044922,-13.834152221679688,-5.969365119934082,-107.08524322509766,-140.9881591796875, -77.41499328613281
665,264632067,0.40118766,0.360739,-0.8404182,0.05111908,15.287755966186523,-3.1898043155670166,2.2373604774475098,-8.85114860534668,-99.74275970458984, -63.112056732177734
666,264648734,0.40003747,0.36186633,-0.84104854,0.040747263,5.135852813720703,-6.862130641937256,13.31436538696289,-54.6507682800293,-35.897037506103516, -33.764339447021484
667,264665401,0.40183407,0.36550716,-0.83806145,0.050863136,3.3436949253082275,-5.926204681396484,5.2289204597473145,64.38724517822266,41.241493225097656, -1.806206464767456
668,264682068,0.4078327,0.3671638,-0.8330632,0.06977928,5.155447959899902,-2.277070999145508,5.06212854385376,99.72007751464844,93.7857894897461, 27.421630859375
669,264698735,0.4177708,0.36864394,-0.82448834,0.09893492,4.031686305999756,-3.114299774169922,4.8555402755737305,149.66265869140625,152.2850799560547, 46.25844192504883
670,264715402,0.43393776,0.3671662,-0.8121022,0.1318216,3.902803897857666,-1.0177597999572754,5.110100269317627,149.1168670654297,210.0026092529297, 59.87910079956055
671,264732069,0.4570065,0.36082327,-0.7961816,0.16445814,4.372492790222168,-2.163001298904419,4.622291564941406,118.99681091308594,262.86492919921875, 71.14888000488281
672,264748736,0.48492834,0.35116762,-0.77571815,0.19946781,6.265261173248291,-1.6291530132293701,3.633190155029297,114.67786407470703,313.3643493652344, 79.9940185546875
673,264765403,0.5170701,0.33738175,-0.75089127,0.2344661,8.739974021911621,-0.2537256181240082,2.349086046218872,96.63621520996094,356.08624267578125, 85.66307067871094
674,264782070,0.5522395,0.3193144,-0.7215667,0.26909408,11.340864181518555,0.7363683581352234,0.8264871835708618,79.77511596679688,393.7976379394531, 91.13157653808594
675,264798737,0.5888408,0.29604968,-0.68829966,0.30309248,14.755257606506348,0.08498725295066833,-0.8407645225524902,61.05035400390625,424.1700744628906, 103.23454284667969
676,264815404,0.6234988,0.2712494,-0.65003777,0.3392995,18.44407081604004,0.7440280914306641,-2.2750563621520996,79.75596618652344,442.9720458984375, 113.33480834960938
677,264832071,0.65562004,0.24473555,-0.6082594,0.3745495,22.28437614440918,0.8111987113952637,-4.961521625518799,81.12743377685547,449.00396728515625, 116.2817611694336
678,264848738,0.68310034,0.22058232,-0.56365436,0.4086697,25.57012176513672,-0.5722432136535645,-8.705272674560547,102.07414245605469,434.4687805175781, 108.51577758789062
679,264865405,0.70558923,0.20053202,-0.519369,0.438391,26.930002212524414,1.7658483982086182,-11.146317481994629,110.98568725585938,395.5584411621094, 86.46761322021484
680,264882072,0.72375965,0.17779294,-0.48467577,0.45787662,23.52401351928711,0.3337181508541107,-14.504469871520996,38.485591888427734,327.7398681640625, 72.735595703125
681,264898739,0.7347543,0.16457418,-0.45535722,0.47508037,18.15546226501465,-0.6650925874710083,-19.081722259521484,70.20536804199219,244.54501342773438, 58.89098358154297
682,264915406,0.74000645,0.16283473,-0.4313229,0.48973042,14.432144165039062,2.1016170978546143,-21.47931671142578,109.56853485107422,159.75851440429688, 34.88323974609375
683,264932073,0.7400848,0.1676887,-0.41804183,0.49939573,12.08127212524414,2.3102428913116455,-23.901941299438477,98.00105285644531,62.21150207519531, 19.529582977294922
684,264948740,0.73513794,0.1758344,-0.41927722,0.5028529,11.727621078491211,0.9260350465774536,-20.79376220703125,52.9444580078125,-44.2537841796875, 12.559935569763184
685,264965407,0.7259373,0.19075973,-0.4294921,0.5021577,12.170631408691406,0.2549683451652527,-15.605684280395508,49.429256439208984,-130.1049346923828, -2.3499207496643066
686,264982074,0.71387553,0.20913859,-0.44574976,0.49794567,13.706785202026367,-0.6587888598442078,-4.141866207122803,39.2486457824707,-185.05345153808594, -12.262519836425781
687,264998741,0.7064868,0.21460429,-0.46644166,0.48708677,10.280532836914062,-4.425404071807861,25.811697006225586,-66.37515258789062,-157.7417449951172, -14.915364265441895
688,265015408,0.6994268,0.21560806,-0.48762444,0.4759599,12.798637390136719,4.912453651428223,-2.689201593399048,-91.09941864013672,-144.76470947265625, -2.342766523361206
689,265032075,0.6895883,0.21972023,-0.50980103,0.4650743,21.777833938598633,2.4192404747009277,-7.802093029022217,-74.45748901367188,-168.6173858642578, -0.945759654045105
690,265048742,0.6780533,0.22792138,-0.53005743,0.45534056,12.339646339416504,0.05963386967778206,3.881735324859619,-42.2452278137207,-176.64735412597656, -7.19903039932251
691,265065409,0.6639544,0.23659074,-0.5473767,0.45118546,16.072044372558594,-5.005935192108154,-5.823768138885498,-6.508387088775635,-165.0458526611328, 20.53020668029785
692,265082076,0.64942557,0.2497959,-0.5599419,0.44979283,12.488561630249023,1.3550533056259155,3.602708339691162,40.11469650268555,-154.44918823242188, 9.627598762512207
693,265098743,0.63857645,0.2554764,-0.5733592,0.4452093,10.516961097717285,-0.3024897277355194,2.78763484954834,-14.733980178833008,-126.32695770263672, 14.437795639038086
694,265115410,0.6299665,0.25928953,-0.5842292,0.44112086,10.649260520935059,-2.021066188812256,1.9839351177215576,-17.105710983276367,-99.77063751220703, 12.645153045654297
695,265132077,0.6241049,0.25871015,-0.59512717,0.43518493,10.570168495178223,-1.4745302200317383,1.5822372436523438,-48.53306198120117,-78.85773468017578, 13.987354278564453
