PacketCounter,SampleTimeFine,Quat_W,Quat_X,Quat_Y,Quat_Z,Acc_X,Acc_Y,Acc_Z,Gyr_X,Gyr_Y,Gyr_Z 
1,253980623,0.7789763,-0.17304468,-0.59753007,-0.07879932,0.11138004809617996,0.5298982858657837,-0.9309735298156738,-0.2289021909236908,-0.15649643540382385, -0.8351849317550659
2,253997290,0.7790572,-0.1732788,-0.5974245,-0.078283794,9.421738624572754,-1.8064905405044556,2.2012033462524414,0.4909762442111969,0.48390716314315796, 1.4639003276824951
3,254013957,0.7790443,-0.17387635,-0.59734595,-0.07768455,9.423389434814453,-1.816625714302063,2.2157130241394043,0.7363460063934326,0.34653347730636597, 1.518698811531067
4,254030624,0.77907234,-0.17438437,-0.5972424,-0.07705886,9.42789363861084,-1.7700444459915161,2.186558723449707,0.835364580154419,0.3330739736557007, 1.5221434831619263
5,254047291,0.77904266,-0.17476906,-0.5972092,-0.076743715,9.433646202087402,-1.7368130683898926,2.2237319946289062,0.7684258222579956,0.43489721417427063, 1.488847017288208
6,254063958,0.7790529,-0.17498015,-0.5971469,-0.07664425,9.439266204833984,-1.758701205253601,2.202669382095337,0.7593076825141907,0.46574777364730835, 1.4010595083236694
7,254080625,0.77907014,-0.17511986,-0.5970969,-0.076538056,9.432153701782227,-1.771550178527832,2.2192859649658203,0.5533688068389893,0.5685058832168579, 1.4874513149261475
8,254097292,0.7791154,-0.17519939,-0.5970317,-0.07640343,9.429278373718262,-1.7701332569122314,2.187495231628418,0.6678575873374939,0.6164016127586365, 1.4590083360671997
9,254113959,0.77916485,-0.17523973,-0.59697604,-0.07624127,9.417613983154297,-1.7981886863708496,2.202653169631958,0.5784052610397339,0.7752004265785217, 1.404184341430664
10,254130626,0.77922314,-0.17531063,-0.5968931,-0.07613244,9.417997360229492,-1.8254945278167725,2.2033867835998535,0.9610333442687988,0.8062942624092102, 1.3205716609954834
11,254147293,0.7792845,-0.17537221,-0.59681237,-0.0759962,9.436473846435547,-1.7597025632858276,2.220895767211914,0.9932283759117126,0.7679775953292847, 1.188742995262146
12,254163960,0.77933985,-0.17544395,-0.59673,-0.07590892,9.442131042480469,-1.7498184442520142,2.2471156120300293,0.7671579718589783,0.7049831748008728, 1.1721715927124023
13,254180627,0.77938306,-0.1755099,-0.5966609,-0.075856395,9.411230087280273,-1.7282352447509766,2.259983777999878,0.7076339721679688,0.46948713064193726, 1.1239044666290283
14,254197294,0.77941835,-0.1755862,-0.5965968,-0.07582217,9.41540813446045,-1.7206108570098877,2.222881555557251,0.48439380526542664,0.2870607376098633, 1.1946723461151123
15,254213961,0.77943593,-0.17560084,-0.59658504,-0.07569867,9.418516159057617,-1.7978001832962036,2.2476582527160645,0.741814136505127,-0.056066203862428665, 1.3594003915786743
16,254230628,0.7794532,-0.17563368,-0.5965711,-0.075556226,9.43957805633545,-1.7437007427215576,2.2123138904571533,0.836209774017334,-0.14581309258937836, 1.4658979177474976
17,254247295,0.779464,-0.17570557,-0.5965503,-0.07544074,9.440507888793945,-1.7157011032104492,2.213495969772339,0.5723221302032471,-0.09201361984014511, 1.5455150604248047
18,254263962,0.7794708,-0.17583644,-0.59650594,-0.075417385,9.420455932617188,-1.7690311670303345,2.1945059299468994,0.680202841758728,-0.031849391758441925, 1.5936286449432373
19,254280629,0.77949905,-0.17585078,-0.596488,-0.075232394,9.424612998962402,-1.8184176683425903,2.1923816204071045,1.0581693649291992,0.007638987153768539, 1.698678970336914
20,254297296,0.77953416,-0.17587762,-0.59645575,-0.07506166,9.446741104125977,-1.7586662769317627,2.2041211128234863,1.0730886459350586,0.13545915484428406, 1.6287178993225098
21,254313963,0.77956736,-0.17593181,-0.59641,-0.07495459,9.446198463439941,-1.718457818031311,2.2034945487976074,0.5769068002700806,0.29570502042770386, 1.4056313037872314
22,254330630,0.7795921,-0.17603938,-0.59635115,-0.0749108,9.44675350189209,-1.7242457866668701,2.2034008502960205,0.046557482331991196,0.3847859799861908, 1.3574409484863281
23,254347297,0.77962536,-0.17616153,-0.5962734,-0.07489654,9.43019962310791,-1.7517582178115845,2.1915125846862793,-0.06054842099547386,0.5397940278053284, 1.3404853343963623
24,254363964,0.7796649,-0.17628399,-0.59618694,-0.07488648,9.427469253540039,-1.7998721599578857,2.212578535079956,0.19377928972244263,0.5788149237632751, 1.3915059566497803
25,254380631,0.7797189,-0.17635575,-0.59609884,-0.07485543,9.40596866607666,-1.7607091665267944,2.2228598594665527,0.5451598763465881,0.6474186182022095, 1.2535431385040283
26,254397298,0.77978367,-0.17643769,-0.5959918,-0.07483985,9.408928871154785,-1.8037763833999634,2.191740036010742,0.6009571552276611,0.7560036778450012, 1.2724452018737793
27,254413965,0.77987134,-0.17639132,-0.5959111,-0.07467836,9.42939567565918,-1.8021403551101685,2.22646164894104,1.081144094467163,0.7731128931045532, 1.2662725448608398
28,254430632,0.77994686,-0.17643069,-0.59580845,-0.07461638,9.413798332214355,-1.7445601224899292,2.2159085273742676,0.969997763633728,0.7549023032188416, 1.2609963417053223
29,254447299,0.78003377,-0.17646533,-0.5956954,-0.07452836,9.430718421936035,-1.7217553853988647,2.223330020904541,0.8641531467437744,0.8709660768508911, 1.352023720741272
30,254463966,0.78011394,-0.17655656,-0.59556144,-0.07454404,9.451153755187988,-1.7179961204528809,2.2230379581451416,0.528357982635498,0.9652466177940369, 1.171531319618225
31,254480633,0.78021187,-0.17665765,-0.5953995,-0.07457372,9.428417205810547,-1.779178261756897,2.1872339248657227,0.3457522690296173,1.2139075994491577, 1.1848883628845215
32,254497300,0.7803391,-0.17671537,-0.59521616,-0.07456821,9.405543327331543,-1.8662335872650146,2.168764591217041,0.7138195037841797,1.4510682821273804, 1.2143300771713257
33,254513967,0.7805029,-0.17669743,-0.5950165,-0.0744899,9.411766052246094,-1.8497871160507202,2.1992383003234863,1.1428195238113403,1.723638653755188, 1.2005760669708252
34,254530634,0.7806782,-0.17666273,-0.59480596,-0.07441687,9.430251121520996,-1.806579351425171,2.2215468883514404,1.2505080699920654,1.8449788093566895, 1.0897884368896484
35,254547301,0.78085136,-0.17669089,-0.5945649,-0.074458115,9.42190933227539,-1.7303893566131592,2.25618577003479,1.3074960708618164,1.9348152875900269, 0.9677309989929199
36,254563968,0.7810379,-0.17666924,-0.5943269,-0.07445476,9.415310859680176,-1.7390497922897339,2.241590976715088,1.188730239868164,2.045654296875, 0.8842591643333435
37,254580635,0.7812031,-0.1766522,-0.59411055,-0.07448824,9.38515853881836,-1.7493840456008911,2.2571194171905518,1.4085127115249634,1.797979474067688, 0.7796697616577148
38,254597302,0.78136545,-0.17656426,-0.59392965,-0.074435234,9.379877090454102,-1.73358952999115,2.2750585079193115,1.4164656400680542,1.6620784997940063, 0.7344250082969666
39,254613969,0.78150713,-0.1764852,-0.5937711,-0.074400395,9.409317970275879,-1.7592853307724,2.285985231399536,1.4400421380996704,1.429297685623169, 0.6828409433364868
40,254630636,0.78164566,-0.1764523,-0.5935967,-0.07441581,9.437170028686523,-1.7853095531463623,2.2593932151794434,1.3377193212509155,1.4555121660232544, 0.7077109217643738
41,254647303,0.7817924,-0.17635007,-0.59344286,-0.07434327,9.424606323242188,-1.765121340751648,2.240554094314575,1.891209602355957,1.3478107452392578, 0.8215721845626831
42,254663970,0.7819267,-0.17629804,-0.5932876,-0.07429338,9.414811134338379,-1.7513833045959473,2.2530739307403564,1.7111269235610962,1.2740974426269531, 0.9470232129096985
43,254680637,0.7820638,-0.17625397,-0.59313214,-0.07419513,9.410385131835938,-1.7032392024993896,2.248532772064209,1.6086633205413818,1.2765817642211914, 1.1793432235717773
44,254697304,0.7822008,-0.17622554,-0.59296703,-0.07413788,9.408892631530762,-1.6674771308898926,2.238085985183716,1.408333420753479,1.3629350662231445, 1.062523603439331
45,254713971,0.7823336,-0.1762014,-0.59280473,-0.074093424,9.42023754119873,-1.7392261028289795,2.26645565032959,1.1748864650726318,1.3799418210983276, 0.9895145893096924
46,254730638,0.78247297,-0.17616212,-0.5926379,-0.07404989,9.422501564025879,-1.7630213499069214,2.255402088165283,1.4632984399795532,1.4003552198410034, 0.9847379326820374
47,254747305,0.7826011,-0.1761347,-0.5924802,-0.074021496,9.432915687561035,-1.7034882307052612,2.2905852794647217,1.3524723052978516,1.317933440208435, 0.937226414680481
48,254763972,0.78272074,-0.17614919,-0.592321,-0.073998325,9.413129806518555,-1.716093897819519,2.281554698944092,1.0101072788238525,1.2901692390441895, 1.0676332712173462
49,254780639,0.7828412,-0.17615958,-0.59216535,-0.07394289,9.417792320251465,-1.705993413925171,2.2824506759643555,1.2835612297058105,1.213549017906189, 1.2561941146850586
50,254797306,0.7829468,-0.17618956,-0.59202725,-0.07386052,9.413161277770996,-1.6994494199752808,2.2855358123779297,1.1925721168518066,1.0325696468353271, 1.4390432834625244
51,254813973,0.78304034,-0.17619693,-0.5919134,-0.07376398,9.388697624206543,-1.6810437440872192,2.3071742057800293,1.3596566915512085,0.8486960530281067, 1.3940800428390503
52,254830640,0.7831128,-0.17620748,-0.5918305,-0.07363389,9.383323669433594,-1.7053626775741577,2.3410279750823975,1.3519856929779053,0.5716306567192078, 1.521221399307251
53,254847307,0.7831558,-0.1762557,-0.59177226,-0.073528826,9.404516220092773,-1.7538405656814575,2.2952067852020264,1.2980067729949951,0.26457276940345764, 1.5688354969024658
54,254863974,0.78320163,-0.17627983,-0.5917253,-0.07336043,9.409563064575195,-1.7999917268753052,2.273703098297119,1.544580340385437,0.18093453347682953, 1.759304404258728
55,254880641,0.7832326,-0.17627476,-0.59171075,-0.07315943,9.399653434753418,-1.7214231491088867,2.272148370742798,1.726494550704956,-0.05341528728604317, 1.732244610786438
56,254897308,0.7832579,-0.17627022,-0.5916986,-0.07299676,9.381365776062012,-1.6605998277664185,2.3129897117614746,1.553186058998108,-0.03767628222703934, 1.5237443447113037
57,254913975,0.7832637,-0.17628884,-0.5916975,-0.07290125,9.39185905456543,-1.6195173263549805,2.304891347885132,1.1764105558395386,-0.11939360201358795, 1.2567064762115479
58,254930642,0.78325224,-0.17633691,-0.5917063,-0.072836414,9.405491828918457,-1.6967746019363403,2.300389289855957,0.8322270512580872,-0.21414777636528015, 1.1995900869369507
59,254947309,0.78323174,-0.1764,-0.5917255,-0.07274772,9.414288520812988,-1.7345659732818604,2.282870054244995,0.8512700796127319,-0.3468727767467499, 1.3806205987930298
60,254963976,0.783186,-0.17647202,-0.5917708,-0.07269471,9.419746398925781,-1.7239243984222412,2.284588098526001,0.7873151898384094,-0.5781939029693604, 1.2181977033615112
61,254980643,0.7831603,-0.17654052,-0.5917939,-0.07261757,9.40044116973877,-1.7222977876663208,2.2491774559020996,0.8279753923416138,-0.38580408692359924, 1.3512171506881714
62,254997310,0.783143,-0.17659405,-0.59181345,-0.07251561,9.40091609954834,-1.7235937118530273,2.2754979133605957,1.0542250871658325,-0.3565543591976166, 1.4439605474472046
63,255013977,0.7831329,-0.17663758,-0.59183407,-0.07234938,9.447074890136719,-1.7221277952194214,2.266062021255493,1.351767897605896,-0.39857202768325806, 1.7474327087402344
64,255030644,0.7831249,-0.17666116,-0.59185576,-0.07220039,9.40006160736084,-1.639371633529663,2.292431354522705,1.317241907119751,-0.34582263231277466, 1.5588335990905762
65,255047311,0.7831138,-0.17673852,-0.59185725,-0.072119676,9.463629722595215,-1.6750473976135254,2.285853147506714,0.7481149435043335,-0.1979861855506897, 1.4505048990249634
66,255063978,0.78308195,-0.17683747,-0.5918807,-0.07203193,9.433164596557617,-1.6958472728729248,2.300382375717163,0.7110022306442261,-0.43183010816574097, 1.5662357807159424
67,255080645,0.7830324,-0.17699526,-0.59190536,-0.07198087,9.383366584777832,-1.6790021657943726,2.2760794162750244,0.13544635474681854,-0.47824031114578247, 1.5831401348114014
68,255097312,0.7829776,-0.17717463,-0.59193504,-0.07189072,9.42619800567627,-1.6731983423233032,2.2636682987213135,0.09155900031328201,-0.5680512189865112, 1.8603335618972778
69,255113979,0.78293216,-0.17737488,-0.5919437,-0.07181967,9.445075035095215,-1.6938740015029907,2.2619078159332275,0.04919558763504028,-0.4312025308609009, 1.9190120697021484
70,255130646,0.78292423,-0.17755407,-0.59191287,-0.071718134,9.457112312316895,-1.7373046875,2.242882490158081,0.23965159058570862,-0.07572393864393234, 2.05381178855896
71,255147313,0.7829362,-0.17771132,-0.5918639,-0.07160251,9.444475173950195,-1.723073124885559,2.259152889251709,0.5001456141471863,0.08749938756227493, 2.0927176475524902
72,255163980,0.7829406,-0.17789671,-0.591813,-0.07151517,9.397749900817871,-1.7047805786132812,2.2683300971984863,0.15812638401985168,0.10335362702608109, 2.042426824569702
73,255180647,0.78294414,-0.17810145,-0.59175295,-0.07146304,9.396681785583496,-1.7237420082092285,2.259134292602539,-0.020771898329257965,0.1688581109046936, 1.9678044319152832
74,255197314,0.78295684,-0.17827597,-0.59169,-0.0714111,9.448554992675781,-1.829904556274414,2.2511019706726074,0.06893017888069153,0.25457102060317993, 1.8362447023391724
75,255213981,0.7829947,-0.17837378,-0.5916208,-0.07132389,9.424093246459961,-1.7811249494552612,2.2233192920684814,0.6924585700035095,0.38168683648109436, 1.7386988401412964
76,255230648,0.78303367,-0.17848428,-0.59154356,-0.071260855,9.434423446655273,-1.7508385181427002,2.244058132171631,0.5104674696922302,0.46081727743148804, 1.6673545837402344
77,255247315,0.7830774,-0.17857642,-0.5914639,-0.07120953,9.426056861877441,-1.7303708791732788,2.2843210697174072,0.535042941570282,0.5272951126098633, 1.5313642024993896
78,255263982,0.7831262,-0.17866577,-0.59137535,-0.07118529,9.403098106384277,-1.7393383979797363,2.235903263092041,0.5312394499778748,0.6121243238449097, 1.4166960716247559
79,255280649,0.7831907,-0.17870334,-0.5912831,-0.0711483,9.386603355407715,-1.7939565181732178,2.245619058609009,0.8341352343559265,0.7190829515457153, 1.2809871435165405
80,255297316,0.78326726,-0.17872058,-0.591181,-0.07111018,9.402841567993164,-1.7930690050125122,2.234666109085083,0.9778864979743958,0.8284621238708496, 1.2269573211669922
81,255313983,0.78335637,-0.17871618,-0.59106624,-0.071092136,9.461381912231445,-1.7320243120193481,2.262986421585083,1.0451197624206543,0.984110414981842, 1.0587329864501953
82,255330650,0.7834654,-0.1787312,-0.5909148,-0.07111297,9.450398445129395,-1.7635972499847412,2.222912073135376,0.7070706486701965,1.3207380771636963, 0.970740556716919
83,255347317,0.7835985,-0.17871833,-0.59073937,-0.07113699,9.434148788452148,-1.7807502746582031,2.1982500553131104,0.911421537399292,1.5625603199005127, 0.8983974456787109
84,255363984,0.7837651,-0.17866959,-0.590532,-0.07114482,9.416346549987793,-1.7440370321273804,2.230074405670166,1.215521216392517,1.873600959777832, 0.9031741619110107
85,255380651,0.7839333,-0.17863354,-0.59031457,-0.071185604,9.40587329864502,-1.7600773572921753,2.2350738048553467,1.0271910429000854,1.9719665050506592, 0.8007746934890747
86,255397318,0.7841138,-0.17858137,-0.59009045,-0.07118482,9.392065048217773,-1.7426931858062744,2.2727115154266357,1.3008242845535278,2.019414186477661, 0.9798715710639954
87,255413985,0.784279,-0.17852287,-0.58988726,-0.071200065,9.402729034423828,-1.694680094718933,2.306781530380249,1.2387773990631104,1.874753713607788, 0.835210919380188
88,255430652,0.7844121,-0.17847648,-0.58971983,-0.071236566,9.410171508789062,-1.6831928491592407,2.3303699493408203,1.0787490606307983,1.5690017938613892, 0.7243718504905701
89,255447319,0.7845215,-0.17841895,-0.58958924,-0.071255095,9.407488822937012,-1.6572849750518799,2.3548455238342285,1.1377992630004883,1.269832730293274, 0.7151385545730591
90,255463986,0.78460443,-0.17838413,-0.5894909,-0.071242176,9.386662483215332,-1.67790949344635,2.3168742656707764,1.2300565242767334,0.9138163328170776, 0.9646703004837036
91,255480653,0.7846594,-0.17834495,-0.5894379,-0.07117522,9.377694129943848,-1.697203278541565,2.337554693222046,1.41679847240448,0.5009651780128479, 1.1694949865341187
92,255497320,0.7846876,-0.17831276,-0.5894181,-0.07110958,9.378928184509277,-1.6699615716934204,2.2866814136505127,1.319111704826355,0.21838028728961945, 1.1365059614181519
93,255513987,0.7847062,-0.17829326,-0.5894107,-0.07101121,9.378665924072266,-1.7472376823425293,2.291853904724121,1.3637417554855347,0.07301539927721024, 1.352369785308838
94,255530654,0.7847337,-0.17820767,-0.5894177,-0.07086474,9.478992462158203,-1.6787139177322388,2.2978861331939697,1.9833002090454102,-0.0028045906219631433, 1.348476529121399
95,255547321,0.78474504,-0.17821336,-0.589406,-0.07082287,9.412703514099121,-1.6382678747177124,2.3458666801452637,1.0480269193649292,0.11829864978790283, 1.1839406490325928
96,255563988,0.78476036,-0.17825232,-0.58937556,-0.07080845,9.437067031860352,-1.6901816129684448,2.272979497909546,0.7450029253959656,0.25409719347953796, 1.2085416316986084
97,255580655,0.7847694,-0.17828757,-0.5893572,-0.070772894,9.409575462341309,-1.6953681707382202,2.3081541061401367,0.815092146396637,0.1519281417131424, 1.2913858890533447
98,255597322,0.7847793,-0.17838702,-0.58931375,-0.07077254,9.322879791259766,-1.6656993627548218,2.2700061798095703,0.30771735310554504,0.30597570538520813, 1.4007776975631714
99,255613989,0.7847802,-0.1784986,-0.5892806,-0.070759684,9.4562349319458,-1.6464108228683472,2.2659878730773926,0.3517071604728699,0.1820102483034134, 1.527675747871399
100,255630656,0.7847923,-0.17862704,-0.5892253,-0.07076166,9.453774452209473,-1.647092342376709,2.320347547531128,0.1746722161769867,0.3686756193637848, 1.5557090044021606
101,255647323,0.7848125,-0.17877239,-0.58915204,-0.07078096,9.410029411315918,-1.728808879852295,2.2905325889587402,0.07432164996862411,0.5013878345489502, 1.5867259502410889
102,255663990,0.7848424,-0.17887823,-0.589087,-0.07072335,9.44675064086914,-1.7345415353775024,2.2727787494659424,0.5217370390892029,0.4436054825782776, 1.8199549913406372
103,255680657,0.7848653,-0.179018,-0.58901864,-0.07068319,9.37200927734375,-1.7253472805023193,2.2977707386016846,0.28375667333602905,0.43876469135284424, 1.8781596422195435
104,255697324,0.78488946,-0.1791551,-0.58895093,-0.070632406,9.365981101989746,-1.7116657495498657,2.2739174365997314,0.3376201391220093,0.4313754141330719, 1.930716872215271
105,255713991,0.7848984,-0.17928417,-0.5889048,-0.07059067,9.430185317993164,-1.6831331253051758,2.2921714782714844,0.3143894672393799,0.2770845890045166, 1.8186616897583008
106,255730658,0.7848903,-0.17943282,-0.58887064,-0.07058717,9.413939476013184,-1.7185518741607666,2.32129168510437,0.05285821110010147,0.18238164484500885, 1.6843489408493042
107,255747325,0.7848711,-0.1796035,-0.58884406,-0.070587985,9.466775894165039,-1.7122480869293213,2.291276216506958,-0.0608941912651062,0.08496372401714325, 1.753003478050232
108,255763992,0.7848516,-0.17979157,-0.5888109,-0.07060326,9.441579818725586,-1.7310081720352173,2.321179151535034,-0.21221403777599335,0.132039874792099, 1.7652593851089478
109,255780659,0.78484416,-0.17994794,-0.58876884,-0.07063758,9.398297309875488,-1.7438286542892456,2.255354642868042,-0.1285245418548584,0.27406230568885803, 1.554927945137024
110,255797326,0.7848567,-0.18005894,-0.5887198,-0.07062412,9.40793514251709,-1.8211891651153564,2.2441771030426025,0.34567540884017944,0.3585073947906494, 1.6586081981658936
111,255813993,0.7849018,-0.18010692,-0.5886515,-0.07057142,9.405905723571777,-1.7914435863494873,2.2435214519500732,0.9112038016319275,0.5757542848587036, 1.6661508083343506
112,255830660,0.784959,-0.1801449,-0.5885676,-0.07053604,9.425843238830566,-1.7537411451339722,2.2625582218170166,0.8858983516693115,0.7466421127319336, 1.557719349861145
113,255847327,0.78501105,-0.18021147,-0.58847785,-0.07053819,9.40465259552002,-1.7316408157348633,2.2830424308776855,0.5545469522476196,0.7987769842147827, 1.4794857501983643
114,255863994,0.7850406,-0.18030132,-0.5884071,-0.070568524,9.419299125671387,-1.7302005290985107,2.274235963821411,0.2905312776565552,0.6345610618591309, 1.3950148820877075
115,255880661,0.78505385,-0.18037783,-0.58836156,-0.07060477,9.38621711730957,-1.7345433235168457,2.295543670654297,0.35333356261253357,0.4470248520374298, 1.2856100797653198
116,255897328,0.7850528,-0.18044856,-0.58833987,-0.07061756,9.394129753112793,-1.737449049949646,2.310732126235962,0.4900285601615906,0.23314599692821503, 1.3655602931976318
117,255913995,0.78505576,-0.18045716,-0.58833754,-0.0705827,9.382122993469238,-1.7303624153137207,2.290712594985962,0.9894121289253235,0.12748080492019653, 1.3472728729248047
118,255930662,0.78504604,-0.18044437,-0.5883585,-0.07054635,9.40502643585205,-1.7136931419372559,2.3107333183288574,1.173529028892517,-0.052147459238767624, 1.2600873708724976
119,255947329,0.78502566,-0.18044019,-0.5883918,-0.07050715,9.425963401794434,-1.6979237794876099,2.2828731536865234,1.087047815322876,-0.157466858625412, 1.2894136905670166
120,255963996,0.7849993,-0.18045197,-0.5884255,-0.070488974,9.416431427001953,-1.6553325653076172,2.2909321784973145,0.9457938075065613,-0.1684931367635727, 1.2586272954940796
121,255980663,0.78496397,-0.18048239,-0.5884644,-0.07048049,9.429611206054688,-1.6923754215240479,2.2916107177734375,0.7548511028289795,-0.2175799012184143, 1.274673581123352
122,255997330,0.7849381,-0.1805209,-0.588491,-0.07044793,9.407130241394043,-1.7224297523498535,2.268419027328491,0.8067294955253601,-0.1408442258834839, 1.467767596244812
123,256013997,0.78492796,-0.18060029,-0.58848125,-0.07043947,9.357337951660156,-1.671134352684021,2.237823486328125,0.512260377407074,0.12954261898994446, 1.5711148977279663
124,256030664,0.7849333,-0.18070264,-0.5884427,-0.07043755,9.446209907531738,-1.7235463857650757,2.267235279083252,0.3984888195991516,0.3445228636264801, 1.6928906440734863
125,256047331,0.78494895,-0.18078586,-0.58839935,-0.070411906,9.458552360534668,-1.6615103483200073,2.2817838191986084,0.5506281852722168,0.4086697995662689, 1.7499043941497803
126,256063998,0.7849693,-0.1809153,-0.5883311,-0.0704234,9.416231155395508,-1.6965569257736206,2.3077991008758545,0.15982964634895325,0.5872671604156494, 1.7888740301132202
127,256080665,0.78498036,-0.18105657,-0.58827144,-0.07043477,9.48719310760498,-1.701573371887207,2.2552661895751953,0.12077026069164276,0.4926794171333313, 1.842519760131836
128,256097332,0.78499234,-0.18121058,-0.5882043,-0.07046612,9.320717811584473,-1.6972614526748657,2.3271117210388184,-0.03261777386069298,0.5626789331436157, 1.8083909749984741
129,256113999,0.78501195,-0.18131927,-0.58813834,-0.0705189,9.363191604614258,-1.6656687259674072,2.19157075881958,0.12691730260849,0.6372503638267517, 1.5206706523895264
130,256130666,0.78501594,-0.18145531,-0.58808064,-0.070604645,9.485597610473633,-1.8171052932739258,2.3111469745635986,-0.14947572350502014,0.5619875192642212, 1.4541418552398682
131,256147333,0.78500956,-0.18156834,-0.5880511,-0.07063366,9.381855010986328,-1.8529796600341797,2.2504565715789795,0.19287005066871643,0.3142870366573334, 1.6289998292922974
132,256164000,0.78500307,-0.18162663,-0.5880455,-0.07060188,9.414457321166992,-1.7384536266326904,2.2616844177246094,0.7418782114982605,0.1417214721441269, 1.7056840658187866
133,256180667,0.78498834,-0.18169938,-0.5880423,-0.07060463,9.421393394470215,-1.7070738077163696,2.2950589656829834,0.539704442024231,0.13210391998291016, 1.5863802433013916
134,256197334,0.7849734,-0.18178055,-0.58803403,-0.070631325,9.373169898986816,-1.721630573272705,2.2550747394561768,0.34691759943962097,0.1980438083410263, 1.4971070289611816
135,256214001,0.7849581,-0.18183316,-0.588037,-0.070640385,9.419109344482422,-1.704285979270935,2.2807400226593018,0.6225230693817139,0.12334436178207397, 1.4841086864471436
136,256230668,0.784936,-0.18190116,-0.5880433,-0.0706578,9.42872142791748,-1.7491108179092407,2.300934314727783,0.4741743206977844,0.09030397236347198, 1.4992073774337769
137,256247335,0.7849195,-0.18196766,-0.5880424,-0.07067733,9.44112777709961,-1.7541191577911377,2.265483856201172,0.550512969493866,0.14115799963474274, 1.5208373069763184
138,256264002,0.7848951,-0.18201616,-0.5880599,-0.07067978,9.45093822479248,-1.758064866065979,2.2755274772644043,0.6498005390167236,0.01676991395652294, 1.505290150642395
139,256280669,0.7848783,-0.18206051,-0.5880645,-0.07071356,9.413914680480957,-1.7190499305725098,2.2591912746429443,0.5528565049171448,0.16298000514507294, 1.3488222360610962
140,256297336,0.78487515,-0.18211767,-0.5880458,-0.07075507,9.387680053710938,-1.7470378875732422,2.2263717651367188,0.4926154911518097,0.3454320728778839, 1.4141603708267212
141,256314003,0.7848882,-0.18213904,-0.58801854,-0.07078227,9.40333366394043,-1.7339136600494385,2.252007246017456,0.780899167060852,0.4582560062408447, 1.3787251710891724
142,256330670,0.7849077,-0.18218291,-0.58797336,-0.070829846,9.402460098266602,-1.7350337505340576,2.2666988372802734,0.6304501891136169,0.5893802046775818, 1.4085127115249634
143,256347337,0.7849285,-0.18225312,-0.5879127,-0.07092043,9.449775695800781,-1.7043401002883911,2.2816977500915527,0.24513277411460876,0.7369990944862366, 1.296021819114685
144,256364004,0.784944,-0.1823373,-0.5878561,-0.07100193,9.449931144714355,-1.7783454656600952,2.276486396789551,0.20106609165668488,0.6791399717330933, 1.4053239822387695
145,256380671,0.78495634,-0.1824074,-0.58781356,-0.07103815,9.417009353637695,-1.718926191329956,2.294219493865967,0.5012341141700745,0.5374633073806763, 1.5905935764312744
146,256397338,0.784968,-0.18251018,-0.58775586,-0.07112363,9.38117504119873,-1.6571685075759888,2.2629740238189697,0.06691958755254745,0.6761048436164856, 1.4731335639953613
147,256414005,0.78499514,-0.18262106,-0.58767533,-0.07120431,9.413668632507324,-1.7149405479431152,2.255409002304077,0.12084712833166122,0.8402311205863953, 1.599468469619751
148,256430672,0.7850177,-0.1827155,-0.5876098,-0.07125241,9.409419059753418,-1.758354902267456,2.276520252227783,0.2495252788066864,0.7326703667640686, 1.6743723154067993
149,256447339,0.7850419,-0.18282057,-0.5875432,-0.07126549,9.452924728393555,-1.7489205598831177,2.2670695781707764,0.3877570331096649,0.6888983249664307, 1.929500699043274
150,256464006,0.7850599,-0.18292247,-0.58748525,-0.07128324,9.43476676940918,-1.6396397352218628,2.309138059616089,0.3961067795753479,0.6265569925308228, 1.8897366523742676
151,256480673,0.78508586,-0.18304706,-0.5873994,-0.071385995,9.391128540039062,-1.6527031660079956,2.267658233642578,-0.09689284861087799,0.9115495085716248, 1.5712047815322876
152,256497340,0.7851292,-0.1831457,-0.58730215,-0.07145811,9.383124351501465,-1.8016127347946167,2.2284958362579346,0.1958666890859604,1.0182135105133057, 1.6721184253692627
153,256514007,0.7851794,-0.18318601,-0.58722067,-0.071472816,9.349699974060059,-1.8114657402038574,2.2541658878326416,0.7800412178039551,0.9195023775100708, 1.7394161224365234
154,256530674,0.78520596,-0.18322381,-0.5871709,-0.07149137,9.363625526428223,-1.7425915002822876,2.281768321990967,0.7468214631080627,0.6671403646469116, 1.6558417081832886
155,256547341,0.78521234,-0.18324824,-0.5871494,-0.071535,9.450150489807129,-1.6892372369766235,2.318850040435791,0.6455360054969788,0.48794108629226685, 1.4131871461868286
156,256564008,0.78520036,-0.18334638,-0.5871194,-0.07166145,9.3796968460083,-1.7333381175994873,2.307522773742676,-0.017365409061312675,0.5089820027351379, 1.3025403022766113
157,256580675,0.7851822,-0.18338378,-0.5871277,-0.071698576,9.493948936462402,-1.8145480155944824,2.2397007942199707,0.6439736485481262,0.2039603292942047, 1.4870542287826538
158,256597342,0.7851705,-0.18338239,-0.5871385,-0.07174049,9.357914924621582,-1.7354153394699097,2.345454454421997,0.8464805483818054,0.2495509386062622, 1.3097758293151855
159,256614009,0.78515756,-0.18343976,-0.58712703,-0.071829766,9.348888397216797,-1.6724963188171387,2.1851916313171387,0.3481598198413849,0.38915297389030457, 1.332584023475647
160,256630676,0.7851745,-0.18343064,-0.58710223,-0.07186974,9.483342170715332,-1.7472305297851562,2.2784030437469482,0.9490593671798706,0.5582480430603027, 1.3760359287261963
161,256647343,0.7851925,-0.18343875,-0.5870724,-0.07189718,9.38110065460205,-1.7294082641601562,2.2879538536071777,0.9035583734512329,0.5708878040313721, 1.5279062986373901
162,256664010,0.78520226,-0.18348928,-0.5870381,-0.07194033,9.43429946899414,-1.6760138273239136,2.2741165161132812,0.6266851425170898,0.5570825934410095, 1.6312663555145264
163,256680677,0.78519887,-0.18358487,-0.58700424,-0.07201009,9.410255432128906,-1.6922085285186768,2.310089588165283,0.27080944180488586,0.5143734216690063, 1.6771515607833862
164,256697344,0.78517896,-0.18371826,-0.5869812,-0.07207578,9.392151832580566,-1.6815407276153564,2.28507399559021,0.0414605550467968,0.3726711571216583, 1.833888292312622
165,256714011,0.78514224,-0.18384115,-0.586982,-0.07215536,9.425521850585938,-1.7420604228973389,2.3100290298461914,0.0720677301287651,0.1921144425868988, 1.6986405849456787
166,256730678,0.7851179,-0.183909,-0.58698577,-0.07221714,9.384666442871094,-1.784349799156189,2.303342342376709,0.4510972797870636,0.23473399877548218, 1.5807838439941406
167,256747345,0.7850828,-0.18394305,-0.5870166,-0.07226057,9.39808177947998,-1.7220678329467773,2.2691245079040527,0.7204403877258301,0.03766987845301628, 1.5114502906799316
168,256764012,0.78504276,-0.18397,-0.5870562,-0.07230515,9.476048469543457,-1.7898054122924805,2.2846508026123047,0.7668634653091431,-0.024216806516051292, 1.4748880863189697
169,256780679,0.78499615,-0.18396899,-0.58711725,-0.072319016,9.416154861450195,-1.7857483625411987,2.296685218811035,1.0429553985595703,-0.18717756867408752, 1.5018579959869385
170,256797346,0.7849522,-0.18396723,-0.58717096,-0.072363466,9.41061782836914,-1.7433702945709229,2.2336089611053467,0.8714016079902649,-0.08362546563148499, 1.335414171218872
171,256814013,0.78490764,-0.18395346,-0.5872281,-0.072418906,9.424957275390625,-1.803370714187622,2.259232521057129,0.9251883029937744,-0.0865965411067009, 1.2376118898391724
172,256830680,0.7848791,-0.18391034,-0.587273,-0.07247258,9.404947280883789,-1.777260184288025,2.236140251159668,1.100212812423706,0.06306487321853638, 1.1538968086242676
173,256847347,0.78486717,-0.18385339,-0.5873007,-0.072522774,9.403886795043945,-1.7448793649673462,2.251073122024536,1.2334500551223755,0.22331073880195618, 1.1589298248291016
174,256864014,0.7848556,-0.18379952,-0.5873233,-0.07260069,9.431553840637207,-1.708088755607605,2.272705316543579,1.1076020002365112,0.28977569937705994, 1.0358864068984985
175,256880681,0.7848456,-0.18374771,-0.587343,-0.07268122,9.448799133300781,-1.7107874155044556,2.2916784286499023,1.06295907497406,0.3225599527359009, 1.0369621515274048
176,256897348,0.7848369,-0.18372089,-0.58735055,-0.07278137,9.412470817565918,-1.690475583076477,2.260643720626831,0.8196511268615723,0.4136386513710022, 1.0498325824737549
177,256914015,0.78482187,-0.18370809,-0.5873653,-0.07285652,9.393858909606934,-1.7378082275390625,2.276524305343628,0.841063380241394,0.3136979043483734, 1.2379320859909058
178,256930682,0.78480613,-0.18371098,-0.5873771,-0.07292433,9.391791343688965,-1.7187713384628296,2.272373914718628,0.7958698272705078,0.31007376313209534, 1.3531252145767212
179,256947349,0.7847918,-0.18371962,-0.58738804,-0.07296857,9.403058052062988,-1.7531832456588745,2.2758145332336426,0.8730920553207397,0.28722721338272095, 1.514510989189148
180,256964016,0.7847853,-0.18369554,-0.58740085,-0.072995126,9.419716835021973,-1.7119958400726318,2.2811269760131836,1.1894729137420654,0.29305410385131836, 1.4983493089675903
181,256980683,0.78476536,-0.18370248,-0.587421,-0.07303082,9.422300338745117,-1.683518648147583,2.31756329536438,0.8887031078338623,0.21601112186908722, 1.5443626642227173
182,256997350,0.78473103,-0.1837416,-0.5874479,-0.07308546,9.401082038879395,-1.679021954536438,2.2999517917633057,0.6458050012588501,0.12402309477329254, 1.570346713066101
183,257014017,0.78468645,-0.18383981,-0.587464,-0.07318606,9.39333724975586,-1.7056703567504883,2.2582342624664307,0.10382748395204544,0.17408309876918793, 1.572805404663086
184,257030684,0.7846226,-0.18395357,-0.58750015,-0.07329408,9.349602699279785,-1.767052173614502,2.2395994663238525,0.0586978979408741,-0.02540779672563076, 1.588365077972412
185,257047351,0.7845424,-0.18402582,-0.58757865,-0.073342115,9.442976951599121,-1.7607805728912354,2.3089981079101562,0.49498462677001953,-0.36492976546287537, 1.6769722700119019
186,257064018,0.78442514,-0.18419112,-0.5876666,-0.073477,9.439894676208496,-1.7018524408340454,2.3396518230438232,-0.38835257291793823,-0.5045573711395264, 1.5603961944580078
187,257080685,0.7842887,-0.18433328,-0.58778393,-0.07363757,9.584693908691406,-1.6865606307983398,2.3388237953186035,-0.358833909034729,-0.7024539113044739, 1.2930635213851929
188,257097352,0.78413945,-0.18469271,-0.58780456,-0.07415964,9.487944602966309,-1.6050293445587158,2.359811544418335,-3.035809278488159,0.11103746294975281, 0.35264208912849426
189,257114019,0.78412247,-0.1866832,-0.5869233,-0.07630496,9.807311058044434,-1.4868534803390503,2.9748189449310303,-18.784061431884766,6.752625465393066, -0.6055362820625305
190,257130686,0.7844064,-0.18993223,-0.5850057,-0.080004655,9.493477821350098,-1.931768774986267,2.101130485534668,-31.995269775390625,14.847150802612305, -2.388279438018799
191,257147353,0.7845338,-0.19174212,-0.5838815,-0.08260874,9.421250343322754,-2.0787055492401123,2.1652777194976807,-19.556034088134766,9.296805381774902, -3.3812663555145264
192,257164020,0.7844308,-0.19297265,-0.58330166,-0.08478838,9.471413612365723,-1.6564081907272339,2.254451036453247,-14.769396781921387,5.221901893615723, -4.289797782897949
193,257180687,0.7841495,-0.19448236,-0.5828177,-0.087232806,9.417278289794922,-1.6876349449157715,1.921898603439331,-17.557523727416992,4.188276290893555, -4.827563285827637
194,257197354,0.78378445,-0.19597347,-0.58242005,-0.08979702,9.628819465637207,-1.33192777633667,2.310957670211792,-18.11007308959961,3.600644826889038, -5.734422206878662
195,257214021,0.7833999,-0.1975431,-0.5819372,-0.09279216,9.703791618347168,-2.153752565383911,2.218355178833008,-20.53162384033203,4.5543365478515625, -7.657928943634033
196,257230688,0.78309476,-0.19840132,-0.5816779,-0.09513405,9.741663932800293,-2.8095321655273438,2.3390915393829346,-13.946702003479004,3.2656667232513428, -7.2821574211120605
197,257247355,0.78257203,-0.19933717,-0.58175105,-0.09701278,9.185235977172852,-2.967674732208252,2.0647811889648438,-12.40864372253418,-0.11082622408866882, -5.0781049728393555
198,257264022,0.781932,-0.19963944,-0.5823684,-0.097844556,8.848052024841309,-2.5036213397979736,2.2246313095092773,-4.628881454467773,-4.503289699554443, -2.876396417617798
199,257280689,0.7812078,-0.19940428,-0.5833758,-0.098107055,8.742223739624023,-1.2895172834396362,2.4381868839263916,0.5167427062988281,-7.322429180145264, -2.6491219997406006
200,257297356,0.7802921,-0.20016299,-0.58411723,-0.099429004,9.221702575683594,-0.2960134744644165,2.611968755722046,-9.510217666625977,-5.897147178649902, -4.097149848937988
201,257314023,0.7792549,-0.2026281,-0.58416724,-0.10223726,9.507242202758789,-0.8883821964263916,1.7022093534469604,-25.50432777404785,-1.7767698764801025, -4.327006816864014
202,257330690,0.7782451,-0.20464174,-0.5844234,-0.104431376,9.50510025024414,-1.2680803537368774,1.7887163162231445,-20.58711051940918,-3.255251407623291, -3.1072096824645996
203,257347357,0.77691185,-0.2072973,-0.5848035,-0.106961146,9.775956153869629,-0.7900994420051575,1.8182040452957153,-25.669673919677734,-5.201132774353027, -2.6866636276245117
204,257364024,0.7751569,-0.21099532,-0.5852471,-0.1099936,9.983774185180664,-1.3018969297409058,1.5847861766815186,-34.03886032104492,-7.224451541900635, -1.578965663909912
205,257380691,0.77341217,-0.21438643,-0.58583456,-0.112561576,10.203032493591309,-1.497257947921753,1.8956818580627441,-30.67304801940918,-8.309161186218262, -0.5695772171020508
206,257397358,0.77168024,-0.21749775,-0.5864877,-0.115050934,10.166239738464355,-0.9776350259780884,1.7493798732757568,-28.884668350219727,-8.474858283996582, -1.360089659690857
207,257414025,0.7694367,-0.22096361,-0.5875608,-0.11796158,10.049002647399902,-0.7051036357879639,1.0349361896514893,-33.027442932128906,-12.372974395751953, -3.174618721008301
208,257430692,0.7671213,-0.22317235,-0.589273,-0.12031751,9.598188400268555,-1.2363346815109253,0.6170124411582947,-23.904850006103516,-15.781464576721191, -6.321373462677002
209,257447359,0.76515263,-0.22296174,-0.5917621,-0.12102483,9.428799629211426,-1.5851415395736694,1.0558959245681763,-3.270951271057129,-18.9405574798584, -8.299744606018066
210,257464026,0.7635991,-0.22125673,-0.5945348,-0.12037556,9.119232177734375,-1.6346495151519775,1.6068267822265625,10.93139934539795,-19.526901245117188, -7.336502552032471
211,257480693,0.76232636,-0.21935809,-0.59706485,-0.119391434,9.0570707321167,-1.740548014640808,2.220334053039551,13.52716064453125,-17.44121742248535, -5.77302360534668
212,257497360,0.7614077,-0.21733266,-0.5992226,-0.11814152,8.974796295166016,-1.9854151010513306,2.5980234146118164,15.559042930603027,-14.366738319396973, -4.047005653381348
213,257514027,0.7609034,-0.21507332,-0.6010079,-0.11644412,8.890295028686523,-2.404304027557373,2.8471922874450684,18.90349006652832,-11.22385025024414, -1.8056727647781372
214,257530694,0.76083475,-0.21311074,-0.60211676,-0.11475949,9.016030311584473,-2.4738223552703857,3.554502248764038,17.373506546020508,-6.156685829162598, 0.6512613296508789
215,257547361,0.7611373,-0.21305817,-0.6017971,-0.114527345,8.725107192993164,-2.556688070297241,3.013547897338867,0.8378491401672363,3.370253801345825, 3.3096413612365723
216,257564028,0.7615575,-0.21393824,-0.6009611,-0.11448426,8.549301147460938,-2.4152884483337402,1.6803829669952393,-5.068588733673096,6.034168720245361, 6.972374439239502
217,257580695,0.7615679,-0.21513698,-0.6005398,-0.114378765,8.834850311279297,-1.6368495225906372,0.12183232605457306,-6.738369941711426,1.8203527927398682, 7.636794567108154
218,257597362,0.76100284,-0.21592236,-0.6010146,-0.11416624,9.305580139160156,-1.2962177991867065,1.1362286806106567,-4.292279243469238,-5.00034236907959, 4.701269626617432
219,257614029,0.7604899,-0.21624714,-0.60155505,-0.11412222,10.660178184509277,-1.051745057106018,4.0876946449279785,-2.4989161491394043,-4.477920055389404, 1.8668395280838013
220,257630696,0.75974786,-0.21800709,-0.6015605,-0.11567685,11.878364562988281,-0.9191452860832214,3.769773483276367,-17.368370056152344,-1.4875484704971313, 0.10946238040924072
221,257647363,0.75889343,-0.22122988,-0.60088205,-0.118655324,11.606328964233398,-1.8390741348266602,2.9135868549346924,-31.643102645874023,2.510789632797241, -0.28236818313598633
222,257664030,0.758082,-0.22468874,-0.59997606,-0.121883884,10.112454414367676,-2.336801290512085,1.6218708753585815,-34.021522521972656,4.016746997833252, -0.21409742534160614
223,257680697,0.757472,-0.22701779,-0.59945166,-0.12392374,9.373835563659668,-2.850369930267334,0.7647081017494202,-22.63471221923828,1.9825482368469238, 0.8678558468818665
224,257697364,0.7569988,-0.22751476,-0.59976226,-0.12439996,8.850907325744629,-2.286715030670166,-0.48418331146240234,-5.656975269317627,-2.6504921913146973, 0.2264995127916336
225,257714031,0.75586516,-0.22813128,-0.6008125,-0.12509383,8.77807331085205,-0.7684659361839294,-1.1269021034240723,-7.500080585479736,-8.89985466003418, -2.1591134071350098
226,257730698,0.75352037,-0.22998828,-0.60271794,-0.12666473,8.046037673950195,-0.36196669936180115,-1.0308647155761719,-17.928443908691406,-18.07319450378418, -3.7972967624664307
227,257747365,0.7504492,-0.23244108,-0.60524946,-0.128338,7.826907634735107,-0.3899036943912506,-0.6458073854446411,-22.024303436279297,-24.578998565673828, -3.432537317276001
228,257764032,0.7476817,-0.23372549,-0.6080483,-0.1289265,7.578979969024658,-0.4775069057941437,-0.01324943546205759,-10.74474811553955,-25.314470291137695, -2.812615156173706
229,257780699,0.74596155,-0.23406723,-0.610087,-0.12863855,8.230340003967285,-1.8935601711273193,2.979743719100952,-1.215746521949768,-17.551607131958008, -0.06208524480462074
230,257797366,0.7465133,-0.2340483,-0.609821,-0.12672028,9.159399032592773,-6.400966167449951,7.432084083557129,9.079127311706543,1.4091928005218506, 12.481110572814941
231,257814033,0.74778813,-0.23270799,-0.6094129,-0.12359591,12.807805061340332,-2.8963005542755127,1.7749836444854736,21.933826446533203,4.097228527069092, 13.772205352783203
232,257830700,0.74805295,-0.2321421,-0.60980326,-0.12110752,11.499624252319336,-2.432131052017212,1.364941120147705,14.35538101196289,-3.871185302734375, 11.586796760559082
233,257847367,0.74845874,-0.23019679,-0.6104783,-0.11889279,7.798369884490967,-1.855371117591858,2.2836735248565674,20.770584106445312,-3.1397509574890137, 4.045116424560547
234,257864034,0.748712,-0.22800174,-0.61120933,-0.11776598,7.438379764556885,-2.3978724479675293,1.4238314628601074,17.28634262084961,-2.1912710666656494, -2.834893226623535
235,257880701,0.74799794,-0.22607063,-0.6126763,-0.11840152,8.982328414916992,-4.6639509201049805,1.5075780153274536,7.605589866638184,-7.508779525756836, -12.782478332519531
236,257897368,0.74613875,-0.22374453,-0.61536145,-0.120605916,10.262604713439941,-3.5522139072418213,2.6436264514923096,2.2596683502197266,-15.847946166992188, -25.47549819946289
237,257914035,0.7435928,-0.22151844,-0.6183885,-0.124880426,10.317886352539062,0.8082103133201599,0.8701694011688232,-7.783132076263428,-17.45909309387207, -36.8411865234375
238,257930702,0.7404583,-0.22010161,-0.6214202,-0.13081941,9.252184867858887,1.0791634321212769,1.143916368484497,-19.9017391204834,-18.119503021240234, -42.3063850402832
239,257947369,0.7367406,-0.21945186,-0.62462306,-0.1374776,9.738856315612793,0.7635549306869507,2.149278402328491,-27.622840881347656,-21.082618713378906, -43.359954833984375
240,257964036,0.7319078,-0.22075935,-0.6279216,-0.14591406,9.987274169921875,0.789621889591217,2.540656805038452,-46.7834358215332,-25.570581436157227, -45.06278991699219
241,257980703,0.726826,-0.22158569,-0.63159424,-0.15398884,9.235978126525879,-1.9254978895187378,1.463460922241211,-42.81939697265625,-28.663612365722656, -46.043155670166016
242,257997370,0.7220151,-0.22067949,-0.6357099,-0.16083542,10.058130264282227,-3.479109525680542,0.5977402925491333,-27.93883514404297,-29.76648712158203, -47.85554122924805
243,258014037,0.7172912,-0.21852005,-0.64029014,-0.16664654,9.4844970703125,-1.2160345315933228,1.1642862558364868,-16.527063369750977,-31.865507125854492, -48.90983963012695
244,258030704,0.7125521,-0.21787699,-0.6438963,-0.17377299,9.762118339538574,1.3539787530899048,0.7844822406768799,-30.93057632446289,-26.90876579284668, -47.290733337402344
245,258047371,0.70837474,-0.21809325,-0.64643264,-0.18101248,10.446420669555664,0.5915277004241943,0.004313437268137932,-36.08127212524414,-20.042190551757812, -41.67410659790039
246,258064038,0.7051206,-0.21709242,-0.6489226,-0.18594447,10.5004243850708,-1.9331893920898438,-0.43553197383880615,-18.569774627685547,-17.629281997680664, -34.57247543334961
247,258080705,0.7022943,-0.21500914,-0.65171677,-0.18926023,10.762738227844238,-0.24785295128822327,1.2065104246139526,-5.072504043579102,-18.177906036376953, -31.536117553710938
248,258097372,0.69943255,-0.2141403,-0.6540279,-0.19283584,10.743574142456055,0.4745672643184662,1.2360520362854004,-12.782071113586426,-17.22581672668457, -26.67205047607422
249,258114039,0.6965096,-0.21267982,-0.657543,-0.19307768,10.583542823791504,-0.6346621513366699,0.4442974925041199,6.560415744781494,-27.441570281982422, -15.117923736572266
250,258130706,0.69383496,-0.211541,-0.66097975,-0.1922221,10.626667976379395,1.2108031511306763,1.9368672370910645,10.246222496032715,-27.970508575439453, -7.980418682098389
251,258147373,0.6908493,-0.2143216,-0.66233,-0.19522469,8.686528205871582,1.7566068172454834,-0.2668986916542053,-29.196067810058594,-19.062795639038086, -5.886579513549805
252,258164040,0.68851864,-0.21687181,-0.66308844,-0.19804665,9.614572525024414,-0.5882834196090698,-1.3918516635894775,-27.107553482055664,-13.204950332641602, -4.247892379760742
253,258180707,0.6865931,-0.21842946,-0.66370493,-0.20093407,10.213784217834473,-0.7093068361282349,-0.3851817846298218,-22.290447235107422,-9.17082691192627, -8.341715812683105
254,258197374,0.684539,-0.21999313,-0.6641313,-0.2047906,10.02668285369873,0.5748152732849121,0.33410748839378357,-27.193517684936523,-7.391234874725342, -12.807199478149414
255,258214041,0.6823483,-0.2209552,-0.66557765,-0.20636399,9.906759262084961,-2.397076368331909,-0.8359034657478333,-12.706900596618652,-15.430097579956055, -6.516110897064209
256,258230708,0.68024683,-0.21981472,-0.668765,-0.20420392,10.576190948486328,-1.1968939304351807,0.4205434322357178,16.855728149414062,-25.83693504333496, -1.2412852048873901
257,258247375,0.6781855,-0.21823029,-0.6725152,-0.2004077,10.3434476852417,0.2117973417043686,0.0013000927865505219,27.31170654296875,-30.142635345458984, 3.5279462337493896
258,258264042,0.6764312,-0.21623819,-0.6763827,-0.19541904,9.719255447387695,0.6337804198265076,-0.12825851142406464,35.35382843017578,-30.489599227905273, 7.460263729095459
259,258280709,0.6747254,-0.21540678,-0.6794906,-0.1914109,10.06021499633789,0.8933279514312744,0.044745925813913345,24.452260971069336,-26.822227478027344, 9.519928932189941
260,258297376,0.6731726,-0.21548408,-0.6819382,-0.18805736,10.460745811462402,0.5211591124534607,0.14522159099578857,16.540603637695312,-23.27216148376465, 11.947102546691895
261,258314043,0.6719825,-0.21515748,-0.6842286,-0.18433216,10.501025199890137,1.3958446979522705,0.7437135577201843,20.490497589111328,-20.883020401000977, 12.500638008117676
262,258330710,0.6709346,-0.21461555,-0.6863948,-0.18069145,10.656732559204102,1.9983559846878052,1.3631826639175415,21.14307975769043,-19.27602767944336, 11.524428367614746
263,258347377,0.6695472,-0.21436775,-0.6886781,-0.17741352,10.783333778381348,2.0363824367523193,2.1729648113250732,17.719974517822266,-21.309396743774414, 10.733399391174316
264,258364044,0.66785145,-0.2201639,-0.6880493,-0.1791384,13.108232498168945,2.84780216217041,4.754337310791016,-37.799259185791016,-9.464892387390137, 20.32847023010254
265,258380711,0.66523093,-0.22950655,-0.68571836,-0.18597046,13.110651969909668,2.4800643920898438,6.792590618133545,-81.75367736816406,-2.8851876258850098, 15.219342231750488
266,258397378,0.66137487,-0.23392724,-0.68660456,-0.19088121,15.706853866577148,2.8882172107696533,8.993705749511719,-48.03464126586914,-20.469331741333008, -5.746482849121094
267,258414045,0.65652573,-0.23135218,-0.69250244,-0.18944837,15.983170509338379,0.5527741312980652,7.968728065490723,18.695423126220703,-49.34574890136719, -19.150753021240234
268,258430712,0.652733,-0.21752381,-0.7035305,-0.17795499,12.024404525756836,5.2196173667907715,3.4489901065826416,125.7734375,-69.12870788574219, -34.031925201416016
269,258447379,0.6504354,-0.1970211,-0.7151961,-0.16312966,9.628682136535645,10.69914436340332,0.8651567697525024,174.91944885253906,-61.64981460571289, -50.21862030029297
270,258464046,0.646743,-0.18146388,-0.7230313,-0.16130804,10.867311477661133,13.178404808044434,3.5568573474884033,82.73438262939453,-39.2579460144043, -79.96707916259766
271,258480713,0.64381605,-0.1760758,-0.72288615,-0.17870116,4.956188678741455,4.143725872039795,7.33868932723999,-65.8272933959961,12.596173286437988, -103.55313110351562
272,258497380,0.64783496,-0.17231272,-0.7148653,-0.19896236,1.4501967430114746,-5.535196304321289,10.13870620727539,-88.53285217285156,83.12882995605469, -90.00788879394531
273,258514047,0.66024023,-0.17229919,-0.69763994,-0.21839073,-1.3478400707244873,-12.726387023925781,12.04806900024414,-103.8589096069336,158.80282592773438, -45.78230285644531
274,258530714,0.680531,-0.17257622,-0.67324966,-0.23201346,3.136620044708252,-9.76271915435791,7.0086989402771,-78.83568572998047,221.3643798828125, 1.739011526107788
275,258547381,0.70580906,-0.1757327,-0.64287204,-0.24014023,7.108181953430176,-10.569282531738281,3.2848763465881348,-70.60905456542969,261.1022033691406, 55.403194427490234
276,258564048,0.7326746,-0.17975116,-0.6099759,-0.2425014,12.17050552368164,-7.070706844329834,-0.35891807079315186,-51.63677978515625,271.8669738769531, 92.38334655761719
277,258580715,0.7580094,-0.18555415,-0.57651216,-0.24212688,15.657506942749023,-3.9693100452423096,-1.6118724346160889,-52.072418212890625,262.05487060546875, 111.45570373535156
278,258597382,0.7807713,-0.19184756,-0.5441617,-0.23974732,16.8996524810791,-2.653151750564575,-1.5454808473587036,-48.17655563354492,242.89404296875, 117.92992401123047
279,258614049,0.8012499,-0.19734013,-0.5131591,-0.23605795,16.78942108154297,-0.22499863803386688,-1.676560640335083,-39.8135871887207,226.9808349609375, 116.28483581542969
280,258630716,0.819954,-0.20111784,-0.48337153,-0.23147202,15.400572776794434,-2.2066915035247803,-3.481796979904175,-27.69207191467285,215.9118194580078, 110.62452697753906
281,258647383,0.83639973,-0.20049126,-0.45796657,-0.2247345,14.26462459564209,-1.132042407989502,-5.149223804473877,8.156091690063477,188.10940551757812, 98.40506744384766
282,258664050,0.8490039,-0.20032905,-0.43719584,-0.21890755,12.512044906616211,0.8543524146080017,-6.089609622955322,6.00479793548584,150.06265258789062, 83.26580810546875
283,258680717,0.8568037,-0.2014855,-0.42284167,-0.21562968,10.728480339050293,2.7363295555114746,-7.683451175689697,-6.699032306671143,100.17517852783203, 56.148887634277344
284,258697384,0.85892946,-0.20381348,-0.41715595,-0.21605907,9.316760063171387,4.8534932136535645,-9.757539749145508,-20.465206146240234,36.694034576416016, 16.66692352294922
285,258714051,0.8545837,-0.20947538,-0.4203167,-0.2216769,9.38782787322998,6.59461784362793,-8.978123664855957,-50.97856521606445,-31.308549880981445, -26.2315731048584
286,258730718,0.8444636,-0.21848644,-0.43057784,-0.2318355,10.710022926330566,6.238062381744385,-6.840134143829346,-80.19635772705078,-88.09567260742188, -61.22914123535156
287,258747385,0.83108646,-0.22608826,-0.44585353,-0.24370928,11.775938987731934,5.594480991363525,-5.010769367218018,-73.35513305664062,-121.78377532958984, -87.44683837890625
288,258764052,0.8164788,-0.22999234,-0.46413675,-0.25503513,11.649439811706543,4.553396224975586,-5.641565799713135,-48.68500518798828,-136.79220581054688, -102.9502944946289
289,258780719,0.8014954,-0.2396366,-0.47799382,-0.2677713,12.827078819274902,-8.104646682739258,8.999739646911621,-96.9468765258789,-120.10566711425781, -87.65771484375
290,258797386,0.79091907,-0.24063838,-0.49090323,-0.27487132,12.133060455322266,-8.287274360656738,3.8020215034484863,-24.13850975036621,-94.10846710205078, -74.88432312011719
291,258814053,0.7775469,-0.23932624,-0.5083137,-0.28242013,24.061887741088867,2.7024927139282227,-4.180431365966797,-7.554687976837158,-123.12495422363281, -97.36407470703125
292,258830720,0.7638593,-0.23365583,-0.52814394,-0.2880765,16.700529098510742,-4.729463577270508,1.6836183071136475,26.528457641601562,-131.37094116210938, -106.93257904052734
293,258847387,0.7514062,-0.22718404,-0.5449425,-0.2946425,12.65194320678711,5.588423728942871,1.2585015296936035,23.448091506958008,-107.79202270507812, -107.44940948486328
294,258864054,0.7399996,-0.22256395,-0.5584405,-0.30167904,11.672835350036621,2.3749477863311768,4.091461181640625,6.985487461090088,-89.75189971923828, -95.4859390258789
295,258880721,0.7305748,-0.21672298,-0.57144874,-0.3045294,8.901638984680176,7.740045070648193,3.3945350646972656,31.252214431762695,-83.56233215332031, -73.95307922363281
296,258897388,0.7214652,-0.21661712,-0.579963,-0.31017417,9.565937042236328,3.664726734161377,3.6539974212646484,-17.539779663085938,-67.6404800415039, -57.86101150512695
297,258914055,0.71264964,-0.21803717,-0.58702433,-0.31621668,11.41795539855957,1.0917712450027466,1.3325809240341187,-29.37311553955078,-61.997840881347656, -50.84914779663086
298,258930722,0.7042803,-0.22085653,-0.5930007,-0.32181066,10.787386894226074,2.021700382232666,-0.3117287755012512,-36.10181427001953,-58.59506607055664, -40.3925895690918
299,258947389,0.69756556,-0.22307913,-0.59826535,-0.32514113,11.033287048339844,-0.2644333243370056,-3.06514573097229,-23.041147232055664,-50.469512939453125, -27.084548950195312
300,258964056,0.69291437,-0.22215977,-0.60380363,-0.32547796,11.284072875976562,-2.2044389247894287,-2.7988202571868896,8.132471084594727,-40.71892166137695, -21.51712417602539
301,258980723,0.68931854,-0.21900336,-0.6096826,-0.32429114,11.47016716003418,-1.1899415254592896,-1.6092311143875122,27.50974464416504,-35.14762878417969, -21.8475399017334
302,258997390,0.68650854,-0.21531628,-0.61487764,-0.32290936,10.29035758972168,1.0258784294128418,0.28850582242012024,30.51178741455078,-27.627870559692383, -20.484498977661133
303,259014057,0.684575,-0.21095628,-0.6199144,-0.32025117,10.038031578063965,1.3082051277160645,-0.5085960626602173,40.03358840942383,-23.542509078979492, -15.168930053710938
304,259030724,0.6832878,-0.2047972,-0.6259454,-0.31522736,10.063817977905273,0.9737239480018616,-0.3934319019317627,61.71235656738281,-24.881961822509766, -11.769891738891602
305,259047391,0.68196297,-0.19819584,-0.6320028,-0.31018963,9.855202674865723,1.7146486043930054,2.3466193675994873,63.858158111572266,-24.17906951904297, -13.796156883239746
306,259064058,0.6789759,-0.19454661,-0.6367565,-0.30932957,8.698723793029785,5.066816806793213,3.3801283836364746,26.822467803955078,-25.940776824951172, -22.352937698364258
307,259080725,0.675094,-0.19272152,-0.64142954,-0.30931363,8.503337860107422,4.3733744621276855,2.1763882637023926,13.241141319274902,-32.32278060913086, -19.999107360839844
308,259097392,0.67100835,-0.19090727,-0.6466427,-0.3084732,8.501371383666992,3.75569224357605,2.7430903911590576,17.70795440673828,-36.89991760253906, -17.193090438842773
309,259114059,0.6665555,-0.1890788,-0.6521108,-0.30774096,9.270842552185059,2.4075212478637695,2.005655288696289,17.363807678222656,-39.61344909667969, -18.81068992614746
310,259130726,0.661631,-0.18639646,-0.6583698,-0.3066761,10.27551555633545,1.3273053169250488,2.0836055278778076,23.841754913330078,-44.03353500366211, -23.13353729248047
311,259147393,0.65635484,-0.18184681,-0.66574407,-0.30481938,10.049626350402832,1.4741251468658447,1.0014814138412476,37.837867736816406,-47.83388137817383, -30.19400978088379
312,259164060,0.65003645,-0.17651099,-0.67459774,-0.30201736,10.246404647827148,0.6483554840087891,-0.24423642456531525,47.52120590209961,-58.83954620361328, -33.60358810424805
313,259180727,0.6424289,-0.17088501,-0.68474716,-0.2986716,10.840123176574707,-0.03447176516056061,-0.8280699849128723,52.475257873535156,-70.65988159179688, -36.846317291259766
314,259197394,0.63339496,-0.16517559,-0.6960166,-0.295108,11.27864933013916,-0.6454503536224365,-1.1346416473388672,54.499324798583984,-82.38968658447266, -40.62747573852539
315,259214061,0.62320983,-0.1589101,-0.70832,-0.2909291,11.736343383789062,-1.6316070556640625,-0.6869291067123413,60.65776443481445,-91.9584732055664, -44.25033187866211
316,259230728,0.61142534,-0.15257138,-0.72175795,-0.2862633,12.092018127441406,-0.7797650098800659,-0.6240842342376709,63.86343002319336,-105.01097869873047, -47.12540817260742
317,259247395,0.5982219,-0.14609835,-0.7360529,-0.28109095,12.296814918518066,-0.5265902876853943,0.26022061705589294,67.13682556152344,-115.9537582397461, -49.497161865234375
318,259264062,0.58300745,-0.1385481,-0.7519852,-0.2746366,12.87502384185791,1.5473501682281494,0.5761498808860779,79.20069122314453,-132.14813232421875, -55.345436096191406
319,259280729,0.5660874,-0.1309175,-0.76863897,-0.26758182,14.254535675048828,-1.2212260961532593,3.502455472946167,82.37306213378906,-144.37786865234375, -57.344200134277344
320,259297396,0.5480556,-0.120525785,-0.7874737,-0.25493872,16.806238174438477,-3.4653193950653076,5.663121700286865,125.6879653930664,-158.913330078125, -54.36932373046875
321,259314063,0.5291693,-0.10597271,-0.80762184,-0.23769045,19.953561782836914,-3.2867517471313477,10.079113006591797,167.9175567626953,-165.3441162109375, -62.393218994140625
322,259330730,0.5095389,-0.09208638,-0.8248965,-0.22679581,23.29878807067871,1.2349554300308228,15.499836921691895,124.99237060546875,-155.9791259765625, -81.1709213256836
323,259347397,0.48509654,-0.083505236,-0.8391572,-0.23135157,19.61402702331543,5.927150726318359,8.551011085510254,11.143230438232422,-171.89622497558594, -110.91508483886719
324,259364064,0.45174015,-0.0795646,-0.8544315,-0.244023,23.14365005493164,9.75506591796875,5.800387382507324,-54.533451080322266,-229.9175567626953, -125.97380065917969
325,259380731,0.41930133,-0.07458063,-0.87011516,-0.24804038,20.32374382019043,0.16767890751361847,7.914124488830566,0.9426490664482117,-229.21153259277344, -103.86927032470703
326,259397398,0.3934054,-0.06684683,-0.8854404,-0.23824176,16.425355911254883,4.176668643951416,6.560153484344482,94.37602233886719,-191.90284729003906, -69.3145523071289
327,259414065,0.37733465,-0.06294971,-0.8955501,-0.22725765,11.980243682861328,-0.7056412696838379,11.725361824035645,87.31597137451172,-125.19580841064453, -24.278697967529297
328,259430732,0.37071124,-0.0635666,-0.8989868,-0.22440007,4.717362403869629,-3.077472686767578,12.11274242401123,19.32605743408203,-53.69081115722656, -0.006467279978096485
329,259447399,0.3756583,-0.067036346,-0.8971396,-0.22254838,1.309211254119873,-4.530743598937988,11.686267852783203,2.7909390926361084,27.01311492919922, 35.142330169677734
330,259464066,0.39209878,-0.07344907,-0.8897665,-0.22176394,1.768924355506897,-5.238798141479492,11.080998420715332,-14.549338340759277,107.92863464355469, 70.59688568115234
331,259480733,0.4179978,-0.08024841,-0.8786319,-0.21643558,3.6672492027282715,-2.9311459064483643,7.771300792694092,11.218950271606445,172.8158416748047, 101.4590835571289
332,259497400,0.4523477,-0.08796193,-0.8618462,-0.21181487,5.749344348907471,-0.21000924706459045,6.021234512329102,0.5332181453704834,238.95652770996094, 120.61747741699219
333,259514067,0.4923854,-0.09679888,-0.8393475,-0.20900369,7.611091613769531,-0.15509267151355743,3.6671547889709473,-18.590702056884766,289.7244567871094, 133.4001007080078
334,259530734,0.53540635,-0.105937965,-0.8120506,-0.20661879,9.327157020568848,0.47987300157546997,1.1064951419830322,-27.035531997680664,322.9060974121094, 141.16990661621094
335,259547401,0.5805249,-0.114670865,-0.7799281,-0.20384826,11.586190223693848,0.9758669137954712,-0.4885966181755066,-28.777482986450195,352.61578369140625, 146.80540466308594
336,259564068,0.62675905,-0.12299936,-0.74268377,-0.20116037,14.192657470703125,1.884299874305725,-1.7062809467315674,-33.97368621826172,379.6672058105469, 149.89781188964844
337,259580735,0.6723185,-0.13162705,-0.7006495,-0.19938068,16.94756507873535,2.3619487285614014,-3.408144235610962,-47.16535186767578,397.2616271972656, 150.6244354248047
338,259597402,0.7152033,-0.14026424,-0.65578973,-0.19685033,19.342708587646484,2.261840343475342,-4.359230041503906,-49.94862747192383,396.85125732421875, 153.0241241455078
339,259614069,0.7538934,-0.1469304,-0.6110714,-0.19143674,21.95867156982422,3.00811767578125,-6.671009063720703,-31.151397705078125,377.283935546875, 152.497314453125
340,259630736,0.78717846,-0.15015884,-0.5693441,-0.18343925,23.359188079833984,5.030141353607178,-9.108641624450684,-4.032904624938965,341.2484130859375, 141.3506622314453
341,259647403,0.8131914,-0.15637086,-0.5311045,-0.17943238,20.246755599975586,8.846783638000488,-10.63155460357666,-38.97206497192383,294.6597595214844, 118.76177215576172
342,259664070,0.8306643,-0.16854452,-0.49859247,-0.18164591,17.468414306640625,7.306262969970703,-12.770102500915527,-94.1651840209961,230.80091857910156, 90.84783172607422
343,259680737,0.84055024,-0.18139656,-0.47482735,-0.1873762,15.187987327575684,8.904520988464355,-14.575907707214355,-108.40357971191406,158.54641723632812, 53.59987258911133
344,259697404,0.84492385,-0.19513382,-0.4584036,-0.19466035,12.19607162475586,7.3211541175842285,-16.95345115661621,-116.7691650390625,99.56553649902344, 31.124418258666992
345,259714071,0.8448901,-0.19957359,-0.45424095,-0.19999088,11.2097806930542,9.42858600616455,-15.708484649658203,-46.58757400512695,24.925859451293945, -9.273209571838379
346,259730738,0.83982253,-0.20226765,-0.45958835,-0.20631218,11.21531867980957,8.670892715454102,-13.191323280334473,-33.23649215698242,-41.810630798339844, -40.116233825683594
347,259747405,0.83028084,-0.2031711,-0.47316247,-0.21324284,11.82397747039795,8.495054244995117,-10.680545806884766,-19.08314323425293,-99.70297241210938, -66.72783660888672
348,259764072,0.8159927,-0.21060868,-0.48879185,-0.22557205,15.399974822998047,2.73418927192688,-2.0951809883117676,-79.3031997680664,-128.19442749023438, -86.9836196899414
349,259780739,0.80142075,-0.22250105,-0.50096333,-0.23927812,15.194708824157715,-10.974676132202148,7.710384845733643,-117.6766357421875,-113.9312744140625, -76.60564422607422
350,259797406,0.7879602,-0.22230695,-0.5174998,-0.24878176,15.315519332885742,-0.6718608140945435,-4.421039581298828,-26.633665084838867,-121.04950714111328, -99.54840087890625
351,259814073,0.77139914,-0.22475448,-0.53504026,-0.261076,18.022184371948242,2.3875579833984375,-2.4111685752868652,-52.10772705078125,-137.96621704101562, -111.30623626708984
352,259830740,0.7557133,-0.22271062,-0.5526867,-0.27172586,12.625187873840332,4.383096218109131,0.7818067669868469,-20.708459854125977,-129.6977996826172, -117.65690612792969
353,259847407,0.7393907,-0.2278379,-0.56397057,-0.28866726,12.844799995422363,6.527239799499512,0.9857156872749329,-94.778564453125,-102.86002349853516, -114.47534942626953
354,259864074,0.7293288,-0.22638929,-0.5739428,-0.2956637,8.690542221069336,-0.4903711676597595,0.8628022074699402,-15.602385520935059,-74.48637390136719, -74.8359375
355,259880741,0.7221421,-0.22077939,-0.5835882,-0.2986507,11.376348495483398,1.171349048614502,1.221977710723877,24.907363891601562,-59.351905822753906, -64.87187957763672
356,259897408,0.7165739,-0.21579446,-0.5914221,-0.30029073,11.729168891906738,-1.2022980451583862,1.057327389717102,25.951091766357422,-47.24919891357422, -49.65293502807617
357,259914075,0.71105886,-0.2133467,-0.59748447,-0.30313522,12.505118370056152,-1.58256995677948,0.31323957443237305,4.988540172576904,-41.815155029296875, -42.62018966674805
358,259930742,0.7065571,-0.2113326,-0.60238224,-0.30537108,11.75961971282959,-0.47952282428741455,0.45025694370269775,4.44087553024292,-33.80069351196289, -34.130226135253906
359,259947409,0.7033596,-0.20814164,-0.6074956,-0.3048139,10.10521125793457,1.334910273551941,1.0126619338989258,24.084211349487305,-31.08096694946289, -23.07588005065918
360,259964076,0.7009708,-0.2025793,-0.6140504,-0.30090496,9.338855743408203,3.0815255641937256,1.1573171615600586,53.73753356933594,-34.5548210144043, -17.176000595092773
361,259980743,0.69907904,-0.19693828,-0.6206709,-0.29541767,9.731925010681152,3.307816505432129,1.0897868871688843,61.614830017089844,-34.85927963256836, -8.975043296813965
362,259997410,0.6975658,-0.19228949,-0.62652576,-0.28964177,9.867534637451172,2.847100019454956,1.6369318962097168,57.041343688964844,-32.01576614379883, -1.5565454959869385
363,260014077,0.6958706,-0.1886009,-0.63173157,-0.28479666,9.725452423095703,3.2517809867858887,1.9671428203582764,46.902000427246094,-30.41924476623535, -1.4023364782333374
364,260030744,0.6935945,-0.18578367,-0.63656056,-0.2814283,9.485237121582031,2.2834525108337402,1.0478947162628174,34.836212158203125,-30.983243942260742, -5.336997985839844
365,260047411,0.69081557,-0.18278044,-0.6416841,-0.2785802,9.265137672424316,0.18159516155719757,1.2919628620147705,33.38169479370117,-33.60331726074219, -9.997166633605957
366,260064078,0.6870144,-0.17931946,-0.6475557,-0.27663633,9.777935981750488,0.2939096987247467,0.9357684254646301,31.72327423095703,-39.6956787109375, -19.2482852935791
367,260080745,0.68208146,-0.17629997,-0.65375847,-0.276194,9.94036865234375,0.09153827279806137,0.8647458553314209,22.193843841552734,-45.32194900512695, -26.969484329223633
368,260097412,0.6763016,-0.17337318,-0.6605967,-0.27598912,9.88184642791748,0.2221461534500122,0.39406222105026245,20.878217697143555,-52.03084945678711, -30.077550888061523
369,260114079,0.6698812,-0.16979182,-0.66835785,-0.27518705,9.611064910888672,0.26415079832077026,0.3741661608219147,27.625879287719727,-58.72769546508789, -32.61823654174805
370,260130746,0.6630018,-0.16504033,-0.67708635,-0.27339458,9.842326164245605,0.21425014734268188,-0.26560086011886597,38.86470413208008,-64.26065063476562, -35.45793151855469
371,260147413,0.65622973,-0.15833461,-0.6867108,-0.26966843,10.426783561706543,0.37327444553375244,0.16899937391281128,58.58403396606445,-66.38465881347656, -36.58216094970703
372,260164080,0.6487562,-0.15212186,-0.69638765,-0.26649305,10.931597709655762,2.3022725582122803,0.03467433154582977,53.09474563598633,-70.27030944824219, -38.121681213378906
373,260180747,0.64012486,-0.14667799,-0.70658195,-0.26356766,11.143088340759277,-0.07602466642856598,0.49838194251060486,48.20842361450195,-79.29068756103516, -38.22396469116211
374,260197414,0.6298531,-0.14145957,-0.717407,-0.2619189,10.701238632202148,1.6723530292510986,0.3657200336456299,40.505393981933594,-89.18482208251953, -46.38239288330078
375,260214081,0.61783344,-0.13768797,-0.72842574,-0.26214486,10.981866836547852,0.5923430919647217,0.490985631942749,23.644798278808594,-99.45539855957031, -50.7100715637207
376,260230748,0.60443234,-0.13444677,-0.7399652,-0.26274976,11.19666576385498,2.6000750064849854,-0.6042149066925049,19.12706184387207,-109.21192932128906, -52.663543701171875
377,260247415,0.58940524,-0.13110907,-0.7525074,-0.2629539,12.266023635864258,1.000268578529358,1.6937754154205322,21.87953758239746,-121.86853790283203, -55.355106353759766
378,260264082,0.5733844,-0.12579252,-0.7664777,-0.26061165,13.190064430236816,2.1436150074005127,1.222447395324707,44.76875305175781,-131.5579071044922, -58.376041412353516
379,260280749,0.5568535,-0.11824552,-0.78157103,-0.25510585,14.791335105895996,-1.173748254776001,2.085822105407715,71.81431579589844,-137.451171875, -59.55474090576172
380,260297416,0.5399341,-0.1070867,-0.79859966,-0.24339724,17.28424644470215,-2.877192735671997,4.955592632293701,122.06574249267578,-145.71047973632812, -57.50692367553711
381,260314083,0.5218884,-0.094459146,-0.8161471,-0.22937742,19.60964012145996,-3.3627126216888428,8.210699081420898,140.25819396972656,-153.1417236328125, -59.304996490478516
382,260330750,0.5029154,-0.08102338,-0.8336579,-0.21336845,20.630149841308594,-3.6863794326782227,8.556944847106934,153.67425537109375,-158.33224487304688, -58.18470764160156
383,260347417,0.48126787,-0.06756385,-0.8510374,-0.19887617,19.151695251464844,3.435319185256958,5.771604537963867,143.3883514404297,-172.4318084716797, -67.45571899414062
384,260364084,0.45975825,-0.060683448,-0.8629726,-0.20054539,21.523149490356445,8.822896957397461,12.368560791015625,19.67430877685547,-155.14984130859375, -79.71111297607422
385,260380751,0.43894535,-0.057301726,-0.87366873,-0.20185798,15.896873474121094,2.519615411758423,7.839671611785889,9.370349884033203,-152.17079162597656, -56.3288459777832
386,260397418,0.41684243,-0.047491904,-0.8873154,-0.19146372,14.634443283081055,8.072484016418457,2.607966423034668,102.71517181396484,-164.5815887451172, -62.573158264160156
387,260414085,0.39889786,-0.037886426,-0.8982453,-0.18055727,13.591341972351074,7.385388374328613,3.5946269035339355,103.06424713134766,-131.8774871826172, -53.46746826171875
388,260430752,0.39025134,-0.033780742,-0.9042857,-0.16979425,8.832315444946289,-3.568223714828491,12.25249195098877,83.46883392333984,-67.84992218017578, -7.0518107414245605
389,260447419,0.38771325,-0.02897535,-0.9080451,-0.15586235,5.166484832763672,0.5429007411003113,6.770116329193115,103.80311584472656,-23.71718406677246, 4.749457359313965
390,260464086,0.39281857,-0.028820397,-0.9062603,-0.1534773,5.692159652709961,1.2277660369873047,7.031090259552002,14.898053169250488,36.09071731567383, 12.30620002746582
391,260480753,0.40617546,-0.033932526,-0.8992088,-0.15904015,4.088560104370117,-1.1646502017974854,6.506929874420166,-52.770179748535156,97.7425765991211, 33.411495208740234
392,260497420,0.42728692,-0.042178296,-0.8875652,-0.16695817,3.965085983276367,-3.507591724395752,6.481494903564453,-79.3079833984375,155.64353942871094, 55.751708984375
393,260514087,0.4547829,-0.051193647,-0.8721448,-0.17296018,4.567920207977295,-2.4409596920013428,5.810275554656982,-72.38079071044922,204.27845764160156, 74.4890365600586
394,260530754,0.48749283,-0.06219234,-0.85223275,-0.17939502,5.699709415435791,-1.0043140649795532,4.1000800132751465,-84.70516204833984,247.41004943847656, 92.8068618774414
395,260547421,0.5246415,-0.074864544,-0.8276242,-0.18489125,6.921943664550781,-0.9845294952392578,2.333745002746582,-88.72750091552734,286.7335510253906, 113.24846649169922
396,260564088,0.56580603,-0.08837441,-0.7979989,-0.18775329,9.16427230834961,-0.7252419590950012,1.0797908306121826,-81.08660888671875,325.31463623046875, 135.21676635742188
397,260580755,0.6096884,-0.102176405,-0.76319075,-0.18809533,12.178033828735352,-0.45737653970718384,0.12401211261749268,-73.45258331298828,358.5410461425781, 153.296875
398,260597422,0.6546532,-0.11648219,-0.7231801,-0.18673955,15.831856727600098,0.7132463455200195,-2.009897470474243,-72.64122009277344,384.24560546875, 168.12928771972656
399,260614089,0.6989884,-0.12934904,-0.6795053,-0.18153985,18.836933135986328,1.238519310951233,-3.4321022033691406,-52.2621955871582,396.42840576171875, 180.41946411132812
400,260630756,0.7409897,-0.13793322,-0.6336019,-0.17452095,21.391422271728516,6.423717498779297,-3.6640591621398926,-28.0353946685791,400.0011901855469, 168.22177124023438
401,260647423,0.77746856,-0.14870748,-0.5861649,-0.17274138,23.693044662475586,7.394588947296143,-6.890354156494141,-69.12948608398438,386.123291015625, 145.91253662109375
402,260664090,0.8084004,-0.15205973,-0.54371184,-0.16656652,24.77625846862793,3.1648123264312744,-9.590519905090332,-11.47549057006836,341.44879150390625, 127.82270050048828
403,260680757,0.83214015,-0.15353209,-0.5074464,-0.16269298,21.152536392211914,8.900497436523438,-11.0408296585083,-4.883813858032227,283.8257141113281, 96.06000518798828
404,260697424,0.8463051,-0.17026514,-0.47565398,-0.16891079,16.172325134277344,10.125846862792969,-12.926004409790039,-134.3313446044922,218.64431762695312, 75.54185485839844
405,260714091,0.8537027,-0.19259888,-0.4499114,-0.17798124,14.680471420288086,6.962285995483398,-16.84269142150879,-178.75270080566406,158.4729766845703, 61.484100341796875
406,260730758,0.8588759,-0.18991837,-0.44129863,-0.17753549,11.47201156616211,8.976778030395508,-17.96348762512207,13.745146751403809,69.64837646484375, 13.31525707244873
407,260747425,0.8578189,-0.18272556,-0.44584572,-0.17882912,10.081891059875488,12.650598526000977,-15.861202239990234,43.02695083618164,-19.088163375854492, -35.402217864990234
408,260764092,0.84909165,-0.18450548,-0.45847774,-0.18654561,11.295978546142578,8.685012817382812,-13.866607666015625,-29.30029296875,-93.17276763916016, -65.32186889648438
409,260780759,0.8344013,-0.19290487,-0.47570837,-0.2006586,14.711706161499023,2.212113618850708,-4.307862281799316,-86.91458892822266,-139.92483520507812, -93.33787536621094
410,260797426,0.8179811,-0.21084844,-0.48825476,-0.21921992,14.72153377532959,-14.641813278198242,11.175027847290039,-166.3858642578125,-125.56101989746094, -84.82698059082031
411,260814093,0.8045228,-0.21486579,-0.50376546,-0.22977406,14.97185230255127,-6.682642936706543,-6.886777400970459,-56.21842575073242,-121.96924591064453, -88.5635986328125
412,260830760,0.78966826,-0.21556155,-0.5220449,-0.23963852,21.15035057067871,-0.513620913028717,-4.010250091552734,-33.282081604003906,-137.89161682128906, -102.51568603515625
413,260847427,0.77598554,-0.21082212,-0.5407102,-0.24704857,13.353219032287598,-2.651123285293579,1.4340152740478516,9.896134376525879,-130.97421264648438, -106.14100646972656
414,260864094,0.7641273,-0.20350231,-0.5571477,-0.25354078,13.120760917663574,9.376862525939941,-0.2933543920516968,25.932456970214844,-109.25616455078125, -104.52214050292969
415,260880761,0.75386107,-0.20159784,-0.56834465,-0.2608377,11.56714916229248,0.6305208802223206,2.9746031761169434,-12.5244779586792,-83.93507385253906, -77.8558578491211
416,260897428,0.747436,-0.19326705,-0.57996696,-0.26004964,9.452786445617676,4.3311357498168945,2.9781723022460938,58.46615219116211,-70.82866668701172, -54.76683044433594
417,260914095,0.742067,-0.1890484,-0.5880037,-0.26047885,9.517499923706055,2.4194982051849365,3.8372490406036377,27.47054100036621,-53.94390106201172, -37.963340759277344
418,260930762,0.7375044,-0.18452367,-0.595395,-0.25989065,10.379087448120117,1.5917611122131348,2.3954689502716064,33.04035568237305,-48.18647766113281, -31.72652244567871
419,260947429,0.73215467,-0.18353297,-0.601339,-0.2620245,10.275225639343262,2.727346658706665,1.705543875694275,0.39516347646713257,-46.94623565673828, -30.635587692260742
420,260964096,0.72654706,-0.18503578,-0.60625803,-0.26522171,10.22470474243164,2.419919729232788,1.0902491807937622,-18.723190307617188,-46.01579284667969, -24.845947265625
421,260980763,0.72123265,-0.18681817,-0.6106592,-0.26836127,9.43864917755127,3.1551709175109863,1.5556766986846924,-20.449031829833984,-42.80099868774414, -22.197397232055664
422,260997430,0.7165873,-0.18700933,-0.61572117,-0.26910573,9.657608032226562,1.0671004056930542,0.3853030800819397,-0.4205765724182129,-43.420265197753906, -16.60980987548828
423,261014097,0.7125978,-0.18436792,-0.6224137,-0.2661096,10.440528869628906,0.3229653835296631,-0.6473102569580078,33.232635498046875,-48.25194549560547, -11.06204605102539
424,261030764,0.70937604,-0.18044534,-0.62897027,-0.26195768,10.511595726013184,-0.21412396430969238,-0.24390336871147156,45.18191146850586,-43.42072677612305, -9.315932273864746
425,261047431,0.70628303,-0.17656703,-0.6350044,-0.2583755,11.015886306762695,-0.16559690237045288,-0.3602283000946045,41.722660064697266,-39.689998626708984, -11.035966873168945
426,261064098,0.70316005,-0.17301878,-0.6405493,-0.25559175,10.184913635253906,0.5052242875099182,0.31269192695617676,35.7296028137207,-37.064430236816406, -12.94428825378418
427,261080765,0.6998194,-0.17011747,-0.6455819,-0.25404143,9.505690574645996,1.8442853689193726,1.5486884117126465,26.012495040893555,-35.22170639038086, -15.839605331420898
428,261097432,0.6961602,-0.16736358,-0.6505976,-0.25312713,9.043547630310059,2.5836126804351807,1.779078483581543,22.08067512512207,-36.078369140625, -18.78314971923828
429,261114099,0.6920717,-0.16429119,-0.65609366,-0.2521635,9.187244415283203,1.6677422523498535,1.5054057836532593,24.17165184020996,-39.813453674316406, -21.269508361816406
430,261130766,0.68712336,-0.16071509,-0.66252637,-0.25117928,9.492945671081543,0.3493140637874603,1.1013216972351074,27.316789627075195,-47.30995559692383, -25.994510650634766
431,261147433,0.6807304,-0.15670316,-0.670316,-0.2504532,9.194561958312988,-0.1500931829214096,1.4182463884353638,28.949440002441406,-59.27204132080078, -33.20201873779297
432,261164100,0.672244,-0.15342864,-0.6790579,-0.2518492,9.287628173828125,1.3133338689804077,1.5069173574447632,15.105033874511719,-72.37306213378906, -44.37660598754883
433,261180767,0.6620315,-0.15128197,-0.68842006,-0.25476637,10.186694145202637,1.2126985788345337,0.5725408792495728,2.046260356903076,-83.66022491455078, -49.787628173828125
434,261197434,0.65104556,-0.1482146,-0.6988571,-0.25645846,10.514774322509766,1.208282232284546,1.1052742004394531,13.116122245788574,-91.88421630859375, -51.04623031616211
435,261214101,0.63944024,-0.14411369,-0.710088,-0.25714314,10.937131881713867,1.5108346939086914,1.1026506423950195,23.354999542236328,-97.63043212890625, -53.41006088256836
436,261230768,0.6271585,-0.13870141,-0.72228575,-0.25639322,11.763152122497559,1.323217511177063,0.8501906394958496,37.1692008972168,-104.30071258544922, -55.665061950683594
437,261247435,0.6133905,-0.1333439,-0.7354509,-0.25511464,13.007609367370605,0.5686922669410706,-1.3951849937438965,39.84968566894531,-116.4691390991211, -56.66461944580078
438,261264102,0.5985549,-0.12716268,-0.74948347,-0.2526583,13.470843315124512,-0.26277026534080505,-0.421578973531723,49.82205581665039,-125.16682434082031, -58.54317855834961
439,261280769,0.5825621,-0.12004962,-0.7641749,-0.24949208,14.217625617980957,-0.5242794156074524,0.30652713775634766,57.448612213134766,-132.85800170898438, -63.028160095214844
440,261297436,0.5652014,-0.112054035,-0.77973574,-0.24495612,15.44768238067627,-0.7295699119567871,0.7125470638275146,68.54505920410156,-143.16482543945312, -65.26229095458984
441,261314103,0.5467519,-0.102986276,-0.7961229,-0.23800142,17.76434898376465,-2.254159927368164,4.034810543060303,86.23526763916016,-152.29641723632812, -64.10285186767578
442,261330770,0.5278367,-0.09225369,-0.81308657,-0.22752614,20.52399253845215,-4.30436372756958,7.944354057312012,112.38787841796875,-156.827392578125, -61.18210220336914
443,261347437,0.50879,-0.07911815,-0.83048123,-0.21254203,22.650991439819336,-5.20648193359375,11.531645774841309,146.92236328125,-158.297607421875, -58.771846771240234
444,261364104,0.4873389,-0.06453899,-0.8486537,-0.19525003,19.939477920532227,-0.2471904754638672,10.692998886108398,164.99911499023438,-173.98931884765625, -62.92172622680664
445,261380771,0.4630663,-0.05340866,-0.8649274,-0.18605895,18.954429626464844,8.937498092651367,7.969363689422607,102.37718200683594,-185.1968231201172, -72.902099609375
446,261397438,0.44045013,-0.050622433,-0.8762588,-0.18871088,19.876996994018555,5.918278694152832,13.588988304138184,-0.3065660893917084,-165.980224609375, -57.03666305541992
447,261414105,0.41862184,-0.042646993,-0.88865584,-0.18228528,13.141580581665039,7.131355285644531,4.810970306396484,71.8050537109375,-160.9689483642578, -60.16801071166992
448,261430772,0.40048832,-0.031952344,-0.8997274,-0.17052574,11.184576034545898,7.9702324867248535,0.19503873586654663,111.6778564453125,-132.76449584960938, -56.398643493652344
449,261447439,0.39067656,-0.027349727,-0.90640163,-0.1583033,13.454570770263672,-1.3220953941345215,9.67422866821289,94.45411682128906,-76.42496490478516, -6.69065523147583
450,261464106,0.38868392,-0.024546402,-0.9095659,-0.14495665,1.96028470993042,-1.3142940998077393,7.183976173400879,94.28197479248047,-20.490440368652344, 16.701213836669922
451,261480773,0.39389727,-0.023782883,-0.90795356,-0.14106633,5.260817050933838,1.0988402366638184,4.751489162445068,26.146778106689453,36.889610290527344, 12.17778491973877
452,261497440,0.40677485,-0.02740409,-0.90142554,-0.14565536,3.68476939201355,0.7179578542709351,4.893123626708984,-42.17059326171875,95.17233276367188, 24.823904037475586
453,261514107,0.4268374,-0.035555754,-0.8898501,-0.15720181,3.152285099029541,-0.26273608207702637,4.665802001953125,-101.66923522949219,150.60052490234375, 41.590572357177734
454,261530774,0.4532429,-0.04587164,-0.87414765,-0.16832261,2.912839412689209,-1.6398024559020996,4.74444055557251,-108.33618927001953,199.091064453125, 63.943267822265625
455,261547441,0.48465392,-0.056682795,-0.85487103,-0.17633289,3.6175670623779297,-0.5613474249839783,4.440352916717529,-93.75090789794922,238.77674865722656, 83.5313491821289
456,261564108,0.5204288,-0.068510465,-0.83128124,-0.18284404,5.682891368865967,0.9962901473045349,3.53757381439209,-91.86478424072266,277.0059509277344, 101.48085021972656
457,261580775,0.5602224,-0.08149148,-0.8026519,-0.1877772,7.819666862487793,0.6009191870689392,1.6879228353500366,-91.42581939697266,315.84979248046875, 121.16389465332031
458,261597442,0.60322297,-0.0941892,-0.7691287,-0.18892215,10.643231391906738,-0.4774264991283417,0.29627615213394165,-73.95372009277344,350.6842956542969, 141.09564208984375
459,261614109,0.648666,-0.105042666,-0.73058105,-0.1856067,14.478129386901855,-0.3461943566799164,-1.0921223163604736,-47.66710662841797,383.9993591308594, 156.2898406982422
460,261630776,0.69476634,-0.11394089,-0.6875736,-0.17765063,17.569719314575195,-1.1044892072677612,-3.096529960632324,-20.852689743041992,406.3861083984375, 171.2483367919922
461,261647443,0.7396965,-0.11827021,-0.64183867,-0.16402565,20.947917938232422,1.6213371753692627,-3.1022796630859375,23.534624099731445,415.0660400390625, 177.4495391845703
462,261664110,0.7805404,-0.1213715,-0.5939581,-0.15244538,23.91655921936035,6.367735862731934,-4.233504772186279,14.993465423583984,411.0117492675781, 158.7678680419922
463,261680777,0.8146366,-0.12311669,-0.5485728,-0.14239947,25.072620391845703,4.643299579620361,-6.516517639160156,12.9657621383667,372.7483215332031, 135.84707641601562
464,261697444,0.8409236,-0.12149002,-0.5096715,-0.13536158,22.847213745117188,8.035947799682617,-8.7761812210083,27.80459213256836,311.50360107421875, 97.46611785888672
465,261714111,0.85794646,-0.13448562,-0.47621864,-0.13804848,18.97115135192871,8.223528861999512,-13.665138244628906,-101.10027313232422,243.40562438964844, 75.00384521484375
466,261730778,0.86766016,-0.15678963,-0.44866854,-0.14587566,15.665363311767578,6.580071449279785,-18.06035041809082,-174.03469848632812,180.6613006591797, 62.79154968261719
467,261747445,0.87236655,-0.16402431,-0.43534598,-0.15015495,10.875838279724121,8.456197738647461,-20.370750427246094,-64.30510711669922,91.71121215820312, 17.124357223510742
468,261764112,0.87055355,-0.15980677,-0.43860653,-0.15563686,9.775565147399902,10.885948181152344,-18.112123489379883,10.535381317138672,-13.978715896606445, -49.76796340942383
469,261780779,0.86058706,-0.16533025,-0.45133114,-0.1683933,11.288054466247559,8.70751667022705,-14.503746032714844,-68.56687927246094,-97.55592346191406, -83.01936340332031
470,261797446,0.84444463,-0.17846283,-0.46926132,-0.18670289,14.008267402648926,4.726474761962891,-8.655668258666992,-131.85360717773438,-149.9629669189453, -105.30174255371094
471,261814113,0.82592094,-0.19976895,-0.48376808,-0.20956007,16.874256134033203,-9.410346031188965,13.117188453674316,-196.8760223388672,-143.91452026367188, -101.27867126464844
472,261830780,0.8120598,-0.21123192,-0.49507928,-0.2254694,9.390580177307129,-14.053295135498047,5.166670322418213,-120.44971466064453,-104.37644958496094, -86.32828521728516
473,261847447,0.7974703,-0.21352957,-0.5124782,-0.23624691,19.605121612548828,3.158438205718994,-11.33942699432373,-45.90982437133789,-133.4714813232422, -100.20863342285156
474,261864114,0.78067875,-0.21647692,-0.5305885,-0.24930774,18.509990692138672,-4.164970397949219,-0.27992358803749084,-60.192935943603516,-142.70950317382812, -115.16435241699219
475,261880781,0.7673972,-0.20916222,-0.55044574,-0.2536972,10.486132621765137,-0.1445516049861908,0.1767043173313141,37.80638122558594,-135.2657470703125, -101.23255920410156
476,261897448,0.75486434,-0.20363066,-0.56597865,-0.2615014,15.012344360351562,9.785346984863281,0.05372653901576996,8.999147415161133,-107.81217193603516, -104.97930145263672
477,261914115,0.7447877,-0.20272326,-0.57610834,-0.26887518,11.2149076461792,0.7973420023918152,2.4673407077789307,-19.615297317504883,-79.11923217773438, -72.71988677978516
478,261930782,0.7377495,-0.19852576,-0.5856471,-0.27079642,10.343057632446289,2.9120633602142334,3.1087677478790283,21.972843170166016,-65.58912658691406, -51.39224624633789
479,261947449,0.731938,-0.19625717,-0.5926473,-0.27298194,9.492899894714355,1.7765908241271973,4.294081211090088,8.073888778686523,-51.021358489990234, -39.210472106933594
480,261964116,0.7266078,-0.19440784,-0.598874,-0.27494887,9.601228713989258,2.87540340423584,2.505479574203491,6.057172775268555,-46.27387619018555, -34.45455551147461
481,261980783,0.72074825,-0.19431506,-0.6047278,-0.27761123,10.288951873779297,2.4226269721984863,1.3637982606887817,-6.99057149887085,-48.99772644042969, -31.193084716796875
482,261997450,0.71495295,-0.19547293,-0.610198,-0.27980542,10.62250804901123,0.7731825113296509,0.28277313709259033,-11.88520622253418,-49.85224151611328, -23.035076141357422
483,262014117,0.7097017,-0.19503161,-0.61622226,-0.28027925,10.458000183105469,1.4506299495697021,-0.1372748166322708,4.992343902587891,-49.533226013183594, -20.991973876953125
484,262030784,0.7055249,-0.19216457,-0.6231102,-0.27756304,10.430187225341797,-0.3993562161922455,-0.5654484629631042,33.45137023925781,-48.800140380859375, -14.796008110046387
485,262047451,0.7020289,-0.18708089,-0.63068175,-0.27275786,10.01830005645752,0.5203196406364441,0.31380802392959595,55.35920333862305,-47.72832489013672, -13.778912544250488
486,262064118,0.698659,-0.18189295,-0.6378699,-0.26816538,10.254855155944824,0.8457651734352112,0.5451918244361877,54.38695526123047,-44.86503982543945, -14.539443969726562
487,262080785,0.69542515,-0.17710285,-0.64442885,-0.26406485,10.528715133666992,0.6877720952033997,0.38530945777893066,49.33011245727539,-41.369686126708984, -14.13035774230957
488,262097452,0.6924233,-0.17293207,-0.65004003,-0.26094547,10.305273056030273,1.4014272689819336,1.0036648511886597,40.5858268737793,-35.74549102783203, -14.512174606323242
489,262114119,0.68946314,-0.16954392,-0.65485865,-0.25895104,10.007575035095215,1.801680088043213,0.9613831639289856,30.462982177734375,-31.860336303710938, -15.35779857635498
490,262130786,0.68638176,-0.16583534,-0.6598002,-0.25698757,9.75475025177002,0.9502632021903992,0.6723681092262268,31.922470092773438,-32.39239501953125, -17.30936050415039
491,262147453,0.6826097,-0.16095735,-0.665782,-0.2546985,9.49294376373291,-0.036136675626039505,0.07780605554580688,39.970924377441406,-38.74801254272461, -23.49163818359375
492,262164120,0.6776321,-0.15532894,-0.6731318,-0.25215346,9.184192657470703,-0.5417168140411377,-0.3198052644729614,45.72773361206055,-49.660823822021484, -29.362443923950195
493,262180787,0.6712903,-0.14993525,-0.6811744,-0.25078,9.52040958404541,0.49796509742736816,0.3993958532810211,38.95597839355469,-58.362281799316406, -36.85416793823242
494,262197454,0.66359085,-0.14522307,-0.6897514,-0.25060064,10.203766822814941,1.289657711982727,0.5574603080749512,29.740867614746094,-67.13963317871094, -42.073760986328125
495,262214121,0.6548864,-0.1404004,-0.6993355,-0.24968228,10.309419631958008,1.995352029800415,2.0164730548858643,34.48341751098633,-77.0595703125, -41.96866226196289
496,262230788,0.64513856,-0.13478105,-0.71013373,-0.2476703,10.818901062011719,2.868823766708374,1.433890461921692,44.41242218017578,-87.24945068359375, -43.84041976928711
497,262247455,0.63390756,-0.1289357,-0.72215474,-0.24500988,10.884567260742188,1.5510993003845215,1.7278800010681152,49.295291900634766,-100.14755249023438, -45.72603225708008
498,262264122,0.6209283,-0.12315497,-0.7351746,-0.24248618,11.245205879211426,1.949354648590088,-1.4632997512817383,48.473941802978516,-113.18766021728516, -49.83806228637695
499,262280789,0.60607237,-0.11768553,-0.7490827,-0.24021186,12.697774887084961,0.20043091475963593,0.6631804704666138,45.777530670166016,-126.77989959716797, -53.215667724609375
500,262297456,0.5899451,-0.111131765,-0.76380235,-0.23710908,14.142106056213379,0.25363320112228394,-0.22349172830581665,54.878108978271484,-135.60897827148438, -58.12080001831055
501,262314123,0.57269984,-0.103524044,-0.7791936,-0.23271307,14.955879211425781,-0.6257568597793579,0.5866094827651978,66.18766784667969,-143.49240112304688, -60.76435470581055
502,262330790,0.5543185,-0.09319862,-0.79599756,-0.22457346,17.23403549194336,-2.7510712146759033,3.372901201248169,98.4026107788086,-153.4889373779297, -63.431907653808594
503,262347457,0.5357371,-0.08110383,-0.8132585,-0.21217608,19.551156997680664,-4.785152435302734,6.146083354949951,129.03550720214844,-156.37269592285156, -57.52812957763672
504,262364124,0.51611817,-0.066005014,-0.8316561,-0.19394267,20.840967178344727,-5.975347995758057,8.897604942321777,173.83221435546875,-165.31246948242188, -55.02668380737305
505,262380791,0.49408156,-0.049973834,-0.8500477,-0.17551447,18.57779884338379,0.42496031522750854,9.974818229675293,177.15782165527344,-178.05975341796875, -62.94097137451172
506,262397458,0.4684317,-0.038793426,-0.8667474,-0.16678163,18.508386611938477,7.375770568847656,5.349699974060059,100.73330688476562,-196.0402069091797, -71.3196029663086
507,262414125,0.44431853,-0.034247126,-0.87999696,-0.1643587,20.94034194946289,5.400995254516602,13.806180000305176,38.24382019042969,-181.75082397460938, -49.409725189208984
508,262430792,0.42492905,-0.031706773,-0.8895281,-0.16483329,14.190645217895508,5.57389497756958,9.507735252380371,11.543290138244629,-143.49844360351562, -39.92167282104492
509,262447459,0.40612003,-0.022676157,-0.9000747,-0.15626204,10.192042350769043,10.31177043914795,-0.6537015438079834,87.15716552734375,-137.61012268066406, -52.75374221801758
510,262464126,0.39190543,-0.01722864,-0.90752417,-0.15004477,15.895392417907715,6.5047736167907715,2.9095420837402344,60.01066589355469,-104.0228500366211, -31.70243263244629
511,262480793,0.38945034,-0.017335212,-0.91022384,-0.1397166,4.329931259155273,-4.213145732879639,12.115503311157227,67.21861267089844,-24.11984634399414, 26.729150772094727
512,262497460,0.3931552,-0.015286443,-0.9106179,-0.12637448,2.74607253074646,1.4411630630493164,6.8529438972473145,90.37015533447266,22.258642196655273, 27.49222183227539
513,262514127,0.40460277,-0.01584165,-0.90594506,-0.12373095,5.259828090667725,2.4365830421447754,4.674708843231201,12.771479606628418,83.26695251464844, 22.148195266723633
514,262530794,0.42376673,-0.022395538,-0.8960278,-0.13059354,4.418092727661133,0.9890009760856628,4.733956336975098,-66.74000549316406,141.8363037109375, 40.20969009399414
515,262547461,0.4499222,-0.032123625,-0.88145,-0.1399428,3.86096453666687,-2.1980068683624268,5.266450881958008,-94.42068481445312,196.01815795898438, 59.51467514038086
516,262564128,0.48102456,-0.041226633,-0.86354595,-0.14561662,5.055430889129639,-0.5090520977973938,4.255087375640869,-72.32921600341797,236.07325744628906, 72.5797119140625
517,262580795,0.5162677,-0.05128734,-0.8415069,-0.1506771,6.595831871032715,1.0454425811767578,2.9331626892089844,-74.83033752441406,273.2066955566406, 85.6138916015625
518,262597462,0.5553138,-0.06260081,-0.81472516,-0.15469596,8.20339584350586,-0.1108504980802536,2.009427070617676,-76.82969665527344,310.3962707519531, 102.18490600585938
519,262614129,0.5974937,-0.074141815,-0.7830548,-0.15597996,10.618666648864746,-1.1467715501785278,0.4839957356452942,-66.24201202392578,345.2221984863281, 119.3520278930664
520,262630796,0.6411593,-0.08503247,-0.74692094,-0.15425229,13.454931259155273,-1.503845453262329,-1.3466415405273438,-51.397438049316406,370.7471618652344, 132.09959411621094
521,262647463,0.68447787,-0.09591855,-0.70668626,-0.1512758,16.08350372314453,-0.06155905872583389,-2.8614535331726074,-49.53714370727539,386.34771728515625, 139.61282348632812
522,262664130,0.7260559,-0.10819519,-0.66250724,-0.14906764,18.756120681762695,1.3206477165222168,-4.142636775970459,-65.09718322753906,395.5546569824219, 143.54974365234375
523,262680797,0.7641911,-0.12043474,-0.61620736,-0.14763436,21.204959869384766,4.131545543670654,-4.641216278076172,-73.19970703125,391.1088562011719, 137.561279296875
524,262697464,0.79668015,-0.13277605,-0.5708739,-0.14756082,23.16149139404297,4.146174430847168,-7.476924419403076,-83.2109146118164,363.1487731933594, 124.3207015991211
525,262714131,0.8226818,-0.13964748,-0.53143734,-0.14583454,22.727392196655273,5.13559627532959,-10.020112991333008,-38.56571578979492,307.8907470703125, 104.00436401367188
526,262730798,0.84079474,-0.15355688,-0.49684006,-0.15044844,18.538528442382812,10.57027530670166,-12.253597259521484,-108.0842514038086,251.3178253173828, 79.86888122558594
527,262747465,0.8500556,-0.18064414,-0.4671788,-0.16284114,15.953877449035645,8.824639320373535,-14.898502349853516,-219.46774291992188,188.28643798828125, 62.984214782714844
528,262764132,0.85545474,-0.19689947,-0.44800678,-0.16946316,13.55139446258545,5.272172451019287,-18.311620712280273,-130.6562957763672,119.63799285888672, 44.6030158996582
529,262780799,0.8576299,-0.1894775,-0.44706374,-0.16942072,10.745649337768555,13.11622428894043,-17.979307174682617,46.007022857666016,21.19930076599121, -17.536243438720703
530,262797466,0.85190487,-0.18742798,-0.45658517,-0.175098,10.575845718383789,12.738882064819336,-16.33449935913086,-1.3898450136184692,-63.456905364990234, -57.5123176574707
531,262814133,0.8384472,-0.19433512,-0.47289142,-0.1887163,14.021735191345215,6.506642818450928,-8.85635757446289,-78.43700408935547,-128.65872192382812, -92.3657455444336
532,262830800,0.82061195,-0.2153561,-0.4860088,-0.20979372,17.282066345214844,-11.677973747253418,10.559465408325195,-192.39695739746094,-133.3247833251953, -89.95364379882812
533,262847467,0.806212,-0.21971127,-0.50240564,-0.2221213,12.909354209899902,-8.951776504516602,-3.234933614730835,-63.92643356323242,-127.74822235107422, -99.07840728759766
534,262864134,0.7901852,-0.22066763,-0.5223515,-0.232513,20.136449813842773,2.045714855194092,-7.8060102462768555,-37.57316970825195,-150.1581573486328, -108.99452209472656
535,262880801,0.7746725,-0.21878095,-0.54156905,-0.24232295,14.063152313232422,-5.8419647216796875,1.1183974742889404,-20.199565887451172,-140.77310180664062, -113.8136978149414
536,262897468,0.76247996,-0.2071558,-0.5611454,-0.24663107,12.838685989379883,9.49351692199707,-0.11273905634880066,60.47023391723633,-123.03289794921875, -114.62821197509766
537,262914135,0.74898773,-0.20924237,-0.5722394,-0.26034084,13.577927589416504,5.732883930206299,3.945798397064209,-63.95134735107422,-93.42693328857422, -101.07119750976562
538,262930802,0.7404551,-0.20634574,-0.5824049,-0.26448533,7.7368340492248535,2.0424697399139404,3.8747687339782715,4.8139543533325195,-73.99080657958984, -61.163578033447266
539,262947469,0.7329182,-0.20442958,-0.59069234,-0.2685558,8.779109954833984,4.47646427154541,4.596423149108887,-1.8802465200424194,-62.360660552978516, -52.378746032714844
540,262964136,0.72581226,-0.20334193,-0.5982577,-0.27191243,9.808732986450195,2.014531373977661,1.428231954574585,-3.8811287879943848,-59.53879928588867, -43.58712387084961
541,262980803,0.71854883,-0.20449129,-0.6046866,-0.2760887,11.26570987701416,0.15947109460830688,0.7765639424324036,-20.758241653442383,-57.562408447265625, -37.17792892456055
542,262997470,0.71158427,-0.2059542,-0.6106908,-0.27979946,11.350188255310059,-0.3488392233848572,-1.221877098083496,-20.754676818847656,-55.47901916503906, -32.41855239868164
543,263014137,0.7055047,-0.20626803,-0.6165711,-0.28205794,11.137042999267578,-0.8765117526054382,-1.456974744796753,-8.018794059753418,-50.99815368652344, -28.27294921875
544,263030804,0.7010193,-0.20342942,-0.6230283,-0.28111255,10.699049949645996,-0.301217257976532,-1.2758946418762207,24.23381233215332,-45.461708068847656, -23.842208862304688
545,263047471,0.69778806,-0.19810542,-0.6299858,-0.27742365,10.311205863952637,0.7507042288780212,0.46264171600341797,50.68730926513672,-41.52791976928711, -19.560571670532227
546,263064138,0.6952075,-0.19153954,-0.6370517,-0.2723314,9.944609642028809,1.7376106977462769,0.5102735161781311,63.82018280029297,-38.777565002441406, -17.127473831176758
547,263080805,0.6927684,-0.18503955,-0.6438598,-0.26697767,10.0199613571167,2.22935152053833,0.6675279140472412,64.35708618164062,-37.39850616455078, -14.992813110351562
548,263097472,0.69024396,-0.17980418,-0.6498305,-0.2625911,9.961929321289062,2.0038626194000244,1.122391700744629,52.409183502197266,-34.885868072509766, -13.097268104553223
549,263114139,0.68746626,-0.1754194,-0.6553855,-0.25901398,10.086949348449707,2.1876392364501953,0.8316810727119446,43.69641876220703,-34.59083938598633, -13.086243629455566
550,263130806,0.68437743,-0.17194097,-0.66058385,-0.25630656,9.871700286865234,1.5471757650375366,0.8594870567321777,34.48728942871094,-34.883155822753906, -13.240129470825195
551,263147473,0.68054426,-0.16893318,-0.665943,-0.25463945,9.933115005493164,0.7251867651939392,0.5887930393218994,26.955387115478516,-38.6318244934082, -17.505001068115234
552,263164140,0.67582184,-0.16585217,-0.6719042,-0.25358006,10.132407188415527,0.3606647849082947,1.184482455253601,24.539867401123047,-44.69670104980469, -22.950279235839844
553,263180807,0.6699813,-0.16238366,-0.6788382,-0.2528549,9.914304733276367,0.5700038075447083,1.2123115062713623,25.22132110595703,-53.3404541015625, -29.365909576416016
554,263197474,0.6629004,-0.15848741,-0.6868121,-0.252456,9.946121215820312,0.30054110288619995,0.6267737746238708,26.096012115478516,-62.827842712402344, -36.19275665283203
555,263214141,0.6546271,-0.15403055,-0.6958698,-0.25199902,10.743412017822266,0.4797869920730591,0.8450586199760437,29.509777069091797,-72.50244903564453, -41.83937454223633
556,263230808,0.6452612,-0.14874133,-0.7061488,-0.25073457,10.91090202331543,2.1739189624786377,1.2890437841415405,38.082359313964844,-82.65513610839844, -45.38716506958008
557,263247475,0.6340264,-0.14479746,-0.7171209,-0.25056314,11.038811683654785,0.9996437430381775,0.7430346012115479,26.096149444580078,-96.02395629882812, -47.63768005371094
558,263264142,0.6209963,-0.13992144,-0.72969973,-0.24964775,11.26590347290039,0.6770864725112915,0.007287770509719849,34.814300537109375,-111.03369903564453, -53.6942024230957
559,263280809,0.6058088,-0.13407417,-0.74398094,-0.24801724,12.523907661437988,0.16178545355796814,0.8900234699249268,43.39917755126953,-128.1635284423828, -60.86931610107422
560,263297476,0.5891946,-0.12646024,-0.75946385,-0.24509646,13.357284545898438,0.7655662894248962,1.2937980890274048,58.09788513183594,-138.66909790039062, -68.09318542480469
561,263314143,0.5713773,-0.116976835,-0.77601194,-0.24010444,14.549314498901367,-1.1176880598068237,0.8420222997665405,77.24421691894531,-147.94931030273438, -72.43789672851562
562,263330810,0.552685,-0.10504783,-0.79394704,-0.230549,17.09699249267578,-3.695110559463501,3.162825107574463,112.79515838623047,-157.73556518554688, -70.15331268310547
563,263347477,0.5335962,-0.09138513,-0.8124498,-0.21644711,20.395565032958984,-6.79313850402832,5.905352592468262,144.82376098632812,-162.65379333496094, -63.432071685791016
564,263364144,0.51376414,-0.07464178,-0.8314921,-0.19772737,22.147525787353516,-5.524590969085693,11.169929504394531,182.26998901367188,-167.196533203125, -65.218505859375
565,263380811,0.4912892,-0.060086206,-0.84951717,-0.18260756,18.45642852783203,1.5301423072814941,10.419078826904297,151.22442626953125,-179.9665985107422, -68.55792999267578
566,263397478,0.46544212,-0.048828572,-0.86659914,-0.17316332,18.779678344726562,8.250514030456543,4.865126132965088,104.3801040649414,-198.38682556152344, -72.32474517822266
567,263414145,0.44292143,-0.04527969,-0.87864965,-0.17246819,20.888668060302734,5.819225788116455,13.145448684692383,22.739015579223633,-168.76708984375, -48.72078323364258
568,263430812,0.42385498,-0.039269004,-0.88916546,-0.16789787,12.064067840576172,5.465923309326172,5.352065563201904,52.96398162841797,-141.64224243164062, -47.22840118408203
569,263447479,0.40618184,-0.02799237,-0.9001299,-0.15491624,10.185267448425293,9.498801231384277,-0.9874687194824219,120.67533111572266,-130.68899536132812, -53.41349411010742
570,263464146,0.39498264,-0.023395387,-0.90662616,-0.14652832,15.071086883544922,2.0607266426086426,6.843299388885498,70.11180877685547,-84.38603973388672, -17.107940673828125
571,263480813,0.39370987,-0.021822894,-0.90904176,-0.13475735,0.8217453360557556,-3.1152184009552,10.310624122619629,80.49434661865234,-15.10379409790039, 21.58098030090332
572,263497480,0.39944717,-0.020488344,-0.9078751,-0.12563825,4.346981048583984,-0.8626546859741211,5.6906328201293945,61.006500244140625,38.5412483215332, 22.91950225830078
573,263514147,0.41187373,-0.021072099,-0.90264183,-0.12310096,4.441335678100586,1.8289227485656738,3.897752285003662,12.0838041305542,90.70320129394531, 23.170236587524414
574,263530814,0.43228891,-0.028938863,-0.8914869,-0.13243918,3.802759885787964,1.0711350440979004,5.12641716003418,-86.09272766113281,152.59706115722656, 42.3640022277832
575,263547481,0.4589162,-0.040588375,-0.87565786,-0.14481738,3.5158262252807617,-2.148198366165161,4.829606533050537,-118.9969253540039,201.72378540039062, 63.097843170166016
576,263564148,0.4901097,-0.051602833,-0.8565318,-0.15324247,5.136330604553223,-0.02486281469464302,4.035664081573486,-95.21076965332031,239.14276123046875, 77.19500732421875
577,263580815,0.5257974,-0.06369939,-0.8329199,-0.16038656,6.589197635650635,0.3606926500797272,3.081329584121704,-94.45575714111328,279.1380920410156, 94.21134948730469
578,263597482,0.5653898,-0.07610587,-0.8046867,-0.16438255,8.359601974487305,-0.8225354552268982,1.9281970262527466,-80.94013214111328,316.50115966796875, 113.7044906616211
579,263614149,0.60820436,-0.08725122,-0.77176887,-0.16385308,11.317021369934082,-1.153912901878357,0.13326916098594666,-54.61656188964844,351.62078857421875, 130.42042541503906
580,263630816,0.6524284,-0.096489765,-0.73457164,-0.15947269,14.636242866516113,-1.063254952430725,-1.1966187953948975,-30.1904296875,376.8616027832031, 140.56832885742188
581,263647483,0.69644815,-0.10442582,-0.6933754,-0.15259731,17.532699584960938,-0.34738048911094666,-2.8357484340667725,-16.281326293945312,393.57415771484375, 147.6188201904297
582,263664150,0.73832834,-0.111988656,-0.6488382,-0.14607884,20.43842315673828,2.7841145992279053,-3.4597344398498535,-21.261510848999023,400.0573425292969, 144.2888946533203
583,263680817,0.7756327,-0.12254715,-0.60211694,-0.14433134,21.982540130615234,5.3837080001831055,-4.878265380859375,-63.51193618774414,391.4302673339844, 130.52886962890625
584,263697484,0.806411,-0.13272636,-0.55827665,-0.14287153,22.992277145385742,3.260115146636963,-7.902413368225098,-65.33968353271484,349.6827392578125, 118.53582763671875
585,263714151,0.83081883,-0.1394464,-0.5197106,-0.14211257,21.939857482910156,7.6471099853515625,-9.410654067993164,-42.354637145996094,298.55633544921875, 94.17230987548828
586,263730818,0.84704995,-0.15867023,-0.48481438,-0.1492824,18.628841400146484,8.734868049621582,-11.994721412658691,-150.45855712890625,244.56686401367188, 80.21886444091797
587,263747485,0.8562245,-0.18422832,-0.4557668,-0.15879606,15.199281692504883,6.450318336486816,-16.68434715270996,-199.9827880859375,183.99334716796875, 72.11133575439453
588,263764152,0.86250335,-0.18579602,-0.44296578,-0.15921412,10.949604034423828,7.765781879425049,-19.735090255737305,-16.150558471679688,94.07537078857422, 26.766321182250977
589,263780819,0.86244047,-0.17536873,-0.44727814,-0.15932491,10.218923568725586,13.812803268432617,-16.36811065673828,66.52911376953125,-13.811720848083496, -36.69916915893555
590,263797486,0.8530863,-0.17721242,-0.46107888,-0.16806485,10.886062622070312,10.56869125366211,-14.734099388122559,-33.622283935546875,-101.5451431274414, -71.66515350341797
591,263814153,0.8364473,-0.19047333,-0.47899863,-0.18610868,15.955397605895996,3.016418933868408,-3.9437479972839355,-131.68238830566406,-151.4175262451172, -101.620361328125
592,263830820,0.81852984,-0.20885159,-0.4938313,-0.20620531,16.55915069580078,-15.39258861541748,8.326813697814941,-172.07740783691406,-142.11192321777344, -93.44410705566406
593,263847487,0.80336493,-0.2100217,-0.5130032,-0.21753946,15.876944541931152,-4.144362926483154,-6.727901458740234,-40.11376953125,-143.83460998535156, -107.85948181152344
594,263864154,0.7861696,-0.21168457,-0.53332335,-0.22955051,18.7445068359375,0.4623202681541443,-4.143914222717285,-49.14723587036133,-156.32850646972656, -115.82038116455078
595,263880821,0.77140826,-0.20712662,-0.55302167,-0.23705499,11.643186569213867,-1.7615630626678467,-0.8531559109687805,7.063805103302002,-141.6526336669922, -107.82037353515625
596,263897488,0.7579533,-0.20088762,-0.569944,-0.24559158,14.939351081848145,11.580153465270996,-0.4176594018936157,9.383953094482422,-117.73295593261719, -113.61390686035156
597,263914155,0.74686176,-0.20054597,-0.58102536,-0.25374863,10.395030975341797,-1.8919856548309326,2.9361209869384766,-26.486330032348633,-88.49342346191406, -76.37846374511719
598,263930822,0.7388943,-0.193185,-0.5930581,-0.25494584,10.275117874145508,2.7025856971740723,3.809661865234375,43.3316650390625,-78.26900482177734, -64.56121063232422
599,263947489,0.7314409,-0.18841602,-0.60267,-0.25745404,9.581866264343262,2.993755340576172,4.106050491333008,21.256694793701172,-66.70275115966797, -56.527652740478516
600,263964156,0.72409433,-0.18719564,-0.60989016,-0.2620675,9.705903053283691,3.5800533294677734,2.2102253437042236,-9.405637741088867,-57.818363189697266, -49.11128234863281
601,263980823,0.7165866,-0.18925758,-0.6152667,-0.26857445,10.27627182006836,2.7521581649780273,1.5546455383300781,-37.215049743652344,-52.814231872558594, -42.674617767333984
602,263997490,0.709603,-0.19156575,-0.6206141,-0.27313787,10.357239723205566,1.0298540592193604,0.7722706198692322,-29.576120376586914,-53.453861236572266, -31.040651321411133
603,264014157,0.70362544,-0.19053966,-0.62751836,-0.27354458,10.163071632385254,0.5557188987731934,-0.14200130105018616,8.681049346923828,-55.980438232421875, -25.153934478759766
604,264030824,0.6986907,-0.18642995,-0.6354657,-0.27066338,10.402124404907227,-0.11479730904102325,-0.9246534109115601,41.11552047729492,-55.03495407104492, -21.970783233642578
605,264047491,0.69430745,-0.1815011,-0.64321256,-0.26696897,10.840953826904297,0.3009988069534302,-0.5118224620819092,48.93922805786133,-51.17505645751953, -20.380746841430664
606,264064158,0.68997425,-0.17727119,-0.65017074,-0.26417506,10.507423400878906,1.17664635181427,-0.30409184098243713,40.237037658691406,-47.346214294433594, -20.531129837036133
607,264080825,0.68583876,-0.17338349,-0.6567479,-0.2612386,10.339071273803711,2.033808946609497,0.7491143345832825,38.80157470703125,-45.452659606933594, -17.512359619140625
608,264097492,0.6820849,-0.17036176,-0.6623591,-0.25887766,10.285594940185547,2.813533067703247,0.6060030460357666,30.84402847290039,-40.054325103759766, -14.483392715454102
609,264114159,0.67874324,-0.16773193,-0.6672506,-0.25680858,9.879251480102539,2.2853708267211914,0.07211963832378387,26.88288688659668,-35.16798400878906, -12.489140510559082
610,264130826,0.6754706,-0.16520391,-0.6718894,-0.25497434,10.205578804016113,1.5005720853805542,-0.2554173171520233,24.967754364013672,-33.58945083618164, -12.706866264343262
611,264147493,0.67225003,-0.16258286,-0.6763345,-0.2534134,10.248885154724121,1.0315834283828735,-0.14113451540470123,23.85890007019043,-31.981124877929688, -14.102325439453125
612,264164160,0.66890293,-0.15943272,-0.6811185,-0.25145134,9.96591854095459,1.1900204420089722,0.020063582807779312,28.62055778503418,-33.66972351074219, -15.319327354431152
613,264180827,0.6649128,-0.15531906,-0.6869151,-0.24882652,9.874774932861328,1.1855565309524536,0.5815824866294861,37.2047233581543,-40.407623291015625, -19.0156192779541
614,264197494,0.66001034,-0.14977758,-0.69400024,-0.24559502,9.227198600769043,0.8921287655830383,1.0830793380737305,47.83073043823242,-48.82586669921875, -25.93337059020996
615,264214161,0.65355283,-0.14421636,-0.7021943,-0.242886,9.620474815368652,1.199023962020874,0.3700527250766754,45.70463562011719,-60.72433853149414, -32.1798210144043
616,264230828,0.64532244,-0.13954706,-0.71135575,-0.24095394,10.458175659179688,0.7701838612556458,-0.22882318496704102,37.806583404541016,-74.36433410644531, -35.29526901245117
617,264247495,0.63536817,-0.13464564,-0.7217441,-0.23929791,10.89880657196045,-0.1722179502248764,0.04941032826900482,37.868221282958984,-87.60111999511719, -41.70264434814453
618,264264162,0.62346274,-0.1297376,-0.7332863,-0.23823032,11.216981887817383,0.9534229636192322,-1.1694926023483276,35.0712776184082,-101.78568267822266, -48.606170654296875
619,264280829,0.6092317,-0.12485154,-0.7460714,-0.23796302,12.09771728515625,0.004848366137593985,1.203741431236267,30.90378189086914,-118.17100524902344, -56.85762405395508
620,264297496,0.59318066,-0.11905834,-0.76018,-0.23682998,13.078753471374512,0.7386797070503235,0.8888291716575623,39.75416564941406,-132.34320068359375, -62.02168273925781
621,264314163,0.57565737,-0.111150935,-0.77581954,-0.23317036,14.243719100952148,0.4411869943141937,1.2918648719787598,62.87882995605469,-144.94412231445312, -66.4396743774414
622,264330830,0.556766,-0.10021093,-0.7930505,-0.22592133,16.5282039642334,-0.5443841814994812,4.224961757659912,95.54610443115234,-156.46820068359375, -71.84856414794922
623,264347497,0.53688014,-0.08947037,-0.80984265,-0.21888298,19.061094284057617,-1.281624436378479,6.930069923400879,92.27919006347656,-160.44515991210938, -72.84769439697266
624,264364164,0.5169698,-0.076935336,-0.82692367,-0.20741434,21.65426254272461,-4.9532670974731445,9.875075340270996,124.01799011230469,-161.77432250976562, -66.74846649169922
625,264380831,0.49600515,-0.06076077,-0.8452817,-0.18917213,20.649187088012695,-1.518774151802063,11.157846450805664,176.76222229003906,-170.84466552734375, -65.61947631835938
626,264397498,0.47181618,-0.0451181,-0.86316806,-0.17405392,17.245399475097656,6.18440580368042,5.891679286956787,154.85699462890625,-187.5052947998047, -77.22209930419922
627,264414165,0.44751978,-0.03426983,-0.87851775,-0.16358031,20.20277976989746,4.272495746612549,10.588333129882812,108.70201873779297,-184.29302978515625, -63.15802764892578
628,264430832,0.42837146,-0.02967699,-0.88935107,-0.15707427,16.241230010986328,3.264775276184082,13.607792854309082,61.66195297241211,-145.5170440673828, -30.73119354248047
629,264447499,0.41017804,-0.016610663,-0.90107435,-0.13979726,10.299724578857422,10.203325271606445,-1.6645839214324951,153.7060089111328,-135.48988342285156, -49.981605529785156
630,264464166,0.39524832,-0.0070926384,-0.9097102,-0.12710637,14.047775268554688,9.378486633300781,-1.992560625076294,112.73015594482422,-109.45487976074219, -37.38733673095703
631,264480833,0.3919001,-0.007373819,-0.9121187,-0.11999825,11.092232704162598,-3.2873852252960205,12.458176612854004,46.33989334106445,-28.41156768798828, 19.19162368774414
632,264497500,0.39535263,-0.007511395,-0.9115824,-0.11250512,0.828951358795166,-1.416790246963501,6.941534519195557,47.055824279785156,22.166595458984375, 25.05942726135254
633,264514167,0.40612042,-0.0078052413,-0.9067633,-0.11307377,5.904187202453613,2.2077910900115967,4.3462653160095215,-6.836047172546387,79.93582153320312, 10.00495433807373
634,264530834,0.42442113,-0.012530924,-0.89710796,-0.122095555,3.933922290802002,1.9515448808670044,4.228199481964111,-75.25920104980469,137.39381408691406, 20.148805618286133
635,264547501,0.44974098,-0.020582704,-0.8828536,-0.13371316,3.2056972980499268,-1.6710624694824219,5.358251571655273,-104.2347640991211,191.54408264160156, 39.37858963012695
636,264564168,0.48017627,-0.028099652,-0.8652347,-0.14145803,4.403900146484375,-0.3121671676635742,3.9278573989868164,-81.45310974121094,232.94158935546875, 53.27211380004883
637,264580835,0.5148611,-0.036284532,-0.8436956,-0.14757812,6.234924793243408,1.0799846649169922,2.201127052307129,-76.99512481689453,270.21002197265625, 67.49996948242188
638,264597502,0.553252,-0.04608664,-0.8176658,-0.1523518,7.341521739959717,-0.64632648229599,1.3460272550582886,-78.55520629882812,305.6515197753906, 86.54051208496094
639,264614169,0.5937911,-0.056460407,-0.78746355,-0.155324,9.382567405700684,-0.6637063026428223,-0.02845233678817749,-74.31483459472656,332.45587158203125, 100.1822509765625
640,264630836,0.6357889,-0.068659864,-0.7525345,-0.15732269,12.42600154876709,-1.548086166381836,-1.4693500995635986,-81.0091552734375,357.3641662597656, 117.43917846679688
641,264647503,0.6783621,-0.08029133,-0.71373326,-0.15480112,15.284608840942383,-1.9084997177124023,-2.854515552520752,-59.07544708251953,375.7930908203125, 136.70950317382812
642,264664170,0.7202072,-0.089534454,-0.67193836,-0.14759535,18.064064025878906,-0.1784101277589798,-3.1265032291412354,-28.552143096923828,386.1908264160156, 147.70858764648438
643,264680837,0.7597344,-0.09739032,-0.62757206,-0.1395426,20.287738800048828,2.6149044036865234,-2.8949923515319824,-21.826587677001953,389.15216064453125, 144.72410583496094
644,264697504,0.79514724,-0.106279895,-0.5818975,-0.1335705,22.038076400756836,3.102803945541382,-4.498432159423828,-40.248233795166016,378.68182373046875, 135.2577667236328
645,264714171,0.82489467,-0.11248786,-0.5389857,-0.12802309,23.504182815551758,2.8552088737487793,-6.603888511657715,-19.071393966674805,342.1117858886719, 119.91853332519531
646,264730838,0.8475022,-0.1225539,-0.5005192,-0.12728354,22.58308219909668,9.619876861572266,-8.873424530029297,-70.22792053222656,292.4508056640625, 92.298095703125
647,264747505,0.8618036,-0.14757422,-0.4657166,-0.13647227,18.761381149291992,7.940193176269531,-11.939007759094238,-195.41015625,237.93679809570312, 75.6116714477539
648,264764172,0.86988384,-0.17382717,-0.43769398,-0.1466647,14.996720314025879,5.239756107330322,-18.015674591064453,-205.89894104003906,177.83749389648438, 60.938270568847656
649,264780839,0.8743923,-0.17467667,-0.4277561,-0.14815916,10.31633472442627,8.021729469299316,-20.567462921142578,-13.785102844238281,74.29460906982422, 11.321700096130371
650,264797506,0.8718137,-0.17013955,-0.43336418,-0.15227894,9.101323127746582,11.841469764709473,-15.388450622558594,18.181669235229492,-31.18560218811035, -46.140438079833984
651,264814173,0.86180484,-0.17504954,-0.44719768,-0.16329254,11.975444793701172,10.539109230041504,-11.263612747192383,-59.108367919921875,-104.32818603515625, -76.64047241210938
652,264830840,0.8469874,-0.18324986,-0.46595997,-0.1786433,13.553252220153809,6.370056629180908,-6.207119464874268,-92.23683166503906,-146.6968536376953, -103.47628784179688
653,264847507,0.82905656,-0.20205022,-0.48141807,-0.20019405,15.540340423583984,-6.779419422149658,8.118371963500977,-177.76206970214844,-143.97691345214844, -102.48152923583984
654,264864174,0.81351584,-0.21639729,-0.49355844,-0.21855068,11.582780838012695,-12.243431091308594,4.459571361541748,-143.233642578125,-115.36515045166016, -91.5584716796875
655,264880841,0.7977504,-0.2211917,-0.5102443,-0.23306572,18.00559425354004,2.5572149753570557,-9.333468437194824,-75.7405014038086,-131.14801025390625, -112.82328796386719
656,264897508,0.78109664,-0.22434363,-0.5282237,-0.24604465,18.01043128967285,-3.8319003582000732,0.39449799060821533,-63.2152099609375,-140.30242919921875, -114.62342834472656
657,264914175,0.7681469,-0.21823104,-0.54688865,-0.25147268,10.143009185791016,-0.033738475292921066,-0.5641838908195496,25.06382942199707,-127.64302825927734, -100.53966522216797
658,264930842,0.7554978,-0.21608974,-0.5600759,-0.26238063,14.641982078552246,10.140438079833984,1.4769090414047241,-25.546724319458008,-96.21521759033203, -105.80852508544922
659,264947509,0.74616206,-0.21453837,-0.56970304,-0.269544,10.368775367736816,-0.6259059906005859,2.3017578125,-15.713764190673828,-71.59014129638672, -72.7388916015625
660,264964176,0.73961115,-0.20931576,-0.57906425,-0.27174845,10.684072494506836,1.2091830968856812,2.226181983947754,26.161399841308594,-59.84663009643555, -56.13833999633789
661,264980843,0.7337271,-0.2053185,-0.58693904,-0.27384606,10.485940933227539,1.0072981119155884,2.6827855110168457,18.53697967529297,-52.09125900268555, -47.334774017333984
662,264997510,0.7279983,-0.20442249,-0.5926708,-0.27743742,10.69205379486084,0.9137640595436096,2.232849359512329,-6.949976444244385,-44.405364990234375, -39.042179107666016
663,265014177,0.72265494,-0.20447892,-0.5975497,-0.2808783,11.365171432495117,0.6063674688339233,1.0236736536026,-12.186159133911133,-40.614410400390625, -32.47865676879883
664,265030844,0.7179902,-0.2045449,-0.6021307,-0.2830019,10.342347145080566,0.7958652973175049,0.9042876958847046,-6.4407572746276855,-38.225685119628906, -24.17235565185547
665,265047511,0.7140301,-0.20296025,-0.60733336,-0.2830451,9.870829582214355,2.019049644470215,1.0197134017944336,12.52318000793457,-38.099388122558594, -20.24717140197754
666,265064178,0.7107587,-0.20013876,-0.61309576,-0.28085667,9.824350357055664,2.2265360355377197,0.6100525259971619,29.967008590698242,-38.68785858154297, -13.898588180541992
667,265080845,0.7078537,-0.19753715,-0.618423,-0.27834406,10.012056350708008,1.651009202003479,1.065867304801941,29.925893783569336,-35.89178466796875, -10.081713676452637
668,265097512,0.7050583,-0.19502445,-0.62349313,-0.27588883,10.418516159057617,1.2594587802886963,0.8491047620773315,28.910654067993164,-34.275447845458984, -9.429883003234863
669,265114179,0.7021449,-0.1921494,-0.62884897,-0.27316695,9.94867992401123,0.9673836827278137,0.5345800518989563,32.1983528137207,-35.84403610229492, -10.307291984558105
670,265130846,0.69902587,-0.18821901,-0.6349436,-0.269784,9.703140258789062,0.7409377098083496,0.6319523453712463,41.27115249633789,-39.19571304321289, -13.051824569702148
671,265147513,0.69560397,-0.18363436,-0.6414832,-0.26629496,9.847251892089844,0.6639222502708435,1.1105033159255981,45.316200256347656,-41.588287353515625, -16.550765991210938
672,265164180,0.6917445,-0.17831184,-0.64860547,-0.26268902,10.009759902954102,0.8517540693283081,0.9594137668609619,49.87934112548828,-45.111873626708984, -20.798540115356445
673,265180847,0.68735623,-0.17219119,-0.6563644,-0.25899348,9.626713752746582,0.5580430626869202,1.3029826879501343,54.580928802490234,-49.17692184448242, -25.681442260742188
674,265197514,0.68217623,-0.16498809,-0.6651621,-0.25490028,9.302101135253906,0.3568321466445923,1.0333750247955322,62.4076042175293,-56.217037200927734, -31.34368324279785
675,265214181,0.67557514,-0.1572985,-0.6750351,-0.25136262,9.287213325500488,0.5545907020568848,0.7911180853843689,62.42538833618164,-66.29166412353516, -39.903350830078125
676,265230848,0.66732067,-0.15004353,-0.68569213,-0.24899125,10.021873474121094,0.8218898773193359,0.5314648151397705,54.56293487548828,-77.10936737060547, -47.025020599365234
677,265247515,0.65770125,-0.14246598,-0.69728154,-0.24684225,10.705347061157227,1.7742836475372314,1.5808582305908203,55.18526840209961,-87.05401611328125, -52.87958908081055
678,265264182,0.6467324,-0.13557412,-0.70949095,-0.24490768,11.45816421508789,1.4361478090286255,1.571817398071289,50.79281234741211,-97.3056640625, -53.46736145019531
679,265280849,0.6340949,-0.12860522,-0.72277343,-0.24286455,11.112911224365234,0.6651772260665894,1.834916353225708,51.9235954284668,-110.21700286865234, -57.18351745605469
680,265297516,0.6197626,-0.12174062,-0.73692244,-0.24087135,11.567922592163086,2.0119638442993164,-1.6272337436676025,51.177799224853516,-122.5799560546875, -60.49879837036133
681,265314183,0.6036466,-0.11474372,-0.7520391,-0.23850013,12.860610008239746,-0.5319888591766357,0.509757399559021,53.767642974853516,-135.8462371826172, -63.33247375488281
682,265330850,0.58639824,-0.1068263,-0.7677988,-0.23496932,14.070856094360352,-0.43759885430336,-0.1891297698020935,63.74888229370117,-143.8075714111328, -65.67743682861328
683,265347517,0.56816953,-0.09631624,-0.78486294,-0.22780901,15.616005897521973,-1.450584053993225,0.6699421405792236,94.75394439697266,-152.75404357910156, -67.31019592285156
684,265364184,0.5489936,-0.08456658,-0.80246246,-0.21796554,18.170942306518555,-3.0844955444335938,4.448230743408203,114.291015625,-159.8421173095703, -65.40515899658203
685,265380851,0.52935416,-0.07014195,-0.8210168,-0.20198032,21.015317916870117,-6.230646133422852,8.295602798461914,159.45472717285156,-165.66363525390625, -58.29703140258789
686,265397518,0.50806284,-0.05341961,-0.839957,-0.18300526,21.283533096313477,-1.7885892391204834,12.564532279968262,184.45018005371094,-174.79017639160156, -62.95642852783203
687,265414185,0.48399535,-0.03950429,-0.8572724,-0.17109157,18.397871017456055,6.356121063232422,9.587207794189453,130.81622314453125,-186.25514221191406, -74.3556137084961
688,265430852,0.45804074,-0.02804823,-0.87342125,-0.16293377,20.5280704498291,8.219679832458496,7.5835723876953125,98.6638412475586,-195.50668334960938, -74.24637603759766
689,265447519,0.436677,-0.0231224,-0.88550234,-0.1570489,18.236114501953125,2.219573497772217,13.765368461608887,60.83267593383789,-162.11752319335938, -36.23774719238281
