PacketCounter,SampleTimeFine,Quat_W,Quat_X,Quat_Y,Quat_Z,Acc_X,Acc_Y,Acc_Z,Gyr_X,Gyr_Y,Gyr_Z 
1,4256950127,0.43108124,0.5671939,-0.2409194,0.6591041,0.0017975177615880966,-0.07035911083221436,0.035382065922021866,-0.13370434939861298,0.488690048456192, -0.10393031686544418
2,4256966794,0.4313909,0.5667208,-0.2417452,0.6590059,17.243602752685547,2.9055657386779785,4.3935747146606445,1.2123709917068481,3.526491641998291, 0.9543997645378113
3,4256983461,0.43183059,0.5650636,-0.24358353,0.6594638,17.16997528076172,2.902287483215332,4.4323835372924805,1.4615437984466553,3.812303066253662, 0.7994555830955505
4,4257000128,0.4317219,0.56361336,-0.24436426,0.6604866,17.041080474853516,3.031426429748535,4.296035289764404,0.5959627628326416,3.631669759750366, 0.533659815788269
5,4257016795,0.43210587,0.5630625,-0.24447624,0.6606637,17.065210342407227,2.83845591545105,4.5311174392700195,-0.32145223021507263,3.997931718826294, 0.25184327363967896
6,4257033462,0.43273526,0.5620308,-0.24478416,0.66101617,16.907470703125,2.8930883407592773,4.295341491699219,0.27184683084487915,3.9645073413848877, 0.3357633650302887
7,4257050129,0.43263477,0.56159747,-0.24453484,0.66154224,16.778499603271484,2.9916231632232666,4.436568260192871,-0.3073523938655853,4.128568649291992, 0.3494916558265686
8,4257066796,0.43268996,0.5612303,-0.24411134,0.66197413,16.80391502380371,2.946147918701172,4.3267340660095215,0.05229473486542702,3.67154860496521, 0.8189340829849243
9,4257083463,0.433346,0.5607674,-0.24423954,0.6618901,16.863191604614258,2.975003719329834,4.505673885345459,0.27357563376426697,3.670229434967041, 0.8909057974815369
10,4257100130,0.43394843,0.5603306,-0.2442188,0.66187274,16.639509201049805,2.8664212226867676,4.3538031578063965,1.5900555849075317,3.6242289543151855, 0.972136378288269
11,4257116797,0.43437672,0.5599294,-0.24415019,0.6619567,16.72007942199707,2.83911395072937,4.258711338043213,-0.0609966441988945,3.60345721244812, 0.6499799489974976
12,4257133464,0.43483862,0.5595837,-0.24419428,0.6619295,16.743619918823242,2.8854806423187256,4.389739036560059,1.2186716794967651,3.8421552181243896, 0.539051353931427
13,4257150131,0.4355909,0.5588394,-0.24408671,0.66210335,16.79168701171875,2.9772531986236572,4.3047919273376465,0.7383822798728943,7.52581262588501, -0.02837887592613697
14,4257166798,0.4361226,0.55779755,-0.24310704,0.6629917,16.92629051208496,3.0193731784820557,4.426591396331787,1.4087185859680176,13.528104782104492, -0.7298983931541443
15,4257183465,0.4370005,0.5566382,-0.24242318,0.6636382,16.627071380615234,2.9125285148620605,4.43074369430542,1.7443863153457642,13.60391902923584, -0.5339611172676086
16,4257200132,0.4379285,0.55558056,-0.242087,0.6640352,16.36643409729004,2.939849376678467,4.351132392883301,2.400660514831543,11.648975372314453, 0.25261178612709045
17,4257216799,0.43857992,0.5547002,-0.24164657,0.6645016,16.488866806030273,2.8911728858947754,4.474524021148682,2.393437623977661,10.692110061645508, 0.49510008096694946
18,4257233466,0.43902653,0.55406815,-0.2413208,0.66485226,16.402727127075195,2.8443360328674316,4.407222747802734,2.252682685852051,8.228818893432617, 0.7100163102149963
19,4257250133,0.43948954,0.55356497,-0.24136917,0.66494805,16.439882278442383,2.7635955810546875,4.582525730133057,1.2970463037490845,5.807801246643066, 1.1564711332321167
20,4257266800,0.4399273,0.5532302,-0.24182099,0.664773,16.594093322753906,2.881241798400879,4.622114181518555,-0.5485216379165649,2.544679641723633, 1.3860762119293213
21,4257283467,0.44010583,0.5531798,-0.24228282,0.6645284,16.57211685180664,2.7392938137054443,4.660279750823975,-1.175046682357788,0.0027597686275839806, 1.1925337314605713
22,4257300134,0.4402183,0.5531848,-0.24264987,0.6643159,16.36542510986328,2.81679630279541,4.4834303855896,-0.23208945989608765,-0.10544747859239578, 0.916134238243103
23,4257316801,0.44043255,0.55315673,-0.24300285,0.66406816,16.35194969177246,2.8778133392333984,4.534323215484619,0.3306407332420349,0.30611658096313477, 0.6155692338943481
24,4257333468,0.44052958,0.5530628,-0.24306044,0.66406095,16.278329849243164,2.9411089420318604,4.403404235839844,0.01606556586921215,1.7510825395584106, 0.25266286730766296
25,4257350135,0.44064423,0.5529041,-0.24303247,0.6641272,16.3668270111084,2.8616578578948975,4.461723804473877,0.1769261211156845,2.643723726272583, 0.26844027638435364
26,4257366802,0.4410527,0.5526102,-0.24328154,0.6640095,16.324731826782227,2.795811176300049,4.396389007568359,0.14524321258068085,2.74517560005188, 0.5291135311126709
27,4257383469,0.4410545,0.5524659,-0.24330547,0.6641196,16.349088668823242,2.7633092403411865,4.474887371063232,0.0480942502617836,2.360959529876709, 0.9274166226387024
28,4257400136,0.44121405,0.55234987,-0.24365273,0.6639829,16.40416145324707,2.8488478660583496,4.495880126953125,-0.3562982380390167,0.900036633014679, 1.1475577354431152
29,4257416803,0.44132438,0.55229497,-0.24406923,0.66380215,16.422443389892578,2.914193630218506,4.512880802154541,-0.553784966468811,0.10354574024677277, 1.3522416353225708
30,4257433470,0.44129542,0.55235624,-0.24439795,0.6636496,16.328418731689453,2.8088667392730713,4.428662300109863,-0.1716691106557846,-0.4829786419868469, 1.3234144449234009
31,4257450137,0.4412879,0.55230033,-0.24459794,0.6636274,16.3148136138916,2.7540676593780518,4.428772449493408,-0.2617361843585968,0.434077650308609, 1.1373639106750488
32,4257466804,0.44149068,0.55204093,-0.24471866,0.66366386,16.36695098876953,2.7584259510040283,4.325406074523926,1.010670781135559,2.0853540897369385, 0.969588041305542
33,4257483471,0.4417632,0.55161756,-0.24473485,0.66382855,16.254100799560547,2.682432174682617,4.458353519439697,0.3055402934551239,3.4890198707580566, 0.7256013751029968
34,4257500138,0.44197568,0.5512604,-0.2447091,0.6639933,16.37430191040039,2.831310749053955,4.429661750793457,0.04550737142562866,3.0017127990722656, 0.47259920835494995
35,4257516805,0.4422826,0.5509017,-0.24479365,0.6640554,16.42751693725586,2.6090786457061768,4.510178565979004,-0.12262078374624252,2.5766053199768066, 0.406928151845932
36,4257533472,0.44250327,0.5506559,-0.24474221,0.6641311,16.41791343688965,2.6801252365112305,4.454290866851807,0.7579118013381958,2.299309492111206, 0.008778753690421581
37,4257550139,0.44255733,0.5505416,-0.24456793,0.6642541,16.45855140686035,2.6879544258117676,4.43441915512085,1.035322904586792,1.7313733100891113, -0.17446088790893555
38,4257566806,0.44278786,0.5503882,-0.24457562,0.6642248,16.639570236206055,2.7261078357696533,4.456283092498779,0.2271013855934143,1.258960247039795, -0.3805534541606903
39,4257583473,0.4429774,0.55024177,-0.2445427,0.66423184,16.42448616027832,2.6552066802978516,4.4105448722839355,0.6491346955299377,1.4204610586166382, -0.2472650110721588
40,4257600140,0.44309494,0.5501322,-0.24445811,0.6642754,16.439279556274414,2.7916510105133057,4.45170259475708,0.45766690373420715,1.276415228843689, -0.3187500238418579
41,4257616807,0.44322985,0.5499979,-0.2444054,0.66431606,16.324525833129883,2.75732684135437,4.386479377746582,0.2502424716949463,1.325079321861267, -0.21778477728366852
42,4257633474,0.4434624,0.54976755,-0.24449272,0.6643194,16.372591018676758,2.699819803237915,4.3476643562316895,0.007190765347331762,1.5536983013153076, 0.241175577044487
43,4257650141,0.44364065,0.54952234,-0.2445886,0.6643679,16.686607360839844,2.8346970081329346,4.530684471130371,-0.05091805011034012,1.632278323173523, 0.6099728941917419
44,4257666808,0.44380158,0.549233,-0.24463192,0.6644837,16.683122634887695,2.5823402404785156,4.562138080596924,-0.07117769867181778,2.1667895317077637, 0.6830202341079712
45,4257683475,0.44401628,0.5488957,-0.24471377,0.6645887,16.728046417236328,2.6118147373199463,4.518430233001709,0.06953207403421402,2.4338912963867188, 0.8275269865989685
46,4257700142,0.44422457,0.548545,-0.24475467,0.66472393,16.56160545349121,2.567915916442871,4.424854278564453,0.20056666433811188,2.7092666625976562, 0.7907345294952393
47,4257716809,0.44444886,0.5482058,-0.2447645,0.6648503,16.638164520263672,2.6361515522003174,4.4515862464904785,0.21382123231887817,2.7319211959838867, 0.5280378460884094
48,4257733476,0.44470775,0.54783994,-0.24470408,0.665001,16.541975021362305,2.478999376296997,4.533881187438965,0.4023178815841675,3.2257208824157715, 0.23712877929210663
49,4257750143,0.44475156,0.5476259,-0.24441607,0.66525406,16.527957916259766,2.5393946170806885,4.3494110107421875,0.9833676218986511,2.925194501876831, -0.1453520804643631
50,4257766810,0.44487548,0.5473454,-0.24410939,0.66551447,16.38620948791504,2.5155820846557617,4.394328594207764,0.5855703353881836,3.4532320499420166, -0.44630128145217896
51,4257783477,0.44504312,0.54708624,-0.24378817,0.66573316,16.33055305480957,2.6458067893981934,4.313727855682373,0.49183425307273865,3.3192968368530273, -0.8621618151664734
52,4257800144,0.44524994,0.54681003,-0.24352,0.6659201,16.338058471679688,2.5180587768554688,4.40458345413208,-0.008823574520647526,3.182896375656128, -0.9100065231323242
53,4257816811,0.44539538,0.5465837,-0.24325028,0.6661072,16.32305145263672,2.6639907360076904,4.334429740905762,0.3816356062889099,2.8577048778533936, -0.719601571559906
54,4257833478,0.44557688,0.5463042,-0.24305426,0.6662866,16.256942749023438,2.651477575302124,4.406784534454346,-0.27534934878349304,2.9075984954833984, -0.5428739786148071
55,4257850145,0.44565102,0.54607016,-0.24283956,0.6665069,16.45466423034668,2.6115877628326416,4.479867935180664,0.42574065923690796,2.7321383953094482, -0.06996108591556549
56,4257866812,0.44568872,0.54584205,-0.24257728,0.66676414,16.354286193847656,2.6044726371765137,4.405642509460449,0.8610414266586304,2.929356813430786, 0.021469848230481148
57,4257883479,0.44572154,0.54558843,-0.24232377,0.6670421,16.269256591796875,2.5726068019866943,4.368813514709473,0.7947941422462463,3.0897305011749268, 0.18152360618114471
58,4257900146,0.44585326,0.5452808,-0.24209242,0.6672894,16.3094425201416,2.5777089595794678,4.515869140625,0.10813041776418686,3.322805881500244, -0.19262030720710754
59,4257916813,0.44597512,0.54503185,-0.2417646,0.6675301,16.21539878845215,2.595416307449341,4.369207859039307,0.7539545893669128,3.307130813598633, -0.6286764740943909
60,4257933480,0.44618878,0.544726,-0.24144131,0.66775405,16.270963668823242,2.5609519481658936,4.441139221191406,0.1869022697210312,3.6461918354034424, -0.9901742339134216
61,4257950147,0.44640434,0.54447544,-0.24108532,0.6679429,16.320348739624023,2.5055654048919678,4.347369194030762,0.4424145817756653,3.3647725582122803, -1.3205780982971191
62,4257966814,0.44666988,0.54424435,-0.24075694,0.66807216,16.106679916381836,2.6670517921447754,4.4674153327941895,0.08999662101268768,3.050363302230835, -1.662558674812317
63,4257983481,0.44691566,0.5440686,-0.24046381,0.6681565,16.103267669677734,2.6493091583251953,4.368094444274902,0.09718097746372223,2.4838874340057373, -1.666810393333435
64,4258000148,0.44718584,0.54384464,-0.24024598,0.6682365,15.975309371948242,2.704573631286621,4.322380065917969,-0.4951190948486328,2.4976797103881836, -1.4291373491287231
65,4258016815,0.44736227,0.54365814,-0.23998845,0.66836256,16.008655548095703,2.785350799560547,4.2891716957092285,0.2282411754131317,2.465113401412964, -1.0652706623077393
66,4258033482,0.44749472,0.54348475,-0.23966813,0.6685299,16.119735717773438,2.7710506916046143,4.28591251373291,0.7885958552360535,2.6808876991271973, -0.9901358485221863
67,4258050149,0.44759527,0.5432615,-0.23927948,0.66878307,16.110477447509766,2.5764365196228027,4.464036464691162,1.2093101739883423,3.3896682262420654, -0.7521425485610962
68,4258066816,0.44764662,0.543075,-0.23889509,0.66903764,16.0017032623291,2.5709033012390137,4.203188419342041,1.4895256757736206,3.1313507556915283, -0.5683201551437378
69,4258083483,0.44785824,0.54280823,-0.23871379,0.669177,16.092470169067383,2.708157539367676,4.321044921875,-0.47957223653793335,2.71178936958313, -0.7714802026748657
70,4258100150,0.44805723,0.5425549,-0.23855971,0.66930425,16.00632667541504,2.6679720878601074,4.407506942749023,-0.53594571352005,2.501291513442993, -0.670425295829773
71,4258116817,0.44824445,0.5423397,-0.23834066,0.66943145,16.098651885986328,2.8089540004730225,4.277257919311523,-0.0760953351855278,2.5068624019622803, -0.9214810132980347
72,4258133484,0.44840732,0.5421305,-0.23804706,0.66959625,16.099925994873047,2.8405585289001465,4.25634241104126,0.43685659766197205,2.811589241027832, -0.9802235960960388
73,4258150151,0.4485294,0.54195607,-0.23763394,0.6698024,16.14811897277832,2.6670877933502197,4.275336742401123,1.3134770393371582,3.1103105545043945, -1.1656596660614014
74,4258166818,0.44859007,0.541816,-0.23713824,0.67005074,16.295610427856445,2.7002055644989014,4.318265914916992,2.096931219100952,3.2664198875427246, -1.1185835599899292
75,4258183485,0.44871834,0.54161143,-0.23672006,0.6702781,16.145751953125,2.594538927078247,4.223540306091309,1.255374550819397,3.3588688373565674, -1.1019610166549683
76,4258200152,0.44897264,0.5412994,-0.23647046,0.67044795,16.10959815979004,2.662929058074951,4.245854377746582,-0.4160526692867279,3.3289144039154053, -1.0596871376037598
77,4258216819,0.4493018,0.5408609,-0.23631126,0.67063725,16.12522315979004,2.6279208660125732,4.269032001495361,-1.470015048980713,3.829207181930542, -0.8035855889320374
78,4258233486,0.44965515,0.5403478,-0.23606391,0.67090124,16.02031898498535,2.80509352684021,4.133578300476074,-1.2623218297958374,4.76467227935791, -0.8923463821411133
79,4258250153,0.44999292,0.53984946,-0.23573625,0.6711913,15.998305320739746,2.8052778244018555,4.27000617980957,-0.7473785877227783,5.020620822906494, -1.0606859922409058
80,4258266820,0.45016012,0.5395567,-0.235338,0.67145425,16.08721351623535,2.85947322845459,4.190976142883301,0.8030157685279846,3.9152402877807617, -0.9516910314559937
81,4258283487,0.45032248,0.53926456,-0.23495358,0.67171454,16.030366897583008,2.6858811378479004,4.265541076660156,0.7534809112548828,3.856088876724243, -0.8855208158493042
82,4258300154,0.4503617,0.53910303,-0.23454477,0.67196065,16.00009536743164,2.7572295665740967,4.168285369873047,1.703750491142273,3.0788323879241943, -0.6641501188278198
83,4258316821,0.45050025,0.5388914,-0.23425522,0.6721387,16.161109924316406,2.7411417961120605,4.200320243835449,0.5184459090232849,2.85394024848938, -0.8111029267311096
84,4258333488,0.4506242,0.5386315,-0.23394704,0.672371,15.996234893798828,2.6212973594665527,4.2467780113220215,0.5969488024711609,3.315237283706665, -0.5682048797607422
85,4258350155,0.45081636,0.5383319,-0.23373094,0.67255735,16.11741828918457,2.774937868118286,4.2154130935668945,-0.2780514657497406,3.156323194503784, -0.6232209801673889
86,4258366822,0.4510438,0.5379875,-0.2335694,0.6727365,16.05401039123535,2.611680030822754,4.237709999084473,-0.8119609355926514,3.2289226055145264, -0.5344217419624329
87,4258383489,0.45124123,0.5376855,-0.23344639,0.6728882,16.0849552154541,2.831378698348999,4.197122573852539,-0.7916885614395142,2.766690254211426, -0.40907320380210876
88,4258400156,0.4514794,0.5373754,-0.23335886,0.6730067,16.167558670043945,2.735381841659546,4.366137504577637,-1.1859192848205566,2.640765428543091, -0.5552833676338196
89,4258416823,0.45166346,0.5371722,-0.23321357,0.6730956,16.17596435546875,2.8803064823150635,4.282987594604492,-0.43508294224739075,2.1315979957580566, -0.7828906178474426
90,4258433490,0.4518076,0.537031,-0.23298985,0.67318916,16.15301513671875,2.7029528617858887,4.186440944671631,0.27456173300743103,2.0456161499023438, -0.9709262251853943
91,4258450157,0.45188922,0.53693706,-0.23270848,0.67330647,15.973368644714355,2.6779894828796387,4.166265964508057,0.9571146368980408,1.9963115453720093, -0.8981990218162537
92,4258466824,0.4520599,0.5367823,-0.23248354,0.6733929,15.883491516113281,2.7932467460632324,4.08435583114624,0.1290944218635559,2.130342960357666, -1.101179599761963
93,4258483491,0.45218077,0.53665537,-0.23219883,0.6735112,15.766114234924316,2.76550030708313,3.99979829788208,0.726113498210907,2.2242259979248047, -1.0352908372879028
94,4258500158,0.45235154,0.53651136,-0.23199111,0.673583,15.983024597167969,2.878246545791626,3.975632429122925,0.05830090865492821,1.9711984395980835, -1.098541498184204
95,4258516825,0.45250994,0.5363437,-0.23171948,0.67370343,16.093645095825195,2.7597756385803223,4.340963363647461,0.40176722407341003,2.4407174587249756, -1.08623468875885
96,4258533492,0.45263484,0.5362387,-0.23145343,0.6737947,15.92346477508545,2.8323934078216553,4.046947956085205,0.6499543786048889,1.9690468311309814, -1.1013461351394653
97,4258550159,0.45284718,0.5360223,-0.23124562,0.6738955,16.097423553466797,2.7010207176208496,4.207263469696045,-0.27404308319091797,2.4793541431427, -1.0838910341262817
98,4258566826,0.45295745,0.53595304,-0.23093751,0.67398196,16.059091567993164,2.82830810546875,4.186527729034424,1.0025259256362915,1.8946932554244995, -1.2612334489822388
99,4258583493,0.45311934,0.5358435,-0.23067299,0.674051,15.921974182128906,2.701484203338623,4.045397758483887,0.4572315514087677,1.9648975133895874, -1.3298113346099854
100,4258600160,0.45326182,0.5356919,-0.23038001,0.67417574,16.036794662475586,2.7375428676605225,4.110978603363037,0.6178231835365295,2.425144672393799, -1.105725884437561
101,4258616827,0.45337504,0.5355671,-0.23003754,0.6743158,15.759105682373047,2.7663679122924805,3.9915404319763184,1.0621650218963623,2.4686224460601807, -1.1483838558197021
102,4258633494,0.4535642,0.5353295,-0.22978166,0.6744646,15.912875175476074,2.8488950729370117,4.057962417602539,0.0427924245595932,2.87644100189209, -0.9760743975639343
103,4258650161,0.45368886,0.5351251,-0.22949964,0.674639,15.938669204711914,2.7847678661346436,3.984989881515503,0.5440841317176819,2.800588369369507, -0.7449836730957031
104,4258666828,0.4538072,0.5349052,-0.22922455,0.6748272,15.808284759521484,2.583347797393799,3.972759246826172,0.5088411569595337,2.895880699157715, -0.6233747005462646
105,4258683495,0.45393187,0.53468144,-0.22897662,0.67500466,15.841924667358398,2.800384521484375,3.9850499629974365,0.3310249447822571,2.803764820098877, -0.5835341811180115
106,4258700162,0.4540824,0.53442615,-0.22878183,0.6751716,15.755427360534668,2.5971312522888184,3.9856467247009277,-0.12744879722595215,2.790907382965088, -0.49118757247924805
107,4258716829,0.45424667,0.5341605,-0.22865768,0.67531335,15.621853828430176,2.712143898010254,3.8463616371154785,-0.5765546560287476,2.5512490272521973, -0.36074206233024597
108,4258733496,0.4544285,0.53384674,-0.228532,0.67548186,15.578702926635742,2.738649845123291,3.906327962875366,-0.7437288165092468,2.910684823989868, -0.2888856530189514
109,4258750163,0.45459062,0.533518,-0.22834921,0.6756943,15.641790390014648,2.7334084510803223,3.8917839527130127,-0.3846258521080017,3.293825149536133, -0.2462020367383957
110,4258766830,0.45468438,0.5331878,-0.22805627,0.67599064,15.787200927734375,2.583963632583618,4.029509544372559,0.5042180418968201,3.8498647212982178, -0.06850117444992065
111,4258783497,0.45473513,0.53295916,-0.22779353,0.67622554,15.887113571166992,2.813514232635498,4.011817455291748,0.7423393130302429,2.9951558113098145, -0.11238853633403778
112,4258800164,0.45491534,0.53264403,-0.22762178,0.6764102,15.914241790771484,2.6078264713287354,4.0831403732299805,-0.5048390626907349,3.1368963718414307, -0.4019784927368164
113,4258816831,0.45505217,0.53238404,-0.2273881,0.6766015,15.717501640319824,2.493640899658203,4.026049613952637,0.12549583613872528,3.034868001937866, -0.4960155487060547
114,4258833498,0.45515406,0.53220147,-0.22708149,0.6767796,15.632527351379395,2.5685501098632812,3.865805149078369,0.8158606290817261,2.805083751678467, -0.7659733891487122
115,4258850165,0.45531583,0.53201133,-0.22680931,0.6769114,15.574477195739746,2.6721951961517334,3.8823442459106445,0.3388879895210266,2.663355827331543, -1.0544109344482422
116,4258866832,0.45552456,0.53176016,-0.22656243,0.6770511,15.450637817382812,2.6275646686553955,3.884310483932495,-0.13062477111816406,2.9769833087921143, -1.0612109899520874
117,4258883499,0.45569837,0.5314764,-0.22629155,0.67724746,15.459375381469727,2.66074275970459,3.6700475215911865,0.09355679899454117,3.3626465797424316, -0.7589043378829956
118,4258900166,0.45591536,0.53107995,-0.22598095,0.67751604,15.42926025390625,2.6823296546936035,3.8923113346099854,-0.12064862251281738,4.35230827331543, -0.7039394974708557
119,4258916833,0.4561047,0.53067255,-0.22560304,0.6778336,15.383645057678223,2.641247510910034,3.7235751152038574,0.33455953001976013,4.756810188293457, -0.6501143574714661
120,4258933500,0.4563488,0.5301472,-0.22525875,0.6781949,15.354757308959961,2.6149091720581055,3.8563523292541504,-0.3256014585494995,5.453770160675049, -0.46425575017929077
121,4258950167,0.45658103,0.5296615,-0.22502543,0.67849547,15.31938648223877,2.630687952041626,3.7667431831359863,-0.7696617841720581,4.685108184814453, -0.2569594979286194
122,4258966834,0.4567584,0.5292603,-0.22485083,0.6787472,15.35747241973877,2.626901388168335,3.9460983276367188,-0.654865562915802,3.8450491428375244, -0.07126735150814056
123,4258983501,0.45685765,0.52898514,-0.22472377,0.6789368,15.331066131591797,2.6463124752044678,3.8551876544952393,-0.29198476672172546,2.757021188735962, 0.07661398500204086
124,4259000168,0.45690224,0.52880365,-0.22459327,0.6790912,15.672162055969238,2.633519172668457,3.844343900680542,0.16292880475521088,2.116307258605957, 0.06494741141796112
125,4259016835,0.457028,0.5285564,-0.22450025,0.6792298,15.510099411010742,2.3606038093566895,3.996023654937744,-0.538263738155365,2.373727560043335, -0.12662918865680695
126,4259033502,0.4570581,0.52841794,-0.22436804,0.6793611,15.442508697509766,2.4700329303741455,3.8375158309936523,0.3256462514400482,1.812386393547058, -0.016955604776740074
127,4259050169,0.45721534,0.528197,-0.22435732,0.67943066,15.29622745513916,2.4931697845458984,3.7913646697998047,-1.0581245422363281,1.7884770631790161, -0.23798039555549622
128,4259066836,0.45735955,0.5279514,-0.224303,0.67954224,15.150195121765137,2.456707715988159,3.712338924407959,-0.8193502426147461,2.1732568740844727, -0.16620081663131714
129,4259083503,0.45750415,0.5277027,-0.22423957,0.679659,15.133238792419434,2.397775888442993,3.753446578979492,-0.7803677320480347,2.238018751144409, -0.1806335747241974
130,4259100170,0.4575709,0.52755004,-0.22409151,0.6797816,15.233298301696777,2.469558000564575,3.7261812686920166,0.20895478129386902,1.9586604833602905, -0.2551664710044861
131,4259116837,0.45767832,0.5273268,-0.22400282,0.6799115,15.286444664001465,2.45420503616333,3.822481870651245,-0.42693811655044556,2.1936957836151123, -0.09973585605621338
132,4259133504,0.45776504,0.52711076,-0.22387265,0.6800636,15.238615989685059,2.486109495162964,3.7994019985198975,-0.10133665055036545,2.3427746295928955, -0.09529205411672592
133,4259150171,0.45789406,0.5268229,-0.22377509,0.6802319,15.088025093078613,2.460862159729004,3.58304500579834,-0.6084809303283691,2.702876329421997, -0.014151018112897873
134,4259166838,0.45806485,0.5264642,-0.22368881,0.68042314,15.032848358154297,2.2781741619110107,3.7124335765838623,-1.0013797283172607,3.1523661613464355, 0.011314410716295242
135,4259183505,0.45817643,0.5261024,-0.22335131,0.68073857,15.072235107421875,2.443068027496338,3.6193621158599854,0.5697097182273865,4.321342945098877, -0.22867019474506378
136,4259200172,0.4587447,0.52464396,-0.22205257,0.6819053,15.81395149230957,2.557718515396118,4.125048637390137,1.2687454223632812,16.269567489624023, -1.4779053926467896
137,4259216839,0.4603343,0.5210349,-0.21939199,0.68445754,15.36568546295166,2.5525166988372803,4.115338325500488,-0.6981288194656372,37.20807647705078, -3.5273728370666504
138,4259233506,0.46185318,0.5177154,-0.21683666,0.6867638,14.48019790649414,2.1931557655334473,3.8013365268707275,-0.3950263261795044,34.52885055541992, -4.032800674438477
139,4259250173,0.46290663,0.51515424,-0.21479368,0.6886199,14.717231750488281,2.4773924350738525,4.037087440490723,0.5800715088844299,27.030616760253906, -2.5763494968414307
140,4259266840,0.46428648,0.51207507,-0.21293609,0.6905617,14.8596773147583,2.5307366847991943,4.247002601623535,-2.9769861698150635,29.686079025268555, -2.4275155067443848
141,4259283507,0.4654626,0.5095923,-0.21210335,0.69186157,14.310108184814453,2.118337392807007,3.928135395050049,-6.162208557128906,21.031396865844727, -0.7746190428733826
142,4259300174,0.46638018,0.5075336,-0.21139656,0.69297254,15.029606819152832,2.5717504024505615,4.5811920166015625,-4.772457599639893,17.5819034576416, -0.3319537937641144
143,4259316841,0.46789348,0.50478417,-0.21160637,0.693896,14.588558197021484,2.2962844371795654,4.334488391876221,-13.707198143005371,18.151145935058594, 0.43100491166114807
144,4259333508,0.46894762,0.50301576,-0.21208274,0.6943229,14.367011070251465,2.3007590770721436,4.212156295776367,-10.951997756958008,10.23121166229248, 0.519381046295166
145,4259350175,0.46960235,0.5019846,-0.2127197,0.69443184,14.424131393432617,2.147383213043213,4.129223823547363,-8.42459487915039,4.522672176361084, 0.8801998496055603
146,4259366842,0.46995705,0.50150764,-0.21343395,0.6943173,14.433056831359863,2.159557819366455,4.287904262542725,-6.296242713928223,0.4295186400413513, 1.0422258377075195
147,4259383509,0.47008362,0.5014905,-0.21442424,0.69393885,14.612814903259277,2.152493953704834,4.2543559074401855,-5.728691101074219,-3.891261339187622, 1.5525332689285278
148,4259400176,0.46999928,0.5019795,-0.21562046,0.69327134,14.647368431091309,2.0561325550079346,4.379731178283691,-4.774989604949951,-8.267409324645996, 1.5841522216796875
149,4259416843,0.4696504,0.50279,-0.21580082,0.69286424,14.946682929992676,2.25757098197937,4.499095916748047,2.4060380458831787,-6.000697612762451, -0.3018456995487213
150,4259433510,0.4693042,0.5035564,-0.21542752,0.6926583,14.704830169677734,2.1787614822387695,4.272794246673584,5.1899213790893555,-3.2944085597991943, -1.5165537595748901
151,4259450177,0.46907187,0.5039862,-0.21442123,0.69281554,14.812712669372559,2.28208327293396,4.284809589385986,7.261310577392578,1.7847893238067627, -2.5830538272857666
152,4259466844,0.46903327,0.5038417,-0.21253963,0.693526,14.954164505004883,2.4172277450561523,4.3481903076171875,9.721824645996094,9.549476623535156, -3.909050941467285
153,4259483511,0.4694379,0.5029217,-0.21112993,0.6943503,14.928040504455566,2.444735050201416,4.54429817199707,3.600360155105591,12.768224716186523, -2.8865911960601807
154,4259500178,0.4702264,0.50125045,-0.2103534,0.69526035,14.783852577209473,2.3526391983032227,4.365520477294922,-3.0501163005828857,15.16084098815918, -1.1606659889221191
155,4259516845,0.4709042,0.49997312,-0.20996433,0.69583863,14.561434745788574,2.1418097019195557,4.031744480133057,-3.726905107498169,10.722126007080078, -0.9370281100273132
156,4259533512,0.4712161,0.49908486,-0.20896845,0.69656456,14.96329116821289,2.3937935829162598,4.437320232391357,1.906923770904541,10.80929946899414, -1.3587541580200195
157,4259550179,0.4714315,0.49834418,-0.20780037,0.697298,15.003868103027344,2.2120604515075684,4.576746940612793,3.551156997680664,10.54929256439209, -1.674353837966919
158,4259566846,0.47162902,0.49774674,-0.20681587,0.69788367,14.904584884643555,2.516484022140503,4.503505229949951,2.986755132675171,8.736435890197754, -1.6463590860366821
159,4259583513,0.4719764,0.49721208,-0.20656388,0.69810456,14.855607032775879,2.433894395828247,4.4245500564575195,-1.3573836088180542,5.027242183685303, -1.1282010078430176
160,4259600180,0.4721938,0.49696955,-0.20657782,0.6981261,14.914045333862305,2.311387538909912,4.538042068481445,-1.52632474899292,1.9006096124649048, -0.6561973094940186
161,4259616847,0.47234404,0.4970233,-0.20706289,0.6978425,14.928037643432617,2.165004014968872,4.375781059265137,-3.0293166637420654,-2.1851091384887695, -0.13745056092739105
162,4259633514,0.4723634,0.4975592,-0.20824687,0.69709474,15.117691040039062,2.110307216644287,4.4806413650512695,-5.029861927032471,-8.533474922180176, 0.6805487871170044
163,4259650181,0.47217467,0.49884224,-0.21019295,0.69572014,15.05277156829834,2.1449568271636963,4.500985145568848,-6.440038681030273,-17.024921417236328, 1.1746572256088257
164,4259666848,0.4715877,0.50102127,-0.21253814,0.6938376,14.962828636169434,2.216798782348633,4.2972283363342285,-4.8087053298950195,-24.918882369995117, 1.5007859468460083
165,4259683515,0.47059697,0.50382286,-0.21479213,0.6917842,15.06330394744873,2.2636117935180664,4.152508735656738,-1.2149932384490967,-28.764888763427734, 1.6467541456222534
166,4259700182,0.46940425,0.50677466,-0.21692449,0.6897701,15.21052360534668,2.345463991165161,4.100283145904541,0.6061200499534607,-29.239282608032227, 2.090585470199585
167,4259716849,0.46827367,0.50927275,-0.21871632,0.68813115,15.485808372497559,2.379084825515747,4.201883792877197,1.0977306365966797,-24.580944061279297, 2.4964816570281982
168,4259733516,0.46743998,0.511117,-0.22020029,0.686856,15.405691146850586,2.5223186016082764,4.062830448150635,-0.04437405988574028,-18.76982879638672, 2.1674838066101074
169,4259750183,0.46704772,0.51216024,-0.22114441,0.6860421,15.48121452331543,2.3489904403686523,3.9296035766601562,-0.9248877763748169,-10.955798149108887, 0.883234977722168
170,4259766850,0.4666609,0.51285964,-0.2213879,0.68570405,15.264093399047852,2.1292319297790527,3.604973316192627,1.9788951873779297,-5.391217231750488, 0.4395971894264221
171,4259783517,0.46635714,0.51347953,-0.22157778,0.68538535,15.160237312316895,2.0845673084259033,3.6593151092529297,1.7126379013061523,-4.637563705444336, 0.03654291853308678
172,4259800184,0.46607557,0.514182,-0.22187267,0.68495476,15.316441535949707,2.062913179397583,3.7733635902404785,1.2333091497421265,-5.714117050170898, -0.1873825192451477
173,4259816851,0.465659,0.5151053,-0.22222188,0.6844312,15.102261543273926,2.0856688022613525,3.5984249114990234,2.0190045833587646,-7.453976154327393, -0.001280635129660368
174,4259833518,0.4651595,0.5162694,-0.22265923,0.6837509,14.91988754272461,2.116039276123047,3.5961806774139404,2.4289746284484863,-9.540092468261719, -0.17396149039268494
175,4259850185,0.46470296,0.51750785,-0.22310361,0.68297994,14.756414413452148,2.043799638748169,3.2807161808013916,2.342954635620117,-10.160088539123535, -0.7580978870391846
176,4259866852,0.46416166,0.5189844,-0.22366676,0.68204296,14.656676292419434,2.29534912109375,3.532155990600586,2.592909812927246,-12.364934921264648, -0.8372412323951721
177,4259883519,0.4637669,0.52036613,-0.22440544,0.6810153,14.903287887573242,2.420785903930664,3.543544054031372,0.8144777417182922,-12.569887161254883, -1.036162257194519
178,4259900186,0.46333942,0.52165085,-0.22491367,0.6801551,14.883979797363281,2.3996927738189697,3.440481185913086,1.9817641973495483,-10.81957721710205, -1.0120221376419067
179,4259916853,0.4629212,0.52253854,-0.22516763,0.67967427,14.65153694152832,2.1083109378814697,3.1406233310699463,2.2837886810302734,-6.801952362060547, -0.21235491335391998
180,4259933520,0.4624343,0.5233932,-0.22539017,0.6792742,14.434337615966797,1.9968758821487427,2.9187300205230713,2.842888832092285,-6.3224711418151855, 0.3590325117111206
181,4259950187,0.46215004,0.52405334,-0.22562906,0.67887926,14.333450317382812,2.100133180618286,2.9051406383514404,1.5528019666671753,-5.097606182098389, -0.16997869312763214
182,4259966854,0.461885,0.5245777,-0.22584756,0.678582,14.237823486328125,2.025094985961914,2.9553377628326416,0.8710686564445496,-4.094459056854248, 0.02198209799826145
183,4259983521,0.461941,0.52469534,-0.22615388,0.6783507,14.039618492126465,2.122762441635132,2.85485577583313,-1.6726115942001343,-1.696931004524231, -0.23416413366794586
184,4260000188,0.46200126,0.52481425,-0.22636798,0.67814636,14.03619384765625,2.0949599742889404,2.7724413871765137,-0.7894346714019775,-1.227334976196289, -0.34459325671195984
185,4260016855,0.46189907,0.5250314,-0.22648661,0.6780082,14.093602180480957,2.126678466796875,3.067244529724121,0.21320652961730957,-1.4806318283081055, -0.0370231531560421
186,4260033522,0.46180487,0.5253659,-0.2266723,0.6777512,14.238004684448242,2.1270253658294678,3.0988824367523193,1.302885890007019,-2.422346353530884, 0.08842142671346664
187,4260050189,0.46136406,0.5259413,-0.22669463,0.67759764,13.97421932220459,1.901280164718628,3.159480333328247,2.9331603050231934,-3.4543983936309814, 0.5595415234565735
188,4260066856,0.46094832,0.5264493,-0.22669291,0.6774867,13.76012897491455,2.0174217224121094,2.8142874240875244,2.3486528396606445,-2.9700233936309814, 0.4180569350719452
189,4260083523,0.4604908,0.52699244,-0.2268243,0.67733175,13.613380432128906,1.814481496810913,2.816722869873047,2.533205270767212,-3.6591975688934326, 1.1401559114456177
190,4260100190,0.46012202,0.5274458,-0.22709513,0.6771385,13.486845970153809,1.8184159994125366,2.7033438682556152,1.2686034440994263,-3.676344156265259, 1.2644283771514893
191,4260116857,0.45949116,0.5280882,-0.2274543,0.6769456,13.38654899597168,1.9311716556549072,2.7183825969696045,2.1123883724212646,-5.302175045013428, 2.3940768241882324
192,4260133524,0.45889702,0.52875966,-0.22800633,0.67663884,13.317421913146973,2.016756057739258,2.806256055831909,1.0890074968338013,-6.384876728057861, 2.55533504486084
193,4260150191,0.45811087,0.529566,-0.22837687,0.67641586,13.16048812866211,1.8628008365631104,2.6444554328918457,3.096799850463867,-6.456130504608154, 2.807670831680298
194,4260166858,0.4572945,0.53046256,-0.22874306,0.67614204,13.015368461608887,1.8948992490768433,2.6914753913879395,3.660036325454712,-7.052048206329346, 2.710355281829834
195,4260183525,0.45669076,0.5312923,-0.22932413,0.6757017,12.955594062805176,1.8804851770401,2.5792932510375977,2.1660664081573486,-7.542237281799316, 2.3719029426574707
196,4260200192,0.4562571,0.5319585,-0.2299658,0.675252,13.02263355255127,1.7416576147079468,2.7166647911071777,0.8331491947174072,-6.7162017822265625, 2.0698330402374268
197,4260216859,0.45583388,0.5324664,-0.23047146,0.67496514,12.765640258789062,1.6057345867156982,2.4843602180480957,0.4894651770591736,-5.081726551055908, 2.019235134124756
198,4260233526,0.4555288,0.5328012,-0.23094212,0.6747461,12.403286933898926,1.6461542844772339,2.327110767364502,-0.12224940955638885,-3.7115488052368164, 1.8598597049713135
199,4260250193,0.45533004,0.53286487,-0.23124635,0.67472565,12.481656074523926,1.710843801498413,2.4759104251861572,-0.3059180974960327,-1.0387613773345947, 1.7951878309249878
200,4260266860,0.45558137,0.531932,-0.23111686,0.67533624,12.7681884765625,1.8040082454681396,2.8661341667175293,-2.3318960666656494,7.920478820800781, 1.5793752670288086
201,4260283527,0.45688182,0.52876794,-0.22971144,0.6774188,12.781567573547363,1.9193400144577026,2.9619762897491455,-4.782174587249756,29.346065521240234, 0.23757772147655487
202,4260300194,0.45938447,0.5225673,-0.22599153,0.6817752,13.361258506774902,2.1298580169677734,3.8224196434020996,-4.147185802459717,60.955772399902344, -1.7702065706253052
203,4260316861,0.46193835,0.5165919,-0.22491159,0.68495315,10.384746551513672,1.2423771619796753,2.0824387073516846,-17.870718002319336,47.38759231567383, 3.3914406299591064
204,4260333528,0.46228817,0.51452535,-0.22418527,0.686509,10.417998313903809,1.4785879850387573,1.9168394804000854,-1.8993890285491943,18.67803955078125, 3.788360118865967
205,4260350195,0.46215296,0.5138635,-0.22388184,0.6871943,10.666546821594238,1.3308743238449097,2.2064571380615234,0.9112424254417419,6.885970115661621, 2.629560708999634
206,4260366862,0.46182325,0.5136406,-0.22313443,0.68782544,11.350974082946777,1.4879132509231567,2.982952833175659,4.99618673324585,5.74278450012207, 1.1239558458328247
207,4260383529,0.46141338,0.51359284,-0.22261512,0.68830425,11.230353355407715,1.3741029500961304,2.961348295211792,4.52962589263916,3.5312297344207764, 1.5546973943710327
208,4260400196,0.4609112,0.5137245,-0.22263068,0.6885375,10.911709785461426,1.2791845798492432,2.7765634059906006,2.5186567306518555,-0.0199907124042511, 2.8213093280792236
209,4260416863,0.46004987,0.51421297,-0.22240359,0.688822,10.69011402130127,1.1918224096298218,2.684018135070801,6.147772312164307,-1.3046727180480957, 3.2749745845794678
210,4260433530,0.45903644,0.5148724,-0.22203371,0.68912494,10.517045021057129,1.2639005184173584,2.686530590057373,7.9322991371154785,-1.8242647647857666, 3.2805323600769043
211,4260450197,0.458041,0.5155102,-0.22201471,0.68931645,10.218071937561035,1.4034940004348755,2.6788949966430664,5.968637943267822,-3.193392276763916, 4.113176345825195
212,4260466864,0.4573086,0.5159106,-0.22270375,0.68928105,9.833930015563965,1.3528597354888916,2.4878084659576416,0.5863707661628723,-4.697907447814941, 5.02457857131958
213,4260483531,0.4564427,0.51635146,-0.22323737,0.68935215,10.055333137512207,1.2528308629989624,2.5161900520324707,2.0864555835723877,-4.225327014923096, 5.378788471221924
214,4260500198,0.45539853,0.5169349,-0.22353064,0.68951046,10.236634254455566,1.080080270767212,2.657871723175049,4.4375224113464355,-4.105921268463135, 5.422215938568115
215,4260516865,0.45420957,0.5176828,-0.22345881,0.6897568,10.327276229858398,1.0587080717086792,2.702965021133423,7.334549903869629,-3.6487088203430176, 4.825580596923828
216,4260533532,0.45299572,0.51856124,-0.22321466,0.68997425,9.887418746948242,0.8313676118850708,2.583334445953369,8.610296249389648,-3.8664822578430176, 4.032330513000488
217,4260550199,0.45222226,0.5192745,-0.22375003,0.6897718,9.271746635437012,1.0484764575958252,2.440763473510742,2.1864349842071533,-6.329193592071533, 3.65627121925354
218,4260566866,0.45184126,0.51989836,-0.22456875,0.68928516,8.768993377685547,0.9624719023704529,2.217676877975464,-1.277958631515503,-7.197771072387695, 2.055976390838623
219,4260583533,0.45155543,0.5206411,-0.22504956,0.6887549,9.34814167022705,1.0944404602050781,2.4742424488067627,0.2879956066608429,-6.717404842376709, 0.0768573135137558
220,4260600200,0.45128453,0.521426,-0.22564599,0.68814343,9.898632049560547,0.9249321818351746,2.5718111991882324,-0.30627670884132385,-7.542595863342285, 0.10122780501842499
221,4260616867,0.45087102,0.5222422,-0.22636123,0.6875602,9.718132972717285,0.8000618815422058,2.3180556297302246,-0.2118683159351349,-8.17418098449707, 1.2328356504440308
222,4260633534,0.45011312,0.5233125,-0.22664823,0.6871484,9.13455581665039,0.8999726176261902,2.2921791076660156,4.104045867919922,-7.960275650024414, 1.4467657804489136
223,4260650201,0.4490143,0.5248176,-0.22607057,0.6869097,8.462581634521484,1.160972237586975,2.1632308959960938,11.03410530090332,-7.242698669433594, -0.20071403682231903
224,4260666868,0.44829616,0.5260749,-0.22625196,0.6863571,8.238282203674316,1.1350468397140503,1.8199028968811035,4.814593315124512,-8.956865310668945, 0.15762700140476227
225,4260683535,0.44807905,0.5267629,-0.22792204,0.68541795,8.283262252807617,1.3163849115371704,2.0123705863952637,-6.394471645355225,-11.472628593444824, 2.8707187175750732
226,4260700202,0.44807154,0.5269219,-0.2307528,0.6843526,8.033451080322266,1.7067848443984985,2.048818826675415,-14.434773445129395,-12.67739486694336, 6.543522357940674
227,4260716869,0.44787002,0.5267175,-0.23377162,0.68361694,7.902557373046875,1.815473198890686,1.969940185546875,-15.214696884155273,-10.65922737121582, 9.753670692443848
228,4260733536,0.44792554,0.5257746,-0.23732913,0.68308043,8.170037269592285,1.6577965021133423,1.911105990409851,-20.67519187927246,-7.718249797821045, 12.308035850524902
229,4260750203,0.44702533,0.52504665,-0.23970391,0.6834007,7.97426176071167,1.3455853462219238,1.9300575256347656,-9.599624633789062,-3.540332078933716, 14.83205509185791
230,4260766870,0.4458622,0.5238754,-0.24221356,0.6841742,8.350902557373047,0.6694997549057007,1.6990307569503784,-9.874300003051758,-0.6617178916931152, 18.69832992553711
231,4260783537,0.44455153,0.52238786,-0.24499206,0.6851743,8.017428398132324,0.7102534174919128,1.5753417015075684,-11.204527854919434,0.5847711563110352, 21.568952560424805
232,4260800204,0.44337496,0.5204972,-0.24764737,0.6864199,7.583632469177246,0.4011334776878357,1.3418536186218262,-11.917628288269043,3.9830589294433594, 21.92074966430664
233,4260816871,0.44186407,0.51858413,-0.24909328,0.6883164,7.444295406341553,0.695091962814331,1.5766915082931519,-3.972076416015625,9.552179336547852, 21.18069839477539
234,4260833538,0.44015372,0.5167104,-0.24979039,0.69056493,7.358407974243164,0.2439410388469696,1.5520448684692383,1.008610725402832,12.563531875610352, 20.45616340637207
235,4260850205,0.43845746,0.51477563,-0.25044352,0.6928486,7.312213897705078,0.2650006115436554,1.505706548690796,1.050462245941162,13.144969940185547, 20.430891036987305
236,4260866872,0.43704623,0.51257944,-0.25201756,0.6947951,7.203400611877441,0.12239038944244385,1.4799898862838745,-5.7088141441345215,10.924101829528809, 21.755685806274414
237,4260883539,0.43591663,0.5102435,-0.25505638,0.69611394,7.10880184173584,0.25804418325424194,1.7732080221176147,-15.198866844177246,5.479591369628906, 23.917129516601562
238,4260900206,0.43476483,0.508192,-0.25918877,0.69680834,6.752283096313477,0.11014296859502792,1.8598963022232056,-20.59148406982422,-1.3847814798355103, 25.48527717590332
239,4260916873,0.43260062,0.5072577,-0.2629831,0.6974139,6.82761287689209,0.49469563364982605,2.187823534011841,-12.246315002441406,-7.843221664428711, 26.89155387878418
240,4260933540,0.4303418,0.5067008,-0.26841167,0.697148,6.855595588684082,0.7189469337463379,2.491392135620117,-20.204103469848633,-17.734037399291992, 29.778432846069336
241,4260950207,0.42756867,0.50683594,-0.2747717,0.696278,7.3597564697265625,1.107796311378479,3.013345956802368,-21.943944931030273,-26.881010055541992, 32.4412841796875
242,4260966874,0.42514607,0.5069681,-0.282253,0.69467074,8.224552154541016,2.0826337337493896,3.8062891960144043,-29.940919876098633,-32.101348876953125, 32.539405822753906
243,4260983541,0.42449018,0.50633216,-0.29157567,0.69167894,8.242814064025879,4.3421149253845215,4.402585029602051,-49.84099578857422,-35.261531829833984, 28.02914810180664
244,4261000208,0.42895436,0.4996926,-0.30325434,0.68872535,10.63337516784668,7.199153423309326,7.245855808258057,-96.35755157470703,-3.2610323429107666, 24.17545509338379
245,4261016875,0.43337706,0.49349692,-0.30349734,0.6903149,5.827250957489014,8.687898635864258,6.750406265258789,-31.356531143188477,43.740325927734375, -2.2059805393218994
246,4261033542,0.4305669,0.49553052,-0.2973385,0.69329035,3.630563735961914,3.7237305641174316,1.820965051651001,50.882728576660156,13.198128700256348, -2.357659101486206
247,4261050209,0.42054823,0.5039228,-0.28431183,0.6988332,3.345792293548584,2.5252349376678467,-1.856062650680542,132.22128295898438,-2.7711703777313232, 3.311593532562256
248,4261066876,0.4068491,0.51827824,-0.26435557,0.7042569,2.862104654312134,9.217708587646484,-5.250433921813965,195.27345275878906,-18.85260009765625, -14.962495803833008
249,4261083543,0.41749734,0.52678514,-0.26230595,0.69237936,3.2986669540405273,29.183595657348633,2.781714916229248,-26.12967300415039,-57.784854888916016, -106.5229263305664
250,4261100210,0.4467775,0.5265012,-0.2741702,0.66934085,1.1239761114120483,10.099652290344238,3.98600172996521,-205.5618133544922,-62.88227462768555, -160.00949096679688
251,4261116877,0.47647262,0.5218395,-0.28084832,0.6494472,1.388315200805664,-2.1931073665618896,9.351213455200195,-190.75743103027344,-14.937993049621582, -162.469970703125
252,4261133544,0.49422804,0.5195919,-0.27040023,0.642376,0.5837920308113098,-11.179152488708496,12.375378608703613,-38.64145278930664,52.917659759521484, -133.4186553955078
253,4261150211,0.50288963,0.51795524,-0.24696405,0.6464003,0.09290045499801636,-7.4152512550354,12.429359436035156,74.14228820800781,116.65252685546875, -103.57913970947266
254,4261166878,0.5151119,0.50736356,-0.22620419,0.65274334,2.0116987228393555,-7.432114601135254,9.700862884521484,22.722732543945312,161.09213256835938, -86.9652099609375
255,4261183545,0.5301545,0.4892421,-0.21057558,0.6597245,5.895488262176514,-7.1020379066467285,3.6960604190826416,-35.64312744140625,183.0426788330078, -68.08695983886719
256,4261200212,0.5468677,0.46609715,-0.20471416,0.6646663,9.527844429016113,-7.9586615562438965,-2.7100327014923096,-106.6932373046875,165.7864990234375, -43.337738037109375
257,4261216879,0.5595505,0.44705835,-0.2036752,0.6675018,10.832854270935059,-6.372829914093018,-9.766877174377441,-103.2142562866211,116.77079772949219, -23.586994171142578
258,4261233546,0.5651853,0.43785423,-0.20202856,0.6693535,10.179635047912598,-3.484618663787842,-13.71318244934082,-42.261199951171875,61.679718017578125, -11.009032249450684
259,4261250213,0.5658004,0.43865678,-0.19880286,0.66927403,7.808174133300781,-1.6506808996200562,-14.884099960327148,16.259796142578125,9.700603485107422, -14.282013893127441
260,4261266880,0.5634253,0.44699544,-0.19602321,0.66657484,6.1233320236206055,0.15611106157302856,-14.984227180480957,48.84285354614258,-38.00836181640625, -19.804710388183594
261,4261283547,0.5623318,0.45572135,-0.20210145,0.6597395,3.7930662631988525,1.2739698886871338,-10.013205528259277,0.05926291644573212,-84.43563842773438, -15.0573148727417
262,4261300214,0.56234014,0.46458486,-0.2131319,0.65000725,2.610750675201416,0.6533880233764648,-7.018465518951416,-29.50503158569336,-111.34209442138672, -15.901209831237793
263,4261316881,0.5632892,0.4732443,-0.22554462,0.6386508,1.4976452589035034,-0.23863445222377777,-5.344979286193848,-41.96577072143555,-119.30937957763672, -21.63372802734375
264,4261333548,0.56203115,0.4850982,-0.23917346,0.6257772,5.985750675201416,-0.6826982498168945,-32.16956329345703,-30.179136276245117,-146.2215118408203, -18.793102264404297
265,4261350215,0.5527027,0.50964105,-0.25295103,0.60893494,13.845709800720215,-3.559852123260498,-5.763878345489502,38.23542785644531,-226.60415649414062, -19.83646583557129
266,4261366882,0.54670525,0.529097,-0.2677012,0.5911901,-0.8705756068229675,-3.786699056625366,11.706254005432129,1.5305973291397095,-205.97645568847656, -25.22826385498047
267,4261383549,0.54604733,0.5444987,-0.28426564,0.56968987,3.4053397178649902,-0.4745192229747772,-0.3431152403354645,-47.29132080078125,-200.74696350097656, -47.059425354003906
268,4261400216,0.5485749,0.5542948,-0.30361012,0.5473972,12.505317687988281,-0.1924828737974167,4.83464241027832,-92.7745132446289,-185.974853515625, -41.0890998840332
269,4261416883,0.5529548,0.5591618,-0.32019478,0.52825624,9.546412467956543,0.94953453540802,2.6918857097625732,-101.44353485107422,-141.26116943359375, -36.43353271484375
270,4261433550,0.5565932,0.5630463,-0.33168465,0.5129994,6.380993366241455,2.1128766536712646,2.787736654281616,-75.2794189453125,-105.10576629638672, -36.36369705200195
271,4261450217,0.5565845,0.5693029,-0.33752212,0.5021822,5.360530853271484,2.879237413406372,1.0726937055587769,-22.01704216003418,-83.129150390625, -33.71334457397461
272,4261466884,0.55490047,0.5760769,-0.33760145,0.49623215,4.686272144317627,2.965724468231201,0.021734043955802917,17.690107345581055,-47.85544967651367, -32.94832229614258
273,4261483551,0.5518413,0.58275014,-0.33404553,0.4942541,3.655907392501831,2.2909586429595947,-0.13996700942516327,44.37843322753906,-21.226951599121094, -27.191730499267578
274,4261500218,0.54659486,0.5897592,-0.33062384,0.49407095,0.8371437788009644,2.1934988498687744,-2.6941003799438477,58.10633850097656,-20.85320472717285, -13.140829086303711
275,4261516885,0.5412271,0.59533435,-0.32951546,0.4940345,-0.36802050471305847,3.1655044555664062,-3.126116991043091,45.68623352050781,-24.40926170349121, 0.5395430326461792
276,4261533552,0.5360763,0.6000103,-0.32892048,0.49438992,0.3284895122051239,2.4716873168945312,-2.6359355449676514,40.60249328613281,-21.213672637939453, 5.536335468292236
277,4261550219,0.5300241,0.60532564,-0.3280989,0.49498138,2.8418195247650146,1.6303621530532837,-0.83641117811203,48.0042724609375,-23.687482833862305, 7.175970077514648
278,4261566886,0.5241999,0.61074173,-0.32846257,0.4942886,3.54203200340271,0.7918043732643127,-0.5190044045448303,40.54528045654297,-33.323692321777344, 6.438678741455078
279,4261583553,0.5196696,0.61522186,-0.33161747,0.49140155,3.1413161754608154,-0.17372457683086395,0.5753904581069946,17.35213851928711,-46.6458740234375, 7.9490180015563965
280,4261600220,0.5141184,0.6206606,-0.33416432,0.488669,2.9167959690093994,-0.44965994358062744,1.9431456327438354,27.569000244140625,-49.57306671142578, 7.149720191955566
281,4261616887,0.50749046,0.6269269,-0.33573118,0.48651907,2.379519462585449,-0.9469587206840515,0.5276075005531311,39.79637145996094,-49.10525131225586, 6.696273326873779
282,4261633554,0.50012326,0.633967,-0.33733028,0.48391235,2.818429946899414,-1.0347260236740112,0.287485808134079,44.57048416137695,-55.63815689086914, 5.870927810668945
283,4261650221,0.4922298,0.6415,-0.33923525,0.4807359,3.4278805255889893,-1.3364143371582031,1.0460261106491089,46.26055145263672,-62.170772552490234, 5.7949137687683105
284,4261666888,0.48429257,0.64901114,-0.3428696,0.47611532,2.9865312576293945,-0.5243944525718689,1.6202392578125,37.336769104003906,-74.57695770263672, 8.665521621704102
285,4261683555,0.4756726,0.65728223,-0.3474643,0.47008985,3.0825977325439453,-0.8592777252197266,2.718932628631592,36.50093460083008,-88.300537109375, 8.695786476135254
286,4261700222,0.4645817,0.66731584,-0.35150158,0.4640044,3.291926383972168,-0.7356655597686768,3.4108479022979736,55.13615798950195,-98.53519439697266, 9.726972579956055
287,4261716889,0.45188957,0.67832696,-0.35560244,0.45740065,4.363953113555908,-1.1976693868637085,4.3558502197265625,64.19361877441406,-108.30268859863281, 11.086127281188965
288,4261733556,0.43631846,0.6908684,-0.35859168,0.45137483,4.135540008544922,-1.2537744045257568,4.9740118980407715,87.33106231689453,-114.2271728515625, 12.965210914611816
289,4261750223,0.41865256,0.7041625,-0.3613951,0.44528523,4.268191337585449,-0.3077898919582367,6.156695365905762,99.99932861328125,-121.70122528076172, 16.50261116027832
290,4261766890,0.39796844,0.71887493,-0.36472028,0.43797165,4.596224308013916,0.6894425749778748,5.711671829223633,114.10433197021484,-141.22581481933594, 21.228620529174805
291,4261783557,0.37487003,0.735591,-0.36946642,0.42646614,7.8916215896606445,3.5154645442962646,6.356635570526123,116.77444458007812,-178.15115356445312, 19.069442749023438
292,4261800224,0.3531992,0.75066966,-0.37468222,0.4139549,8.59537410736084,1.2993980646133423,13.782733917236328,101.46678161621094,-176.27565002441406, 18.929216384887695
293,4261816891,0.3330306,0.7632759,-0.37817165,0.40433496,11.185285568237305,5.71916389465332,14.884273529052734,100.16160583496094,-146.7191619873047, 19.170921325683594
294,4261833558,0.31725472,0.77354586,-0.38721505,0.3886398,13.482708930969238,9.847521781921387,9.663582801818848,40.670841217041016,-173.90673828125, 28.408946990966797
295,4261850225,0.30750504,0.7805917,-0.3996366,0.3693341,8.696405410766602,2.957728624343872,4.628194808959961,-16.8861083984375,-176.17820739746094, 31.173046112060547
296,4261866892,0.29823834,0.78741986,-0.40573043,0.3555374,8.633279800415039,9.924784660339355,16.439773559570312,11.294902801513672,-131.47308349609375, 8.240976333618164
297,4261883559,0.2952659,0.79136235,-0.4105819,0.34349132,3.6446943283081055,5.893650054931641,15.080842971801758,-20.538740158081055,-95.26373291015625, -2.0482006072998047
298,4261900226,0.29637262,0.7925105,-0.4124453,0.3376081,4.310988426208496,5.411231994628906,16.841184616088867,-23.803722381591797,-37.826995849609375, -7.452952861785889
299,4261916893,0.29916134,0.7910894,-0.4104749,0.34086713,0.835723340511322,1.229306697845459,16.68504524230957,-3.2343826293945312,30.220455169677734, -6.251133441925049
300,4261933560,0.30479187,0.78623635,-0.40530184,0.35307878,-0.419827401638031,-0.08527447283267975,17.26919937133789,7.070250988006592,101.33975219726562, -2.2005436420440674
301,4261950227,0.31470186,0.7769846,-0.3983437,0.3722635,-1.4343438148498535,-2.5596673488616943,16.680234909057617,-1.5043658018112183,165.1837921142578, 4.65511417388916
302,4261966894,0.32970306,0.7635395,-0.38908723,0.3961248,-2.095053195953369,-1.4441545009613037,14.88620376586914,-19.132389068603516,219.67483520507812, 0.9157276153564453
303,4261983561,0.3530566,0.74422616,-0.37964746,0.4211252,-1.3827521800994873,-0.8522709608078003,11.969240188598633,-72.7822494506836,264.32684326171875, -4.544641971588135
304,4262000228,0.37840423,0.72083944,-0.36769158,0.4494483,-0.028338223695755005,-1.1272289752960205,7.931193828582764,-76.95606994628906,304.4349060058594, -4.535819053649902
305,4262016895,0.40256667,0.6946889,-0.35190898,0.48115236,1.5157079696655273,0.39271974563598633,4.774553298950195,-57.93990707397461,336.7823181152344, -4.099950313568115
306,4262033562,0.4286298,0.66466725,-0.33477166,0.5122713,2.6385738849639893,1.5886545181274414,2.062621593475342,-74.73236846923828,355.2963562011719, -9.114829063415527
307,4262050229,0.45521164,0.63115644,-0.31609476,0.54268616,4.798319339752197,1.390194296836853,-0.3608388602733612,-83.64447784423828,370.3172607421875, -12.009895324707031
308,4262066896,0.48032746,0.59465736,-0.29600865,0.572754,7.055008888244629,0.46442532539367676,-2.235635995864868,-82.21172332763672,381.45501708984375, -7.254080295562744
309,4262083563,0.50310355,0.55573255,-0.27526993,0.60189277,9.457876205444336,0.38037726283073425,-3.686826705932617,-80.06634521484375,384.9120178222656, 1.1131774187088013
310,4262100230,0.523496,0.5154031,-0.25449806,0.6289217,11.614668846130371,1.2008905410766602,-5.097683429718018,-79.75626373291016,378.6162414550781, 6.1505961418151855
311,4262116897,0.54051507,0.47629893,-0.23390697,0.65289396,12.209370613098145,1.7622594833374023,-7.832141876220703,-69.60358428955078,356.3128662109375, 8.184148788452148
312,4262133564,0.55378395,0.44033992,-0.21360785,0.6736437,12.561538696289062,3.8211684226989746,-10.660338401794434,-52.21756362915039,324.97430419921875, 8.913124084472656
313,4262150231,0.5647154,0.40747744,-0.19579482,0.69045144,11.044976234436035,2.7532432079315186,-12.517608642578125,-50.79933166503906,286.31048583984375, 7.723808288574219
314,4262166898,0.5739567,0.37889302,-0.18248716,0.7026466,10.133638381958008,2.9427058696746826,-15.87036418914795,-57.17490005493164,233.81704711914062, 4.6970930099487305
315,4262183565,0.58214974,0.3557013,-0.17356871,0.710248,8.65293025970459,2.9820311069488525,-20.311912536621094,-60.26728057861328,177.70083618164062, -3.695167303085327
316,4262200232,0.5881851,0.34204057,-0.16890433,0.71310467,5.861654281616211,3.5994327068328857,-25.256275177001953,-43.42502975463867,100.52156829833984, -13.101418495178223
317,4262216899,0.5916731,0.34050587,-0.17075701,0.71050763,3.8950135707855225,2.7982373237609863,-24.968936920166016,-26.859037399291992,-0.49311062693595886, -21.37450408935547
318,4262233566,0.5934221,0.3489277,-0.17934492,0.70280516,4.7037248611450195,3.59891676902771,-20.04741859436035,-21.331130981445312,-90.03865051269531, -29.52020835876465
319,4262250233,0.59554267,0.36182126,-0.19413124,0.6904546,6.20793342590332,4.247203826904297,-13.642343521118164,-39.79895782470703,-147.2619171142578, -40.84310531616211
320,4262266900,0.5998843,0.3735942,-0.21446012,0.6742205,6.463525295257568,3.3594555854797363,-9.514073371887207,-81.5262451171875,-171.0891876220703, -51.884735107421875
321,4262283567,0.60424894,0.38481688,-0.2339929,0.6573025,5.076593399047852,1.403968095779419,-6.436432361602783,-81.2414779663086,-166.82254028320312, -55.92546081542969
322,4262300234,0.6072678,0.39598408,-0.24898863,0.64220506,3.0311644077301025,1.1398283243179321,-5.052633285522461,-54.48862838745117,-145.00772094726562, -54.12665557861328
323,4262316901,0.60946465,0.40542054,-0.25978822,0.6298391,1.2403987646102905,1.1243191957473755,-4.730859279632568,-36.26694107055664,-113.81539154052734, -47.50389099121094
324,4262333568,0.6120354,0.4114921,-0.26974285,0.61913323,1.4835065603256226,-0.17354506254196167,-6.791289806365967,-44.78813934326172,-90.44271087646484, -38.476585388183594
325,4262350235,0.6152611,0.412822,-0.2833904,0.6088692,7.519543647766113,-7.0001115798950195,4.563186168670654,-81.47943115234375,-83.31221008300781, -20.146020889282227
326,4262366902,0.6161567,0.4183771,-0.29208133,0.6000001,9.881569862365723,-7.599934101104736,7.129858016967773,-33.35431671142578,-80.77536010742188, -26.98202133178711
327,4262383569,0.6161663,0.42549878,-0.29966035,0.5911801,6.706492900848389,-6.513643264770508,-7.208456516265869,-19.320112228393555,-84.3494873046875, -29.699359893798828
328,4262400236,0.61157686,0.43729958,-0.30255747,0.58583426,1.229934573173523,-5.183973789215088,0.4145652651786804,40.21168899536133,-82.69821166992188, -19.83156967163086
329,4262416903,0.6035718,0.45096353,-0.30047572,0.5848483,-1.6017792224884033,2.3599812984466553,-2.325212001800537,87.52377319335938,-63.39289855957031, -6.762134075164795
330,4262433570,0.59517443,0.46302468,-0.2978782,0.5853582,-0.8228594660758972,7.615128040313721,0.19365264475345612,87.23086547851562,-51.05454635620117, 2.761385440826416
331,4262450237,0.587464,0.47246674,-0.29730955,0.58589125,-1.2852128744125366,6.7515974044799805,0.6042620539665222,66.15015411376953,-47.45502853393555, 12.082318305969238
332,4262466904,0.58189476,0.47909394,-0.30026934,0.5845564,-1.0706453323364258,2.808184862136841,0.2555612027645111,29.760244369506836,-52.191654205322266, 13.287564277648926
333,4262483571,0.5783167,0.48330647,-0.30656943,0.5813604,-0.680476725101471,-1.3997864723205566,1.2818169593811035,-3.711071014404297,-57.99299240112305, 13.8939847946167
334,4262500238,0.5733488,0.489981,-0.31095168,0.57835877,0.6664749979972839,-1.7982900142669678,-1.7553213834762573,18.833518981933594,-62.63853073120117, 8.610207557678223
335,4262516905,0.5691557,0.49729976,-0.31514648,0.57396656,0.7733854651451111,-0.5618273615837097,-0.8703043460845947,16.573471069335938,-67.53328704833984, -2.030865430831909
336,4262533572,0.5658515,0.50412583,-0.31986457,0.56864417,-0.9061164855957031,0.8049405813217163,1.1948491334915161,7.5517191886901855,-68.95673370361328, -6.35283899307251
337,4262550239,0.5636043,0.5097101,-0.3260516,0.562349,-0.5863144993782043,2.1654438972473145,0.7069888710975647,-8.799980163574219,-70.99677276611328, -6.423832893371582
338,4262566906,0.56047374,0.5154518,-0.33215553,0.55664307,-0.05318297818303108,2.0778191089630127,1.3377126455307007,-3.438476800918579,-71.30683135986328, -1.3115217685699463
339,4262583573,0.55527055,0.5230219,-0.33611503,0.5524036,0.05326724052429199,1.4077180624008179,1.4123774766921997,22.527376174926758,-69.6889877319336, 0.5401628017425537
340,4262600240,0.5483926,0.53310454,-0.33826473,0.54830873,-0.24347829818725586,0.48617225885391235,1.4597654342651367,45.375240325927734,-75.77835083007812, -4.846889019012451
341,4262616907,0.5409261,0.5452135,-0.3397634,0.54286474,-0.16847023367881775,1.6726354360580444,1.5839391946792603,54.51790237426758,-87.37808227539062, -14.82567024230957
342,4262633574,0.53396744,0.55669874,-0.342338,0.536442,-0.02856452763080597,-0.7082886695861816,2.8812265396118164,44.01401901245117,-91.62950897216797, -14.848440170288086
343,4262650241,0.525699,0.56881285,-0.34546813,0.5298532,1.5104126930236816,-1.912027359008789,0.3392026424407959,48.937965393066406,-99.83540344238281, -10.022780418395996
344,4262666908,0.5172775,0.5809875,-0.34967136,0.5221183,2.093899965286255,-1.800226092338562,2.181478500366211,43.1469612121582,-108.8252944946289, -9.63698959350586
345,4262683575,0.5096162,0.59249604,-0.3556502,0.5125943,2.4787545204162598,-2.8474626541137695,1.982848882675171,27.1008358001709,-118.16036224365234, -10.109987258911133
346,4262700242,0.50067455,0.6046523,-0.36241934,0.50236726,3.045844554901123,-2.8626596927642822,2.1354904174804688,30.101783752441406,-129.29501342773438, -6.527828693389893
347,4262716909,0.49054644,0.6178679,-0.36953783,0.49096376,2.9366726875305176,-1.4103525876998901,3.222499370574951,34.564823150634766,-142.0931854248047, -7.766920566558838
348,4262733576,0.47822356,0.63306934,-0.37622637,0.47851798,3.388383626937866,-1.3879975080490112,2.51598858833313,49.4090690612793,-157.4705810546875, -10.798995971679688
349,4262750243,0.46263725,0.650388,-0.38165766,0.46615437,4.041245460510254,-1.7811579704284668,5.1797990798950195,74.94017028808594,-168.48590087890625, -10.794464111328125
350,4262766910,0.4437954,0.66980475,-0.38500327,0.45407027,5.116544246673584,-0.7552148699760437,6.93985652923584,103.6149673461914,-176.05055236816406, -14.366942405700684
351,4262783577,0.42286727,0.69008803,-0.38685063,0.4419372,5.489957809448242,-0.7038267254829407,8.968655586242676,120.45494842529297,-180.164306640625, -17.229406356811523
352,4262800244,0.39873457,0.71113217,-0.387468,0.43031445,6.094456195831299,-0.5575568675994873,9.486785888671875,143.01382446289062,-185.29351806640625, -13.887526512145996
353,4262816911,0.37224382,0.7324723,-0.3886384,0.41698834,6.057521343231201,1.2891409397125244,6.4201273918151855,149.23081970214844,-202.60183715820312, -9.672466278076172
354,4262833578,0.3509287,0.7496999,-0.3926702,0.40076104,7.398989677429199,4.859137535095215,12.743939399719238,96.71216583251953,-199.10289001464844, -6.49495267868042
355,4262850245,0.33028167,0.76245475,-0.3945682,0.3922919,7.366644382476807,4.285528182983398,14.232732772827148,109.3990707397461,-140.2008056640625, 11.597429275512695
356,4262866912,0.31182715,0.77470964,-0.40019104,0.3774072,4.721798896789551,8.740647315979004,8.790128707885742,69.44964599609375,-175.3969268798828, 12.096616744995117
357,4262883579,0.3014986,0.7830562,-0.4077807,0.36005118,6.9566569328308105,1.9854835271835327,8.327120780944824,6.031616687774658,-160.47071838378906, 7.132640361785889
358,4262900246,0.2846458,0.7915207,-0.40783215,0.3551687,2.7360122203826904,5.504324436187744,17.34670639038086,95.08452606201172,-96.4852066040039, 8.2445650100708
359,4262916913,0.27660087,0.7963816,-0.40660343,0.35205427,-0.21947461366653442,3.890927791595459,15.338935852050781,48.32936096191406,-51.21208190917969, -6.513795375823975
360,4262933580,0.27542284,0.7987004,-0.40239564,0.35255882,-1.0669986009597778,6.6141510009765625,15.329516410827637,23.345258712768555,-0.6139645576477051, -25.35895538330078
361,4262950247,0.28256953,0.7970487,-0.39767382,0.3559828,-2.788698434829712,3.7644131183624268,13.53164291381836,-20.40442657470703,48.84493637084961, -31.69770622253418
362,4262966914,0.29357255,0.7923479,-0.3909438,0.36491498,-2.7878828048706055,1.931020736694336,12.25369644165039,-27.398502349853516,100.82439422607422, -33.028011322021484
363,4262983581,0.30728698,0.78438157,-0.382981,0.3790065,-2.8427653312683105,-0.36818212270736694,11.498077392578125,-31.75787353515625,146.83030700683594, -27.320171356201172
364,4263000248,0.32297388,0.77336097,-0.37392238,0.39721918,-2.2639951705932617,-1.0099914073944092,9.370113372802734,-35.162635803222656,184.4691162109375, -21.626937866210938
365,4263016915,0.34323472,0.75837266,-0.36492792,0.4169995,-1.5144460201263428,-0.8899027705192566,7.520381927490234,-64.4903793334961,215.2445831298828, -20.12935447692871
366,4263033582,0.36661348,0.73970205,-0.3555902,0.43816814,-0.9611823558807373,-1.2382444143295288,5.9215192794799805,-85.02186584472656,241.69378662109375, -18.397178649902344
367,4263050249,0.39122993,0.7179405,-0.34520465,0.46079752,-0.09041489660739899,-0.8300414085388184,4.3381571769714355,-92.44853973388672,264.146728515625, -16.284942626953125
368,4263066916,0.41620436,0.69320554,-0.33402398,0.48442546,0.9003793001174927,-1.2763248682022095,2.896700620651245,-97.37742614746094,281.559814453125, -11.66837215423584
369,4263083583,0.43949407,0.6664563,-0.32131794,0.5093484,2.2003188133239746,-1.606390357017517,1.7570641040802002,-87.11087799072266,295.03692626953125, -5.071866989135742
370,4263100250,0.46070534,0.63800544,-0.30677187,0.535342,3.8442587852478027,-1.3822658061981201,0.4483126401901245,-73.99068450927734,306.9893493652344, 0.69186931848526
371,4263116917,0.4809207,0.6072393,-0.29138434,0.561312,5.575435638427734,-1.107981562614441,-0.9706473350524902,-73.96643829345703,316.131103515625, 5.399632930755615
372,4263133584,0.49996787,0.5749032,-0.27562052,0.58613306,6.579496383666992,-0.3723461329936981,-2.8855385780334473,-75.19282531738281,316.49114990234375, 7.6052703857421875
373,4263150251,0.51711106,0.5418315,-0.25984603,0.60950387,7.041477203369141,-0.2872418761253357,-5.546847343444824,-72.96681213378906,310.4022521972656, 11.585114479064941
374,4263166918,0.5313939,0.50890356,-0.2437902,0.63182604,7.317075729370117,-0.0038238614797592163,-6.659159183502197,-62.56758499145508,302.11370849609375, 18.487165451049805
375,4263183585,0.5414031,0.47885326,-0.2259142,0.6531042,8.149788856506348,-0.26276612281799316,-7.84941291809082,-31.00794219970703,285.7967834472656, 22.013591766357422
376,4263200252,0.5484616,0.45195782,-0.20860222,0.67187,8.603809356689453,0.8729305267333984,-9.52940559387207,-16.059860229492188,257.0509338378906, 22.825942993164062
377,4263216919,0.5547808,0.42798865,-0.19477217,0.68637305,7.945837497711182,2.8288426399230957,-11.21165657043457,-25.021509170532227,216.50949096679688, 16.7694149017334
378,4263233586,0.5628538,0.40564537,-0.1884868,0.6950686,7.0127482414245605,4.180745601654053,-14.417884826660156,-67.48582458496094,165.75473022460938, 6.393786907196045
379,4263250253,0.5706116,0.38896185,-0.18644726,0.69881946,6.088460922241211,4.611722469329834,-19.346668243408203,-71.56271362304688,108.55742645263672, -6.666807174682617
380,4263266920,0.57663465,0.38047966,-0.18818088,0.69808006,4.707930088043213,3.209321975708008,-21.664609909057617,-58.82377624511719,40.672080993652344, -16.289958953857422
381,4263283587,0.5789913,0.3832092,-0.19311324,0.69327295,4.407505989074707,3.336127281188965,-20.705272674560547,-25.566831588745117,-40.654457092285156, -20.895578384399414
382,4263300254,0.5790233,0.39419,-0.20142858,0.68467003,4.984432697296143,4.271828651428223,-17.46354103088379,-7.917964458465576,-106.04731750488281, -26.90072250366211
383,4263316921,0.5774675,0.41051245,-0.21162081,0.6732218,5.734599590301514,4.220973968505859,-13.931267738342285,4.725805282592773,-148.1686248779297, -32.97502136230469
384,4263333588,0.57592666,0.4285452,-0.223645,0.65927297,5.679278373718262,4.872646808624268,-10.834318161010742,-0.7680539488792419,-170.07412719726562, -40.200584411621094
385,4263350255,0.5762642,0.4436827,-0.23940581,0.64323413,4.119060516357422,2.6358368396759033,-7.226500988006592,-38.030181884765625,-174.78317260742188, -41.40016555786133
386,4263366922,0.57881707,0.45315367,-0.25626713,0.62765414,3.472973108291626,-2.0652313232421875,7.445834159851074,-71.39685821533203,-148.92982482910156, -36.58655548095703
387,4263383589,0.5823443,0.4579688,-0.2710305,0.6145586,4.773923397064209,-11.52499771118164,17.145397186279297,-79.407958984375,-111.32918548583984, -29.252714157104492
388,4263400256,0.58555424,0.46405724,-0.28371224,0.6010695,8.743448257446289,-4.497638702392578,-13.046679496765137,-64.96392059326172,-110.74744415283203, -38.71968460083008
389,4263416923,0.5852991,0.47382706,-0.29294088,0.5891507,5.649475574493408,-2.2395832538604736,-3.9664876461029053,-21.77253532409668,-113.4334945678711, -36.41007995605469
390,4263433590,0.5843737,0.48146763,-0.30067423,0.5799064,-0.8973050713539124,-4.4970598220825195,-0.18638241291046143,-16.706628799438477,-91.35840606689453, -23.588701248168945
391,4263450257,0.58225906,0.4895872,-0.30444756,0.5732281,1.467779517173767,-1.9382210969924927,-3.8807122707366943,10.307583808898926,-71.44581604003906, -22.745983123779297
392,4263466924,0.5764809,0.5000487,-0.30299,0.57080483,0.7811211347579956,4.127444267272949,-0.26598048210144043,61.54438400268555,-53.068748474121094, -13.861247062683105
393,4263483591,0.5711453,0.50810426,-0.30218437,0.56948036,-0.2745386064052582,5.396613597869873,-0.10368232429027557,50.19523239135742,-41.60774612426758, -3.9057259559631348
394,4263500258,0.5669856,0.5146301,-0.30224666,0.5677413,-0.48536497354507446,4.486215591430664,0.5515096783638,35.79905700683594,-38.138084411621094, -3.796210289001465
395,4263516925,0.5638927,0.5191924,-0.304371,0.5655285,0.22347155213356018,0.13769127428531647,-0.30507585406303406,15.335509300231934,-38.09653091430664, 1.6818232536315918
396,4263533592,0.56005573,0.5244449,-0.30604723,0.5635872,-0.07502199709415436,-0.14686895906925201,0.4107271432876587,23.008310317993164,-39.7222785949707, 2.5669689178466797
397,4263550259,0.55817056,0.52847826,-0.30951163,0.5597849,-0.48869022727012634,0.2387695461511612,0.5454071164131165,0.4680049419403076,-44.59906768798828, -3.165790557861328
398,4263566926,0.556583,0.53258795,-0.31352934,0.5552164,-0.36016324162483215,-0.6669855713844299,0.3047019839286804,-4.050837516784668,-49.281776428222656, -5.399140357971191
399,4263583593,0.55450475,0.5372205,-0.31700248,0.5508432,-0.3037852942943573,0.8786976933479309,0.27002236247062683,2.2799153327941895,-49.637245178222656, -5.922476768493652
400,4263600260,0.55171436,0.54226965,-0.31999102,0.546956,-0.03971919044852257,1.8362655639648438,0.47661083936691284,9.413795471191406,-49.215755462646484, -4.051632404327393
401,4263616927,0.5487332,0.54715616,-0.32382375,0.5428171,-0.25279200077056885,1.5270804166793823,0.979827880859375,5.798165798187256,-53.25529479980469, -0.7408291697502136
402,4263633594,0.54550886,0.5524409,-0.3281844,0.53807485,-0.22596223652362823,0.6938593983650208,0.955632209777832,4.925595760345459,-59.64470291137695, -0.9768166542053223
403,4263650261,0.54198056,0.55832666,-0.3331297,0.5324971,-0.8430930376052856,-0.1871206909418106,0.8607528805732727,4.315906047821045,-68.01548767089844, -2.110969066619873
404,4263666928,0.53901464,0.56439984,-0.33871984,0.52553314,-0.8887477517127991,0.0038650711067020893,1.4558783769607544,-2.6500840187072754,-75.227783203125, -7.299548625946045
405,4263683595,0.5371943,0.56987846,-0.3454771,0.517017,-0.40574124455451965,-1.334191083908081,1.0346699953079224,-17.09962272644043,-80.86390686035156, -11.278303146362305
406,4263700262,0.5346738,0.5760601,-0.35172898,0.5084934,0.3779595196247101,-0.8976255059242249,0.40465715527534485,-9.950709342956543,-83.27206420898438, -12.509329795837402
407,4263716929,0.5316097,0.58277094,-0.3578781,0.49969247,0.9428248405456543,0.3508298397064209,0.4050484597682953,-6.144553184509277,-87.21399688720703, -13.349846839904785
408,4263733596,0.527473,0.59030753,-0.36386696,0.49082613,1.7837129831314087,1.4133282899856567,1.0351306200027466,1.5794365406036377,-92.41765594482422, -12.580397605895996
409,4263750263,0.5208997,0.60009956,-0.36847174,0.48246512,2.0724925994873047,2.906123161315918,2.387930393218994,25.602951049804688,-99.11890411376953, -13.767600059509277
410,4263766930,0.5110621,0.61193746,-0.37247944,0.47498173,2.179487943649292,0.13007836043834686,2.483579635620117,50.63889694213867,-108.51590728759766, -7.390010356903076
411,4263783597,0.4972585,0.627148,-0.37562254,0.46725518,2.939415216445923,-0.31728628277778625,3.420583724975586,81.41693115234375,-127.77400207519531, -7.600108623504639
412,4263800264,0.48185384,0.64391136,-0.38035053,0.45664927,4.783529281616211,-1.9137369394302368,3.5061259269714355,81.141357421875,-154.86663818359375, -9.528518676757812
413,4263816931,0.46426785,0.6622139,-0.38621762,0.44358104,7.5243964195251465,-3.137289524078369,4.992372512817383,85.921875,-180.22125244140625, -9.926881790161133
414,4263833598,0.44508848,0.6821311,-0.3915169,0.4281448,8.79887866973877,-2.3233134746551514,6.78308629989624,93.79684448242188,-198.55677795410156, -19.655658721923828
415,4263850265,0.42470473,0.7035058,-0.3964942,0.40926498,10.12549114227295,-1.7792797088623047,9.951342582702637,95.62939453125,-221.531982421875, -32.21583938598633
416,4263866932,0.40189564,0.7250671,-0.40044174,0.3903899,11.153539657592773,-2.9914941787719727,14.81920337677002,110.8694839477539,-226.02401733398438, -30.975366592407227
417,4263883599,0.3759516,0.7453079,-0.40412924,0.37397382,9.855584144592285,-1.6321293115615845,14.243110656738281,130.38194274902344,-218.6727752685547, -13.546625137329102
418,4263900266,0.3483737,0.7640358,-0.40888566,0.35734817,9.029623031616211,7.669169902801514,9.641164779663086,131.58511352539062,-223.6553497314453, -0.2598256766796112
419,4263916933,0.330351,0.775755,-0.4128702,0.34439942,7.222865104675293,10.849530220031738,13.12661361694336,76.97624969482422,-158.70840454101562, 0.909651517868042
420,4263933600,0.31846914,0.78542256,-0.4181204,0.32690117,1.8372644186019897,6.193897724151611,6.903729438781738,23.8972110748291,-163.93893432617188, -11.148409843444824
421,4263950267,0.31438902,0.79194236,-0.4203208,0.31195745,2.823735237121582,5.814310073852539,18.603899002075195,-10.79298210144043,-114.0569839477539, -30.38893699645996
422,4263966934,0.31896895,0.79478586,-0.41887787,0.3018538,-4.895402431488037,2.050915479660034,19.470746994018555,-43.83621597290039,-47.302978515625, -47.65521240234375
423,4263983601,0.3230168,0.7958924,-0.41206923,0.3039976,-2.8358349800109863,0.6454741358757019,18.885744094848633,1.8398760557174683,33.23114013671875, -43.944244384765625
424,4264000268,0.3322079,0.7924252,-0.40401992,0.31379673,-3.988170862197876,-2.0668065547943115,17.69422149658203,-12.042220115661621,101.77269744873047, -31.47564697265625
425,4264016935,0.3462564,0.7845849,-0.39467824,0.3297913,-3.0703792572021484,-3.128384590148926,14.853331565856934,-28.438304901123047,161.2315216064453, -22.69242286682129
426,4264033602,0.3614123,0.7730145,-0.3838251,0.3528574,-2.277539014816284,-6.0404205322265625,11.692254066467285,-20.667041778564453,214.31874084472656, -6.409756183624268
427,4264050269,0.37608212,0.7581572,-0.37147856,0.38179064,-0.8340932726860046,-5.443091869354248,9.143457412719727,-7.2275261878967285,255.83714294433594, 10.030325889587402
428,4264066936,0.39201826,0.73938507,-0.35872674,0.41345724,1.2288717031478882,-4.739497184753418,6.563135147094727,-15.992592811584473,284.6122131347656, 21.60774040222168
429,4264083603,0.40671647,0.71849483,-0.34420696,0.4470668,2.964435338973999,-3.272317409515381,4.057489395141602,-5.667561054229736,302.2222900390625, 26.543827056884766
430,4264100270,0.42104906,0.69565606,-0.32838887,0.48056346,4.433938026428223,-0.28948864340782166,1.719028115272522,-5.636120319366455,310.47125244140625, 25.514333724975586
431,4264116937,0.4371243,0.6702775,-0.31234255,0.51195025,5.017617225646973,1.7330334186553955,0.615636944770813,-25.449230194091797,313.4561767578125, 18.324710845947266
432,4264133604,0.45621413,0.6420427,-0.29707643,0.5398108,5.438295364379883,2.5232906341552734,-0.964827835559845,-58.293609619140625,311.53277587890625, 6.887626647949219
433,4264150271,0.47794616,0.6112109,-0.28324842,0.5637015,5.862264633178711,1.7667663097381592,-2.431518316268921,-91.6143798828125,304.72955322265625, -3.690262794494629
434,4264166938,0.49987587,0.57863474,-0.27052155,0.58491373,6.51578426361084,0.15471404790878296,-4.082641124725342,-107.7490234375,297.239013671875, -5.256208419799805
435,4264183605,0.51640815,0.54710007,-0.25598434,0.6070225,6.902050495147705,-2.9438974857330322,-6.067688941955566,-73.81298065185547,293.0926513671875, 10.33443832397461
436,4264200272,0.5246256,0.5201143,-0.23625113,0.6312167,7.590601921081543,-0.8694217205047607,-6.805820941925049,-1.0777627229690552,286.11712646484375, 24.78260612487793
437,4264216939,0.5296845,0.4957274,-0.21622372,0.6534036,7.654281139373779,1.5555288791656494,-8.36778736114502,17.544221878051758,263.9626770019531, 25.953941345214844
438,4264233606,0.5325838,0.47489327,-0.19624913,0.67254543,7.8030900955200195,3.354085922241211,-10.043282508850098,32.956172943115234,234.6217041015625, 19.488981246948242
439,4264250273,0.5354932,0.45747137,-0.17934497,0.68687886,7.381880760192871,4.045433044433594,-12.711627006530762,24.587182998657227,192.35739135742188, 7.315938472747803
440,4264266940,0.5407999,0.4419276,-0.17028011,0.6951549,6.974323749542236,4.437644958496094,-17.063560485839844,-20.706350326538086,139.0245819091797, -3.913790225982666
441,4264283607,0.54674244,0.43118206,-0.16832106,0.6977269,5.761164665222168,3.575890302658081,-20.162033081054688,-45.646575927734375,73.66881561279297, -12.136367797851562
442,4264300274,0.5496474,0.4307338,-0.16897336,0.6955605,5.1708292961120605,3.936601400375366,-21.77385902404785,-16.151355743408203,-2.4909818172454834, -19.506460189819336
443,4264316941,0.55084693,0.43932354,-0.17445002,0.6878443,5.3603363037109375,4.829366207122803,-20.460535049438477,-6.684566497802734,-81.74565887451172, -28.474763870239258
444,4264333608,0.55244714,0.45314968,-0.18591909,0.6744568,6.177793502807617,5.3163652420043945,-17.49106788635254,-23.424827575683594,-145.3037872314453, -39.92832565307617
445,4264350275,0.5562222,0.46784508,-0.2038456,0.6558848,6.538769245147705,4.02496862411499,-13.75147533416748,-63.66954803466797,-186.77728271484375, -50.550907135009766
446,4264366942,0.5626149,0.47927204,-0.22755815,0.634019,6.1533660888671875,-1.6962900161743164,-0.9887583255767822,-115.45130157470703,-200.75624084472656, -51.600914001464844
447,4264383609,0.57077926,0.4836492,-0.2540605,0.61298287,7.23415994644165,-12.412174224853516,18.127113342285156,-159.3688201904297,-175.3374786376953, -35.84449768066406
448,4264400276,0.57659256,0.48930535,-0.27383628,0.5942517,6.714710712432861,-4.969757556915283,-12.43074893951416,-113.80682373046875,-151.31414794921875, -41.79684829711914
449,4264416943,0.5750596,0.50097454,-0.28571996,0.5802544,8.573339462280273,-5.45322322845459,-7.646402359008789,-24.124130249023438,-142.14895629882812, -31.009056091308594
450,4264433610,0.56742424,0.51450443,-0.29052204,0.57350844,0.07917827367782593,-6.459966659545898,-0.369556725025177,46.768733978271484,-108.35956573486328, -6.245145320892334
451,4264450277,0.5578837,0.52842426,-0.29020083,0.570366,1.874092698097229,-2.2070682048797607,-4.222569942474365,82.50303649902344,-81.07337188720703, -3.795494794845581
452,4264466944,0.5487199,0.54265636,-0.28588337,0.5680682,2.097884178161621,12.24830150604248,0.2574990689754486,99.68594360351562,-63.12326431274414, -17.30040168762207
453,4264483611,0.5498619,0.5455729,-0.29280332,0.5605965,0.43506279587745667,4.782079696655273,-0.5802692174911499,-35.591182708740234,-60.462032318115234, -12.563125610351562
454,4264500278,0.545902,0.551664,-0.29579872,0.5569212,0.17647245526313782,2.732773780822754,0.43960845470428467,18.309221267700195,-53.97787857055664, 0.49154528975486755
455,4264516945,0.5443207,0.5549962,-0.30137825,0.5521464,0.24147997796535492,0.9541462659835815,0.6671212911605835,-13.1746187210083,-52.56222915649414, 2.7457804679870605
456,4264533612,0.5424699,0.55835736,-0.3067906,0.54757935,0.5057768225669861,0.6906991600990295,-0.7544146180152893,-10.934439659118652,-51.93459701538086, 3.877744436264038
457,4264550279,0.54167235,0.56075364,-0.31355023,0.5420636,0.5034033060073853,-0.7768170833587646,0.3942973017692566,-25.621200561523438,-54.819427490234375, 3.6037471294403076
458,4264566946,0.5408895,0.5634305,-0.320426,0.53601485,-0.05404362082481384,-0.03353499248623848,-0.09534110128879547,-26.175212860107422,-58.42839813232422, 1.3875304460525513
459,4264583613,0.5404081,0.566162,-0.32776874,0.52913845,0.16930356621742249,0.05615931376814842,0.35282155871391296,-30.65166664123535,-62.998680114746094, -1.1051429510116577
460,4264600280,0.53832436,0.57045597,-0.3337296,0.52288777,0.5861589908599854,-0.47767624258995056,0.21366068720817566,-12.137162208557129,-64.82091522216797, -1.846063494682312
461,4264616947,0.5347481,0.57624906,-0.3388926,0.51684946,0.9635108113288879,0.1062183827161789,0.812521755695343,2.651850461959839,-69.936279296875, -2.2865495681762695
462,4264633614,0.53071094,0.58274305,-0.34390473,0.5103785,0.73454749584198,0.014559292234480381,1.1163198947906494,6.614912509918213,-74.75943756103516, -4.483092308044434
463,4264650281,0.5255405,0.59071136,-0.34821203,0.50360316,0.5599996447563171,0.18526726961135864,1.1890867948532104,18.323272705078125,-81.36343383789062, -7.941643714904785
464,4264666948,0.51921076,0.6004626,-0.35151905,0.49628586,0.12152568250894547,2.2304065227508545,2.447448253631592,31.67009162902832,-89.0011978149414, -14.230449676513672
465,4264683615,0.51197875,0.61031216,-0.35523072,0.48908922,1.8104562759399414,0.264267235994339,1.784018635749817,34.69803237915039,-92.59656524658203, -9.238656044006348
466,4264700282,0.5029681,0.62118393,-0.35848576,0.48232982,2.055961847305298,0.3995964825153351,2.141458034515381,48.39611053466797,-97.0434799194336, -6.1579203605651855
467,4264716949,0.4924458,0.6330912,-0.36213902,0.47491932,2.866358757019043,-0.09510720521211624,2.242276668548584,55.55128479003906,-108.47441864013672, -4.2736897468566895
468,4264733616,0.48083457,0.64548314,-0.36657342,0.46666238,2.675595283508301,-1.196260929107666,2.4998929500579834,57.30412673950195,-119.21490478515625, -1.4357315301895142
469,4264750283,0.467444,0.65911394,-0.3712153,0.45745417,3.2973203659057617,-1.511617660522461,1.8531304597854614,66.2691879272461,-132.7052459716797, -1.1458728313446045
470,4264766950,0.45213395,0.6739846,-0.37593555,0.44720498,4.006732940673828,-1.4622479677200317,3.7268388271331787,76.07649230957031,-146.57748413085938, -1.348266839981079
471,4264783617,0.4355414,0.6899433,-0.3810048,0.43487626,4.433752059936523,-1.9311045408248901,3.895019292831421,78.98413848876953,-164.1297607421875, -5.146808624267578
472,4264800284,0.4172888,0.70697623,-0.38579747,0.42096916,5.131476402282715,-1.9971308708190918,6.95996618270874,86.7799301147461,-178.5316925048828, -9.125807762145996
473,4264816951,0.39759845,0.7249718,-0.39044225,0.40482906,6.1408772468566895,-1.85649836063385,7.048792839050293,91.07982635498047,-195.84042358398438, -14.735099792480469
474,4264833618,0.37565592,0.7436919,-0.39443314,0.38759235,6.856228828430176,-1.8740344047546387,9.213433265686035,103.18584442138672,-207.87510681152344, -16.7468318939209
475,4264850285,0.35117298,0.76284176,-0.39908716,0.36807573,8.1716947555542,-1.510450005531311,8.107831001281738,109.37969207763672,-229.64430236816406, -13.713512420654297
476,4264866952,0.32405508,0.7802036,-0.4058245,0.3486796,9.904338836669922,2.676955223083496,13.976202964782715,113.94082641601562,-237.0957794189453, 9.039129257202148
477,4264883619,0.31033564,0.7891377,-0.41828597,0.32556197,13.471056938171387,7.774296760559082,13.626821517944336,-0.7051289081573486,-212.70668029785156, 22.86762809753418
478,4264900286,0.30034015,0.7956707,-0.42593703,0.30867794,7.737748622894287,9.707348823547363,14.091960906982422,2.8384618759155273,-153.0729217529297, 8.754640579223633
479,4264916953,0.29173502,0.80272067,-0.43209484,0.28952464,2.9923360347747803,5.668810844421387,5.260734558105469,-6.892974853515625,-159.8517608642578, -8.421538352966309
480,4264933620,0.28685668,0.8081925,-0.4351363,0.2742169,6.301710605621338,5.234219074249268,13.36501693725586,-12.876038551330566,-118.2508773803711, -20.548587799072266
481,4264950287,0.28749114,0.8114167,-0.43541735,0.26337013,-0.8985698223114014,4.064737319946289,14.937240600585938,-29.18850326538086,-67.62654113769531, -30.73089599609375
482,4264966954,0.28643632,0.8139109,-0.4321825,0.262149,1.3368299007415771,1.1665834188461304,10.68301010131836,14.16340446472168,-10.900341987609863, -26.00260353088379
486,4265033622,0.30085006,0.80739,-0.3997146,0.3127927,-2.504873275756836,-2.495319128036499,8.638176918029785,29.657730102539062,150.79437255859375, -21.433300018310547
487,4265050289,0.31084692,0.8006528,-0.38875377,0.33346653,-2.2882449626922607,-2.798262596130371,8.121224403381348,12.188888549804688,176.36163330078125, -20.83091926574707
493,4265150291,0.42278594,0.70418555,-0.3052116,0.4818931,3.0654289722442627,-2.0942728519439697,1.664186954498291,-60.99365234375,300.5978088378906, -13.142054557800293
498,4265233626,0.5025592,0.55302036,-0.21623811,0.6283662,10.554241180419922,2.005096435546875,-9.75970458984375,-36.98826217651367,316.38671875, 23.84964370727539
500,4265266960,0.5223881,0.49483585,-0.19073108,0.6677349,10.954479217529297,3.414578676223755,-16.266813278198242,-54.539833068847656,230.0254669189453, 17.91497802734375
502,4265300294,0.53971994,0.4594649,-0.1888299,0.67966026,6.469584941864014,4.737968444824219,-24.56098175048828,-94.20556640625,77.72386169433594, -5.169593811035156
504,4265333628,0.54836696,0.46220225,-0.2022918,0.66688913,6.165245056152344,5.124576091766357,-23.943836212158203,-40.56252670288086,-88.29784393310547, -30.764095306396484
505,4265350295,0.5501671,0.47531894,-0.21633895,0.6516025,7.10414981842041,5.9052557945251465,-19.174184799194336,-42.670902252197266,-156.61993408203125, -39.178829193115234
507,4265383629,0.5580147,0.49484748,-0.25478855,0.6154907,3.235067367553711,-8.055980682373047,7.9929304122924805,-84.78026580810547,-158.34426879882812, -36.87043380737305
509,4265416963,0.56130964,0.51356816,-0.2828726,0.58409125,5.4978508949279785,-4.611023902893066,-2.6593611240386963,-13.060845375061035,-135.66697692871094, -32.806827545166016
511,4265450297,0.5538878,0.53344697,-0.29056814,0.56939715,2.7635395526885986,-0.07861686497926712,-3.791228771209717,24.991029739379883,-73.01995849609375, -22.6422176361084
513,4265483631,0.5469332,0.5480448,-0.29110405,0.5619338,1.3220003843307495,4.4184699058532715,-0.35287925601005554,22.246671676635742,-42.423667907714844, -12.898603439331055
514,4265500298,0.5448923,0.5528397,-0.29265532,0.55840296,0.6309059262275696,1.8660142421722412,0.1263629049062729,12.008054733276367,-39.05105209350586, -9.060445785522461
515,4265516965,0.5429228,0.5566779,-0.29505143,0.55523825,0.7249575853347778,2.0105202198028564,0.13228513300418854,5.663950443267822,-37.10944366455078, -2.780925750732422
516,4265533632,0.5424246,0.5589886,-0.29927686,0.55112696,-0.1800764501094818,2.0272114276885986,0.005690904799848795,-14.551982879638672,-38.843040466308594, -1.7753679752349854
517,4265550299,0.5415348,0.5613411,-0.30373138,0.5471597,-0.3246961534023285,0.28978970646858215,1.013081669807434,-13.441462516784668,-40.20527648925781, 1.1071351766586304
518,4265566966,0.5395622,0.5650469,-0.3075148,0.54316616,0.11209128051996231,0.3507983684539795,0.5181822180747986,-1.7137712240219116,-45.28645324707031, -0.3240286409854889
519,4265583633,0.53741807,0.5691737,-0.31185937,0.5384861,0.0026184692978858948,0.6720778346061707,0.24367539584636688,-2.999967336654663,-52.07331848144531, -0.9341937899589539
520,4265600300,0.5345404,0.5741279,-0.3164893,0.53336525,-0.629425048828125,0.68855881690979,0.5538715124130249,0.955999493598938,-59.579124450683594, -0.4884530305862427
521,4265616967,0.5314974,0.57956946,-0.32137734,0.52756673,0.02024110220372677,0.6934961080551147,1.469074010848999,1.0098152160644531,-65.44864654541016, -2.3945674896240234
522,4265633634,0.5279488,0.5856281,-0.3264347,0.5212969,0.8917084336280823,0.17256471514701843,0.9803605079650879,3.667081594467163,-71.41951751708984, -2.957334280014038
523,4265650301,0.52350307,0.59260863,-0.3313481,0.5147509,0.7645679116249084,0.08363647013902664,1.5266921520233154,10.551372528076172,-77.42436981201172, -3.406216621398926
524,4265666968,0.518576,0.6003673,-0.33587706,0.50776476,0.4444575011730194,0.3559834957122803,1.0341458320617676,15.710200309753418,-81.79341125488281, -6.640742778778076
525,4265683635,0.5139648,0.608201,-0.34069276,0.49986076,-0.2618206739425659,0.15509247779846191,1.3926644325256348,11.583367347717285,-86.22832489013672, -10.008766174316406
526,4265700302,0.50949293,0.6162767,-0.34540123,0.4912416,0.019522957503795624,0.5696386098861694,1.258961796760559,10.585416793823242,-89.44263458251953, -14.032161712646484
527,4265716969,0.50492275,0.62469876,-0.35005438,0.48194075,0.5038225054740906,0.5103898644447327,0.5520471930503845,10.809759140014648,-93.63136291503906, -17.138113021850586
528,4265733636,0.49914357,0.6347784,-0.3532421,0.47236893,1.3321791887283325,2.912868022918701,0.9371930956840515,25.984756469726562,-98.1728744506836, -24.35755157470703
529,4265750303,0.49142492,0.6445652,-0.35699967,0.46431553,2.212493419647217,-0.8622739911079407,0.2650158405303955,35.31013488769531,-97.33148193359375, -9.59097671508789
530,4265766970,0.47971806,0.65599877,-0.35933006,0.45871398,3.290886878967285,-0.6790949106216431,0.7585371136665344,69.14437103271484,-96.73949432373047, 0.9907293915748596
531,4265783637,0.46528432,0.668624,-0.3606041,0.45433205,3.4526560306549072,-2.663686752319336,0.7912833094596863,91.74092864990234,-98.31893920898438, 5.829521179199219
532,4265800304,0.449596,0.6818623,-0.36227754,0.44909105,3.617522954940796,-3.2781035900115967,0.7076407074928284,96.09993743896484,-108.64682006835938, 7.184902191162109
533,4265816971,0.43371463,0.69555724,-0.36558148,0.4409562,3.179032564163208,-2.112083911895752,3.288062572479248,86.17182159423828,-129.22314453125, 5.201427936553955
534,4265833638,0.42012602,0.7092799,-0.3710907,0.42744404,3.735765218734741,-0.4053572416305542,4.092762470245361,55.10411071777344,-155.99415588378906, -7.398443698883057
535,4265850305,0.40820372,0.72274125,-0.37783003,0.4101947,5.7238006591796875,-0.9729056358337402,4.98306941986084,33.090545654296875,-172.93997192382812, -16.458087921142578
536,4265866972,0.3929906,0.73817426,-0.3826572,0.39272255,6.683435440063477,-0.39551061391830444,5.468287467956543,59.829925537109375,-183.0182647705078, -22.49396324157715
537,4265883639,0.37326086,0.75558716,-0.3846494,0.37657604,7.730046272277832,0.25274088978767395,8.267282485961914,99.29512786865234,-186.11343383789062, -26.369543075561523
538,4265900306,0.34913296,0.77364236,-0.38442063,0.36304915,8.501446723937988,0.31203514337539673,11.74837875366211,136.5255889892578,-180.4570770263672, -21.517513275146484
539,4265916973,0.3238479,0.7904462,-0.3851417,0.3492616,8.348170280456543,3.4829318523406982,13.95559024810791,136.7196502685547,-184.51019287109375, -10.91455364227295
540,4265933640,0.30292755,0.8046612,-0.39059055,0.3289298,7.446884632110596,6.44708251953125,4.979538917541504,78.6988525390625,-213.3254852294922, -3.3519561290740967
541,4265950307,0.29212236,0.8121616,-0.39845076,0.31031555,11.082972526550293,6.472593784332275,15.180241584777832,8.02864933013916,-166.6966094970703, 8.840370178222656
542,4265966974,0.27917328,0.81927794,-0.40588516,0.2934341,1.0888335704803467,3.4321107864379883,11.313872337341309,25.109272003173828,-161.75970458984375, 15.622076988220215
543,4265983641,0.26862794,0.8268399,-0.41087428,0.27451348,4.248532295227051,4.120928764343262,4.855103015899658,11.771918296813965,-162.96035766601562, -8.092147827148438
544,4266000308,0.26487008,0.8310966,-0.4127951,0.26215085,6.522248268127441,5.9625139236450195,15.512690544128418,-8.486202239990234,-94.69564819335938, -16.87421226501465
545,4266016975,0.2688454,0.83191484,-0.4139986,0.25346673,-2.0507211685180664,0.9689962863922119,16.798402786254883,-46.97113800048828,-44.61056900024414, -18.427785873413086
546,4266033642,0.26590094,0.8335607,-0.41045162,0.25691035,-0.510883092880249,0.08249408006668091,13.34516429901123,37.04600143432617,12.206157684326172, -13.44761848449707
547,4266050309,0.26535955,0.8331919,-0.40517566,0.2668495,-1.3916468620300293,0.3565417528152466,12.83383560180664,41.04490280151367,62.793479919433594, -9.994340896606445
548,4266066976,0.26705942,0.83125293,-0.3976908,0.28202936,-2.8339266777038574,-1.0042784214019775,12.31813907623291,44.0468864440918,105.86482238769531, -12.735834121704102
549,4266083643,0.27002463,0.8277771,-0.3877877,0.30247766,-2.5478272438049316,-0.713463306427002,10.73685359954834,53.10984420776367,146.800537109375, -15.052146911621094
550,4266100310,0.27813733,0.82147664,-0.37689614,0.32521594,-2.102595567703247,0.408309668302536,9.485583305358887,26.738344192504883,181.2365264892578, -19.512014389038086
551,4266116977,0.29311192,0.8115531,-0.36573678,0.34886104,-1.593367576599121,-0.5767275094985962,8.366870880126953,-15.992979049682617,212.72998046875, -25.15595054626465
552,4266133644,0.31050518,0.7990662,-0.35321596,0.3745915,-1.092871904373169,-0.8377877473831177,6.884981155395508,-26.148361206054688,239.3280487060547, -27.872196197509766
553,4266150311,0.33199337,0.7830146,-0.340842,0.40061894,-0.09473223239183426,-0.8668835759162903,5.447331428527832,-55.95856475830078,259.76837158203125, -28.298627853393555
554,4266166978,0.35557106,0.763478,-0.32875276,0.42730838,0.8387444019317627,-1.5868546962738037,4.149685859680176,-74.43342590332031,277.18798828125, -22.857961654663086
555,4266183645,0.37968844,0.7407457,-0.31643686,0.45497295,2.1809208393096924,-1.1242573261260986,2.485112190246582,-82.23245239257812,293.50238037109375, -16.085601806640625
556,4266200312,0.40370795,0.71489847,-0.3035757,0.4835105,3.8100664615631104,-1.1836837530136108,1.1570450067520142,-86.36857604980469,308.94171142578125, -9.537455558776855
557,4266216979,0.427243,0.685971,-0.29049528,0.51236737,5.797081470489502,-1.750963807106018,-0.730066180229187,-91.17707824707031,320.4347839355469, -1.7636507749557495
558,4266233646,0.4490246,0.6548409,-0.27742064,0.54092383,7.338563442230225,-1.4137113094329834,-2.269326686859131,-90.07949829101562,323.377685546875, 7.857443809509277
559,4266250313,0.466974,0.62341493,-0.26294672,0.5693406,8.433937072753906,-0.6380921006202698,-4.632454872131348,-68.87318420410156,321.02911376953125, 15.846997261047363
560,4266266980,0.48113212,0.5931842,-0.24807017,0.5959078,8.701541900634766,2.1554269790649414,-7.447076797485352,-50.635128021240234,303.1062316894531, 20.793611526489258
561,4266283647,0.49424708,0.56413573,-0.23482244,0.61832803,9.142725944519043,4.367092132568359,-9.54540729522705,-56.32990646362305,274.5250244140625, 15.980504989624023
562,4266300314,0.50668573,0.5373155,-0.22394599,0.63593274,9.459611892700195,4.288215160369873,-12.084033966064453,-64.14865112304688,237.6370391845703, 8.136506080627441
563,4266316981,0.51793194,0.5147587,-0.21604094,0.6481488,8.293164253234863,4.680315017700195,-14.985391616821289,-66.33428192138672,187.39852905273438, -0.9734821915626526
564,4266333648,0.53086066,0.4948908,-0.21633404,0.6530466,6.948165416717529,5.804673194885254,-18.045846939086914,-110.30921936035156,123.38706970214844, -9.467947959899902
565,4266350315,0.5430271,0.48020327,-0.22181259,0.65217,6.204793453216553,5.6736531257629395,-23.101795196533203,-120.89704132080078,61.0429801940918, -17.092655181884766
566,4266366982,0.55012774,0.4763111,-0.2264115,0.64747614,4.5461297035217285,6.1480512619018555,-24.061120986938477,-65.98399353027344,-3.671967029571533, -27.882678985595703
567,4266383649,0.55212885,0.4832592,-0.23214757,0.6385312,4.711845397949219,5.823624610900879,-23.027482986450195,-20.207134246826172,-77.37625885009766, -34.26508712768555
568,4266400316,0.55109674,0.4971753,-0.24010317,0.62566775,5.187519550323486,6.399021148681641,-18.396045684814453,0.10023573786020279,-133.59434509277344, -39.434478759765625
569,4266416983,0.5506383,0.51044166,-0.25453562,0.60947406,10.173035621643066,-4.44298791885376,9.810245513916016,-37.86040115356445,-165.265380859375, -31.13543128967285
570,4266433650,0.55267406,0.52104133,-0.2720518,0.59080917,8.539536476135254,-9.940403938293457,4.098193168640137,-73.79827880859375,-170.3495330810547, -35.6090087890625
571,4266450317,0.55294245,0.531677,-0.28711855,0.57370514,9.664177894592285,-6.309807777404785,-13.631319046020508,-54.31499481201172,-159.0267333984375, -31.637348175048828
572,4266466984,0.5494339,0.5454758,-0.29655612,0.5591364,4.676064968109131,-2.7836475372314453,-0.6392458081245422,-1.3284591436386108,-147.87554931640625, -34.13251876831055
573,4266483651,0.5483546,0.5546863,-0.3047598,0.54658234,-1.969332218170166,-1.1321688890457153,-2.5205535888671875,-18.905338287353516,-113.10417938232422, -31.22113037109375
574,4266500318,0.54825675,0.5618896,-0.31070283,0.535872,3.1378140449523926,0.21299073100090027,-4.973794937133789,-17.87287139892578,-87.98467254638672, -32.36253356933594
575,4266516985,0.5447824,0.569999,-0.3120504,0.53003603,2.2317047119140625,5.012182712554932,-1.2227308750152588,25.88812828063965,-62.307029724121094, -21.24750328063965
576,4266533652,0.5420628,0.57551473,-0.31352112,0.52598053,1.576026201248169,4.74515438079834,-0.4686743915081024,16.576135635375977,-44.761749267578125, -11.163875579833984
577,4266550319,0.537727,0.58121693,-0.31400585,0.52386767,0.7700706124305725,0.7853555679321289,-0.10890889167785645,31.43294334411621,-37.621517181396484, -2.274746894836426
578,4266566986,0.53054297,0.58881104,-0.3126854,0.5235017,0.35081231594085693,0.7497743964195251,-0.24166466295719147,60.109352111816406,-37.010948181152344, 3.1247594356536865
579,4266583653,0.5255329,0.59484226,-0.31362087,0.521172,-0.8064578771591187,2.986043930053711,0.6405205726623535,33.29488754272461,-42.963748931884766, 0.6146406531333923
580,4266600320,0.5256474,0.5965979,-0.31992537,0.5151834,-0.4038871228694916,1.7341856956481934,0.30882424116134644,-30.208017349243164,-51.061737060546875, 0.2972070276737213
581,4266616987,0.5279333,0.5964387,-0.3288453,0.5073547,0.18526940047740936,-0.5309271216392517,0.5741856098175049,-59.310630798339844,-56.59635543823242, 0.9694828391075134
582,4266633654,0.5286009,0.5974545,-0.33700567,0.500057,-0.015595844015479088,-0.0759589746594429,0.10078238695859909,-44.524600982666016,-59.52037811279297, 2.7738900184631348
583,4266650321,0.5262836,0.6009525,-0.3430346,0.49417558,-0.4293738901615143,1.2223637104034424,0.590218722820282,-12.598538398742676,-61.48427200317383, 3.6793222427368164
584,4266666988,0.5212017,0.6070519,-0.34668475,0.4895377,-0.08736059814691544,1.068343162536621,0.4170779883861542,19.2925968170166,-63.18147659301758, 1.6377462148666382
585,4266683655,0.5161963,0.6135707,-0.35071748,0.48380822,-0.04591565951704979,-0.2106419801712036,0.9686941504478455,16.615846633911133,-70.41411590576172, -1.9220890998840332
586,4266700322,0.5115,0.6203221,-0.35544425,0.47668442,0.09714897722005844,-1.1530308723449707,0.7903653979301453,10.502242088317871,-78.87812805175781, -5.5534443855285645
587,4266716989,0.5075395,0.6272371,-0.36102924,0.46758515,-0.1833137720823288,-0.9252368211746216,1.4545276165008545,0.3313545286655426,-89.14278411865234, -11.696449279785156
588,4266733656,0.5040189,0.6343802,-0.36716732,0.456854,0.0783078670501709,-0.43488720059394836,0.7312331795692444,-6.568221092224121,-97.85346221923828, -17.01645278930664
589,4266750323,0.50014645,0.64188015,-0.37378076,0.44511992,0.8602794408798218,-0.2400113195180893,0.7734394669532776,-7.792164325714111,-105.9587173461914, -18.230239868164062
590,4266766990,0.49433175,0.6511279,-0.37898335,0.43363667,1.5843664407730103,2.3506500720977783,1.1025692224502563,11.76607608795166,-110.41793060302734, -22.160749435424805
591,4266783657,0.48729536,0.6605145,-0.38366187,0.4231644,1.5920488834381104,2.043938636779785,1.0835872888565063,21.95477867126465,-107.784423828125, -17.75105857849121
592,4266800324,0.47749826,0.6706424,-0.3875263,0.4147991,2.229426145553589,1.228097915649414,1.6601611375808716,44.9351921081543,-105.00543975830078, -8.286821365356445
593,4266816991,0.46554664,0.6817553,-0.39072463,0.4071987,2.917879104614258,0.5936044454574585,0.9764620661735535,62.091373443603516,-107.93256378173828, -5.339079856872559
594,4266833658,0.45131713,0.6936638,-0.3937344,0.40014625,3.9213719367980957,-0.40384042263031006,1.5193989276885986,77.34271240234375,-113.1847152709961, -0.2656724750995636
595,4266850325,0.43373773,0.70708364,-0.3954201,0.3943959,3.8723673820495605,-1.5338021516799927,2.0140552520751953,105.20870971679688,-116.1946029663086, 2.508923292160034
596,4266866992,0.4123229,0.7223837,-0.39591232,0.3891087,3.683046817779541,-1.951134204864502,3.7626190185546875,133.9834442138672,-126.02835845947266, 3.272099494934082
597,4266883659,0.3899161,0.73902833,-0.396004,0.3807675,3.765882968902588,0.21357381343841553,4.897751331329346,135.50912475585938,-146.529541015625, -8.489422798156738
598,4266900326,0.36751276,0.756368,-0.39639747,0.36839014,5.904146671295166,-0.38087695837020874,6.769241809844971,125.6037826538086,-169.86846923828125, -19.70642852783203
599,4266916993,0.34344748,0.7741744,-0.3966265,0.3540986,7.256657123565674,-1.9569694995880127,8.580288887023926,130.68423461914062,-185.40309143066406, -22.520530700683594
600,4266933660,0.3171197,0.7918032,-0.3968233,0.3391383,8.71804428100586,-2.5182929039001465,11.405866622924805,140.62709045410156,-194.96937561035156, -18.38275909423828
601,4266950327,0.29002273,0.8078087,-0.39903793,0.32264733,8.937600135803223,-2.1946027278900146,8.801989555358887,132.3915557861328,-206.47286987304688, -4.575526237487793
602,4266966994,0.2628102,0.82234395,-0.40466475,0.30154288,7.951889991760254,3.6666078567504883,13.003852844238281,109.89043426513672,-236.3356170654297, 9.395242691040039
603,4266983661,0.24584118,0.8301909,-0.4137405,0.2813619,12.4114990234375,7.51421594619751,13.057801246643066,35.4188117980957,-195.38758850097656, 28.00054168701172
604,4267000328,0.23779684,0.8338226,-0.42138973,0.26575187,7.121615886688232,9.6881742477417,16.311004638671875,-6.683402061462402,-133.8413543701172, 22.39377212524414
605,4267016995,0.23191269,0.8384384,-0.42743966,0.24603575,1.080830693244934,4.4200897216796875,4.828751564025879,-26.154340744018555,-150.74851989746094, -0.16875040531158447
606,4267033662,0.22961774,0.8416746,-0.42946297,0.23328462,6.3901801109313965,5.494705677032471,16.495677947998047,-21.630115509033203,-91.30868530273438, -14.289908409118652
607,4267050329,0.23514251,0.8425267,-0.42912018,0.2251959,-3.4141159057617188,2.471268653869629,17.838315963745117,-52.879024505615234,-34.05895233154297, -26.10326385498047
608,4267066996,0.23408274,0.8442164,-0.4238363,0.22992869,0.11104113608598709,2.0217857360839844,12.986855506896973,32.248626708984375,27.34613037109375, -26.225200653076172
609,4267083663,0.23915613,0.84285533,-0.41794166,0.24025944,-1.0732964277267456,0.858302116394043,12.530445098876953,9.127434730529785,83.39733123779297, -21.501890182495117
610,4267100330,0.2453397,0.8400764,-0.40992337,0.2569894,-2.505598783493042,-1.2794076204299927,11.258439064025879,22.32665252685547,129.4263153076172, -20.97793960571289
611,4267116997,0.25384066,0.8351247,-0.40060538,0.27865303,-2.280233860015869,-2.1752686500549316,9.46381950378418,21.471630096435547,170.46176147460938, -18.065771102905273
612,4267133664,0.26458016,0.827736,-0.39058462,0.30380028,-2.027012348175049,-2.5867438316345215,8.5007905960083,15.270645141601562,202.5247039794922, -13.552505493164062
613,4267150331,0.27721858,0.8181965,-0.37950358,0.33118254,-1.4297149181365967,-1.8950130939483643,6.865049362182617,8.697999000549316,226.7595977783203, -13.665456771850586
614,4267166998,0.29323426,0.8060763,-0.3677776,0.35915837,-0.32149538397789,-0.9593645334243774,5.2354326248168945,-12.263230323791504,246.02357482910156, -17.083499908447266
615,4267183665,0.31360152,0.7907726,-0.35640094,0.38640887,0.33744800090789795,-0.8696004748344421,4.282747268676758,-45.5460319519043,260.17681884765625, -19.284561157226562
616,4267200332,0.33648947,0.77233475,-0.34549373,0.41341093,1.1249470710754395,-1.0249919891357422,2.9199624061584473,-67.89990997314453,272.3357849121094, -16.301071166992188
617,4267216999,0.35989937,0.7512109,-0.33416975,0.44100544,2.2500085830688477,-1.0666985511779785,1.4338188171386719,-74.34307098388672,285.35418701171875, -12.279579162597656
618,4267233666,0.3822452,0.7280582,-0.32157972,0.46947518,3.605217695236206,-0.9743459224700928,0.1438247710466385,-68.0550308227539,296.77667236328125, -8.810705184936523
619,4267250333,0.40360448,0.70289564,-0.30847213,0.49788198,5.005207538604736,-1.3323149681091309,-1.7744958400726318,-66.95690155029297,302.1995849609375, -3.977638006210327
620,4267267000,0.42257,0.6765222,-0.29477084,0.5261777,6.033689498901367,-1.2807577848434448,-3.1353955268859863,-57.008636474609375,302.5090026855469, 3.5420432090759277
621,4267283667,0.4365181,0.6510518,-0.27890956,0.55479145,6.570816516876221,-0.6818039417266846,-5.443350791931152,-22.640865325927734,297.00054931640625, 10.685486793518066
622,4267300334,0.44616544,0.6271396,-0.26188836,0.5822777,7.166768550872803,0.3238842189311981,-8.120147705078125,3.4719607830047607,281.4909362792969, 15.502197265625
623,4267317001,0.45367363,0.604553,-0.24533968,0.607046,7.498840808868408,0.5474551320075989,-9.76386833190918,9.840921401977539,259.4925842285156, 15.373046875
624,4267333668,0.4595323,0.5843904,-0.23036864,0.6278922,7.154547691345215,0.7564368844032288,-11.449725151062012,10.92422103881836,225.7537078857422, 12.47545337677002
625,4267350335,0.46661377,0.5659083,-0.22015119,0.6430812,7.101100444793701,2.2388341426849365,-13.149887084960938,-18.258081436157227,183.13719177246094, 5.745646953582764
626,4267367002,0.47655112,0.5494259,-0.21681212,0.65117073,6.368507385253906,3.9396345615386963,-14.946142196655273,-64.2596206665039,129.42083740234375, -5.922835826873779
627,4267383669,0.48931265,0.5354224,-0.22055468,0.6521135,6.420965194702148,4.569467544555664,-17.846149444580078,-109.33262634277344,72.86833190917969, -18.87932014465332
628,4267400336,0.5023335,0.5255213,-0.22896813,0.6473504,5.555734634399414,3.5578384399414062,-19.566692352294922,-126.25788116455078,18.758970260620117, -28.17817497253418
629,4267417003,0.51168543,0.5236646,-0.23791128,0.6382415,5.237151622772217,4.261096954345703,-20.218225479125977,-94.59052276611328,-39.720924377441406, -37.51972579956055
630,4267433670,0.51657826,0.5300845,-0.24652332,0.62560695,5.493553161621094,4.179959774017334,-19.34838104248047,-53.9246940612793,-94.23839569091797, -44.96877670288086
631,4267450337,0.5171364,0.54337573,-0.2565692,0.6094961,5.028169631958008,1.6258283853530884,-11.941235542297363,-25.951805114746094,-148.3245391845703, -44.972591400146484
632,4267467004,0.5199563,0.556113,-0.27394837,0.5876535,15.37540054321289,-6.658718109130859,4.910257816314697,-77.31126403808594,-189.19137573242188, -46.39155960083008
633,4267483671,0.52230674,0.565818,-0.29060522,0.5679743,4.803249359130859,-8.58650016784668,-1.2651423215866089,-79.26924133300781,-167.0953826904297, -34.05691909790039
634,4267500338,0.51882434,0.5790963,-0.30069357,0.5523159,4.594668388366699,-4.105865478515625,-9.356893539428711,-10.01376724243164,-153.4916229248047, -29.775711059570312
635,4267517005,0.5144736,0.59167147,-0.307346,0.53924084,1.089475154876709,-2.8042244911193848,-1.3776434659957886,9.252382278442383,-129.84298706054688, -29.6225643157959
636,4267533672,0.51325977,0.5998734,-0.31385022,0.5274608,1.0275347232818604,1.512648582458496,-3.976815938949585,-15.710878372192383,-101.26191711425781, -28.10122299194336
637,4267550339,0.5126862,0.6061954,-0.31895697,0.51763606,4.175333023071289,1.7181555032730103,-3.6818954944610596,-15.728405952453613,-80.03079986572266, -25.15960121154785
638,4267567006,0.5088065,0.61322045,-0.32062936,0.5121269,1.937619686126709,3.328019857406616,0.14394444227218628,22.193138122558594,-59.660308837890625, -14.009636878967285
639,4267583673,0.5054572,0.6185421,-0.32209873,0.50810605,0.8198069930076599,1.2274616956710815,-0.9131643176078796,18.018056869506836,-45.602500915527344, -7.694607734680176
640,4267600340,0.49902448,0.6253482,-0.32086793,0.50691086,0.31994011998176575,0.4095427095890045,-0.1193133145570755,51.99590301513672,-36.27922821044922, -1.865053415298462
641,4267617007,0.49457303,0.6303786,-0.32155594,0.50460166,-0.13001303374767303,2.341993808746338,-0.326888769865036,28.271934509277344,-37.174686431884766, -0.4400423467159271
642,4267633674,0.49374956,0.63249815,-0.32580113,0.5000119,0.07922469824552536,2.4657576084136963,0.004337199032306671,-14.706002235412598,-41.10888671875, 1.1404707431793213
643,4267650341,0.49487254,0.6329387,-0.3320279,0.49421442,0.35920754075050354,0.2774397134780884,0.48718905448913574,-38.354209899902344,-43.0391731262207, 2.816591262817383
644,4267667008,0.49359033,0.63503706,-0.33653852,0.4897337,-0.15288685262203217,-0.02725973166525364,0.24342693388462067,-13.36962890625,-42.68946075439453, 4.23389196395874
645,4267683675,0.4892078,0.63943076,-0.33877492,0.48686355,-0.390712708234787,0.8390886187553406,0.4376874268054962,19.370864868164062,-42.925636291503906, 4.892646789550781
646,4267700342,0.48251107,0.6460588,-0.33923194,0.48447242,-0.38514652848243713,1.4383208751678467,1.1178747415542603,44.16730499267578,-47.784969329833984, 1.2311631441116333
647,4267717009,0.47629094,0.6530624,-0.3406771,0.4802043,-0.4451143145561218,0.6560433506965637,1.2390520572662354,35.66643142700195,-59.639888763427734, -3.0478224754333496
648,4267733676,0.4704506,0.6605581,-0.34321597,0.47385946,-0.392337441444397,-0.1924557089805603,1.8722647428512573,27.136186599731445,-73.38150787353516, -7.3394269943237305
649,4267750343,0.46445343,0.6690225,-0.3460522,0.4657688,-0.500369668006897,-0.2753697633743286,1.7532647848129272,25.93169403076172,-85.9172134399414, -13.427181243896484
650,4267767010,0.45791394,0.6785356,-0.34917343,0.4560514,0.0065993862226605415,-0.10912405699491501,0.9940693974494934,27.027467727661133,-99.06817626953125, -18.08516502380371
651,4267783677,0.45116618,0.68878925,-0.35204268,0.44506738,0.7917041182518005,1.6536271572113037,1.1481622457504272,28.099254608154297,-107.0914077758789, -24.38698387145996
652,4267800344,0.44458342,0.69801235,-0.3553013,0.43461016,1.7573152780532837,-0.1875101774930954,2.8502774238586426,24.246923446655273,-102.3365707397461, -18.889432907104492
653,4267817011,0.43685532,0.70675147,-0.35751888,0.4264281,1.8819944858551025,-0.06416624039411545,0.9574810862541199,36.96512985229492,-89.73493957519531, -12.359735488891602
654,4267833678,0.427728,0.7159728,-0.36044177,0.4177489,2.7849693298339844,-0.39173224568367004,1.4361404180526733,41.95437240600586,-99.2021713256836, -7.5445051193237305
655,4267850345,0.41799587,0.72499114,-0.36352476,0.40928912,2.6947100162506104,-0.9266520142555237,1.0613592863082886,44.454219818115234,-99.60877990722656, -3.9255282878875732
656,4267867012,0.40593752,0.7347313,-0.36679295,0.40105873,3.502911329269409,-1.8099528551101685,0.6490923166275024,58.15876770019531,-106.94580841064453, 2.345125198364258
657,4267883679,0.3913692,0.74544305,-0.36945143,0.393257,3.4715445041656494,-1.6566953659057617,2.9210972785949707,76.32880401611328,-112.17096710205078, 4.831617832183838
658,4267900346,0.37561187,0.75715333,-0.371986,0.38374692,2.6611428260803223,-0.5097465515136719,3.1595451831817627,81.11308288574219,-126.47610473632812, 0.19566458463668823
659,4267917013,0.35945228,0.7694692,-0.37527686,0.37132114,3.2894043922424316,-1.058426022529602,4.914443016052246,75.33771514892578,-146.39361572265625, -3.9187076091766357
660,4267933680,0.34199363,0.78274894,-0.37856135,0.35642165,3.6713294982910156,-0.5778165459632874,5.221987724304199,78.26028442382812,-165.4925537109375, -9.289596557617188
661,4267950347,0.3234042,0.79626054,-0.38195813,0.33983454,4.761552810668945,-1.258815050125122,7.2494378089904785,80.24794006347656,-178.57968139648438, -10.513618469238281
662,4267967014,0.3028803,0.80969465,-0.38500327,0.32315812,5.703859806060791,-0.9202220439910889,8.17721176147461,91.28810119628906,-183.482421875, -7.963759899139404
663,4267983681,0.28076276,0.8223418,-0.38841325,0.30669525,6.149374008178711,-1.6574616432189941,9.300331115722656,98.32502746582031,-185.8506317138672, 0.09463445842266083
664,4268000348,0.25664365,0.8346148,-0.3926675,0.28873032,6.423437118530273,0.9803469181060791,3.0690510272979736,103.14016723632812,-200.89614868164062, 7.1591596603393555
665,4268017015,0.23527154,0.8452273,-0.39857662,0.2671617,11.180700302124023,6.354812145233154,13.80054759979248,71.45346069335938,-213.97901916503906, 9.349116325378418
666,4268033682,0.22248848,0.8500429,-0.40635967,0.2505963,9.507089614868164,5.689469814300537,16.051963806152344,22.655675888061523,-154.27369689941406, 28.516677856445312
667,4268050349,0.20925945,0.8550323,-0.41035223,0.23820575,2.8240461349487305,7.096126079559326,11.229911804199219,43.93501663208008,-126.14776611328125, 13.101592063903809
668,4268067016,0.19619772,0.86074555,-0.41354948,0.22271317,4.892674446105957,5.799835205078125,4.065880298614502,36.77827453613281,-144.17405700683594, 1.7562143802642822
669,4268083683,0.18180569,0.8653669,-0.4130312,0.21792848,7.449556827545166,4.648510456085205,13.855624198913574,79.46159362792969,-78.01762390136719, -0.546509325504303
670,4268100350,0.174155,0.86782306,-0.41240215,0.21558861,-1.2804476022720337,2.966174364089966,15.061793327331543,43.92824172973633,-41.30647277832031, -2.037734031677246
671,4268117017,0.1653106,0.87060875,-0.40770906,0.22019741,1.9393669366836548,4.475423812866211,10.637374877929688,77.2967300415039,1.0345646142959595, -17.045103073120117
672,4268133684,0.16701397,0.8710366,-0.40301865,0.22578399,0.032759927213191986,3.4745752811431885,10.89625358581543,14.357428550720215,39.904151916503906, -25.174015045166016
673,4268150351,0.17242245,0.8700055,-0.39727893,0.23565003,-1.4064991474151611,0.6152631640434265,10.120908737182617,4.0880866050720215,79.20618438720703, -28.182289123535156
674,4268167018,0.17906995,0.86765456,-0.39014056,0.2508,-1.7533674240112305,-0.5180613994598389,9.887528419494629,11.829877853393555,117.98734283447266, -28.643016815185547
675,4268183685,0.18712671,0.8639452,-0.38220343,0.26926503,-1.9069199562072754,-0.7532171607017517,9.28315544128418,12.001608848571777,144.8691864013672, -28.071165084838867
676,4268200352,0.19951293,0.8582707,-0.37419036,0.2890473,-1.304584264755249,-0.71630859375,7.725998401641846,-12.681241035461426,167.8084716796875, -29.636594772338867
677,4268217019,0.21725939,0.8501674,-0.3664101,0.30944788,-1.118192195892334,-0.544270932674408,6.790599346160889,-46.55051803588867,189.7626495361328, -31.814714431762695
678,4268233686,0.23959112,0.83936995,-0.3589101,0.33051232,-1.3604100942611694,-0.5395070314407349,5.717367172241211,-76.34028625488281,210.51614379882812, -32.16478729248047
679,4268250353,0.26472065,0.8257216,-0.35154623,0.3528778,-0.9068419933319092,-1.0297772884368896,4.381166934967041,-94.3266830444336,231.20777893066406, -28.58284568786621
680,4268267020,0.29028592,0.8094349,-0.34358954,0.37748677,-0.46548134088516235,-1.5707541704177856,3.232139825820923,-94.78209686279297,252.51739501953125, -22.59640121459961
681,4268283687,0.3143184,0.79084325,-0.3342572,0.4050231,0.5490941405296326,-1.8675237894058228,1.7566242218017578,-80.4715576171875,273.95343017578125, -15.011115074157715
682,4268300354,0.33575928,0.7703794,-0.32279727,0.4354123,1.476898193359375,-1.6836094856262207,0.33982032537460327,-57.935428619384766,293.408447265625, -8.976140022277832
683,4268317021,0.35473803,0.7481865,-0.30910823,0.46779338,2.7111270427703857,-1.5941641330718994,-1.0692139863967896,-37.92329025268555,308.891845703125, -4.982231140136719
684,4268333688,0.37176648,0.7243782,-0.29387692,0.5007026,4.23711633682251,-0.41700100898742676,-2.542015552520752,-25.807323455810547,316.5406188964844, -1.9533298015594482
685,4268350355,0.38796356,0.6990334,-0.2779697,0.5325131,5.86643123626709,1.5723156929016113,-4.975327968597412,-25.5443172454834,316.555419921875, -2.169782876968384
686,4268367022,0.4050431,0.6718885,-0.2633484,0.56138605,7.2899298667907715,2.0107247829437256,-7.95866060256958,-45.006324768066406,307.4969482421875, -3.5861408710479736
687,4268383689,0.4218241,0.6440229,-0.2511935,0.5866868,9.026034355163574,1.2984185218811035,-11.463465690612793,-61.690425872802734,286.6886291503906, 0.3293447196483612
688,4268400356,0.42555818,0.62202317,-0.23125112,0.61523247,10.179472923278809,1.2510972023010254,-14.312213897705078,-53.330528259277344,250.56573486328125, 1.953977346420288
689,4268417023,0.43599534,0.6012042,-0.22257276,0.631604,9.803865432739258,3.2891364097595215,-17.315643310546875,-47.62263870239258,197.6818084716797, -1.1054003238677979
690,4268433690,0.446723,0.5851833,-0.21954532,0.6401558,7.595372676849365,5.05371618270874,-20.372926712036133,-66.12739562988281,129.99618530273438, -8.663518905639648
691,4268450357,0.45721602,0.5755838,-0.2211725,0.64089,5.530643939971924,5.2706804275512695,-21.97760009765625,-77.97159576416016,56.35332107543945, -22.530717849731445
692,4268467024,0.4675387,0.5717614,-0.22770685,0.6345444,5.237033843994141,3.311842679977417,-23.20610237121582,-91.74726867675781,-12.062288284301758, -33.2800178527832
693,4268483691,0.4747271,0.57532305,-0.23606879,0.62282413,4.937736988067627,3.3159210681915283,-20.91957664489746,-72.29278564453125,-75.43804168701172, -41.17182159423828
694,4268500358,0.48012638,0.5842686,-0.24778575,0.6055672,5.215908527374268,2.6721811294555664,-18.046890258789062,-71.18838500976562,-133.6152801513672, -46.94037628173828
695,4268517025,0.48630485,0.5928518,-0.264879,0.5846999,10.0289306640625,-5.478525161743164,12.231609344482422,-104.20664978027344,-162.5238800048828, -39.76246643066406
696,4268533692,0.48975813,0.60286224,-0.2796669,0.56434125,7.222785472869873,-9.456337928771973,3.8417601585388184,-77.95968627929688,-163.91903686523438, -39.2878532409668
697,4268550359,0.49165475,0.611876,-0.29370117,0.5455489,7.953991413116455,-5.436710834503174,-11.569705963134766,-68.84342193603516,-154.2142791748047, -29.48084831237793
698,4268567026,0.48701927,0.62433815,-0.3018878,0.5309225,3.5368387699127197,-2.7102210521698,-1.316613793373108,0.5468392968177795,-142.72459411621094, -22.652843475341797
699,4268583693,0.4816663,0.63497674,-0.30630663,0.52055645,-2.1623189449310303,0.2859308123588562,-2.9194650650024414,20.122177124023438,-106.69793701171875, -18.257179260253906
700,4268600360,0.47991243,0.64246905,-0.30986384,0.5107861,4.228177547454834,5.22265100479126,-4.791020393371582,-1.6867685317993164,-82.4043197631836, -26.259403228759766
701,4268617027,0.47928008,0.6466919,-0.3143602,0.5032481,2.4681999683380127,2.6108531951904297,-0.8852332830429077,-15.992703437805176,-61.70838165283203, -11.577470779418945
702,4268633694,0.47664183,0.6503695,-0.31725585,0.49918082,0.8601087331771851,2.589320182800293,-0.7003238797187805,4.1945624351501465,-43.52000045776367, 0.9242340922355652
703,4268650361,0.47173652,0.6546878,-0.31837097,0.49748287,0.8922256827354431,-0.15270432829856873,-0.7472734451293945,27.743825912475586,-34.30223846435547, 7.166272163391113
704,4268667028,0.46569327,0.6595306,-0.3184094,0.49675506,0.6390036344528198,0.8139053583145142,-0.4228682518005371,40.40141677856445,-30.790912628173828, 8.168395042419434
705,4268683695,0.46170273,0.6631692,-0.32015264,0.49451008,0.46933045983314514,1.3332487344741821,-0.5829266905784607,18.12530517578125,-34.59406280517578, 6.660242080688477
706,4268700362,0.46155792,0.6645525,-0.3247429,0.4897724,-0.08242375403642654,0.718824565410614,0.2300018072128296,-21.704931259155273,-38.92892837524414, 3.6503796577453613
707,4268717029,0.46293265,0.66507024,-0.33067104,0.483769,-0.44946685433387756,-0.6752995848655701,0.5013192296028137,-38.68924331665039,-42.741092681884766, 2.5973052978515625
708,4268733696,0.46350458,0.665999,-0.3367533,0.47770992,-0.2552656829357147,-0.026760542765259743,0.08378426730632782,-34.31549835205078,-46.773563385009766, 4.8582682609558105
709,4268750363,0.46116692,0.66877353,-0.34131604,0.472833,-0.5017251968383789,0.8705987930297852,0.8159003853797913,-7.35990047454834,-49.3956298828125, 6.957117080688477
710,4268767030,0.45617485,0.6736758,-0.344321,0.46851814,-0.32649892568588257,1.1540006399154663,0.8438652157783508,18.02272605895996,-55.109004974365234, 5.2337422370910645
711,4268783697,0.45085645,0.67937493,-0.34761235,0.46297354,-0.41389796137809753,0.29560402035713196,1.1077100038528442,18.238794326782227,-65.13152313232422, 1.8903052806854248
712,4268800364,0.44623643,0.6853032,-0.35190773,0.45540562,-0.13550491631031036,-0.28972727060317993,0.950379490852356,7.695951461791992,-76.84918975830078, -2.4627127647399902
713,4268817031,0.4418599,0.69166327,-0.3570151,0.44598517,-0.2859846353530884,-0.5153998136520386,1.0860322713851929,0.879929780960083,-88.92111206054688, -6.144403457641602
