PacketCounter,SampleTimeFine,Quat_W,Quat_X,Quat_Y,Quat_Z,Acc_X,Acc_Y,Acc_Z,Gyr_X,Gyr_Y,Gyr_Z 
1,4253125836,0.73666453,0.15635648,-0.6129116,0.23920177,0.04641302675008774,0.0057700015604496,0.16881340742111206,-0.26975879073143005,0.38083767890930176, -0.1516341120004654
2,4253142503,0.73903567,0.15684524,-0.6100165,0.23896874,17.36572265625,-1.0335294008255005,3.543304443359375,0.5507435202598572,3.5547802448272705, 4.46327543258667
3,4253159170,0.73984575,0.15643287,-0.609416,0.23826289,17.24118423461914,-1.047662615776062,3.5840883255004883,0.2745361626148224,3.1937949657440186, 4.526987552642822
4,4253175837,0.74013597,0.15568425,-0.60944235,0.2377847,17.393630981445312,-1.206295371055603,3.8480448722839355,1.8705787658691406,2.8559508323669434, 4.534671306610107
5,4253192504,0.74060315,0.1543661,-0.6091201,0.23801439,17.307016372680664,-1.0710443258285522,3.8468246459960938,1.4900764226913452,3.168182134628296, 4.584590435028076
6,4253209171,0.7411831,0.15309091,-0.60866606,0.23819414,17.350627899169922,-1.2571970224380493,3.613894462585449,-0.5098975896835327,3.3399665355682373, 4.715778350830078
7,4253225838,0.74139893,0.15184334,-0.60863185,0.23840877,17.424402236938477,-1.1815803050994873,3.8757519721984863,0.3732474744319916,2.9788272380828857, 4.582950592041016
8,4253242505,0.7417595,0.15080066,-0.6082873,0.23882768,17.291297912597656,-1.037756085395813,3.7604331970214844,0.2767132520675659,4.451135635375977, 4.442234992980957
9,4253259172,0.7420851,0.15002644,-0.60789317,0.23930755,17.054548263549805,-0.944799542427063,3.655304193496704,0.8427796959877014,4.752150058746338, 5.145701885223389
10,4253275839,0.7424509,0.14909856,-0.607701,0.23924036,16.750411987304688,-0.9959448575973511,3.274662494659424,-0.705655574798584,4.174582481384277, 5.11495304107666
11,4253292506,0.74252313,0.1487049,-0.6075909,0.2395404,16.921091079711914,-1.167712926864624,3.7777791023254395,1.3186763525009155,4.248654365539551, 5.289490699768066
12,4253309173,0.74263173,0.14823972,-0.6074822,0.23976773,16.895538330078125,-1.2413811683654785,3.437828779220581,3.7729244232177734,3.43729567527771, 5.508095741271973
13,4253325840,0.7426402,0.14793006,-0.6073195,0.24034443,17.269569396972656,-1.0909494161605835,3.577378511428833,3.0589957237243652,4.326619625091553, 5.554953575134277
14,4253342507,0.7428435,0.14744553,-0.60707366,0.2406352,16.915298461914062,-1.1207822561264038,3.8219337463378906,2.9645235538482666,5.648542881011963, 5.165231227874756
15,4253359174,0.74290866,0.14771819,-0.60651827,0.24166435,16.74677276611328,-1.2654192447662354,3.4146978855133057,7.788139343261719,5.664321422576904, 5.1336259841918945
16,4253375841,0.74301463,0.14765215,-0.6061386,0.24233088,16.80812644958496,-1.4145175218582153,3.517045021057129,6.794827461242676,5.317627429962158, 5.0601301193237305
17,4253392508,0.74300855,0.14779504,-0.6057718,0.24317826,16.794464111328125,-1.0868151187896729,3.737041473388672,6.413939476013184,4.889509677886963, 4.278608322143555
18,4253409175,0.7430575,0.14784878,-0.60546935,0.24374843,16.88530731201172,-1.3721734285354614,3.7340946197509766,5.953129291534424,4.221646308898926, 3.7628204822540283
19,4253425842,0.74321866,0.14756949,-0.6052006,0.24409309,16.960763931274414,-1.1826198101043701,3.7297449111938477,3.2423439025878906,4.637941360473633, 3.6076834201812744
20,4253442509,0.7433897,0.14727573,-0.60495186,0.2443664,16.94432258605957,-1.2034152746200562,3.843465566635132,1.713188648223877,4.494497299194336, 3.1529550552368164
21,4253459176,0.7435831,0.14698918,-0.6046796,0.2446247,16.466955184936523,-0.9833449125289917,3.618839740753174,1.6903166770935059,4.4469218254089355, 3.0402727127075195
22,4253475843,0.74364275,0.14665985,-0.60458446,0.24487635,16.786413192749023,-1.145872712135315,3.596222400665283,-0.08595623821020126,3.110861301422119, 3.5331122875213623
23,4253492510,0.74366355,0.14650172,-0.6044535,0.2452305,16.592313766479492,-1.0764830112457275,3.7293951511383057,0.7162783741950989,3.0603530406951904, 3.2912254333496094
24,4253509177,0.7436787,0.14636396,-0.6043427,0.24554011,16.850793838500977,-1.10420560836792,3.718290328979492,1.9268373250961304,2.626499652862549, 3.4195845127105713
25,4253525844,0.7437028,0.14606673,-0.6042783,0.24580225,16.84796142578125,-1.1449087858200073,3.7170495986938477,0.21841871738433838,2.659104347229004, 3.804760694503784
26,4253542511,0.743717,0.14570166,-0.60423106,0.24609129,16.711742401123047,-1.1217966079711914,3.7286953926086426,-0.49300605058670044,2.678147077560425, 4.179102420806885
27,4253559178,0.7437304,0.14522643,-0.6042386,0.24631305,16.874624252319336,-1.1204289197921753,3.7334413528442383,-1.3177223205566406,2.4437143802642822, 4.41160249710083
28,4253575845,0.7438257,0.1448554,-0.60409075,0.24660648,16.698007583618164,-1.061692714691162,3.7394144535064697,-0.0956762433052063,3.426140546798706, 4.145806312561035
29,4253592512,0.743824,0.14470208,-0.60393935,0.24707228,16.594017028808594,-1.1392340660095215,3.6831917762756348,0.8714146614074707,2.8711133003234863, 4.126943111419678
30,4253609179,0.74384975,0.14461176,-0.60368294,0.24767284,16.55294418334961,-1.3006430864334106,3.4647302627563477,2.2693047523498535,2.996346950531006, 3.966684103012085
31,4253625846,0.7439188,0.14454156,-0.60336906,0.24827093,16.79334831237793,-1.094261646270752,3.8510022163391113,3.203284502029419,2.8803980350494385, 3.347599506378174
32,4253642513,0.7440539,0.14427912,-0.60310066,0.24867107,16.553991317749023,-1.3220632076263428,3.715620517730713,1.9019674062728882,2.7744128704071045, 3.0526819229125977
33,4253659180,0.74423784,0.14384161,-0.60283536,0.24901673,16.729047775268555,-1.183719277381897,3.538576126098633,0.5782387852668762,3.1630473136901855, 3.3158528804779053
34,4253675847,0.7443874,0.14327069,-0.60269797,0.24923104,16.762582778930664,-1.2443172931671143,3.8082010746002197,-1.3804348707199097,2.5026488304138184, 3.23769474029541
35,4253692514,0.7445483,0.14279258,-0.6024653,0.24958766,16.62675666809082,-1.2064318656921387,3.667447566986084,-0.38786596059799194,3.0257182121276855, 3.4075522422790527
36,4253709181,0.74460983,0.14234085,-0.602333,0.24998078,16.93323516845703,-1.2334197759628296,3.5505974292755127,-0.2393762767314911,2.09389591217041, 3.7374117374420166
37,4253725848,0.7447608,0.14172545,-0.60220575,0.25018728,16.873472213745117,-1.099021315574646,3.8236703872680664,-1.2068575620651245,2.4717729091644287, 3.489531993865967
38,4253742515,0.7448724,0.1411762,-0.60205233,0.2505349,16.824039459228516,-1.2476346492767334,3.661787748336792,-0.9481053948402405,2.531770706176758, 3.8026349544525146
39,4253759182,0.74502224,0.1403858,-0.60193115,0.25082383,16.867399215698242,-1.1741935014724731,3.58898663520813,-2.8316125869750977,2.9144372940063477, 4.388564109802246
40,4253775849,0.7452136,0.13951115,-0.6018147,0.25102305,16.629741668701172,-1.23289954662323,3.6900675296783447,-3.26135516166687,3.083353281021118, 4.315017223358154
41,4253792516,0.7452198,0.1389102,-0.6017448,0.2515046,16.85768699645996,-1.4112423658370972,3.531067132949829,-0.9239142537117004,1.907704472541809, 4.912548542022705
42,4253809183,0.7453399,0.13810496,-0.6016298,0.25186747,17.091203689575195,-1.170920491218567,3.802233934402466,-1.9442598819732666,2.7983219623565674, 5.042596340179443
43,4253825850,0.7454628,0.13730133,-0.60153526,0.2521689,16.89901351928711,-1.4366674423217773,3.6556060314178467,-2.7126927375793457,2.6910691261291504, 4.620474338531494
44,4253842517,0.7455481,0.13664536,-0.6013726,0.25266019,16.986364364624023,-1.411246418952942,3.55679988861084,-1.090550422668457,2.8174288272857666, 4.963325500488281
45,4253859184,0.7455956,0.13583928,-0.6013749,0.25294912,16.869239807128906,-1.577656865119934,3.6984899044036865,-2.676847457885742,1.860589623451233, 4.835108280181885
46,4253875851,0.7456397,0.13527167,-0.6012522,0.25341448,16.885278701782227,-1.2758588790893555,3.68349027633667,-0.2580735683441162,2.211317539215088, 4.701435565948486
47,4253892518,0.74577063,0.13461317,-0.6010856,0.25377476,16.807310104370117,-1.4995882511138916,3.513157367706299,-1.8329472541809082,2.927435874938965, 4.184072017669678
48,4253909185,0.74586874,0.13396218,-0.60095656,0.25413686,16.6956787109375,-1.4907692670822144,3.5186119079589844,-1.8506460189819336,2.5949316024780273, 4.246092796325684
49,4253925852,0.74600923,0.13331768,-0.6007667,0.25451124,16.69776725769043,-1.3706501722335815,3.612445116043091,-1.4904927015304565,3.0612878799438477, 4.204638481140137
50,4253942519,0.7461671,0.13271062,-0.60054874,0.25487995,16.666650772094727,-1.3962210416793823,3.4677531719207764,-1.4972416162490845,3.230318784713745, 3.9148950576782227
51,4253959186,0.74628437,0.13203794,-0.60043395,0.25515664,16.804349899291992,-1.5092543363571167,3.5067873001098633,-1.8716228008270264,2.5122926235198975, 4.004373550415039
52,4253975853,0.74645936,0.1314969,-0.60018325,0.25551364,16.683443069458008,-1.3210827112197876,3.688535213470459,-1.1343096494674683,3.344602346420288, 3.5328047275543213
53,4253992520,0.7465714,0.13091557,-0.600043,0.25581405,16.746728897094727,-1.596575379371643,3.39021897315979,-1.568560242652893,2.520360231399536, 3.6594083309173584
54,4254009187,0.74669045,0.13028449,-0.59990364,0.25611576,16.775175094604492,-1.4122350215911865,3.727820634841919,-2.053434371948242,2.6653153896331787, 3.7999322414398193
55,4254025854,0.7468641,0.12969229,-0.59968954,0.25641078,16.39259147644043,-1.557305097579956,3.489697217941284,-1.7135281562805176,3.1880064010620117, 3.4671082496643066
56,4254042521,0.7468964,0.12927997,-0.59951866,0.25692415,16.69066047668457,-1.43941068649292,3.521286725997925,0.03257295489311218,2.278999090194702, 4.100164890289307
57,4254059188,0.7470388,0.12867168,-0.59937894,0.2571418,16.493885040283203,-1.5198423862457275,3.676578998565674,-1.567971110343933,2.5645806789398193, 3.426921844482422
58,4254075855,0.7470652,0.12833989,-0.5992618,0.25750306,16.69696807861328,-1.5329089164733887,3.511258363723755,0.15460467338562012,1.6504120826721191, 3.160024642944336
59,4254092522,0.74718064,0.12809186,-0.59902513,0.2578423,16.555992126464844,-1.3353335857391357,3.6828184127807617,0.38321080803871155,2.497833728790283, 2.3763911724090576
60,4254109189,0.7473313,0.12783134,-0.5987937,0.2580726,16.47991371154785,-1.526236891746521,3.5157182216644287,0.3181673586368561,2.47788143157959, 1.9414619207382202
61,4254125856,0.74753284,0.12755965,-0.59849036,0.25832656,16.36728858947754,-1.320306658744812,3.44252872467041,0.20859624445438385,3.124614953994751, 1.8919651508331299
62,4254142523,0.7477273,0.12727413,-0.598224,0.25852156,16.542640686035156,-1.3888912200927734,3.532738447189331,-0.3727288246154785,2.903909921646118, 1.637118935585022
63,4254159190,0.7479717,0.12698345,-0.597868,0.25878087,16.33225440979004,-1.4134315252304077,3.4764037132263184,0.07611455023288727,3.6225132942199707, 1.8467592000961304
64,4254175857,0.7481958,0.1268057,-0.59743685,0.25921556,16.501998901367188,-1.3247287273406982,3.3953843116760254,1.8399711847305298,3.8386709690093994, 2.336857795715332
65,4254192524,0.74841726,0.12642206,-0.5971159,0.25950325,16.47211265563965,-1.2455220222473145,3.5548036098480225,-0.3512653708457947,3.544163942337036, 2.439833879470825
66,4254209191,0.7486887,0.126042,-0.59672564,0.25980255,16.316015243530273,-1.323190450668335,3.5662453174591064,0.38630998134613037,4.033315658569336, 2.4967710971832275
67,4254225858,0.74883527,0.12592612,-0.5963356,0.26033115,16.3756046295166,-1.4088143110275269,3.4545955657958984,2.5744800567626953,3.274564743041992, 2.758955478668213
68,4254242525,0.749024,0.12566386,-0.5959851,0.26071757,16.472097396850586,-1.2854423522949219,3.6323647499084473,0.6280553936958313,3.4489097595214844, 2.4505012035369873
69,4254259192,0.74926406,0.12560332,-0.5954763,0.26121908,16.2733097076416,-1.347538948059082,3.586240291595459,3.0671403408050537,4.122934341430664, 2.1773548126220703
70,4254275859,0.74947613,0.12544449,-0.5950713,0.2616098,16.476036071777344,-1.3813672065734863,3.4070544242858887,1.881797432899475,3.562925338745117, 2.1335699558258057
71,4254292526,0.7497936,0.12516747,-0.59461373,0.26187256,16.466014862060547,-1.2495309114456177,3.649894952774048,0.7651923298835754,4.370014190673828, 1.7279096841812134
72,4254309193,0.7500135,0.12515962,-0.59414434,0.26231188,16.53103256225586,-1.2956218719482422,3.434386730194092,2.691606283187866,3.738333225250244, 1.6273859739303589
73,4254325860,0.7502972,0.124985546,-0.5936759,0.26264396,16.603723526000977,-1.1851754188537598,3.533127784729004,1.422676920890808,4.194394111633301, 1.664780855178833
74,4254342527,0.75053567,0.12504372,-0.59317017,0.26307693,16.413808822631836,-1.2842358350753784,3.5418148040771484,3.2196128368377686,3.8620946407318115, 1.3139252662658691
75,4254359194,0.75079393,0.12518916,-0.59257185,0.2636189,16.424606323242188,-1.2166337966918945,3.369839668273926,4.20150089263916,4.3658576011657715, 1.389751672744751
76,4254375861,0.7510627,0.12527621,-0.5920031,0.2640892,16.435970306396484,-1.3119925260543823,3.4971940517425537,3.6505210399627686,4.291811943054199, 1.2970207929611206
77,4254392528,0.75137943,0.1253623,-0.5913491,0.2646124,16.18079948425293,-1.1353791952133179,3.547321319580078,3.8832759857177734,4.989399433135986, 1.3892649412155151
78,4254409195,0.751682,0.12513374,-0.5908845,0.26489893,16.42076873779297,-1.2357509136199951,3.294691324234009,1.4116630554199219,4.262868881225586, 1.767333745956421
79,4254425862,0.7519854,0.124922305,-0.59040743,0.265201,16.56259536743164,-0.9490930438041687,3.6888389587402344,1.1912401914596558,4.37252950668335, 1.6556880474090576
80,4254442529,0.7522739,0.124757044,-0.5899587,0.26545876,16.239137649536133,-1.1904370784759521,3.429110288619995,1.4668586254119873,4.008816719055176, 1.3727959394454956
81,4254459196,0.7525265,0.1248645,-0.589348,0.26604822,16.441707611083984,-1.0199569463729858,3.4179468154907227,4.439788818359375,4.50592041015625, 1.879901647567749
82,4254475863,0.7528243,0.124873444,-0.5887699,0.266481,16.509695053100586,-1.108655333518982,3.565345048904419,3.251474618911743,4.564150810241699, 1.4354573488235474
83,4254492530,0.7531037,0.1251103,-0.5880263,0.26722157,16.375972747802734,-1.077441692352295,3.5339572429656982,6.001062870025635,5.19517183303833, 2.0035855770111084
84,4254509197,0.75342965,0.124968484,-0.5874107,0.2677227,16.528038024902344,-0.9198503494262695,3.6223034858703613,2.8059165477752686,5.212204456329346, 2.326280355453491
85,4254525864,0.753714,0.12455451,-0.5869924,0.26803264,16.349637985229492,-1.2125343084335327,3.4389724731445312,0.4855208098888397,4.3356733322143555, 2.745483160018921
86,4254542531,0.7539565,0.12431453,-0.58650905,0.26851946,16.497215270996094,-0.8573780655860901,3.7903976440429688,2.143507719039917,4.355254173278809, 2.948822259902954
87,4254559198,0.75419027,0.12386744,-0.5861763,0.26879615,16.267377853393555,-1.1140848398208618,3.425708532333374,-0.1561606377363205,3.7575559616088867, 2.816174268722534
88,4254575865,0.7543831,0.12337325,-0.58590865,0.26906592,16.294269561767578,-1.0364387035369873,3.392310619354248,-0.6456449627876282,3.360456943511963, 3.063938856124878
89,4254592532,0.7545663,0.12285954,-0.5857198,0.2691981,16.28459930419922,-1.041443109512329,3.60103440284729,-1.1555811166763306,2.7983222007751465, 2.604626178741455
90,4254609199,0.7547303,0.12236514,-0.5855286,0.26937956,16.193836212158203,-1.083589792251587,3.5031678676605225,-0.9683907628059387,2.757662296295166, 2.7780497074127197
91,4254625866,0.7549286,0.12175279,-0.58536524,0.26945668,16.13054656982422,-0.9642321467399597,3.4050369262695312,-1.9034206867218018,2.854478120803833, 2.7237889766693115
92,4254642533,0.75503093,0.121168666,-0.5853196,0.2695324,16.383018493652344,-1.0818817615509033,3.414501667022705,-1.963917851448059,1.8106709718704224, 2.8594725131988525
93,4254659200,0.7551625,0.12060075,-0.58524734,0.26957545,16.54664421081543,-0.8918787240982056,3.6391921043395996,-2.108015298843384,2.025958299636841, 2.5085530281066895
94,4254675867,0.755421,0.12010845,-0.58494604,0.26972434,16.368005752563477,-0.9400869011878967,3.518281936645508,-0.8384188413619995,3.650904417037964, 2.3721389770507812
95,4254692534,0.75557154,0.1195931,-0.5847999,0.26984885,16.161237716674805,-1.1091169118881226,3.338108539581299,-1.3428868055343628,2.4458529949188232, 2.6401636600494385
96,4254709201,0.7557613,0.11898339,-0.5846142,0.26998943,16.219100952148438,-0.9718443155288696,3.4869909286499023,-1.7731801271438599,3.005554676055908, 2.981952667236328
97,4254725868,0.7559721,0.11850451,-0.58433324,0.27021822,16.184505462646484,-0.9582682847976685,3.4689574241638184,-0.4228912889957428,3.3901548385620117, 2.8486764430999756
98,4254742535,0.7560444,0.11806822,-0.584216,0.27046022,16.276968002319336,-1.1522468328475952,3.2051262855529785,-0.4258880019187927,1.928361177444458, 3.1124491691589355
99,4254759202,0.7562182,0.11759422,-0.5839687,0.27071494,16.424842834472656,-0.8763040900230408,3.708258628845215,-0.5372135639190674,3.117110013961792, 2.9961414337158203
100,4254775869,0.7563458,0.11732601,-0.58371514,0.27102095,16.297378540039062,-1.2287838459014893,3.3901567459106445,0.7735611796379089,2.6236305236816406, 2.518669366836548
101,4254792536,0.75653785,0.11694278,-0.5833897,0.2713515,16.344493865966797,-1.0218641757965088,3.3217968940734863,0.43657490611076355,3.4813616275787354, 2.955059289932251
102,4254809203,0.7567988,0.11651253,-0.58304,0.27156016,16.12415885925293,-1.024057149887085,3.4187557697296143,-0.2734796106815338,3.873504877090454, 2.376762866973877
103,4254825870,0.7569921,0.116174474,-0.5827135,0.27186653,16.049652099609375,-1.0121736526489258,3.209301233291626,0.6386078596115112,3.385326623916626, 2.6738572120666504
104,4254842537,0.75725037,0.115743555,-0.58235645,0.2720967,15.991774559020996,-0.8692455291748047,3.215097427368164,0.027719348669052124,3.895724296569824, 2.5630440711975098
105,4254859204,0.7573966,0.11546876,-0.5820652,0.27242917,16.1385498046875,-1.0858533382415771,3.3331522941589355,0.9297602772712708,2.9451467990875244, 2.6464388370513916
106,4254875871,0.75761604,0.115328945,-0.5815929,0.2728863,15.848057746887207,-0.826641321182251,3.3701372146606445,2.56856369972229,4.006716728210449, 2.528428554534912
107,4254892538,0.75779396,0.1150033,-0.58127195,0.27321368,15.994519233703613,-1.107435703277588,3.0879323482513428,0.8593124747276306,3.2954771518707275, 2.81069278717041
108,4254909205,0.7579701,0.11459708,-0.5809587,0.273562,16.21833038330078,-1.0127689838409424,3.4336607456207275,0.38533666729927063,3.4448251724243164, 3.212453842163086
109,4254925872,0.7581611,0.11427659,-0.5805978,0.2739322,16.17412567138672,-1.098999261856079,3.4435269832611084,1.0066369771957397,3.611051559448242, 2.9266676902770996
110,4254942539,0.75840646,0.11383483,-0.5802196,0.27423847,16.303386688232422,-1.0020171403884888,3.289153814315796,0.37874141335487366,4.054612636566162, 3.0557682514190674
111,4254959206,0.7587225,0.113251954,-0.57983744,0.27441353,15.890713691711426,-0.8721533417701721,3.419328451156616,-1.1097087860107422,4.558337688446045, 2.744215488433838
112,4254975873,0.7589465,0.1128325,-0.5794871,0.274707,15.71157169342041,-1.156172275543213,3.0204498767852783,0.44284990429878235,3.7757017612457275, 2.989751100540161
113,4254992540,0.7590645,0.11252218,-0.5792109,0.2750906,16.00168228149414,-1.055204153060913,3.252232074737549,1.1576621532440186,2.8664517402648926, 3.232316732406616
114,4255009207,0.7592467,0.11219418,-0.57888585,0.2754057,15.690677642822266,-0.87577885389328,3.3127167224884033,0.7408794164657593,3.379384756088257, 2.7600438594818115
115,4255025874,0.75934917,0.111990936,-0.578612,0.27578095,15.931732177734375,-1.1100225448608398,3.124282121658325,1.6189723014831543,2.6054065227508545, 2.783965826034546
116,4255042541,0.7595589,0.11166296,-0.57828575,0.2760207,15.784645080566406,-0.9248327016830444,3.335859537124634,0.7000783085823059,3.403524398803711, 2.420252799987793
117,4255059208,0.75975156,0.11143173,-0.57792896,0.2763306,15.757736206054688,-1.0866438150405884,3.0708119869232178,1.3595925569534302,3.4043824672698975, 2.3520591259002686
118,4255075875,0.7599898,0.11123238,-0.5775135,0.27662435,15.608718872070312,-0.7529706358909607,3.133674144744873,1.7800891399383545,3.787254571914673, 2.0975844860076904
119,4255092542,0.76018876,0.11102735,-0.577165,0.2768874,15.640588760375977,-0.9977541565895081,3.108414888381958,1.3614108562469482,3.305785894393921, 2.038431406021118
120,4255109209,0.7603727,0.11076187,-0.576836,0.27717414,15.723280906677246,-0.9443134069442749,3.2140605449676514,1.2303764820098877,3.262577772140503, 2.490226984024048
121,4255125876,0.76060206,0.1103099,-0.57651734,0.2773885,15.85395336151123,-0.9174642562866211,3.2540998458862305,-0.19834476709365845,3.70884108543396, 2.734572172164917
122,4255142543,0.760778,0.109877914,-0.5762293,0.27767566,15.898747444152832,-1.0062955617904663,3.0974459648132324,0.20657286047935486,3.345921754837036, 3.172126531600952
123,4255159210,0.76096153,0.10948468,-0.5758986,0.2780138,16.048908233642578,-0.8729261755943298,3.368618965148926,0.6252507567405701,3.5738232135772705, 3.2153732776641846
124,4255175877,0.76119125,0.10898567,-0.5755636,0.27827466,15.569107055664062,-0.9270231127738953,3.103376626968384,-0.263144850730896,3.9198122024536133, 3.1391115188598633
125,4255192544,0.76134616,0.10861193,-0.5752427,0.27865982,15.500731468200684,-0.9832353591918945,2.9766225814819336,0.9859288334846497,3.3894500732421875, 3.4727675914764404
126,4255209211,0.7614517,0.10809619,-0.5750584,0.27895212,15.378793716430664,-0.9981220364570618,2.977799415588379,-1.0392353534698486,2.8090667724609375, 3.496652841567993
127,4255225878,0.761519,0.10786566,-0.5747889,0.27941266,15.452163696289062,-1.0268280506134033,3.111079692840576,1.311824917793274,2.6837821006774902, 3.2589023113250732
128,4255242545,0.76161516,0.107558355,-0.57453114,0.2797989,15.508295059204102,-1.0717260837554932,3.012619733810425,0.5727576613426208,2.8299920558929443, 3.1262543201446533
129,4255259212,0.7617039,0.107209265,-0.5743279,0.28010896,15.596261024475098,-1.1076492071151733,3.0066025257110596,-0.04582112655043602,2.543245315551758, 2.946913957595825
130,4255275879,0.7618885,0.1069103,-0.57400477,0.28038332,15.590761184692383,-0.9573130011558533,3.203944444656372,0.2364756464958191,3.430929660797119, 2.289832830429077
131,4255292546,0.7620861,0.106745474,-0.5736087,0.28071898,15.369606971740723,-1.0303986072540283,2.891038179397583,1.3111461400985718,3.6530306339263916, 2.006748676300049
132,4255309213,0.76228184,0.10660151,-0.57322323,0.28103048,15.256423950195312,-0.9129002094268799,2.8525071144104004,1.306330919265747,3.538311004638672, 1.8118871450424194
133,4255325880,0.76243263,0.10658573,-0.5728211,0.28144675,15.207772254943848,-1.0604848861694336,2.839099645614624,2.4561235904693604,3.28646183013916, 1.9341624975204468
134,4255342547,0.7625615,0.106721774,-0.5723738,0.28195527,15.303060531616211,-0.9533393979072571,2.9902615547180176,3.7189838886260986,3.2174484729766846, 1.8314813375473022
135,4255359214,0.7626834,0.106901065,-0.5719064,0.28250584,15.658836364746094,-1.1333683729171753,2.8574843406677246,4.15452766418457,3.2486445903778076, 1.8847813606262207
136,4255375881,0.7630011,0.10712504,-0.57113546,0.2831221,15.439898490905762,-0.7769330143928528,3.299922227859497,5.093566417694092,5.582590103149414, 1.4530407190322876
137,4255392548,0.7632477,0.10731892,-0.57051027,0.2836433,15.024917602539062,-1.0879443883895874,2.780691385269165,4.3283867835998535,4.530023097991943, 1.3266549110412598
138,4255409215,0.76341504,0.107459046,-0.5699779,0.28421003,15.350183486938477,-1.0021179914474487,2.787220001220703,4.102789878845215,3.8792295455932617, 2.001460075378418
139,4255425882,0.76362735,0.10757086,-0.5694634,0.28462848,15.082144737243652,-0.9296635985374451,3.1699817180633545,3.3051083087921143,3.919569730758667, 1.2641853094100952
140,4255442549,0.76376176,0.10768684,-0.5690033,0.28514397,15.119959831237793,-1.0671848058700562,2.6920182704925537,3.656526803970337,3.396404266357422, 1.9553439617156982
141,4255459216,0.76401275,0.10781727,-0.56839746,0.28563008,15.653190612792969,-0.8525247573852539,3.2018182277679443,3.8177709579467773,4.580812454223633, 1.4118295907974243
142,4255475883,0.76454043,0.10905185,-0.5667189,0.28708088,15.30599594116211,-1.1142619848251343,3.1152164936065674,15.287193298339844,9.852441787719727, 0.8342002034187317
143,4255492550,0.76510054,0.11059488,-0.5646151,0.28913653,15.109152793884277,-0.892920970916748,2.783167600631714,20.079784393310547,12.067017555236816, 2.43102765083313
144,4255509217,0.76558983,0.111320995,-0.56310546,0.29050383,14.78608512878418,-0.5595030188560486,2.951810359954834,11.98248291015625,9.782068252563477, 2.5795788764953613
145,4255525884,0.76614565,0.11186531,-0.5615495,0.29183766,14.80132007598877,-0.8621629476547241,2.7686400413513184,10.934142112731934,10.631219863891602, 2.9494519233703613
146,4255542551,0.7663714,0.11209214,-0.5606665,0.29285356,15.000842094421387,-0.8958581686019897,2.982555389404297,6.937772274017334,6.219208240509033, 3.686123847961426
147,4255559218,0.7665994,0.112068385,-0.56003714,0.29346982,15.016153335571289,-0.8925747275352478,3.189638614654541,3.564244508743286,5.100058555603027, 2.7433316707611084
148,4255575885,0.7667343,0.11216164,-0.5595384,0.2940327,15.124287605285645,-0.9989692568778992,2.944232225418091,3.7824385166168213,3.7857296466827393, 2.306532382965088
149,4255592552,0.76683,0.1124652,-0.55910635,0.29448903,15.139403343200684,-0.7467098832130432,3.0862300395965576,4.377108097076416,2.7913622856140137, 1.07167387008667
150,4255609219,0.76701224,0.11311455,-0.5584573,0.29499668,14.916253089904785,-0.8752692341804504,2.917806625366211,6.7681379318237305,3.6169302463531494, -0.3221566081047058
151,4255625886,0.76720035,0.11460645,-0.5573569,0.2960107,15.142770767211914,-1.0227766036987305,2.865267276763916,14.0665864944458,4.710402488708496, -1.2494652271270752
152,4255642553,0.7674283,0.11633414,-0.5560748,0.2971552,15.140576362609863,-0.8115755915641785,2.9795925617218018,16.150148391723633,5.450061321258545, -1.6939616203308105
153,4255659220,0.7677549,0.11853404,-0.5543819,0.29860157,15.233012199401855,-0.7946983575820923,3.0027918815612793,20.555334091186523,7.272052764892578, -2.438755750656128
154,4255675887,0.7679997,0.12066444,-0.55280477,0.30003944,15.213929176330566,-0.7528862357139587,2.8807151317596436,19.9849853515625,6.486201763153076, -1.9589520692825317
155,4255692554,0.76827025,0.1221932,-0.55148774,0.30114996,15.473248481750488,-0.7393754124641418,3.2432544231414795,15.006052017211914,6.1843647956848145, -1.240526556968689
156,4255709221,0.7684516,0.1236532,-0.55036783,0.3021383,15.508403778076172,-0.7623180150985718,3.2712419033050537,13.84572982788086,4.844114303588867, -1.2757823467254639
157,4255725888,0.7685625,0.1249296,-0.5494898,0.30292872,15.51727294921875,-0.5360936522483826,3.203026294708252,11.683873176574707,3.5131359100341797, -1.2758973836898804
158,4255742555,0.768574,0.12589537,-0.5489698,0.30344126,15.633841514587402,-0.5242145657539368,3.1912317276000977,8.330450057983398,1.6572766304016113, -1.0533225536346436
159,4255759222,0.7686132,0.12629649,-0.54879874,0.30348516,15.637995719909668,-0.32568538188934326,3.2228293418884277,2.8248186111450195,0.6943795680999756, -1.1495109796524048
160,4255775889,0.7686029,0.12633605,-0.5489003,0.30331072,15.682377815246582,-0.3904793858528137,3.169917583465576,-0.437772274017334,-0.3635338246822357, -0.5909873843193054
161,4255792556,0.768529,0.12595318,-0.5493335,0.30287275,15.793394088745117,-0.402229368686676,3.2569923400878906,-4.3024091720581055,-1.6983911991119385, 0.03852790966629982
162,4255809223,0.76842064,0.12514153,-0.55001986,0.30223823,15.44593334197998,-0.36548829078674316,3.2800610065460205,-7.809070587158203,-2.4369595050811768, 0.9174535274505615
163,4255825890,0.7681015,0.12419437,-0.55101544,0.30162534,15.662928581237793,-0.566990852355957,2.9421350955963135,-8.906270027160645,-4.565171241760254, 2.256434917449951
164,4255842557,0.7676776,0.123299584,-0.552152,0.30099258,15.465424537658691,-0.4338567554950714,2.880516529083252,-8.906820297241211,-5.8204121589660645, 2.2955970764160156
165,4255859224,0.76719904,0.122536615,-0.553293,0.30042872,15.706104278564453,-0.6042833924293518,3.023859977722168,-7.91247034072876,-6.255533218383789, 2.283686876296997
166,4255875891,0.766834,0.12174181,-0.5543048,0.29981783,15.629779815673828,-0.4855225682258606,2.957214832305908,-8.087252616882324,-5.106200695037842, 1.81912362575531
167,4255892558,0.766564,0.1211256,-0.5550971,0.29929164,15.689043998718262,-0.6142799258232117,2.882355213165283,-6.450623512268066,-3.8743698596954346, 1.2138948440551758
168,4255909225,0.7662947,0.12086345,-0.5555924,0.2991681,15.498059272766113,-0.6310259103775024,2.735565662384033,-2.437189817428589,-2.687899589538574, 1.7421313524246216
169,4255925892,0.76608586,0.12048838,-0.55606985,0.29896727,15.271461486816406,-0.25467953085899353,2.943025588989258,-3.340229034423828,-2.182061195373535, 1.633110523223877
170,4255942559,0.76571107,0.120166294,-0.55671304,0.2988601,15.711490631103516,-0.6097800135612488,2.8080408573150635,-2.909026622772217,-3.713226795196533, 2.4150025844573975
171,4255959226,0.7653019,0.12002499,-0.55731463,0.29884413,15.750800132751465,-0.15848448872566223,3.0207414627075195,-1.4938609600067139,-3.9075255393981934, 2.2464072704315186
172,4255975893,0.7648785,0.11955511,-0.5581922,0.2984777,15.119606018066406,-0.5180943012237549,2.5434398651123047,-5.1247053146362305,-5.0187458992004395, 1.9350591897964478
173,4255992560,0.76434165,0.119369395,-0.55897266,0.29846668,15.330764770507812,-0.49094879627227783,2.894747018814087,-1.9733691215515137,-5.220265865325928, 2.874225616455078
174,4256009227,0.76389205,0.1188407,-0.5598354,0.29821172,14.940302848815918,-0.4029746353626251,2.768970489501953,-4.9544196128845215,-4.804738998413086, 2.8084397315979004
175,4256025894,0.7632662,0.118278064,-0.5609162,0.29800725,15.132185935974121,-0.6928049325942993,2.559232234954834,-5.242255210876465,-6.5085978507995605, 3.754483222961426
176,4256042561,0.7626191,0.1178489,-0.5619306,0.29792264,15.556133270263672,-0.4022892713546753,2.863314628601074,-3.9247753620147705,-6.404097080230713, 3.86422061920166
177,4256059228,0.76207066,0.117353186,-0.562956,0.29758596,15.100096702575684,-0.4204186201095581,2.5779402256011963,-5.351865291595459,-6.137406826019287, 2.621018886566162
178,4256075895,0.7614896,0.117258735,-0.56376404,0.29758096,15.143180847167969,-0.7907531261444092,2.3015034198760986,-1.495692253112793,-5.664480209350586, 2.709318161010742
179,4256092562,0.76104665,0.117113374,-0.5644365,0.2974966,14.701554298400879,-0.42307519912719727,2.3259711265563965,-1.9009746313095093,-4.359487056732178, 2.10492205619812
180,4256109229,0.76065385,0.117030896,-0.5650776,0.29731628,14.623004913330078,-0.8344674110412598,2.1678285598754883,-1.921413540840149,-4.196167945861816, 1.2401094436645508
181,4256125896,0.76030314,0.11723789,-0.5654887,0.29734984,14.44699478149414,-0.6498412489891052,2.20196795463562,0.8629879355430603,-3.242004632949829, 0.9593684673309326
182,4256142563,0.76005423,0.11722758,-0.5658846,0.29723722,14.114755630493164,-0.49696317315101624,2.056920289993286,-0.8906559944152832,-2.4392635822296143, 0.8173203468322754
183,4256159230,0.7598111,0.11708855,-0.5663399,0.29704645,14.1724214553833,-0.5835988521575928,2.0023367404937744,-1.9934619665145874,-2.5297276973724365, 0.9443721771240234
184,4256175897,0.759518,0.117090285,-0.5667474,0.29701838,14.249824523925781,-0.6265109777450562,2.0695102214813232,-0.484899640083313,-2.6317431926727295, 1.306484580039978
185,4256192564,0.75930095,0.117213346,-0.5669248,0.29718605,14.21756649017334,-0.47191154956817627,2.1725664138793945,1.3217434883117676,-1.2259775400161743, 1.51125168800354
186,4256209231,0.75903857,0.117257096,-0.5672178,0.29728004,14.30704116821289,-0.5025498270988464,2.288919448852539,0.42032358050346375,-1.908376693725586, 1.6210854053497314
187,4256225898,0.7587566,0.117179535,-0.56761885,0.29726508,14.23947811126709,-0.5604707598686218,2.2014946937561035,-0.8432213068008423,-2.3937759399414062, 1.6522817611694336
188,4256242565,0.7584452,0.117139995,-0.56803375,0.2972822,14.088973045349121,-0.5188772082328796,2.1871838569641113,-0.5240742564201355,-2.635802984237671, 1.7416828870773315
189,4256259232,0.75819886,0.11677971,-0.5685495,0.29706636,13.79858112335205,-0.3732689619064331,2.0625901222229004,-3.364830255508423,-2.4426064491271973, 1.728505253791809
190,4256275899,0.7578321,0.116313025,-0.5692904,0.29676655,13.578593254089355,-0.7256067395210266,1.9554035663604736,-4.6121439933776855,-3.9380433559417725, 2.136502981185913
191,4256292566,0.7574528,0.11588753,-0.56995547,0.29662478,13.488809585571289,-0.538922905921936,1.9501426219940186,-3.612414836883545,-3.5498692989349365, 2.7603766918182373
192,4256309233,0.75711113,0.11541156,-0.5705895,0.2964638,13.30430793762207,-0.5782291889190674,1.8243234157562256,-3.9158105850219727,-3.152193784713745, 2.7580461502075195
193,4256325900,0.75678957,0.11500591,-0.5711246,0.2964122,13.106559753417969,-0.5061560273170471,1.798208475112915,-2.933102607727051,-2.6122138500213623, 2.9336211681365967
194,4256342567,0.7564012,0.11451332,-0.5718348,0.29622468,13.035914421081543,-0.6792500615119934,1.795242190361023,-4.224187850952148,-3.712791919708252, 2.8445918560028076
195,4256359234,0.75601935,0.11434472,-0.57236636,0.296238,13.201150894165039,-0.6511895060539246,1.8655438423156738,-1.3908720016479492,-3.256692886352539, 2.4611306190490723
196,4256375901,0.75567895,0.114103496,-0.57291365,0.29614148,12.995418548583984,-0.6700035333633423,1.8856563568115234,-2.2624595165252686,-3.110150098800659, 2.106830358505249
197,4256392568,0.7552843,0.11405116,-0.57349926,0.29603496,12.580034255981445,-0.7087151408195496,1.6690698862075806,-1.3557058572769165,-3.912391424179077, 1.4533735513687134
198,4256409235,0.7549357,0.11415884,-0.5739585,0.29599273,12.6014986038208,-0.7558969855308533,1.7597832679748535,-0.04962460696697235,-3.344813823699951, 0.9635306596755981
199,4256425902,0.75466096,0.11459867,-0.5741806,0.29609248,12.335345268249512,-0.92420494556427,1.7862104177474976,2.6623568534851074,-2.38246750831604, 0.05451022461056709
200,4256442569,0.75449747,0.11584394,-0.57378376,0.296793,12.141345977783203,-0.8984662294387817,1.5710314512252808,10.386087417602539,0.1056332066655159, -0.7266837954521179
201,4256459236,0.7547511,0.117133796,-0.5726707,0.29778993,12.487876892089844,-0.9771615266799927,1.7646182775497437,12.917996406555176,5.619231224060059, -0.7906261682510376
202,4256475903,0.7558569,0.118977495,-0.5695025,0.30031976,12.256770133972168,-0.9711344242095947,1.5510884523391724,25.348318099975586,19.74773597717285, 1.5784969329833984
203,4256492570,0.7569027,0.12100352,-0.56634915,0.30282864,11.60147762298584,-0.5998142957687378,1.5306179523468018,26.236804962158203,19.055593490600586, 0.8869006037712097
204,4256509237,0.75781006,0.12325784,-0.5634834,0.30498847,11.29792308807373,-0.4518294036388397,1.629183053970337,25.575546264648438,16.265762329101562, -1.2922545671463013
205,4256525904,0.7586987,0.12496293,-0.5609215,0.3068024,11.563458442687988,-0.9173351526260376,2.01625394821167,20.753334045410156,15.47751235961914, -0.6654067039489746
206,4256542571,0.7593731,0.12868595,-0.5573139,0.31015116,11.078695297241211,-0.8339916467666626,1.7345869541168213,39.585235595703125,17.173524856567383, -0.8966553807258606
207,4256559238,0.75912964,0.13319524,-0.55522054,0.31258845,10.335844993591309,-0.14551110565662384,1.2400695085525513,37.781494140625,3.278679370880127, -5.379449844360352
208,4256575905,0.7586546,0.13735631,-0.554065,0.31398842,10.365105628967285,-0.22982755303382874,1.3360613584518433,30.198646545410156,-2.6849758625030518, -8.101861953735352
209,4256592572,0.7582595,0.1406636,-0.5533488,0.31474084,10.372252464294434,-0.4833432734012604,1.793619155883789,22.251558303833008,-3.4255642890930176, -7.980932712554932
210,4256609239,0.75781786,0.14400761,-0.55270785,0.3154171,10.101706504821777,-0.38857898116111755,1.352066159248352,22.034645080566406,-4.146909713745117, -8.34765625
211,4256625906,0.75696737,0.14870797,-0.5520805,0.3163756,10.007318496704102,-0.768762469291687,1.302649736404419,30.54972267150879,-8.428363800048828, -11.136816024780273
212,4256642573,0.7557443,0.1549637,-0.55114573,0.31792337,9.65781021118164,-1.0915032625198364,1.2326990365982056,41.93410110473633,-11.02101993560791, -13.496788024902344
213,4256659240,0.75430787,0.16128916,-0.5499728,0.3202122,9.16963005065918,-1.4156583547592163,1.2912909984588623,45.85824966430664,-9.956633567810059, -9.72648811340332
214,4256675907,0.752944,0.16642222,-0.5487373,0.32290357,8.773600578308105,-1.150386095046997,1.3062773942947388,41.26236343383789,-6.295780658721924, -3.39568829536438
215,4256692574,0.75187546,0.17087564,-0.5472542,0.3255729,9.241271018981934,0.11952304095029831,1.3137682676315308,37.87805938720703,-2.428339958190918, -1.914162278175354
216,4256709241,0.75136966,0.17390622,-0.5461891,0.3269217,10.047831535339355,0.7673212289810181,1.3477559089660645,23.953088760375977,-0.8467702865600586, -4.1512250900268555
217,4256725908,0.7509482,0.17696947,-0.5452376,0.32783386,10.786588668823242,0.7767218351364136,1.2696913480758667,22.116817474365234,-1.7141071557998657, -6.562305450439453
218,4256742575,0.7501355,0.1810007,-0.5442851,0.32907388,11.555766105651855,0.5934813022613525,2.352480411529541,28.813316345214844,-4.952411651611328, -7.597725868225098
219,4256759242,0.74889034,0.18502605,-0.54385406,0.33038092,10.588273048400879,0.4927651882171631,2.4380922317504883,28.384872436523438,-9.17320442199707, -5.58910608291626
220,4256775909,0.74754256,0.18824454,-0.54399586,0.3313799,8.975646018981934,0.3932070732116699,1.4342150688171387,21.90229034423828,-11.085071563720703, -3.188185930252075
221,4256792576,0.74616164,0.19100016,-0.54423314,0.33252415,8.70805549621582,0.1018609032034874,1.245532751083374,19.889747619628906,-10.4658784866333, -0.5089508295059204
222,4256809243,0.7446537,0.19357988,-0.5446628,0.33370703,9.014386177062988,0.04317835345864296,1.704620361328125,18.860267639160156,-11.479936599731445, 0.8855925798416138
223,4256825910,0.74292314,0.1962351,-0.5452635,0.33502966,8.834050178527832,-0.2557869851589203,1.5885907411575317,19.675094604492188,-13.188274383544922, 2.051856756210327
224,4256842577,0.74074066,0.19977996,-0.5456858,0.3370731,8.781281471252441,-0.2956816852092743,1.3208866119384766,27.945484161376953,-15.057413101196289, 3.1866347789764404
225,4256859244,0.7384831,0.20355262,-0.54596937,0.3393035,8.730639457702637,0.490986168384552,0.8814438581466675,30.23611068725586,-14.905535697937012, 3.2555599212646484
226,4256875911,0.7364576,0.20696819,-0.5462985,0.3411048,8.576873779296875,0.5046367645263672,0.6107119917869568,26.379045486450195,-14.025725364685059, 1.9457454681396484
227,4256892578,0.7345571,0.2103655,-0.54646003,0.34286138,8.409280776977539,0.0010993052273988724,0.8352140784263611,26.333126068115234,-12.716024398803711, 1.2634204626083374
228,4256909245,0.73274136,0.21389332,-0.5462997,0.34481347,8.167969703674316,0.3905441462993622,0.58221834897995,28.364625930786133,-10.791471481323242, 1.0890363454818726
229,4256925912,0.7313849,0.21634485,-0.5461427,0.34640917,8.36120319366455,0.5474268198013306,0.4294717609882355,20.920175552368164,-7.046449661254883, 2.255605459213257
230,4256942579,0.73026896,0.2181528,-0.54598564,0.3478741,8.034608840942383,0.95493483543396,0.2721966505050659,16.83340835571289,-4.790245532989502, 3.449079990386963
231,4256959246,0.7295167,0.2189247,-0.5459197,0.34906912,7.803030490875244,0.6569352149963379,0.3852052092552185,9.850296974182129,-1.7952076196670532, 5.2680158615112305
232,4256975913,0.72879666,0.21945816,-0.54561865,0.35070512,7.695462703704834,0.459467351436615,0.5727016925811768,10.823760986328125,0.750676691532135, 7.953575134277344
233,4256992580,0.72807187,0.21970892,-0.5452516,0.35261947,7.382859706878662,0.23721864819526672,0.5683532953262329,10.617938041687012,2.170978546142578, 10.325837135314941
234,4257009247,0.7274147,0.21976861,-0.54480773,0.3546184,7.11350679397583,0.40146881341934204,0.748088002204895,10.063782691955566,3.402951240539551, 11.185210227966309
235,4257025914,0.7268317,0.21963972,-0.54432505,0.3566294,7.048192024230957,0.2526450455188751,0.8074209690093994,9.148305892944336,4.352170944213867, 11.716737747192383
236,4257042581,0.72634166,0.21923517,-0.5438924,0.35853168,6.850378036499023,-0.09958777576684952,0.8705203533172607,7.10145378112793,4.95958948135376, 12.053750991821289
237,4257059248,0.7257989,0.2188413,-0.54343617,0.36055753,6.432796478271484,-0.285147100687027,1.0908904075622559,7.757575035095215,5.0363383293151855, 12.718746185302734
238,4257075915,0.72530353,0.21839269,-0.5428717,0.36267072,6.5804762840271,-0.0681450366973877,0.7729417085647583,8.011716842651367,6.008891582489014, 13.068026542663574
239,4257092582,0.72470516,0.21804579,-0.5423443,0.3648581,6.295957088470459,0.10463685542345047,1.1076061725616455,8.860139846801758,5.297997951507568, 13.366979598999023
240,4257109249,0.7240269,0.21768165,-0.5417928,0.3672335,5.87673282623291,-0.3806191682815552,0.9283132553100586,9.655621528625488,5.435540199279785, 14.534077644348145
241,4257125916,0.7229424,0.2179217,-0.54107386,0.3702751,5.656680107116699,-0.8495113253593445,1.4605764150619507,16.1804256439209,4.221601963043213, 16.363136291503906
242,4257142583,0.7213964,0.21911168,-0.5400824,0.3740166,5.673428058624268,-0.2794196605682373,0.8870667219161987,24.89766502380371,2.4691038131713867, 17.051151275634766
243,4257159250,0.7198964,0.22018352,-0.53913754,0.3776233,5.81676721572876,-0.2975239157676697,0.6716301441192627,23.62554931640625,2.5068695545196533, 16.766448974609375
244,4257175917,0.7182306,0.22161739,-0.5381703,0.3813181,5.725445747375488,-0.6751266121864319,0.6997464895248413,26.05684471130371,1.2026164531707764, 16.250768661499023
245,4257192584,0.7163465,0.22377707,-0.5370526,0.3851577,5.577915668487549,0.5589132905006409,0.5773715972900391,30.91010284423828,-0.5397002100944519, 14.60737419128418
246,4257209251,0.71460515,0.22533277,-0.53667367,0.38800308,5.197442531585693,0.4324112832546234,0.8457951545715332,22.083620071411133,-3.574784994125366, 12.718302726745605
247,4257225918,0.7126497,0.2267131,-0.5369321,0.3904301,4.820523262023926,0.2788901627063751,0.9496400952339172,18.30634880065918,-7.679547309875488, 12.882719993591309
248,4257242585,0.71047306,0.22814159,-0.53755254,0.39270458,5.1039042472839355,-0.05415521562099457,0.7102595567703247,17.34931755065918,-10.645685195922852, 13.124774932861328
249,4257259252,0.70839304,0.2297196,-0.5381292,0.3947474,5.4306321144104,-0.11685961484909058,0.09941016137599945,17.19139862060547,-10.839994430541992, 11.112430572509766
250,4257275919,0.706876,0.23100059,-0.53865105,0.3960055,5.140175819396973,0.030037105083465576,0.14961810410022736,12.103758811950684,-8.90269947052002, 6.776491641998291
251,4257292586,0.7059301,0.23200667,-0.5388733,0.39680144,4.608354091644287,-0.3940154016017914,0.022693727165460587,8.964826583862305,-5.299884796142578, 3.5231375694274902
252,4257309253,0.7053093,0.23286314,-0.5388047,0.39749637,4.439730644226074,-0.41172170639038086,0.7063749432563782,8.143821716308594,-2.421757698059082, 2.229233503341675
253,4257325920,0.70473045,0.2339066,-0.5385743,0.39822182,4.459840774536133,-0.2858017683029175,0.5481200218200684,9.540584564208984,-1.949639081954956, 1.3027708530426025
254,4257342587,0.7042714,0.23502715,-0.53841525,0.39858884,4.071234226226807,-0.32645031809806824,0.5779469609260559,8.199748039245605,-2.6397993564605713, -0.9361188411712646
255,4257359254,0.70405954,0.23616344,-0.53828996,0.39846084,3.882343053817749,-0.5284579992294312,0.5877716541290283,5.952219486236572,-2.734553098678589, -4.020016193389893
256,4257375921,0.70423394,0.23686138,-0.5385308,0.39741153,3.7036917209625244,-0.26013514399528503,0.7527437210083008,-1.2083048820495605,-3.3783414363861084, -7.332263469696045
257,4257392588,0.7046988,0.23715623,-0.5390851,0.39565662,3.795163631439209,-0.21316905319690704,0.46166515350341797,-7.102634906768799,-3.879237174987793, -9.54150390625
258,4257409255,0.7049626,0.23820639,-0.5394975,0.3939901,3.592808246612549,-0.43250539898872375,0.03921189159154892,-2.4030871391296387,-5.849277973175049, -11.5968599319458
259,4257425922,0.7052868,0.23962103,-0.53985304,0.39206007,3.5114212036132812,-0.39262837171554565,0.5809444785118103,-1.5559600591659546,-6.7572126388549805, -14.490704536437988
260,4257442589,0.705855,0.24097076,-0.54044455,0.38938648,3.654229164123535,-0.5632100105285645,0.5083481073379517,-5.669917106628418,-8.052811622619629, -18.131513595581055
261,4257459256,0.70611566,0.24224302,-0.54217476,0.38570175,2.726090669631958,-0.09966801851987839,1.3188987970352173,-12.34054183959961,-16.19135856628418, -20.052047729492188
262,4257475923,0.7055455,0.24316733,-0.5459475,0.38081083,2.2390995025634766,-0.12783704698085785,2.633298635482788,-22.563190460205078,-30.327842712402344, -19.004066467285156
263,4257492590,0.7039448,0.24417631,-0.55201715,0.37432152,3.9147074222564697,-0.10988496243953705,3.2007415294647217,-32.44988250732422,-48.31523132324219, -20.53812599182129
264,4257509257,0.7006224,0.24573149,-0.5608351,0.36634463,6.363336563110352,-2.8995370864868164,4.425018310546875,-39.641536712646484,-72.13884735107422, -20.762592315673828
265,4257525924,0.6955116,0.2455969,-0.57325065,0.35683283,8.909175872802734,-9.535045623779297,8.326926231384277,-59.72650909423828,-94.80406951904297, -11.141881942749023
266,4257542591,0.6901648,0.2445889,-0.58789414,0.34384537,10.246097564697266,-2.4232568740844727,11.310456275939941,-82.62742614746094,-110.3186264038086, -20.285335540771484
267,4257559258,0.6848999,0.2410763,-0.60422474,0.3281876,7.7831621170043945,-6.2777509689331055,5.565156936645508,-109.45540618896484,-116.8659439086914, -20.25166893005371
268,4257575925,0.67917687,0.23737922,-0.61842406,0.31610414,6.184451580047607,-8.367857933044434,2.126803398132324,-89.896484375,-102.50241088867188, -5.353533744812012
269,4257592592,0.67340505,0.23109116,-0.6300394,0.31011793,5.363548755645752,-13.462425231933594,4.926477909088135,-63.688838958740234,-75.59607696533203, 30.72451400756836
270,4257609259,0.6643004,0.23223414,-0.6334063,0.32182133,1.971657395362854,-12.176469802856445,8.666321754455566,68.98956298828125,-39.692161560058594, 73.73783874511719
271,4257625926,0.659321,0.23139665,-0.6291988,0.34038296,-1.132873773574829,-3.2230217456817627,12.024005889892578,99.87196350097656,27.79521369934082, 92.11907196044922
272,4257642593,0.6640914,0.21858671,-0.6208224,0.3546579,-1.475178599357605,2.8859200477600098,11.714582443237305,20.837783813476562,109.60047149658203, 95.08348846435547
273,4257659260,0.67555237,0.19879337,-0.6075666,0.36738715,-2.818488836288452,2.7308943271636963,8.83506965637207,-20.671314239501953,175.52284240722656, 93.66014862060547
274,4257675927,0.69118446,0.17698964,-0.58741355,0.38194796,-1.5036253929138184,4.848550319671631,5.743358135223389,-10.671788215637207,232.39634704589844, 90.7660903930664
275,4257692594,0.70781904,0.15608044,-0.56227565,0.39809212,0.9962223768234253,6.40819787979126,-0.22554965317249298,11.809186935424805,259.66351318359375, 86.21196746826172
276,4257709261,0.72166187,0.14542162,-0.531538,0.41895634,2.7598540782928467,5.189267158508301,-4.371430397033691,98.25410461425781,253.2846221923828, 71.48834228515625
277,4257725928,0.7326323,0.14782478,-0.4957004,0.4423564,3.694395065307617,3.8593504428863525,-7.571958541870117,189.9195556640625,233.29380798339844, 39.78358459472656
278,4257742595,0.7426747,0.15374807,-0.4589955,0.46273026,5.675878047943115,4.585675239562988,-7.7854461669921875,200.94204711914062,221.08802795410156, 14.698724746704102
279,4257759262,0.7538219,0.14989914,-0.4297887,0.47388276,6.543160915374756,4.0832929611206055,-11.13387680053711,96.86231231689453,207.99124145507812, 3.0591020584106445
280,4257775929,0.76546216,0.13607612,-0.40958205,0.47727755,4.692798137664795,3.346630334854126,-11.735844612121582,-7.609135627746582,187.75315856933594, 0.13673119246959686
281,4257792596,0.7742138,0.12063032,-0.39619303,0.4786153,3.160642147064209,-0.16375687718391418,-14.4764986038208,-41.611351013183594,147.52294921875, 9.834550857543945
282,4257809263,0.77806807,0.11462084,-0.38480893,0.48310915,2.191098690032959,-1.476274013519287,-15.792055130004883,14.776782989501953,95.45687866210938, 18.705726623535156
283,4257825930,0.776822,0.11937665,-0.3757192,0.49105224,2.230285167694092,-0.533504843711853,-16.8333797454834,78.02327728271484,37.007904052734375, 27.37565040588379
284,4257842597,0.77198803,0.12920024,-0.37250915,0.49857706,2.8302876949310303,1.815974473953247,-15.94568920135498,87.2160415649414,-20.77096176147461, 28.947776794433594
285,4257859264,0.7648622,0.13912842,-0.37753043,0.5030907,3.4988651275634766,1.811826467514038,-14.702874183654785,53.92673110961914,-73.05635070800781, 27.87744903564453
286,4257875931,0.75596696,0.14941107,-0.38889894,0.50492376,4.31932258605957,1.1108298301696777,-12.287060737609863,28.609933853149414,-114.54911804199219, 25.075223922729492
287,4257892598,0.74531114,0.16037096,-0.40438697,0.5052363,4.552163124084473,-0.5312966704368591,-9.70122241973877,15.613346099853516,-144.36778259277344, 25.720827102661133
288,4257909265,0.7324455,0.1735018,-0.420833,0.5062812,4.3180766105651855,-1.7723686695098877,-7.1452813148498535,27.947298049926758,-162.0055694580078, 32.14373016357422
289,4257925932,0.7180535,0.18810384,-0.43609884,0.5087575,3.4094464778900146,-1.5771725177764893,-5.465360164642334,45.49876022338867,-163.8115234375, 38.93025588989258
290,4257942599,0.7043576,0.2023862,-0.44810808,0.5119761,2.3784971237182617,1.9303920269012451,-0.26855915784835815,56.6874885559082,-143.54200744628906, 36.827880859375
291,4257959266,0.6951154,0.20904176,-0.45562753,0.5152861,9.906023025512695,0.3522573709487915,31.959402084350586,29.59943199157715,-81.2198257446289, 38.86322021484375
292,4257975933,0.68672836,0.2109773,-0.47283548,0.51021504,18.442241668701172,14.340295791625977,-11.324265480041504,-54.960052490234375,-120.99768829345703, 24.539447784423828
293,4257992600,0.67586404,0.2126894,-0.49755964,0.50040543,6.455928802490234,-7.758827209472656,-3.4516313076019287,-94.317626953125,-170.2002716064453, 23.00711441040039
294,4258009267,0.66357845,0.22086754,-0.5097401,0.50104517,-7.8535637855529785,6.500354290008545,-2.679215908050537,16.86578941345215,-123.67117309570312, 35.79662322998047
295,4258025934,0.65738904,0.2169409,-0.5247707,0.49537086,3.034304618835449,-6.216380596160889,-6.694242000579834,-79.6152572631836,-83.35016632080078, 32.84940719604492
296,4258042601,0.6492809,0.2208305,-0.53219754,0.49642152,5.641299247741699,-7.082769393920898,-1.0768080949783325,8.858441352844238,-72.38888549804688, 30.07077980041504
297,4258059268,0.64518076,0.21992797,-0.5406267,0.49304798,0.3175770044326782,-0.5677740573883057,-0.13270744681358337,-38.1605339050293,-52.5831413269043, 15.52470588684082
298,4258075935,0.6428859,0.21499634,-0.54999584,0.48783088,1.7736732959747314,-1.5832451581954956,-1.889296531677246,-68.814697265625,-39.278316497802734, 17.623655319213867
299,4258092602,0.6388379,0.21574952,-0.5551944,0.48692718,1.2652978897094727,-1.0025304555892944,-1.4237414598464966,-10.783443450927734,-40.19724655151367, 14.884418487548828
300,4258109269,0.63337475,0.22173986,-0.5569205,0.48939505,1.431480050086975,-1.7132599353790283,-0.8903768062591553,38.81205368041992,-42.92826461791992, 9.252373695373535
301,4258125936,0.62961817,0.22454987,-0.56044024,0.48894313,-0.3660231828689575,-0.9588872194290161,-0.3491879403591156,5.141206741333008,-38.01998519897461, 5.652234077453613
302,4258142603,0.6270275,0.22584482,-0.56490815,0.48652828,-0.14129893481731415,-1.3715436458587646,-1.2144672870635986,-13.987076759338379,-35.6644401550293, 0.5035673975944519
303,4258159270,0.62417156,0.22831434,-0.56897956,0.48429853,-1.0343974828720093,-1.4518377780914307,-0.9407093524932861,-6.477627277374268,-38.69131851196289, -3.0274758338928223
304,4258175937,0.620418,0.23187919,-0.57326293,0.4823728,-0.19741880893707275,1.1593263149261475,0.13588528335094452,0.10185606777667999,-46.356964111328125, -2.7351880073547363
305,4258192604,0.6155663,0.23564833,-0.57878655,0.48016077,0.9136746525764465,2.7404944896698,1.0447367429733276,-2.5558698177337646,-57.20692443847656, 0.8909673690795898
306,4258209271,0.60966706,0.23894005,-0.58586746,0.4774657,0.6931923031806946,3.8393397331237793,0.5848680734634399,-9.992305755615234,-67.28292083740234, 6.812443256378174
307,4258225938,0.60313386,0.24126443,-0.5944163,0.47401527,0.6649612784385681,1.8717944622039795,0.5699158906936646,-20.910512924194336,-74.14822387695312, 12.145500183105469
308,4258242605,0.595469,0.24423407,-0.6031137,0.47119033,0.3887330889701843,-0.4936058223247528,1.3348109722137451,-14.310115814208984,-80.53963470458984, 16.08473014831543
309,4258259272,0.5871732,0.24756694,-0.61232936,0.46796483,0.5725969076156616,-1.59014892578125,1.4832547903060913,-15.122231483459473,-87.22737884521484, 15.826403617858887
310,4258275939,0.5792817,0.24820527,-0.6236185,0.46252275,-0.36780455708503723,-3.5048320293426514,1.778120756149292,-42.707801818847656,-89.09513854980469, 20.400463104248047
311,4258292606,0.57225055,0.24777265,-0.63585925,0.454776,1.6255669593811035,-1.9343029260635376,0.9770508408546448,-61.3663330078125,-89.82166290283203, 14.596457481384277
312,4258309273,0.5655028,0.24689819,-0.6485719,0.44564867,2.5941591262817383,-1.005684733390808,1.1859605312347412,-71.1153793334961,-91.4721450805664, 10.978618621826172
313,4258325940,0.5586663,0.24529245,-0.6624247,0.43464622,3.002009868621826,0.8329373002052307,0.9384766817092896,-85.68370056152344,-97.30892944335938, 9.159628868103027
314,4258342607,0.551061,0.24353473,-0.677512,0.421901,3.2806313037872314,2.1525490283966064,1.8988561630249023,-96.61566162109375,-108.09605407714844, 7.594454288482666
315,4258359274,0.5424318,0.24240565,-0.69308925,0.40820926,3.9955148696899414,2.358550786972046,1.1384435892105103,-98.3690185546875,-118.21821594238281, 4.960806369781494
316,4258375941,0.5321321,0.243398,-0.7080209,0.395347,4.839612007141113,3.490293025970459,1.5326087474822998,-81.91197967529297,-128.4090576171875, 1.6520453691482544
317,4258392608,0.52099645,0.24457145,-0.7230409,0.38204667,5.412548542022705,3.532418966293335,1.5517239570617676,-82.21926879882812,-134.11131286621094, 1.710789442062378
318,4258409275,0.51036316,0.24474327,-0.7382427,0.36691713,5.811399936676025,3.0498528480529785,3.1794464588165283,-96.21195220947266,-132.8009033203125, -0.7577340006828308
319,4258425942,0.4998776,0.24426216,-0.75407964,0.34903133,6.223538398742676,0.841610848903656,5.551766872406006,-114.34283447265625,-137.41624450683594, -6.324309349060059
320,4258442609,0.48835155,0.24377814,-0.7711249,0.3277981,6.611123561859131,-0.6078926920890808,5.019942283630371,-132.8896026611328,-152.79721069335938, -13.265192031860352
321,4258459276,0.47464287,0.24534233,-0.7882521,0.3052545,9.27479362487793,-2.1651787757873535,10.903729438781738,-129.51210021972656,-171.65682983398438, -23.492231369018555
322,4258475943,0.45908633,0.24577871,-0.8064024,0.28026444,9.872142791748047,-5.371684551239014,10.48327350616455,-145.56309509277344,-187.15585327148438, -19.820526123046875
323,4258492610,0.4437151,0.24613285,-0.8217548,0.25933507,11.853282928466797,-7.02472448348999,17.0892333984375,-118.33114624023438,-170.62026977539062, -11.776477813720703
324,4258509277,0.42977574,0.24384105,-0.8362019,0.23790985,5.670810699462891,-7.641111373901367,13.562553405761719,-130.19483947753906,-156.42396545410156, -2.606844425201416
325,4258525944,0.4146646,0.24827135,-0.8474954,0.21946828,6.2019805908203125,-11.467365264892578,9.184328079223633,-86.20970916748047,-160.16201782226562, -36.02889633178711
326,4258542611,0.39905122,0.25797993,-0.85265034,0.21723759,6.509585380554199,-7.492384433746338,9.568246841430664,33.2348518371582,-126.08509063720703, -30.52579689025879
327,4258559278,0.39210883,0.26246163,-0.85554117,0.21310595,3.257352590560913,-2.634660482406616,18.37114906311035,-4.376642227172852,-64.82781219482422, -22.169811248779297
328,4258575945,0.39040124,0.26498267,-0.8551994,0.21448824,-0.646262526512146,-3.7734763622283936,14.130387306213379,17.981027603149414,-12.868395805358887, -9.292804718017578
329,4258592612,0.3939465,0.26777592,-0.85007757,0.22465655,-2.453010320663452,-3.0666656494140625,14.36928653717041,67.77619171142578,46.269866943359375, -3.80704665184021
330,4258609279,0.40457815,0.26680714,-0.84244233,0.23541792,-3.6750259399414062,-2.001589775085449,15.254171371459961,51.830169677734375,101.2538070678711, 4.182072639465332
331,4258625946,0.4202119,0.26328313,-0.8317233,0.24968112,-2.9354095458984375,-2.2546424865722656,13.763298988342285,60.78194808959961,149.2383575439453, 14.941840171813965
332,4258642613,0.4393005,0.26038352,-0.81626254,0.27005753,-1.886974811553955,-0.08313626050949097,10.952129364013672,99.40753173828125,192.59524536132812, 14.499255180358887
333,4258659280,0.46260628,0.25622365,-0.7967385,0.2924942,0.2010326087474823,1.1942983865737915,9.070489883422852,107.1889877319336,234.52749633789062, 12.743194580078125
334,4258675947,0.48935547,0.2502244,-0.7739463,0.3145258,1.6419990062713623,2.0034162998199463,7.088881969451904,99.6732406616211,266.7513427734375, 8.937962532043457
335,4258692614,0.5185351,0.24219562,-0.7483285,0.33536148,2.9640214443206787,1.5796527862548828,4.7332987785339355,88.46538543701172,291.539794921875, 5.7006988525390625
336,4258709281,0.549634,0.23132767,-0.72061,0.35371086,4.10053014755249,1.3894888162612915,2.7839269638061523,67.2488784790039,311.3844299316406, 3.59946870803833
337,4258725948,0.5820039,0.21651043,-0.6914772,0.36912635,5.240251541137695,0.6647164225578308,0.16487251222133636,39.25113296508789,328.0906066894531, 6.7936882972717285
338,4258742615,0.6140384,0.19843557,-0.6616723,0.3817985,5.943480491638184,0.5993927717208862,-2.2084083557128906,15.425252914428711,333.5648193359375, 11.172883987426758
339,4258759282,0.6440474,0.17956412,-0.6300038,0.39503837,6.425060272216797,-1.5930031538009644,-4.962652206420898,22.365427017211914,335.3500061035156, 19.988182067871094
340,4258775949,0.6708122,0.16374981,-0.59516925,0.41106075,7.006165504455566,-1.0712789297103882,-6.275380611419678,60.65769577026367,330.7924499511719, 23.951461791992188
341,4258792616,0.6942248,0.151977,-0.55781627,0.4287148,8.017350196838379,-1.0429635047912598,-8.087026596069336,96.96836853027344,319.4765319824219, 21.606595993041992
342,4258809283,0.7145224,0.14539717,-0.51864827,0.44645423,8.81285285949707,-0.374142050743103,-10.038208961486816,130.7985382080078,301.3912048339844, 9.432464599609375
343,4258825950,0.7322196,0.13896856,-0.482173,0.46049058,8.77144718170166,-0.42555636167526245,-11.73538589477539,112.75576782226562,275.1688232421875, 1.444423794746399
344,4258842617,0.74725664,0.12988979,-0.45218047,0.46932828,7.733186721801758,-0.31137943267822266,-13.923834800720215,64.27819061279297,237.6030731201172, -1.2772835493087769
345,4258859284,0.7588693,0.119978964,-0.4295759,0.47453895,6.768064022064209,-1.8361693620681763,-18.98815155029297,28.03791618347168,188.93077087402344, 0.3537376821041107
346,4258875951,0.76577765,0.1140863,-0.41440588,0.478369,4.343329429626465,-2.359820604324341,-22.728168487548828,24.70464515686035,122.5630874633789, 2.754342555999756
347,4258892618,0.7679719,0.112648204,-0.4081107,0.48059905,2.7105958461761475,-2.0066215991973877,-23.780376434326172,18.291662216186523,47.075435638427734, 4.067647457122803
348,4258909285,0.76559234,0.115936734,-0.411244,0.48094255,2.455132007598877,-2.396423101425171,-23.061630249023438,10.519715309143066,-32.0885124206543, 3.2194650173187256
349,4258925952,0.75893235,0.12458364,-0.4216016,0.4803674,2.9299163818359375,-3.130099058151245,-19.462783813476562,15.81971549987793,-100.18883514404297, 3.085078716278076
350,4258942619,0.7483135,0.13758078,-0.4357436,0.48085994,3.65368914604187,-4.566161155700684,-15.138710975646973,32.65589141845703,-144.48130798339844, 12.269386291503906
351,4258959286,0.73491216,0.15303114,-0.45092103,0.48286211,3.1037702560424805,-3.6588268280029297,-11.385226249694824,49.1483039855957,-164.5433807373047, 22.72093963623047
352,4258975953,0.72056174,0.16841409,-0.4659322,0.4851133,1.465257167816162,-1.4413416385650635,-7.919218063354492,51.21585464477539,-165.98231506347656, 27.02474021911621
353,4258992620,0.7072971,0.18398826,-0.47642675,0.48877087,3.6171512603759766,2.3653829097747803,10.304978370666504,70.49592590332031,-139.0728759765625, 24.430686950683594
354,4259009287,0.6970939,0.19141132,-0.48691016,0.4902453,7.350334644317627,9.160582542419434,7.681508541107178,19.72276496887207,-104.73387908935547, 30.264434814453125
355,4259025954,0.6896965,0.19433208,-0.50360024,0.4826395,10.690566062927246,4.835287094116211,-10.461956977844238,-57.08164978027344,-122.1055908203125, 0.8328245878219604
356,4259042621,0.6785821,0.20039219,-0.51915324,0.47942615,1.2390655279159546,-1.0975629091262817,-2.4399983882904053,-18.26316261291504,-133.826171875, 21.821674346923828
357,4259059288,0.6700129,0.20210758,-0.5326212,0.47597274,-2.419562578201294,1.8176794052124023,-1.754233717918396,-36.00699234008789,-101.06707000732422, 24.92489242553711
358,4259075955,0.66257745,0.20364316,-0.54268974,0.47435072,1.363573670387268,-3.727397918701172,-6.296513557434082,-20.597732543945312,-78.22781372070312, 25.62433433532715
359,4259092622,0.65512145,0.20861623,-0.5482568,0.47614056,3.676978588104248,-1.8127970695495605,-3.5842576026916504,22.57276725769043,-64.15306854248047, 21.995576858520508
360,4259109289,0.65027225,0.20983458,-0.5543678,0.47517565,0.7924091219902039,-0.8479018211364746,-1.3536696434020996,-10.220959663391113,-48.42045974731445, 15.953384399414062
361,4259125956,0.6483699,0.20657657,-0.56174046,0.47052148,-0.5959840416908264,1.3019863367080688,-0.5458378791809082,-52.680538177490234,-33.61008071899414, 8.715424537658691
362,4259142623,0.64840126,0.19915356,-0.57123864,0.46216917,0.926075279712677,-0.12614606320858002,-1.2026230096817017,-95.1939468383789,-27.518484115600586, 5.1622209548950195
363,4259159290,0.6466208,0.19615918,-0.5780885,0.45740244,-0.031363725662231445,-2.233044147491455,-1.2787542343139648,-50.4919319152832,-32.07374572753906, 5.92978048324585
364,4259175957,0.6424129,0.19965251,-0.5812179,0.45785415,-0.7755898833274841,-1.784246802330017,-0.8772650957107544,14.062808990478516,-38.63245391845703, 5.900183200836182
365,4259192624,0.63743657,0.20486061,-0.5837513,0.45928356,-0.8083151578903198,-0.7231804728507996,0.8380787372589111,28.461402893066406,-43.22780990600586, 4.892527103424072
366,4259209291,0.6333757,0.20743413,-0.58859205,0.45756528,-1.817596197128296,-1.403787612915039,1.1389974355697632,-4.329295635223389,-45.92571258544922, 1.9956605434417725
367,4259225958,0.6297987,0.20815167,-0.5951503,0.45367694,-1.8338218927383423,-2.5305604934692383,0.8129088878631592,-27.32149887084961,-48.855712890625, 0.9375824332237244
368,4259242625,0.6248851,0.21104269,-0.6012728,0.45105514,-0.5408393144607544,-1.4839115142822266,0.28184381127357483,-9.479437828063965,-57.53639221191406, 0.9978891611099243
369,4259259292,0.6182739,0.21639991,-0.60719043,0.4496982,0.006179512944072485,0.6984639763832092,0.7374626994132996,9.416077613830566,-69.58786010742188, 1.1638805866241455
370,4259275959,0.61072814,0.2218471,-0.614355,0.44761956,0.10481543093919754,1.5407575368881226,0.4973059594631195,4.278897762298584,-80.2499008178711, 2.49230694770813
371,4259292626,0.60280496,0.22645503,-0.62288785,0.44424713,-0.1162203773856163,1.2726852893829346,0.8202816247940063,-8.383915901184082,-87.07233428955078, 3.906548023223877
372,4259309293,0.59486955,0.22976705,-0.63282996,0.43916273,-0.2014712393283844,-0.038269542157649994,1.103022575378418,-25.40890884399414,-91.76941680908203, 4.638781547546387
373,4259325960,0.5868358,0.2312793,-0.64373845,0.43328345,0.7987684607505798,-4.068232536315918,2.7026827335357666,-39.022274017333984,-92.06898498535156, 11.050948143005371
374,4259342627,0.5793339,0.231513,-0.65511125,0.42614922,0.4285808801651001,-1.7977579832077026,0.19620035588741302,-51.99945831298828,-89.90747833251953, 10.702710151672363
375,4259359294,0.57364094,0.22953275,-0.6687985,0.41347235,2.4913620948791504,0.10310649126768112,0.8438732028007507,-95.46823120117188,-93.36437225341797, -3.0415968894958496
376,4259375961,0.56761646,0.22627416,-0.6842836,0.39795434,2.7734568119049072,1.037799596786499,1.986218810081482,-118.19490814208984,-102.89608764648438, -4.530831336975098
377,4259392628,0.5592647,0.22468977,-0.700072,0.3829319,3.4104926586151123,1.0645153522491455,1.4916576147079468,-106.57109832763672,-118.9405746459961, -3.5516865253448486
378,4259409295,0.54829884,0.22605707,-0.7151082,0.36998248,4.399458885192871,2.797067403793335,1.4257891178131104,-79.243408203125,-133.28785705566406, -3.989990472793579
379,4259425962,0.5365403,0.2281531,-0.73018247,0.35623667,4.427155494689941,3.271669626235962,1.6010470390319824,-79.28784942626953,-140.5125274658203, -8.372511863708496
380,4259442629,0.5241691,0.22972967,-0.74592805,0.34067968,6.172103404998779,2.9137325286865234,3.6365272998809814,-90.98106384277344,-147.7382354736328, -9.760682106018066
381,4259459296,0.51195127,0.22863199,-0.7634883,0.32049838,7.07877254486084,1.9833580255508423,4.831176280975342,-128.84197998046875,-154.71702575683594, -10.08010482788086
382,4259475963,0.49921346,0.22598393,-0.78245384,0.29577592,7.466270923614502,0.4235979914665222,7.173733711242676,-160.43701171875,-166.352783203125, -14.484403610229492
383,4259492630,0.48484123,0.22418618,-0.80175716,0.26805857,8.434758186340332,-1.066030740737915,8.112526893615723,-171.8173065185547,-183.00039672851562, -25.468172073364258
384,4259509297,0.46865466,0.22380142,-0.8209262,0.23739427,8.325850486755371,-5.594902038574219,8.670463562011719,-180.35707092285156,-200.0487823486328, -39.98139190673828
385,4259525964,0.45208824,0.22721112,-0.8360349,0.2122196,8.627022743225098,-5.73653507232666,11.396293640136719,-130.00961303710938,-187.17808532714844, -49.506507873535156
386,4259542631,0.43655375,0.23308131,-0.847415,0.19230719,9.0316162109375,-9.846762657165527,14.185007095336914,-88.38126373291016,-165.41944885253906, -54.7870979309082
387,4259559298,0.42242044,0.2403203,-0.85340863,0.18841703,6.147869110107422,-11.4422607421875,10.831758499145508,13.77244758605957,-117.6807861328125, -25.387670516967773
388,4259575965,0.40581682,0.25020528,-0.85854,0.18873133,1.7840250730514526,-6.384391784667969,5.945114612579346,51.11372756958008,-126.47544860839844, -27.15781593322754
389,4259592632,0.39093652,0.26144668,-0.8598325,0.19875278,2.5879554748535156,-7.775414943695068,10.957140922546387,114.10954284667969,-90.75839233398438, -16.98281478881836
390,4259609299,0.38045767,0.27162647,-0.8560192,0.220686,-1.8385589122772217,-3.3896656036376953,15.694555282592773,180.5926513671875,-28.400535583496094, 6.0752997398376465
391,4259625966,0.3798087,0.27479437,-0.85172564,0.23408805,-1.2007067203521729,-3.1406877040863037,11.482335090637207,94.29536437988281,25.162506103515625, 9.252945899963379
392,4259642633,0.38574055,0.27725542,-0.8439668,0.2491063,-1.3255375623703003,-0.9168336391448975,12.295424461364746,94.99156951904297,76.80316925048828, 0.47431448101997375
393,4259659300,0.39861032,0.27503455,-0.83521986,0.26052627,-2.0566763877868652,-0.7788585424423218,11.130160331726074,50.1358528137207,120.69654846191406, 4.356053829193115
394,4259675967,0.41663626,0.27019927,-0.8238006,0.2734212,-1.9004613161087036,0.2668456435203552,10.203447341918945,46.46596145629883,165.01419067382812, 9.108854293823242
395,4259692634,0.4396113,0.26225832,-0.81022274,0.28548512,-1.4836182594299316,1.2875169515609741,8.964224815368652,27.73594856262207,203.46148681640625, 10.999553680419922
396,4259709301,0.46593517,0.25236037,-0.79406947,0.29777974,-0.4139988422393799,1.8527177572250366,6.58623743057251,22.15538787841797,234.1217498779297, 11.386666297912598
397,4259725968,0.49430385,0.2411343,-0.77487946,0.31157675,0.8476815223693848,1.2475824356079102,4.337991714477539,28.82479476928711,260.3512268066406, 14.02284049987793
398,4259742635,0.5233573,0.22936681,-0.7522396,0.328061,1.7630950212478638,1.585509181022644,3.083590507507324,47.614295959472656,281.3966369628906, 18.883113861083984
399,4259759302,0.55286396,0.2162598,-0.72677135,0.34550938,3.011756658554077,0.9628783464431763,0.8662924766540527,53.49610900878906,298.5420837402344, 23.85453224182129
400,4259775969,0.5820215,0.20306683,-0.6982028,0.3640437,4.2055768966674805,1.2138389348983765,-0.6700074672698975,66.53421020507812,310.5404968261719, 24.68546485900879
401,4259792636,0.61015904,0.18984474,-0.6672321,0.3827093,5.014201641082764,0.9758774042129517,-2.461778402328491,74.53827667236328,315.6893005371094, 24.62582778930664
402,4259809303,0.6360601,0.17848723,-0.63385373,0.40224302,5.534440994262695,0.8196483850479126,-4.892560005187988,95.65955352783203,311.9862365722656, 22.539411544799805
403,4259825970,0.6601776,0.16835576,-0.5989114,0.420865,6.332411289215088,0.43569043278694153,-6.228376388549805,103.62802124023438,306.8468017578125, 16.307918548583984
404,4259842637,0.6828607,0.1574452,-0.56417495,0.43659952,7.889434337615967,1.136170744895935,-6.971996307373047,89.3291244506836,299.25836181640625, 10.869731903076172
405,4259859304,0.7037724,0.14507405,-0.53194124,0.44799185,8.722943305969238,1.6257644891738892,-9.554312705993652,60.07974624633789,280.6822509765625, 4.25980281829834
406,4259875971,0.72149116,0.13174239,-0.5049068,0.45515254,7.537498474121094,0.5765354037284851,-12.839404106140137,27.180721282958984,243.0133819580078, 2.406839370727539
407,4259892638,0.7336443,0.12415221,-0.48249173,0.46211964,4.614865303039551,-1.6549391746520996,-17.193782806396484,45.673343658447266,183.12965393066406, 3.1628291606903076
408,4259909305,0.7396542,0.1275397,-0.4624231,0.47202784,4.489811420440674,-2.3992550373077393,-21.906143188476562,108.76382446289062,119.10977172851562, 3.071378707885742
409,4259925972,0.7406233,0.13794985,-0.44797555,0.4814197,4.11547327041626,-1.629421591758728,-22.181995391845703,129.22300720214844,51.911651611328125, -0.6618262529373169
410,4259942639,0.73808503,0.1482709,-0.44374305,0.48614657,4.2613301277160645,-1.7842330932617188,-22.914487838745117,84.09190368652344,-14.41524887084961, -2.911842107772827
411,4259959306,0.7329521,0.15583573,-0.45075995,0.48508975,3.9899163246154785,-2.6205124855041504,-20.40076446533203,17.672208786010742,-75.48812103271484, -3.777223587036133
412,4259975973,0.72469306,0.16310027,-0.465551,0.48112458,3.9921391010284424,-5.4674482345581055,-16.466516494750977,-15.281888961791992,-125.95333099365234, 1.18496835231781
413,4259992640,0.71307844,0.17185548,-0.48347718,0.47773933,4.346254825592041,-5.532106399536133,-12.59763240814209,-12.440288543701172,-156.20205688476562, 13.782632827758789
414,4260009307,0.70124924,0.18205841,-0.49734327,0.477236,5.821098327636719,-1.0353976488113403,10.400368690490723,17.960969924926758,-138.06863403320312, 18.854276657104492
415,4260025974,0.6923133,0.18677486,-0.5101027,0.47498757,3.017221450805664,7.660195350646973,10.058028221130371,-14.54184341430664,-107.37215423583984, 18.325313568115234
416,4260042641,0.68539476,0.18826725,-0.52677613,0.4661509,4.753172874450684,1.454423189163208,-9.11009407043457,-68.57428741455078,-117.24292755126953, -3.026862382888794
417,4260059308,0.6741031,0.19567482,-0.5397708,0.46469787,2.9394278526306152,-3.6084630489349365,-8.683003425598145,3.522348165512085,-124.92361450195312, 19.677879333496094
418,4260075975,0.66465634,0.19994326,-0.55152696,0.46267998,1.6953742504119873,1.5286117792129517,-1.8046985864639282,-11.558313369750977,-102.88276672363281, 21.04629135131836
419,4260092642,0.6544903,0.20451306,-0.5618218,0.4627886,3.8678202629089355,-1.1615052223205566,-2.9507856369018555,3.5058205127716064,-97.01959228515625, 29.947500228881836
420,4260109309,0.6450178,0.21129987,-0.5681486,0.46530828,1.0993762016296387,0.8544641733169556,-1.2077102661132812,34.469356536865234,-80.14196014404297, 24.41339111328125
421,4260125976,0.6380743,0.21428534,-0.5748538,0.465281,-0.1505933701992035,-0.8464462757110596,-1.2939740419387817,2.7613611221313477,-63.559444427490234, 20.43692398071289
422,4260142643,0.6330914,0.21528813,-0.58148813,0.46337694,0.025919592007994652,0.3835422098636627,-0.6753370761871338,-16.021305084228516,-52.00895309448242, 13.635793685913086
423,4260159310,0.6300978,0.21267425,-0.5904834,0.45724833,0.9498333930969238,0.4268331825733185,-1.8808435201644897,-59.14596176147461,-49.16606521606445, 6.898637294769287
424,4260175977,0.62704885,0.2107162,-0.59878033,0.4515204,-0.12297037243843079,-1.4305040836334229,-0.2818710207939148,-52.418338775634766,-47.8956413269043, 5.179511547088623
425,4260192644,0.62339383,0.21073306,-0.60503256,0.4482269,0.008009911514818668,-1.6021217107772827,0.7462736368179321,-26.67252540588379,-44.2884407043457, 6.439395427703857
426,4260209311,0.6187911,0.21295182,-0.61003083,0.4467792,0.8491606712341309,-0.3671989440917969,0.641406238079071,-4.346240520477295,-47.103092193603516, 6.251821041107178
427,4260225978,0.61334753,0.21621701,-0.61507666,0.4457982,-0.4712424576282501,-1.729421615600586,0.07995035499334335,3.1169116497039795,-53.486568450927734, 6.4954142570495605
428,4260242645,0.607298,0.22063361,-0.61996907,0.4451385,-0.5916543006896973,-1.4909734725952148,0.46635910868644714,10.681711196899414,-58.55873107910156, 4.5478668212890625
429,4260259312,0.6015197,0.2244306,-0.625478,0.44337615,-0.6237326264381409,-1.5217152833938599,0.27997782826423645,1.070041537284851,-59.866329193115234, 2.6376352310180664
430,4260275979,0.59587556,0.22806813,-0.631445,0.44067523,0.02641616389155388,-0.5238397121429443,0.5253458023071289,-5.256772041320801,-62.24406051635742, -0.30793291330337524
431,4260292646,0.590178,0.23112054,-0.6382657,0.43690982,0.5176213979721069,-0.03773330897092819,0.26475846767425537,-14.80988597869873,-65.9690933227539, -0.633207380771637
432,4260309313,0.5839544,0.23436895,-0.6453512,0.43311724,0.6875415444374084,0.08548005670309067,0.09475547075271606,-14.123046875,-70.06756591796875, 0.4127368927001953
433,4260325980,0.57763326,0.23773693,-0.6525361,0.42897296,1.444633960723877,0.5806035399436951,0.30823570489883423,-15.369871139526367,-71.89531707763672, -1.0596047639846802
434,4260342647,0.57169557,0.23953809,-0.66121256,0.42259178,2.5424916744232178,0.3336533010005951,0.7354661822319031,-36.68209457397461,-75.20955657958984, -1.5624003410339355
435,4260359314,0.56614655,0.23745324,-0.6733749,0.4118986,1.2717591524124146,-2.837550640106201,2.0201597213745117,-82.35836029052734,-83.04138946533203, 3.8225021362304688
436,4260375981,0.56098044,0.2348151,-0.6876244,0.39665583,2.8277063369750977,0.8049181699752808,3.2528727054595947,-112.15348052978516,-95.3729476928711, -9.04698371887207
437,4260392648,0.55433536,0.2317939,-0.70321614,0.38009343,3.242495059967041,0.15257778763771057,2.877375364303589,-121.19347381591797,-108.78759002685547, -6.043049335479736
438,4260409315,0.545631,0.22927143,-0.7196029,0.363171,4.74959135055542,2.0220983028411865,2.0145184993743896,-119.867919921875,-123.79790496826172, -3.1194918155670166
439,4260425982,0.534154,0.23087953,-0.73450595,0.34910643,5.303467750549316,5.017045974731445,1.0622289180755615,-82.16764831542969,-137.88229370117188, -8.13617992401123
440,4260442649,0.521063,0.23401846,-0.74989134,0.33375433,5.426374912261963,4.635619640350342,2.760347604751587,-81.62945556640625,-153.626953125, -15.761341094970703
441,4260459316,0.5055612,0.23923717,-0.7652786,0.3186256,6.538503170013428,2.982632875442505,4.794068336486816,-69.1353759765625,-170.64239501953125, -19.982126235961914
442,4260475983,0.48780444,0.2460547,-0.7810388,0.30246097,6.892324924468994,1.5193588733673096,6.835753917694092,-66.13216400146484,-189.25131225585938, -26.333417892456055
443,4260492650,0.4695751,0.2525101,-0.79717505,0.28328472,8.423651695251465,-0.2869926393032074,9.243395805358887,-83.51365661621094,-197.6996612548828, -32.81782150268555
444,4260509317,0.45219263,0.2586509,-0.81251496,0.2616129,9.904189109802246,-1.801255464553833,4.1421284675598145,-98.16319274902344,-194.59976196289062, -42.18729782104492
445,4260525984,0.4324881,0.26568362,-0.8275058,0.24000143,11.837259292602539,-6.927596092224121,14.480579376220703,-90.31057739257812,-208.24221801757812, -43.47294998168945
446,4260542651,0.4158438,0.2719758,-0.8394441,0.22008346,10.923312187194824,-9.352453231811523,15.65438461303711,-83.5716323852539,-178.00967407226562, -45.03779602050781
447,4260559318,0.40241033,0.27556336,-0.84817165,0.20672606,10.028057098388672,-13.841341972351074,16.202856063842773,-54.78081130981445,-134.50177001953125, -21.779260635375977
448,4260575985,0.38652956,0.2810324,-0.85705703,0.19253378,2.946596622467041,-11.614459037780762,6.427684783935547,-50.32283401489258,-154.02337646484375, -31.635374069213867
449,4260592652,0.37186885,0.2871742,-0.86241746,0.18836369,3.5612986087799072,-9.333606719970703,8.152236938476562,12.613286972045898,-119.11336517333984, -17.654388427734375
450,4260609319,0.3660182,0.28818265,-0.8656948,0.18317792,1.7188647985458374,-2.4071547985076904,16.498950958251953,-21.420604705810547,-57.081260681152344, -5.517521858215332
451,4260625986,0.3679551,0.28319237,-0.868379,0.17415303,-0.09024126082658768,-3.672149419784546,12.328662872314453,-74.12046813964844,-9.613149642944336, 9.476637840270996
452,4260642653,0.37328076,0.27766272,-0.86793584,0.1739322,-0.155087411403656,-7.4803361892700195,9.771373748779297,-25.85300636291504,36.16717529296875, 24.70989418029785
453,4260659320,0.3801937,0.27481782,-0.86294144,0.18777741,-1.4064562320709229,-4.234401226043701,10.776037216186523,67.24900817871094,80.87500762939453, 34.05646514892578
454,4260675987,0.3919053,0.26947525,-0.85598093,0.20270734,-1.5514169931411743,-2.4790029525756836,10.39643669128418,60.5606575012207,119.66947937011719, 41.7633056640625
455,4260692654,0.4071222,0.26371348,-0.8460844,0.22101648,-1.1849186420440674,-1.963866949081421,9.437204360961914,76.8948974609375,154.98118591308594, 43.00754928588867
456,4260709321,0.4249135,0.2581502,-0.83269066,0.24378987,-0.27994659543037415,0.055594757199287415,7.55187463760376,104.06848907470703,187.47808837890625, 44.11845779418945
457,4260725988,0.44590947,0.2511023,-0.8163371,0.26778027,0.49695777893066406,0.4756242334842682,5.738667011260986,106.01049041748047,219.09059143066406, 45.63378143310547
458,4260742655,0.46947998,0.2434812,-0.7963255,0.29354987,1.0402884483337402,2.2354953289031982,4.733994483947754,116.5885009765625,248.8901824951172, 43.343536376953125
459,4260759322,0.49650025,0.23289566,-0.7741427,0.3161495,1.4105952978134155,3.5559957027435303,3.096330165863037,88.32915496826172,275.4891662597656, 38.874752044677734
460,4260775989,0.5265012,0.21826157,-0.75025344,0.33507976,2.151500701904297,3.5984880924224854,1.0513132810592651,53.983245849609375,300.181396484375, 38.81739807128906
461,4260792656,0.55787855,0.2004414,-0.72479457,0.3510952,3.141308069229126,3.6865217685699463,-0.49153339862823486,29.025794982910156,316.0671691894531, 39.27915573120117
462,4260809323,0.58867806,0.18297146,-0.6958163,0.36853677,4.018645286560059,2.4766669273376465,-2.942167282104492,46.8408317565918,327.9861145019531, 39.65888977050781
463,4260825990,0.6173779,0.17025816,-0.66149396,0.39023414,5.807795524597168,1.5351945161819458,-4.147085189819336,102.72679138183594,333.1260681152344, 32.83515930175781
464,4260842657,0.64385813,0.1625781,-0.62225544,0.41450378,7.781659126281738,1.0150600671768188,-6.987523555755615,151.67100524902344,333.69879150390625, 21.193984985351562
465,4260859324,0.6682931,0.15682901,-0.5817803,0.43625787,9.589378356933594,1.8212820291519165,-9.82988166809082,155.35194396972656,322.47625732421875, 6.381015300750732
466,4260875991,0.6903643,0.15188096,-0.5433188,0.4529174,10.819140434265137,1.5081708431243896,-13.334064483642578,135.23135375976562,296.3297119140625, -10.818359375
467,4260892658,0.70922583,0.14598313,-0.5105808,0.46367574,10.151778221130371,-1.0435965061187744,-15.528779029846191,94.28990936279297,254.53378295898438, -19.185222625732422
468,4260909325,0.72302127,0.13939925,-0.48672926,0.47000316,7.7277512550354,-3.4052181243896484,-19.624170303344727,52.27337646484375,191.76841735839844, -13.285283088684082
469,4260925992,0.73027366,0.13600078,-0.47189674,0.4748871,4.881216049194336,-4.659328460693359,-24.861665725708008,40.60776138305664,114.04924774169922, -1.39537513256073
470,4260942659,0.73079157,0.14042047,-0.46472242,0.4798533,3.10373854637146,-2.4939467906951904,-27.054244995117188,61.69291305541992,29.065006256103516, 2.6822123527526855
471,4260959326,0.7260142,0.14799112,-0.46837044,0.4812809,2.840082883834839,-3.303741216659546,-23.803569793701172,35.86713790893555,-55.28456497192383, 2.6655352115631104
473,4260992660,0.7016245,0.17461614,-0.49568933,0.48117003,4.313196659088135,-5.486532211303711,-13.63074779510498,39.11922073364258,-170.87916564941406, 15.034610748291016
475,4261025994,0.6744799,0.1950084,-0.527893,0.47788903,6.166045188903809,11.646811485290527,-1.658535361289978,-20.35460662841797,-153.36444091796875, 6.9054274559021
477,4261059328,0.6481776,0.21092066,-0.5603221,0.47055042,0.780426025390625,0.25030580163002014,-4.441435813903809,59.78664016723633,-144.7323455810547, 23.806434631347656
484,4261175997,0.60835224,0.21993391,-0.6113374,0.45585456,0.3339623212814331,-3.2253899574279785,-1.2464338541030884,-73.97798156738281,-24.049104690551758, 8.333407402038574
486,4261209331,0.60252994,0.2218085,-0.6176206,0.45420688,0.3684718906879425,-0.36856937408447266,0.18509264290332794,4.426290512084961,-26.7686767578125, 5.409257411956787
491,4261292666,0.5870543,0.21792932,-0.65016735,0.43029866,0.0884724110364914,0.5792637467384338,1.0338202714920044,-9.750895500183105,-63.11263656616211, 4.191047191619873
496,4261376001,0.550869,0.22378837,-0.70162815,0.3926579,2.712448835372925,-0.9691711068153381,1.4111809730529785,-67.35394287109375,-99.68161010742188, -8.186224937438965
498,4261409335,0.53278846,0.226561,-0.7272725,0.36862126,3.8756203651428223,1.4941375255584717,0.563829243183136,-70.16799926757812,-118.29686737060547, -8.184381484985352
500,4261442669,0.5093459,0.23305862,-0.75352466,0.34416753,5.021140098571777,2.6887433528900146,1.8859443664550781,-62.96061706542969,-135.44415283203125, -12.048015594482422
502,4261476003,0.4826556,0.23844616,-0.78288144,0.31190348,5.750432968139648,1.8312090635299683,4.610095500946045,-98.82997131347656,-158.04083251953125, -14.621862411499023
504,4261509337,0.45174304,0.24261877,-0.8146981,0.27079797,8.622293472290039,0.9175395965576172,7.942957401275635,-120.85582733154297,-178.9060516357422, -22.484834671020508
505,4261526004,0.434739,0.24463755,-0.8320643,0.24253587,9.64966869354248,-1.2661962509155273,6.15587043762207,-155.50753784179688,-200.096435546875, -37.620418548583984
507,4261559338,0.39685598,0.25814646,-0.8587559,0.19596997,12.623760223388672,-7.53767728805542,15.658650398254395,-73.5434341430664,-184.0845489501953, -62.02702331542969
509,4261592672,0.36980549,0.26751477,-0.8739683,0.16691254,1.6802704334259033,-9.517660140991211,5.922021389007568,-52.38048553466797,-129.64529418945312, -29.03043556213379
511,4261626006,0.3446507,0.28207183,-0.87732553,0.1787505,2.792811155319214,-3.9910364151000977,14.971282958984375,121.38028717041016,-49.10272216796875, -5.76361608505249
513,4261659340,0.34417862,0.28391564,-0.8719249,0.20169362,-0.473570853471756,-4.022345542907715,9.927520751953125,86.02179718017578,45.5485954284668, 20.533838272094727
514,4261676007,0.35119835,0.28413644,-0.86479455,0.21921867,-1.8224191665649414,-0.3932937979698181,10.535077095031738,101.00534057617188,90.03964233398438, 16.268207550048828
515,4261692674,0.3647559,0.2803077,-0.85718465,0.23155005,-1.251367449760437,0.052568674087524414,9.38917350769043,48.28407287597656,125.93777465820312, 17.049762725830078
516,4261709341,0.38306364,0.27417952,-0.84791094,0.24317707,-1.3085002899169922,0.032533276826143265,7.889815330505371,31.86204719543457,160.3439178466797, 18.072227478027344
517,4261726008,0.4053986,0.26605952,-0.8365423,0.2550715,-1.1876665353775024,0.8012664914131165,7.039544105529785,24.099136352539062,193.14756774902344, 19.688854217529297
518,4261742675,0.4304596,0.25639418,-0.82271075,0.26854014,-0.9729655981063843,0.9374163746833801,4.647340297698975,28.211606979370117,221.2720184326172, 23.673385620117188
519,4261759342,0.4576219,0.24544267,-0.80614084,0.28368524,-0.3542569875717163,1.885986328125,3.6436047554016113,35.283355712890625,246.6412811279297, 27.207578659057617
520,4261776009,0.48700044,0.23130862,-0.78774977,0.29795572,0.540341317653656,1.3212242126464844,2.3388381004333496,20.28697395324707,269.4481201171875, 34.726436614990234
521,4261792676,0.5167277,0.21627957,-0.7660317,0.3152962,1.8272818326950073,0.17828884720802307,0.4148882329463959,40.22860336303711,289.280517578125, 43.86823272705078
522,4261809343,0.5465574,0.2003299,-0.7412079,0.33429614,3.156320095062256,0.19717863202095032,-0.5540322065353394,52.3212776184082,305.4448547363281, 49.78205108642578
523,4261826010,0.57537276,0.18492708,-0.713214,0.35506892,4.23028039932251,0.5782575607299805,-2.1573495864868164,72.14325714111328,313.5127258300781, 51.655548095703125
524,4261842677,0.6029685,0.17155695,-0.6818255,0.3769767,5.553210735321045,2.005051374435425,-3.405137062072754,95.65071105957031,317.6259460449219, 44.90689468383789
525,4261859344,0.62987113,0.15936525,-0.64811605,0.39725432,6.951474189758301,3.363473415374756,-6.192805767059326,99.79186248779297,319.2406005859375, 31.810239791870117
526,4261876011,0.65624774,0.14722452,-0.6141277,0.41293007,7.934373378753662,4.344520092010498,-7.128169059753418,80.90425109863281,313.2308349609375, 12.950679779052734
527,4261892678,0.68161494,0.13172169,-0.58362836,0.42122284,8.595550537109375,2.1188244819641113,-8.866246223449707,25.711164474487305,295.63311767578125, 0.4077463150024414
528,4261909345,0.7037716,0.11516543,-0.55655074,0.4262555,8.705769538879395,-1.1539528369903564,-11.160063743591309,0.7543877363204956,267.20843505859375, 1.852731704711914
529,4261926012,0.72069925,0.10329715,-0.5320065,0.43230954,8.071377754211426,-2.69191575050354,-14.234243392944336,24.187442779541016,222.47158813476562, 6.202577114105225
530,4261942679,0.73158306,0.1011679,-0.509351,0.44171605,6.557500839233398,-2.3531479835510254,-16.88471221923828,83.5641860961914,164.9817352294922, 6.481595993041992
531,4261959346,0.7367151,0.10625962,-0.49135795,0.45224702,4.743725299835205,-2.2766199111938477,-20.530487060546875,113.85811614990234,100.8260498046875, 7.5395283699035645
532,4261976013,0.73710936,0.1136786,-0.48178688,0.46003124,4.33545446395874,-0.9143853187561035,-20.504709243774414,93.8574447631836,33.5550422668457, 6.5952911376953125
533,4261992680,0.73325324,0.11862919,-0.4845525,0.46203446,3.3901987075805664,-3.0128228664398193,-20.232662200927734,26.685646057128906,-39.15273666381836, 8.532780647277832
534,4262009347,0.7247664,0.12681334,-0.4952369,0.46192297,4.062186241149902,-3.9207730293273926,-18.199420928955078,14.775214195251465,-105.94405364990234, 8.182635307312012
535,4262026014,0.7125956,0.13669166,-0.5118615,0.45991412,4.807969093322754,-3.928046703338623,-14.734254837036133,1.297361135482788,-154.63372802734375, 9.726753234863281
536,4262042681,0.6979216,0.15007783,-0.5279681,0.4600349,7.692378997802734,-1.6838047504425049,1.6152398586273193,30.124635696411133,-169.60275268554688, 15.12086296081543
537,4262059348,0.68345225,0.16616686,-0.54000384,0.46225262,8.414694786071777,9.04623794555664,11.741880416870117,63.345394134521484,-155.76390075683594, 10.471322059631348
538,4262076015,0.6728597,0.17672835,-0.5548989,0.4561954,5.321038722991943,5.700577735900879,-7.981529235839844,-7.1218156814575195,-147.04254150390625, -16.660799026489258
539,4262092682,0.6605858,0.18581483,-0.5689398,0.45321843,1.370590090751648,-0.3896603286266327,-7.075860977172852,2.5115463733673096,-140.92550659179688, 7.630283832550049
540,4262109349,0.64962155,0.19180164,-0.58105624,0.45119593,1.006331443786621,2.6307692527770996,-1.7283740043640137,-3.456671714782715,-116.04795837402344, 17.51669692993164
541,4262126016,0.6398628,0.1968198,-0.5908488,0.45026144,2.934527635574341,-1.4865511655807495,-4.288296699523926,2.1693737506866455,-96.4594955444336, 19.501131057739258
542,4262142683,0.6282176,0.20608704,-0.5968256,0.45460987,5.052994251251221,-2.2735326290130615,-3.9954569339752197,56.73461151123047,-93.29364013671875, 26.087688446044922
543,4262159350,0.6183944,0.21397719,-0.6016554,0.45805368,1.8130083084106445,0.2948300838470459,-0.38718855381011963,48.11797332763672,-77.79072570800781, 20.419952392578125
544,4262176017,0.61151505,0.21792953,-0.60759026,0.45759183,-0.5946245789527893,0.6060112118721008,-1.566900610923767,7.391879081726074,-63.74877166748047, 12.44502067565918
545,4262192684,0.6081291,0.21692301,-0.6152527,0.452314,0.9496025443077087,1.7083256244659424,-0.4059368669986725,-44.25993347167969,-48.10163497924805, 4.5248918533325195
546,4262209351,0.60719776,0.21153286,-0.6252839,0.4422499,0.953900158405304,-0.7715996503829956,-0.9722213745117188,-93.89871215820312,-41.226078033447266, -0.9423133730888367
547,4262226018,0.6048463,0.2092837,-0.6329791,0.4355444,0.5069403052330017,-2.684849262237549,-1.0547606945037842,-57.19315719604492,-42.31795883178711, 0.5247943997383118
548,4262242685,0.60037524,0.21234679,-0.6369839,0.43440783,-0.27247047424316406,-2.0074703693389893,-0.8606649041175842,3.23091721534729,-44.15715408325195, 1.5321687459945679
549,4262259352,0.59413266,0.21886197,-0.63875216,0.43715176,-0.024663357064127922,-1.2442398071289062,-0.4182817339897156,43.729984283447266,-47.402748107910156, 4.3678812980651855
550,4262276019,0.5880185,0.22503372,-0.6407101,0.4394142,0.49097898602485657,-0.243631511926651,0.9148174524307251,39.43061065673828,-47.39073181152344, 3.7361302375793457
551,4262292686,0.583119,0.22910477,-0.644456,0.4383607,0.6365110278129578,0.39855411648750305,0.6555337905883789,9.01452350616455,-48.17499923706055, -1.3406054973602295
552,4262309353,0.5795255,0.23022792,-0.65092707,0.43294284,-0.27053484320640564,-0.8533949255943298,0.87003493309021,-32.44975662231445,-51.411617279052734, -5.398241996765137
553,4262326020,0.57511526,0.23176944,-0.6580094,0.42725763,-0.12724192440509796,-1.3102519512176514,0.5082604289054871,-32.5395393371582,-59.28080368041992, -4.950668811798096
554,4262342687,0.5687067,0.23590913,-0.6643493,0.42374504,-0.16654351353645325,-0.9683330655097961,-0.018679602071642876,-7.10092306137085,-69.64823913574219, -3.4617950916290283
555,4262359354,0.5606883,0.2422219,-0.66991484,0.42210403,-0.059486024081707,0.639360249042511,0.2543875277042389,14.78668212890625,-77.34168243408203, -2.6718597412109375
556,4262376021,0.5529037,0.24693522,-0.677059,0.41822484,0.5820658802986145,0.8937023878097534,0.6430938839912415,-6.684624195098877,-81.51580047607422, -1.9692914485931396
557,4262392688,0.5456337,0.24964,-0.6859926,0.41155574,0.8800811171531677,-0.05958354473114014,0.8094335198402405,-33.35387420654297,-84.9715805053711, -1.6295276880264282
558,4262409355,0.5385276,0.25041997,-0.6965773,0.40256444,2.0823211669921875,-1.5922986268997192,1.2438733577728271,-56.510738372802734,-89.02137756347656, 1.1286870241165161
559,4262426022,0.5316779,0.24965848,-0.7082778,0.39157638,0.9521235823631287,-1.0690827369689941,2.041594982147217,-75.34169006347656,-91.19937896728516, 2.3225648403167725
560,4262442689,0.52568865,0.2479648,-0.72226477,0.37483168,3.073489189147949,0.777975857257843,0.46215692162513733,-114.46196746826172,-102.86093139648438, -12.566954612731934
561,4262459356,0.51743436,0.24772991,-0.7366761,0.3580505,3.7019460201263428,0.565057635307312,1.9747623205184937,-106.61964416503906,-119.54385375976562, -13.300708770751953
562,4262476023,0.50736153,0.24857804,-0.7510304,0.34168237,4.521202564239502,1.8302258253097534,2.0373177528381348,-97.46529388427734,-130.6470184326172, -12.866843223571777
563,4262492690,0.49566808,0.2505099,-0.76561457,0.32464245,5.907372951507568,3.687079668045044,2.715517520904541,-94.93487548828125,-143.6575469970703, -16.5046443939209
564,4262509357,0.48237312,0.25179246,-0.78218067,0.30349693,6.459090232849121,3.023831367492676,4.516737461090088,-120.42344665527344,-164.6554718017578, -19.935062408447266
565,4262526024,0.467007,0.2529398,-0.7997892,0.27975628,7.105258941650391,1.8301033973693848,5.682591438293457,-133.421142578125,-183.71876525878906, -21.56322479248047
566,4262542691,0.4494739,0.2544287,-0.81779337,0.25387704,8.489608764648438,2.20043683052063,8.420300483703613,-141.07908630371094,-201.5891876220703, -25.380420684814453
567,4262559358,0.4324719,0.25663552,-0.8346786,0.22453958,9.851256370544434,2.827448844909668,10.776776313781738,-157.28160095214844,-202.85153198242188, -42.92838668823242
568,4262576025,0.4165735,0.2578139,-0.8512832,0.18792452,10.256624221801758,-4.000709533691406,7.301027774810791,-203.61709594726562,-207.44430541992188, -60.82666015625
569,4262592692,0.39540473,0.25934392,-0.86722225,0.15595366,13.437355041503906,-19.28422737121582,9.468746185302734,-165.26295471191406,-228.99647521972656, -44.11325454711914
570,4262609359,0.37147096,0.2753627,-0.8715274,0.16317165,14.89256763458252,-14.342517852783203,12.796503067016602,124.89110565185547,-159.9573974609375, -42.208648681640625
571,4262626026,0.3506339,0.28467634,-0.87584364,0.17003964,3.4462404251098633,-9.613299369812012,16.55521011352539,99.48670959472656,-135.16160583496094, -6.605607986450195
572,4262642693,0.3328117,0.28815174,-0.8819215,0.16858123,-0.7860406041145325,-3.9728007316589355,2.217848062515259,27.06591796875,-131.12586975097656, 8.26132869720459
573,4262659360,0.31918296,0.29145703,-0.8849444,0.17334656,1.9066652059555054,-8.408536911010742,10.384038925170898,59.56114959716797,-86.1158676147461, 12.598475456237793
574,4262676027,0.3119115,0.29259223,-0.88427013,0.1875296,-2.099498987197876,-3.585397958755493,15.033689498901367,103.55443572998047,-18.05372428894043, 31.399089813232422
575,4262692694,0.31477344,0.28716028,-0.88404787,0.19213632,-0.9884275197982788,-2.436582088470459,11.559539794921875,10.148734092712402,31.614076614379883, 38.606075286865234
576,4262709361,0.3231964,0.28137544,-0.8807981,0.20141192,-1.7548340559005737,-2.199082136154175,9.7241849899292,30.69998550415039,81.5418701171875, 37.488868713378906
577,4262726028,0.33680385,0.27502468,-0.8752289,0.21189451,-2.0318996906280518,0.6071064472198486,10.25062370300293,29.87432861328125,121.16243743896484, 31.884965896606445
578,4262742695,0.3551623,0.26586556,-0.86839634,0.2215018,-1.7494393587112427,0.8673384785652161,8.93964672088623,10.960835456848145,155.05804443359375, 37.440185546875
579,4262759362,0.37733954,0.2553136,-0.85962576,0.23124355,-1.6874772310256958,1.6682980060577393,7.548654079437256,4.344503402709961,184.92538452148438, 36.704952239990234
580,4262776029,0.40287903,0.24338147,-0.8485961,0.2415342,-0.7675808668136597,1.7646881341934204,5.971707344055176,1.7350809574127197,213.81002807617188, 36.96189880371094
581,4262792696,0.4305499,0.23014311,-0.8354223,0.25244963,-0.12839747965335846,2.810462713241577,4.836209297180176,1.8010430335998535,235.40673828125, 39.17833709716797
582,4262809363,0.45948458,0.21567048,-0.8202785,0.26363564,0.3882922828197479,2.198200225830078,2.892378091812134,1.1824817657470703,251.0843963623047, 41.78015899658203
583,4262826030,0.4882633,0.20153688,-0.8024559,0.2775733,1.6514434814453125,1.9386953115463257,1.2465988397598267,22.923099517822266,262.1868896484375, 44.89265060424805
584,4262842697,0.5163592,0.18837497,-0.7815079,0.29518443,3.0427918434143066,1.660446047782898,-0.019255749881267548,53.426292419433594,272.2257080078125, 48.886348724365234
585,4262859364,0.54318655,0.17689474,-0.75742525,0.31617084,3.8109054565429688,1.1524547338485718,-1.056220293045044,85.59280395507812,277.5937805175781, 50.429954528808594
586,4262876031,0.56889695,0.16856886,-0.72917837,0.34093964,4.783328056335449,1.9684783220291138,-2.0024006366729736,127.54784393310547,285.1982421875, 45.59261703491211
587,4262892698,0.59401995,0.16237599,-0.69807345,0.36533305,5.511437892913818,3.3850350379943848,-2.58760404586792,141.44093322753906,288.1466064453125, 31.64143943786621
588,4262909365,0.6192405,0.15696332,-0.66515,0.3866254,6.628994941711426,3.3742964267730713,-3.89658784866333,134.2447509765625,290.7893981933594, 13.142339706420898
589,4262926032,0.64462805,0.14923741,-0.632862,0.40208066,7.200902938842773,2.313152313232422,-5.363626003265381,95.86300659179688,288.90850830078125, -0.717069685459137
590,4262942699,0.6686481,0.13880983,-0.60281676,0.412618,7.928640842437744,0.41536352038383484,-7.5520219802856445,57.72108840942383,275.70404052734375, -4.560067176818848
591,4262959366,0.68989056,0.12751691,-0.575214,0.42061824,8.809548377990723,-1.035712718963623,-9.614850997924805,39.0106086730957,253.33401489257812, -2.3738863468170166
592,4262976033,0.70729226,0.11740649,-0.55022496,0.42802566,8.13869857788086,-1.609467625617981,-11.56348705291748,38.17452621459961,222.2157440185547, 3.5556089878082275
593,4262992700,0.719514,0.111986004,-0.52859306,0.43628913,6.630246162414551,-1.955942153930664,-16.20090103149414,58.64017868041992,173.6400146484375, 7.934083461761475
594,4263009367,0.7261629,0.114645615,-0.51019424,0.4463695,4.941291809082031,-1.5315649509429932,-19.69850730895996,99.97817993164062,115.12275695800781, 6.747617244720459
595,4263026034,0.7273795,0.12176539,-0.49886632,0.45521963,3.7421936988830566,-2.145936965942383,-21.985910415649414,100.70784759521484,46.73131561279297, 7.177355766296387
596,4263042701,0.72348887,0.13106398,-0.4970398,0.46080124,2.770455837249756,-2.869809150695801,-22.179893493652344,75.14689636230469,-27.208343505859375, 7.22408390045166
597,4263059368,0.7150683,0.14230524,-0.504058,0.4629819,3.206895589828491,-3.650448799133301,-20.73958396911621,49.47104263305664,-95.29193878173828, 5.881933212280273
598,4263076035,0.70345724,0.1535649,-0.51812744,0.46163833,3.9654695987701416,-4.210285663604736,-17.023910522460938,18.22955322265625,-143.9635772705078, 5.418730735778809
599,4263092702,0.6895391,0.16374302,-0.5363004,0.45837337,3.7517142295837402,-4.715147018432617,-12.95153522491455,-4.269716262817383,-170.1714324951172, 11.503988265991211
600,4263109369,0.6755484,0.17401387,-0.551315,0.45760852,5.52207088470459,-1.5051993131637573,8.473560333251953,15.561991691589355,-152.61395263671875, 19.543577194213867
601,4263126036,0.6646241,0.17965585,-0.5616198,0.45889226,4.827561378479004,10.804733276367188,22.915508270263672,12.899589538574219,-102.393798828125, 31.296743392944336
602,4263142703,0.6574063,0.18014939,-0.5782328,0.44834182,7.6624755859375,3.1095855236053467,-16.18265151977539,-81.12846374511719,-116.03053283691406, -6.438770771026611
603,4263159370,0.6412142,0.19545539,-0.5872181,0.45367,6.944340705871582,-5.965081214904785,-8.728355407714844,83.69268035888672,-142.74893188476562, 24.77842140197754
604,4263176037,0.62906146,0.20318311,-0.5974328,0.45395213,-0.2095479667186737,9.667729377746582,2.4856927394866943,20.753612518310547,-114.76602935791016, 21.990753173828125
605,4263192704,0.61975694,0.20256366,-0.6108391,0.4491604,2.518808603286743,-3.9847054481506348,-6.841832160949707,-50.224979400634766,-98.09772491455078, 30.169937133789062
606,4263209371,0.6080745,0.21107517,-0.6157653,0.45445132,3.2699434757232666,-1.8900761604309082,-3.4370105266571045,60.618194580078125,-85.97693634033203, 30.191797256469727
607,4263226038,0.60123557,0.21399827,-0.6227629,0.45264444,0.5616958141326904,0.24190355837345123,-0.865288496017456,-6.270374298095703,-66.94889068603516, 11.980875968933105
608,4263242705,0.59750664,0.21279255,-0.6309359,0.44679448,-0.36405739188194275,-2.5561671257019043,-1.099729061126709,-48.89989471435547,-51.66512680053711, 5.017059803009033
609,4263259372,0.5963885,0.20809533,-0.64017814,0.43725157,0.44197797775268555,-0.23729296028614044,0.05673586577177048,-86.37565612792969,-39.47568893432617, -1.5013360977172852
610,4263276039,0.59594357,0.20167452,-0.65012836,0.42604205,-0.007361763156950474,-2.271662950515747,-0.9895939826965332,-103.9020767211914,-36.71699523925781, -1.7017295360565186
611,4263292706,0.5924015,0.20162342,-0.65586424,0.4221974,0.16174288094043732,-3.7538630962371826,-0.6876865029335022,-28.250946044921875,-41.799034118652344, 3.2016353607177734
612,4263309373,0.58575785,0.20800455,-0.65776163,0.42540792,0.018216535449028015,-1.7827569246292114,-0.5956101417541504,45.19485855102539,-49.109703063964844, 6.491775989532471
613,4263326040,0.5781766,0.21640211,-0.658775,0.42999718,-0.04655982181429863,0.8864262700080872,0.24055948853492737,63.46129608154297,-53.78741455078125, 4.30981969833374
614,4263342707,0.5719355,0.22132885,-0.6622169,0.43054903,-0.2525661885738373,0.39089900255203247,0.3208882510662079,22.171937942504883,-53.211578369140625, 3.628024101257324
615,4263359374,0.5670539,0.22306377,-0.6684871,0.42640087,0.3802986443042755,0.5706788301467896,0.5949513912200928,-22.24990463256836,-55.93785095214844, -0.03534596785902977
616,4263376041,0.56187963,0.22382064,-0.6765379,0.42011,0.05656857043504715,-0.22469618916511536,-0.10964136570692062,-40.71440124511719,-64.73887634277344, -0.26943835616111755
617,4263392708,0.5544569,0.22750793,-0.68383676,0.4161552,-0.15829819440841675,0.24749226868152618,0.511274516582489,-12.919042587280273,-77.23041534423828, 0.4645283818244934
618,4263409375,0.5452481,0.2328473,-0.6909069,0.41368407,-0.4989580512046814,0.9716088175773621,1.5752861499786377,3.7736523151397705,-87.24669647216797, 3.106973886489868
619,4263426042,0.53507817,0.23771046,-0.69929814,0.41008246,-0.5910016298294067,-0.03445826470851898,1.07919180393219,-5.634650230407715,-97.33678436279297, 5.996384620666504
620,4263442709,0.524026,0.24232201,-0.70868117,0.4055221,-0.1865161806344986,-0.5998517274856567,1.1661750078201294,-12.552294731140137,-106.17955017089844, 7.775876045227051
621,4263459376,0.513185,0.24593261,-0.7190216,0.39895663,1.1522108316421509,-0.6595468521118164,0.9099679589271545,-28.9827880859375,-109.24229431152344, 6.4164814949035645
622,4263476043,0.50342804,0.24629594,-0.7310394,0.38920447,0.7879481911659241,-4.072838306427002,2.100252389907837,-62.65805435180664,-106.36962127685547, 11.093403816223145
623,4263492710,0.4949413,0.24610765,-0.74424154,0.37492514,4.547628402709961,1.3305834531784058,0.08493144065141678,-92.70775604248047,-110.38949584960938, -3.2835192680358887
624,4263509377,0.48619437,0.24578552,-0.75896955,0.3566089,4.593751430511475,1.1340752840042114,1.4993140697479248,-117.32813262939453,-123.48028564453125, -12.96828842163086
625,4263526044,0.4758801,0.2454709,-0.77446336,0.33688155,5.245548725128174,2.2546868324279785,1.9726219177246094,-123.92155456542969,-136.75193786621094, -12.480474472045898
626,4263542711,0.4634236,0.24733733,-0.78894573,0.31879073,6.376896381378174,3.852369546890259,1.5163366794586182,-102.11894989013672,-147.29327392578125, -15.353898048400879
627,4263559378,0.44910958,0.25088078,-0.8036685,0.29912642,6.6515398025512695,3.6409122943878174,4.183157920837402,-102.65459442138672,-164.65206909179688, -24.817968368530273
628,4263576045,0.43278402,0.25431377,-0.8193849,0.27682322,7.788740158081055,1.8814295530319214,6.176849842071533,-116.14137268066406,-183.41941833496094, -26.360809326171875
629,4263592712,0.414714,0.2578765,-0.8354293,0.2521314,8.578635215759277,0.3150085210800171,8.814057350158691,-126.79601287841797,-198.98779296875, -30.224868774414062
630,4263609379,0.39574116,0.2616538,-0.8510605,0.22499421,9.48363971710205,-1.868599772453308,12.985475540161133,-137.9493408203125,-208.13267517089844, -37.579315185546875
631,4263626046,0.37852016,0.2674921,-0.86433214,0.19519359,10.227431297302246,-3.6743342876434326,5.3004865646362305,-147.5081329345703,-199.98806762695312, -63.907737731933594
632,4263642713,0.3589377,0.27464402,-0.87632227,0.16671526,12.34264087677002,-14.815988540649414,8.926251411437988,-130.21969604492188,-210.3584442138672, -67.58104705810547
633,4263659380,0.34158888,0.28461048,-0.8809811,0.16182253,9.85197925567627,-14.113957405090332,16.99925994873047,22.732145309448242,-137.92723083496094, -43.068660736083984
634,4263676047,0.32366174,0.2903794,-0.8870349,0.1552166,-0.8992002010345459,-8.354532241821289,7.358247756958008,1.7412998676300049,-143.9833526611328, -18.574495315551758
635,4263692714,0.30752727,0.2964981,-0.8912048,0.15254655,0.38199079036712646,-7.306487083435059,4.560882091522217,24.76261329650879,-121.44355010986328, -17.76841926574707
636,4263709381,0.29700065,0.30186945,-0.89189065,0.15873507,2.2473013401031494,-4.904499053955078,13.330235481262207,69.52397918701172,-60.9084587097168, -7.529285430908203
637,4263726048,0.29314297,0.30514693,-0.8905364,0.16702637,-0.9788714647293091,-1.4135879278182983,13.605691909790039,66.40206146240234,-9.470548629760742, -1.9296786785125732
638,4263742715,0.29650053,0.30326587,-0.88939077,0.17059173,-0.5281123518943787,-3.4717516899108887,10.472018241882324,11.647211074829102,30.122364044189453, 12.290642738342285
639,4263759382,0.30271214,0.30198252,-0.8854023,0.1823051,-1.8500876426696777,-3.2292256355285645,9.464397430419922,59.990570068359375,69.5500717163086, 15.925996780395508
640,4263776049,0.31285444,0.2993149,-0.8799353,0.1955682,-1.7387875318527222,-1.323885202407837,9.849997520446777,60.166351318359375,101.45413208007812, 19.546937942504883
641,4263792716,0.32791027,0.2939207,-0.8735427,0.20738602,-1.9185794591903687,-0.6128915548324585,8.12968635559082,36.66228103637695,133.79867553710938, 24.406709671020508
642,4263809383,0.3472629,0.28620878,-0.86585855,0.21859106,-1.3698344230651855,-0.30043044686317444,6.645083904266357,20.912593841552734,164.56207275390625, 28.178144454956055
643,4263826050,0.36943227,0.27677253,-0.8564522,0.23109832,-0.6154347658157349,-0.23454757034778595,5.952877998352051,21.604877471923828,190.594970703125, 33.89695358276367
644,4263842717,0.3934003,0.26569325,-0.84525657,0.24532598,-0.378722220659256,-0.2539559602737427,5.28291654586792,26.99703598022461,211.6072998046875, 41.64847946166992
645,4263859384,0.41802043,0.25398326,-0.8317387,0.26260665,-0.00871288776397705,-0.03913315385580063,4.231727123260498,45.77556610107422,228.31594848632812, 48.20805358886719
646,4263876051,0.443398,0.24181852,-0.81565917,0.28217444,0.6390421390533447,0.8900161981582642,3.1667938232421875,60.87738037109375,244.83583068847656, 51.53580856323242
647,4263892718,0.46985438,0.22921136,-0.7967218,0.3032055,1.7650511264801025,1.5309220552444458,1.9607526063919067,71.53104400634766,262.9136962890625, 51.66626739501953
648,4263909385,0.49782595,0.2154276,-0.77519953,0.3237688,2.996556520462036,2.280437707901001,1.0728024244308472,68.21511840820312,281.32427978515625, 49.43067932128906
649,4263926052,0.52699655,0.2007233,-0.7511247,0.34321502,4.168004035949707,2.6733410358428955,-0.5025279521942139,63.07555389404297,296.9019470214844, 44.1497917175293
650,4263942719,0.5569451,0.18593542,-0.72442317,0.36118075,5.35745096206665,2.9149703979492188,-2.048112392425537,60.31513977050781,308.68927001953125, 33.860107421875
651,4263959386,0.58698785,0.1712357,-0.6955412,0.37728822,6.4045915603637695,2.2626545429229736,-3.571380853652954,56.760250091552734,315.05810546875, 23.40406608581543
652,4263976053,0.61617404,0.15706798,-0.66496897,0.39175966,7.598368167877197,0.99989914894104,-5.2453789710998535,56.54137420654297,314.6750793457031, 14.59977912902832
653,4263992720,0.64337176,0.1428345,-0.6341198,0.40442973,8.850613594055176,-0.24928581714630127,-7.695278167724609,51.00132751464844,305.24139404296875, 12.411290168762207
654,4264009387,0.66737944,0.12904203,-0.60449463,0.4153786,10.170950889587402,-0.6096992492675781,-10.133106231689453,45.27458572387695,283.343017578125, 13.009930610656738
655,4264026054,0.6863177,0.117553174,-0.57828546,0.42512986,9.067804336547852,-1.1619919538497925,-13.980927467346191,45.719573974609375,239.38841247558594, 15.517186164855957
656,4264042721,0.69887257,0.11237757,-0.5559832,0.43569613,6.161646842956543,-2.044570207595825,-18.6713924407959,72.65845489501953,178.32408142089844, 16.130949020385742
657,4264059388,0.7045867,0.11440356,-0.53885335,0.44733298,4.390836715698242,-1.5125634670257568,-22.63789939880371,101.36695861816406,107.23695373535156, 18.23233985900879
658,4264076055,0.7041209,0.12087691,-0.530648,0.45608726,3.4300551414489746,-0.02531588077545166,-24.129880905151367,89.89716339111328,25.90705680847168, 13.795684814453125
659,4264092722,0.69805455,0.129177,-0.53368884,0.45957556,2.5557796955108643,-1.4931343793869019,-23.18136215209961,49.162078857421875,-58.32379913330078, 8.537881851196289
660,4264109389,0.6867705,0.14048286,-0.5447092,0.46032932,3.717437744140625,-2.8498497009277344,-19.821067810058594,33.21953582763672,-127.01030731201172, 7.8885579109191895
661,4264126056,0.67159224,0.15325037,-0.56064576,0.4595156,4.908760070800781,-3.642669916152954,-15.144026756286621,22.665071487426758,-170.3762664794922, 11.975581169128418
662,4264142723,0.6542254,0.169324,-0.5750087,0.46117637,6.596282958984375,-0.6738333106040955,1.3904328346252441,54.9122428894043,-178.95643615722656, 15.768095016479492
663,4264159390,0.63836944,0.18200712,-0.5860873,0.4646071,8.832616806030273,8.581082344055176,18.79021453857422,55.27182388305664,-145.48719787597656, 28.48226547241211
664,4264176057,0.62739074,0.19096102,-0.60065746,0.45730257,6.7115678787231445,8.297337532043457,-10.96153450012207,-21.91457176208496,-143.3177032470703, -14.5
665,4264192724,0.61244047,0.20120221,-0.61454207,0.45472258,5.1454997062683105,-4.710964679718018,-11.028718948364258,10.550336837768555,-154.29458618164062, 12.432723999023438
666,4264209391,0.5993292,0.20960757,-0.6252485,0.45379916,-0.0551975779235363,4.133840560913086,1.4908231496810913,17.341096878051758,-124.81218719482422, 16.86648178100586
667,4264226058,0.5887035,0.21366712,-0.6358295,0.4511049,1.178576946258545,-1.6097133159637451,-6.365911960601807,-11.415935516357422,-102.76788330078125, 20.408950805664062
668,4264242725,0.5774774,0.22188012,-0.6406308,0.45484215,3.2960751056671143,-2.4474050998687744,-4.504899501800537,52.38197708129883,-85.32588958740234, 21.567441940307617
669,4264259392,0.56903267,0.22784737,-0.6454178,0.45576686,3.373199701309204,0.7439003586769104,-1.243760347366333,26.913177490234375,-70.23810577392578, 11.47214412689209
670,4264276059,0.5643323,0.22897738,-0.6523807,0.45110765,0.2580542266368866,-0.012509128078818321,-1.4350956678390503,-29.494243621826172,-55.789398193359375, 2.809476852416992
671,4264292726,0.56336826,0.22569007,-0.66060716,0.44190323,0.3743481934070587,0.7332788109779358,-0.68718022108078,-76.84215545654297,-37.451698303222656, -4.579899311065674
672,4264309393,0.5643362,0.21933176,-0.67020595,0.42923462,0.6976403594017029,-0.26789212226867676,-1.812121033668518,-111.67481994628906,-30.12394905090332, -7.701374053955078
673,4264326060,0.5637772,0.21540134,-0.677701,0.42009383,0.4808591604232788,-2.853412628173828,-0.8526703715324402,-77.4996109008789,-30.888824462890625, -3.809072732925415
674,4264342727,0.55973953,0.21809936,-0.6808464,0.41901422,0.12955094873905182,-2.8488857746124268,-0.9588440656661987,3.4489142894744873,-37.515533447265625, 0.08792243152856827
675,4264359394,0.55353063,0.22485507,-0.6816216,0.42241687,-0.025297854095697403,-0.657704770565033,-0.030656205490231514,50.109825134277344,-43.589759826660156, 0.9246521592140198
676,4264376061,0.54761624,0.23063925,-0.68319213,0.42446554,-0.3527064919471741,0.31975629925727844,0.164621040225029,37.27263259887695,-44.600059509277344, 0.6375139355659485
677,4264392728,0.5434788,0.23356633,-0.6867384,0.4224551,-0.4384985864162445,-0.4867132306098938,0.9370545148849487,-1.1662944555282593,-41.88594055175781, -3.2911245822906494
678,4264409395,0.5402787,0.23442884,-0.69229317,0.41698053,0.2375931441783905,-0.7341523766517639,0.7601487636566162,-32.6179084777832,-44.64609146118164, -5.9992756843566895
679,4264426062,0.53591734,0.23594958,-0.69851786,0.4113311,0.06846339255571365,-0.8552430868148804,0.5642945170402527,-31.09297752380371,-54.9351921081543, -5.3805999755859375
680,4264442729,0.52933335,0.23968793,-0.7044045,0.40764037,0.2234944850206375,0.29258766770362854,0.7878997921943665,-8.988014221191406,-67.55205535888672, -3.0973944664001465
681,4264459396,0.52148616,0.24390148,-0.7109385,0.4038943,0.04336037114262581,0.7132576704025269,1.329137921333313,-7.290643215179443,-77.54773712158203, -0.9853543639183044
682,4264476063,0.51303184,0.24737135,-0.7189842,0.39833128,0.12046445906162262,0.3389889597892761,0.9834997057914734,-22.051469802856445,-87.02970886230469, 0.37596023082733154
683,4264492730,0.50417525,0.24923596,-0.7291087,0.3899867,0.8131152987480164,-2.0213394165039062,1.97989022731781,-46.50248336791992,-96.783203125, 3.1545822620391846
684,4264509397,0.49507007,0.24968283,-0.7406985,0.37938088,-0.6314641237258911,-2.445538282394409,2.2934305667877197,-66.30424499511719,-103.31061553955078, 5.561305522918701
685,4264526064,0.48656482,0.24972579,-0.75397986,0.36387697,2.249565601348877,0.7683404684066772,1.0595004558563232,-98.13166809082031,-113.49087524414062, -7.771409034729004
686,4264542731,0.47655606,0.2505424,-0.76780397,0.34727526,3.528345823287964,1.0290749073028564,1.7387025356292725,-100.03330993652344,-127.02501678466797, -10.68712043762207
687,4264559398,0.46403396,0.2529327,-0.78202474,0.33035576,3.8247580528259277,1.9500724077224731,1.107875943183899,-93.20146942138672,-146.0363006591797, -13.264283180236816
688,4264576065,0.44891006,0.25805816,-0.7953327,0.31516966,5.062699794769287,3.0297698974609375,2.4178638458251953,-68.55001831054688,-160.43702697753906, -18.0195255279541
689,4264592732,0.43183342,0.26374078,-0.8088566,0.29951948,5.555680274963379,2.978142738342285,2.8571207523345947,-66.3646469116211,-173.9981689453125, -17.75429916381836
690,4264609399,0.41282514,0.2695658,-0.8230332,0.28200382,6.953670024871826,2.9916679859161377,4.5446624755859375,-74.13802337646484,-190.56915283203125, -18.808189392089844
691,4264626066,0.39328194,0.27358657,-0.83820176,0.26057175,7.984081268310547,2.0179364681243896,6.449856281280518,-102.3364486694336,-200.46835327148438, -16.72770118713379
692,4264642733,0.37424308,0.27631712,-0.8533156,0.23546465,8.946589469909668,1.2728997468948364,9.803836822509766,-127.8538589477539,-202.38917541503906, -20.166841506958008
693,4264659400,0.3564474,0.27865264,-0.8675026,0.20673014,8.955697059631348,-1.4361865520477295,9.292539596557617,-151.04107666015625,-199.44561767578125, -30.92931365966797
694,4264676067,0.33778653,0.28295425,-0.8804486,0.17506447,8.857805252075195,-5.6256561279296875,6.104218006134033,-160.34414672851562,-210.43707275390625, -51.065059661865234
695,4264692734,0.3178993,0.28999317,-0.88983274,0.15179585,12.726736068725586,-11.36443042755127,11.475240707397461,-96.57966613769531,-196.87530517578125, -53.76414489746094
696,4264709401,0.30180874,0.29575232,-0.8949175,0.14340486,10.337912559509277,-14.459385871887207,16.909862518310547,-11.710284233093262,-133.78260803222656, -26.205480575561523
697,4264726068,0.28416157,0.30142668,-0.89942497,0.1393887,1.151459813117981,-8.416452407836914,3.378894090652466,18.379701614379883,-133.7795867919922, -16.52178192138672
698,4264742735,0.26507422,0.30929524,-0.9017008,0.14494161,1.4856538772583008,-5.88093376159668,4.364193439483643,86.76437377929688,-120.61778259277344, -14.740650177001953
699,4264759402,0.25477412,0.31506556,-0.9014897,0.1521201,1.4177396297454834,-1.8358502388000488,15.535581588745117,76.66700744628906,-56.10346603393555, -12.835334777832031
700,4264776069,0.25466102,0.3166218,-0.9006459,0.1540636,-1.7436554431915283,-0.793884813785553,12.062207221984863,15.368614196777344,0.9535937905311584, -7.89186954498291
701,4264792736,0.26207572,0.31326568,-0.89971083,0.1539531,-0.2157551646232605,-4.331064224243164,9.062335968017578,-22.271385192871094,48.38109588623047, 10.734798431396484
702,4264809403,0.27184287,0.3105885,-0.8958483,0.16459747,-1.9093506336212158,-3.187244176864624,8.449652671813965,43.39911651611328,90.59384155273438, 17.034151077270508
703,4264826070,0.28531805,0.30646446,-0.8905545,0.17772543,-1.8954265117645264,-1.3883482217788696,8.476569175720215,49.618988037109375,123.04622650146484, 23.28481101989746
704,4264842737,0.30214137,0.30123243,-0.8834583,0.19357523,-2.9119808673858643,-0.6057008504867554,6.82119083404541,59.23011779785156,154.1621856689453, 27.501619338989258
705,4264859404,0.3222182,0.2947235,-0.87472516,0.2101662,-2.915447950363159,-0.17495042085647583,6.56809139251709,56.517723083496094,180.60507202148438, 29.06070327758789
706,4264876071,0.34501225,0.28665364,-0.86447024,0.22690871,-1.6654521226882935,0.25279417634010315,5.754580020904541,50.671485900878906,202.9192657470703, 31.75514030456543
707,4264892738,0.36965096,0.27650353,-0.8529479,0.24368854,-0.46964356303215027,0.8696335554122925,3.273386240005493,44.320491790771484,220.22328186035156, 38.81618118286133
708,4264909405,0.3953494,0.26545435,-0.839559,0.26148334,-0.18071860074996948,1.6160688400268555,2.2416892051696777,49.13749313354492,234.6630859375, 41.35434341430664
709,4264926072,0.42153826,0.25337887,-0.82457584,0.27960658,0.49457961320877075,1.2581766843795776,0.7392820119857788,50.27107238769531,244.32862854003906, 44.40776443481445
710,4264942739,0.44768482,0.241786,-0.807008,0.2997603,1.6158463954925537,1.6250827312469482,-0.2183181792497635,68.27786254882812,254.27377319335938, 43.169761657714844
711,4264959406,0.47399184,0.23019032,-0.78741306,0.31988263,2.381528377532959,1.6237311363220215,-0.9911580681800842,72.06932830810547,261.44189453125, 39.44694900512695
712,4264976073,0.50021434,0.2189688,-0.765617,0.34010148,2.9762625694274902,1.5691421031951904,-1.8174009323120117,78.8463363647461,267.5862731933594, 34.51084518432617
713,4264992740,0.5263103,0.20855306,-0.7412705,0.3605848,3.874082088470459,1.949597954750061,-2.2286529541015625,89.22602844238281,274.3296813964844, 27.71622085571289
714,4265009407,0.5527651,0.19716503,-0.71574944,0.37852314,5.146142482757568,1.3738023042678833,-3.169995069503784,75.1933822631836,279.2958984375, 20.987869262695312
715,4265026074,0.57863027,0.18487908,-0.68969405,0.39411813,6.181204795837402,0.41634440422058105,-5.315011024475098,62.48458480834961,277.7450866699219, 17.398067474365234
716,4265042741,0.602847,0.17260617,-0.66385347,0.40753105,6.599376678466797,-0.29957816004753113,-7.881638526916504,53.76825714111328,266.49334716796875, 13.458179473876953
717,4265059408,0.6247785,0.16064772,-0.6390808,0.41883186,7.2016072273254395,-0.5397348403930664,-8.936843872070312,45.24284744262695,248.57066345214844, 10.982441902160645
718,4265076075,0.64345556,0.14922106,-0.616984,0.427819,7.4054718017578125,-0.8940572142601013,-10.999691009521484,33.34878921508789,219.04969787597656, 11.078141212463379
719,4265092742,0.6576725,0.14060394,-0.5979476,0.4360692,6.839938640594482,-1.6533864736557007,-13.826436996459961,38.351444244384766,178.0018310546875, 12.196783065795898
720,4265109409,0.6663945,0.1385841,-0.58125573,0.44593152,5.707316875457764,-2.2656188011169434,-16.942867279052734,73.26416015625,127.11093139648438, 11.119660377502441
