PacketCounter,SampleTimeFine,Quat_W,Quat_X,Quat_Y,Quat_Z,Acc_X,Acc_Y,Acc_Z,Gyr_X,Gyr_Y,Gyr_Z 
1,234268290,0.7469485,0.16025943,-0.6144485,0.19707426,0,0,0,0,0, 0
2,234284957,0.7461574,0.15849416,-0.61526597,0.1989391,15.656017303466797,-0.18113945424556732,3.0088226795196533,0.4378683269023895,2.581254482269287, 3.629748582839966
3,234301624,0.74554044,0.15741216,-0.6158559,0.20028143,15.65799331665039,-0.19025082886219025,3.1710832118988037,0.6948789358139038,2.4952597618103027, 3.624037027359009
4,234318291,0.74556416,0.15686926,-0.61556995,0.201494,15.581865310668945,0.13062691688537598,3.0798795223236084,0.45460623502731323,2.1650993824005127, 3.2908031940460205
5,234334958,0.7458358,0.15729405,-0.6150863,0.20163462,15.653618812561035,-0.2335793524980545,2.969395399093628,0.5343641638755798,2.0045204162597656, 3.7327373027801514
6,234351625,0.7458354,0.15727921,-0.6150055,0.20189387,15.585503578186035,-0.1351199448108673,3.0844035148620605,-0.29553213715553284,2.0928969383239746, 3.8090760707855225
7,234368292,0.7459028,0.15726112,-0.61483425,0.20218052,15.41038703918457,-0.16311758756637573,2.914710521697998,0.030459903180599213,2.2111380100250244, 3.565089225769043
8,234384959,0.74587965,0.15723258,-0.6147596,0.20251517,15.53082275390625,-0.4075395464897156,2.983354091644287,0.6682161688804626,2.4265408515930176, 3.672585964202881
9,234401626,0.74584556,0.15691341,-0.6147379,0.20295289,15.292716979980469,0.008882414549589157,3.0427746772766113,0.254417359828949,2.711904525756836, 3.4358346462249756
10,234418293,0.7458813,0.15674022,-0.6146103,0.20334227,15.619146347045898,-0.3783230781555176,2.8968605995178223,0.5790455341339111,2.637448787689209, 3.898503065109253
11,234434960,0.7458572,0.1565377,-0.6145473,0.20377655,15.693180084228516,0.10775700956583023,3.2693798542022705,0.31332656741142273,2.839046001434326, 3.2391037940979004
12,234451627,0.7459736,0.15647182,-0.6143264,0.2040666,15.294699668884277,-0.09072981774806976,2.913442611694336,0.6278120279312134,2.7639238834381104, 3.106736898422241
13,234468294,0.7460811,0.15629642,-0.6141695,0.20428006,15.602603912353516,-0.4129805266857147,2.7872533798217773,-0.19652624428272247,2.772068977355957, 3.433171033859253
14,234484961,0.7460846,0.15622848,-0.6140419,0.20470238,15.459580421447754,-0.0072411103174090385,3.4673221111297607,1.3478492498397827,3.0142502784729004, 3.3162240982055664
15,234501628,0.7461704,0.15603308,-0.61391354,0.20492402,15.597338676452637,-0.25308287143707275,2.7041430473327637,0.24964061379432678,1.9643855094909668, 3.3035712242126465
16,234518295,0.7462083,0.15585133,-0.6138324,0.20516682,15.40100383758545,-0.012198016047477722,3.221324920654297,0.7426081299781799,2.398033857345581, 3.2941195964813232
17,234534962,0.7462331,0.15567416,-0.61377645,0.20537886,15.431475639343262,-0.249291330575943,2.9097886085510254,-0.18945714831352234,1.6885877847671509, 3.3169281482696533
18,234551629,0.7462046,0.15558921,-0.6137349,0.20567057,15.639037132263184,-0.31148794293403625,3.110140562057495,0.6271462440490723,1.5461939573287964, 3.2072927951812744
19,234568296,0.7462079,0.15547869,-0.6136938,0.20586471,15.593791961669922,-0.1401493102312088,3.056635618209839,0.39004939794540405,1.4954935312271118, 2.5899245738983154
20,234584963,0.7462846,0.15540068,-0.61356384,0.20603259,15.309942245483398,-0.11271487921476364,3.022542715072632,0.8011203408241272,2.1568520069122314, 2.2430896759033203
21,234601630,0.74633276,0.1553392,-0.61342514,0.20631777,15.483604431152344,-0.31459540128707886,2.7197306156158447,0.7804126143455505,2.1485278606414795, 2.7454187870025635
22,234618297,0.74641436,0.155255,-0.6132255,0.20667908,15.588972091674805,-0.03417612984776497,3.021702289581299,1.4562805891036987,3.0520412921905518, 3.018629789352417
23,234634964,0.7465834,0.15505223,-0.61297345,0.20696789,15.462226867675781,0.05855594947934151,2.993659496307373,0.32060056924819946,3.76023268699646, 3.0840442180633545
24,234651631,0.7467584,0.15484804,-0.6126987,0.20730242,15.477170944213867,-0.15414132177829742,2.8625237941741943,0.31724533438682556,3.9418139457702637, 3.4577081203460693
25,234668298,0.74688005,0.15464537,-0.61247915,0.20766479,15.625061988830566,-0.22279265522956848,3.074866533279419,0.8128766417503357,3.558865547180176, 3.782963991165161
26,234684965,0.7470128,0.15445055,-0.61225003,0.20800717,15.668691635131836,-0.03041272796690464,3.2781295776367188,0.6294898390769958,3.5708911418914795, 3.5177576541900635
27,234701632,0.74713624,0.1541513,-0.6121049,0.2082131,15.501547813415527,-0.2415877729654312,2.8729407787323,-0.5968785285949707,2.9208791255950928, 3.4458370208740234
28,234718299,0.7472385,0.1539596,-0.61190826,0.20856479,15.515787124633789,-0.32326221466064453,2.9652957916259766,0.6141605377197266,3.201824426651001, 3.6260604858398438
29,234734966,0.747398,0.1537285,-0.61167544,0.2088468,15.557551383972168,-0.1459689885377884,3.2749364376068115,0.44119793176651,3.6328346729278564, 3.2644600868225098
30,234751633,0.7474947,0.15354308,-0.61149746,0.20915854,15.60693359375,-0.4000360071659088,2.7275755405426025,0.5713105797767639,2.5319247245788574, 2.8564631938934326
31,234768300,0.74769837,0.15327653,-0.61117595,0.20956488,15.687174797058105,-0.2911168038845062,3.1960437297821045,0.6621971726417542,3.60345721244812, 2.835371255874634
32,234784967,0.7479079,0.15299304,-0.61086345,0.20993541,15.639466285705566,-0.05733560025691986,2.992173671722412,0.7001423835754395,3.364285945892334, 2.627382755279541
33,234801634,0.7481269,0.15263705,-0.6105439,0.21034408,15.58450984954834,-0.32787004113197327,2.8692967891693115,0.47472503781318665,3.5442543029785156, 3.0726091861724854
34,234818301,0.7484059,0.15227924,-0.61013603,0.21079312,15.379863739013672,0.02227078005671501,3.2431743144989014,0.5015159249305725,4.290095329284668, 3.042590379714966
35,234834968,0.7485978,0.15189657,-0.6098488,0.2112185,15.632874488830566,-0.41994768381118774,2.9105725288391113,0.25224030017852783,3.2963995933532715, 3.293146848678589
36,234851635,0.7488235,0.15156163,-0.60948235,0.21171673,15.667037010192871,0.026757758110761642,3.286673069000244,0.874692976474762,3.855895757675171, 3.3243298530578613
37,234868302,0.74902433,0.15116772,-0.60918283,0.2121491,15.6756591796875,-0.030240606516599655,3.0410447120666504,0.2518176734447479,3.4172914028167725, 3.3504550457000732
38,234884969,0.74923766,0.15071799,-0.6088738,0.21260254,15.66760540008545,-0.20062685012817383,2.985403299331665,0.221344992518425,3.6182167530059814, 3.7034690380096436
39,234901636,0.7494831,0.1502193,-0.6085222,0.21309625,15.682393074035645,-0.08344777673482895,3.2192938327789307,0.07287454605102539,4.09011173248291, 4.002976894378662
40,234918303,0.7497115,0.14972827,-0.60820305,0.21354893,15.424198150634766,-0.17097319662570953,2.880722761154175,-0.1191374808549881,3.797729969024658, 3.8132259845733643
41,234934970,0.7499305,0.14921938,-0.6078729,0.2140759,15.610649108886719,-0.43200576305389404,3.0488710403442383,0.31344184279441833,3.914203405380249, 4.314914226531982
42,234951637,0.750168,0.14878187,-0.6074888,0.21463792,15.503497123718262,0.12482032924890518,3.1889986991882324,0.7762120962142944,4.20503568649292, 4.086129188537598
43,234968304,0.7504089,0.14818059,-0.6071972,0.21503685,15.58804702758789,-0.5200135707855225,2.9290153980255127,-0.9490658044815063,3.8169901371002197, 4.014118671417236
44,234984971,0.7506393,0.14773116,-0.60683703,0.21555711,15.375490188598633,-0.2630743682384491,3.174348831176758,0.5656116604804993,4.0257978439331055, 3.970820188522339
45,235001638,0.7508431,0.14732483,-0.6065341,0.21597832,15.674846649169922,-0.33225923776626587,3.110407829284668,0.30049458146095276,3.4525725841522217, 3.375375747680664
46,235018305,0.75103915,0.14701942,-0.606226,0.2163692,15.540163040161133,-0.24134044349193573,3.240466594696045,0.5951687097549438,3.2724132537841797, 2.7786900997161865
47,235034972,0.75124997,0.14673062,-0.6059356,0.21664712,15.549267768859863,-0.18002893030643463,3.1521263122558594,0.3715442717075348,3.0936107635498047, 2.1708877086639404
48,235051639,0.7514732,0.1464803,-0.6056069,0.21696013,15.503570556640625,-0.21846109628677368,3.1163434982299805,0.7504969835281372,3.321974039077759, 2.1356704235076904
49,235068306,0.75168914,0.14621747,-0.6052971,0.21725449,15.572602272033691,-0.12395591288805008,3.0812604427337646,0.4521602988243103,3.2018377780914307, 2.0921671390533447
50,235084973,0.751914,0.14586417,-0.6049834,0.21758743,15.477158546447754,-0.27478235960006714,3.2155046463012695,0.20407557487487793,3.432504892349243, 2.6685547828674316
51,235101640,0.75214034,0.14552727,-0.604677,0.21788147,15.564486503601074,0.07327692955732346,3.094663143157959,0.3198833763599396,3.3266730308532715, 2.452626943588257
52,235118307,0.7523469,0.14516804,-0.6043804,0.21823078,15.435037612915039,-0.03538936376571655,3.096190929412842,0.2789415121078491,3.2916224002838135, 2.840864896774292
53,235134974,0.75252575,0.14477117,-0.6041072,0.21863423,15.461264610290527,-0.125211700797081,3.209899663925171,0.36172181367874146,3.1648271083831787, 3.3597018718719482
54,235151641,0.7527329,0.14422065,-0.6038734,0.21893084,15.273015022277832,-0.0478459894657135,3.13145112991333,-0.9918776154518127,3.204092025756836, 3.4369754791259766
55,235168308,0.7528371,0.14377719,-0.6036942,0.21935827,15.471068382263184,-0.47067034244537354,2.8650434017181396,0.1256110966205597,2.463564157485962, 3.8815853595733643
56,235184975,0.7529427,0.14335945,-0.6035018,0.21979827,15.4523286819458,-0.1749935746192932,3.4603476524353027,0.27367812395095825,2.5210518836975098, 3.8063104152679443
57,235201642,0.75302523,0.14298478,-0.6033485,0.22018015,15.395493507385254,-0.19900912046432495,3.011368989944458,0.2238486260175705,2.093742609024048, 3.404280424118042
58,235218309,0.7531652,0.14260739,-0.60314935,0.22049129,15.537581443786621,-0.4620690941810608,3.049757242202759,0.011468088254332542,2.5035712718963623, 2.9393203258514404
59,235234976,0.75334626,0.14238572,-0.6028562,0.22081736,15.268763542175293,-0.08680296689271927,3.2080554962158203,0.9999648928642273,2.9420738220214844, 2.218040943145752
60,235251643,0.7535316,0.1421289,-0.6025755,0.22111605,15.102265357971191,-0.3967868387699127,2.6995062828063965,0.5946692824363708,2.9235806465148926, 2.2105872631073
61,235268310,0.753765,0.14190441,-0.6022217,0.22142872,15.351362228393555,-0.3758417069911957,3.1890952587127686,0.9096158146858215,3.4691057205200195, 2.006082773208618
62,235284977,0.7539648,0.14171997,-0.60191923,0.2216888,15.246963500976562,-0.025292305275797844,3.126666784286499,0.9236772060394287,2.9429314136505127, 1.6833372116088867
63,235301644,0.7541805,0.14143296,-0.6016305,0.22192203,15.336989402770996,-0.25888675451278687,3.0957655906677246,0.24722018837928772,3.0658211708068848, 1.9623746871948242
64,235318311,0.7543684,0.14109573,-0.6013754,0.22218947,15.36721420288086,-0.1334550529718399,3.1976513862609863,0.21789366006851196,2.8778879642486572, 2.450514316558838
65,235334978,0.7545384,0.14068586,-0.60116947,0.22242942,15.432028770446777,-0.16915424168109894,3.1029601097106934,-0.3019225299358368,2.6292784214019775, 2.692938804626465
66,235351645,0.7547335,0.14035358,-0.60087085,0.2227838,15.316221237182617,0.049034565687179565,3.1130924224853516,0.6283371448516846,3.211249828338623, 2.82356333732605
67,235368312,0.7549243,0.13989103,-0.6006339,0.22306718,15.355793952941895,-0.3191740810871124,2.8890860080718994,-0.5224734544754028,3.0102288722991943, 3.041553020477295
68,235384979,0.75514305,0.13950466,-0.6003181,0.22341847,15.239558219909668,-0.170752614736557,3.028934955596924,0.3713393807411194,3.4800171852111816, 2.99041748046875
69,235401646,0.75538075,0.13910773,-0.599994,0.22373278,15.220614433288574,-0.41510656476020813,2.967616319656372,0.2686196267604828,3.5752580165863037, 2.8352432250976562
70,235418313,0.7556138,0.13879342,-0.5996499,0.22406349,15.208057403564453,-0.24953851103782654,3.0981497764587402,0.7411354780197144,3.5539989471435547, 2.550851821899414
71,235434980,0.7558435,0.13850456,-0.59931713,0.22435713,15.339415550231934,-0.21591398119926453,3.1764657497406006,0.6079366207122803,3.4139742851257324, 2.245868682861328
72,235451647,0.7560482,0.13822503,-0.5990211,0.22463033,15.428855895996094,-0.04347464069724083,3.299243450164795,0.5630888342857361,3.084223508834839, 2.183668375015259
73,235468314,0.75625116,0.13785788,-0.5987607,0.2248673,15.14021110534668,0.04222062975168228,2.9859793186187744,0.03225279971957207,2.982208728790283, 2.4315996170043945
74,235484981,0.7564673,0.13737278,-0.5984953,0.22514342,15.292441368103027,-0.30630600452423096,3.1124417781829834,-0.447581946849823,3.2875120639801025, 3.095301389694214
75,235501648,0.7566228,0.13694522,-0.5982921,0.22542149,15.207853317260742,-0.13587242364883423,3.115140914916992,-0.10735564678907394,2.6225810050964355, 3.0399396419525146
76,235518315,0.75679594,0.13653749,-0.5980692,0.22567816,15.262852668762207,-0.35681742429733276,3.012587785720825,-0.18836863338947296,2.756227970123291, 2.775296211242676
77,235534982,0.7569439,0.13622032,-0.5978443,0.22596957,15.393656730651855,-0.3666131794452667,3.0548489093780518,0.5051785111427307,2.5540664196014404, 2.634490489959717
78,235551649,0.75718707,0.13598369,-0.5974955,0.22622018,15.231489181518555,0.09011688828468323,3.162625312805176,0.8760377168655396,3.4281771183013916, 1.8319679498672485
79,235568316,0.7574754,0.13553804,-0.59714156,0.22645661,15.209994316101074,-0.16073690354824066,2.90588116645813,-0.3407386243343353,3.9559013843536377, 2.5406200885772705
80,235584983,0.75779873,0.13503113,-0.59673065,0.22676048,15.258014678955078,0.07743711769580841,3.2619011402130127,-0.23687908053398132,4.551972389221191, 3.0633108615875244
81,235601650,0.75807476,0.13445432,-0.59638625,0.22708659,15.212794303894043,-0.16529354453086853,2.9993181228637695,-0.581882119178772,4.14061975479126, 3.605839252471924
82,235618317,0.75828797,0.13389233,-0.5961012,0.22745468,15.36757755279541,-0.15722531080245972,3.143909454345703,-0.386918306350708,3.5941476821899414, 3.914229393005371
83,235634984,0.7585063,0.13336203,-0.5957905,0.22785172,15.05751895904541,0.0010148027213290334,3.2962307929992676,-0.11994428932666779,3.732391834259033, 3.8924331665039062
84,235651651,0.75864893,0.13273801,-0.595654,0.2280981,14.975975036621094,-0.45957842469215393,2.9116830825805664,-1.2007875442504883,2.501509189605713, 3.838287115097046
85,235668318,0.7586808,0.13243346,-0.5955054,0.22855632,15.153986930847168,-0.3895898759365082,3.327190399169922,1.2294799089431763,1.826294183731079, 3.7329673767089844
86,235684985,0.7587296,0.13203867,-0.59544957,0.2287687,15.114989280700684,-0.36679065227508545,3.209333658218384,-0.3241799473762512,1.3219034671783447, 2.9015283584594727
87,235701652,0.75878906,0.13174592,-0.59537303,0.22893897,14.997016906738281,-0.3464505970478058,2.978023052215576,0.0421777106821537,1.2772860527038574, 2.2249302864074707
88,235718319,0.75886947,0.13155016,-0.59523916,0.22913307,15.033590316772461,-0.22419656813144684,2.9607667922973633,0.7144342064857483,1.5356414318084717, 1.8686448335647583
89,235734986,0.7590005,0.13133664,-0.5950364,0.22934869,15.07287883758545,-0.15748991072177887,3.097687244415283,0.7366532683372498,2.1584014892578125, 1.9060522317886353
90,235751653,0.7591469,0.13108666,-0.59483206,0.22953732,15.271215438842773,-0.18904444575309753,2.929126262664795,0.39576104283332825,2.2662181854248047, 1.8841663599014282
91,235768320,0.75937074,0.13075358,-0.59457105,0.22966245,15.12432861328125,-0.15623773634433746,3.1128182411193848,-0.10896922647953033,2.9391019344329834, 1.7682558298110962
92,235784987,0.7596163,0.13047312,-0.5942295,0.22989379,14.864991188049316,-0.32067644596099854,2.7465403079986572,0.6518497467041016,3.4626898765563965, 1.9851573705673218
93,235801654,0.7599262,0.13007505,-0.5938053,0.23019156,15.248701095581055,-0.21345195174217224,2.9564905166625977,0.42188599705696106,4.40064001083374, 2.6454527378082275
94,235818321,0.7603191,0.12962452,-0.5932964,0.23045966,15.139421463012695,-0.0019804479088634253,3.323737621307373,0.14389857649803162,5.233321666717529, 2.51495623588562
95,235834988,0.76070017,0.1291192,-0.5928433,0.23065199,14.885583877563477,-0.14301100373268127,2.906554937362671,-0.584456205368042,4.911446571350098, 2.399301767349243
96,235851655,0.76099646,0.12878367,-0.592415,0.23096241,15.20544147491455,-0.3612193763256073,3.0824272632598877,0.7310312390327454,4.2828216552734375, 2.4561619758605957
97,235868322,0.76126146,0.12867957,-0.5919768,0.23127078,15.081155776977539,0.04059826582670212,3.5641350746154785,2.177687883377075,3.817528009414673, 1.6022729873657227
98,235884989,0.76148283,0.12840255,-0.5917283,0.23133183,15.16821002960205,-0.39292287826538086,2.7977380752563477,-0.04607724770903587,2.7023510932922363, 1.2402502298355103
99,235901656,0.76175475,0.12816522,-0.5913811,0.2314561,14.917060852050781,-0.06793824583292007,3.2112274169921875,0.6061820983886719,3.416689157485962, 1.2635064125061035
100,235918323,0.7620045,0.12787102,-0.5910916,0.23153616,15.181818008422852,-0.15849901735782623,2.918046236038208,0.15439976751804352,3.065065622329712, 1.3836044073104858
101,235934990,0.7622787,0.1276136,-0.5907274,0.23170492,15.241823196411133,-0.12404873967170715,3.1405160427093506,0.6686388850212097,3.5942628383636475, 1.5561190843582153
102,235951657,0.7625888,0.12739308,-0.5902951,0.23190774,15.012238502502441,0.04088081046938896,3.1865296363830566,1.0797353982925415,4.070581912994385, 1.472787857055664
103,235968324,0.7629111,0.12699653,-0.58991104,0.23204216,15.179922103881836,-0.24477216601371765,2.862682819366455,-0.15635272860527039,4.082068920135498, 1.8744333982467651
104,235984991,0.7632851,0.12669167,-0.5893994,0.23227899,14.987153053283691,0.1991826295852661,3.3133790493011475,0.9412348866462708,4.906081199645996, 1.861191987991333
105,236001658,0.7635984,0.12631339,-0.58899117,0.23249069,15.288839340209961,-0.1379900425672531,2.9802191257476807,0.3564007580280304,4.209614276885986, 2.228497266769409
106,236018325,0.7639175,0.12598674,-0.5885509,0.23273464,15.343644142150879,0.022361531853675842,3.2525906562805176,0.8243767619132996,4.350643634796143, 2.1615262031555176
107,236034992,0.7642398,0.1255289,-0.58817494,0.23287383,15.245184898376465,0.08673473447561264,3.0842490196228027,-0.4040403664112091,4.147983551025391, 2.196692705154419
108,236051659,0.76451087,0.1251849,-0.5877741,0.23318116,15.199387550354004,0.04334640875458717,2.992908239364624,0.9401845932006836,4.040512561798096, 2.682373285293579
109,236068326,0.7647907,0.1246279,-0.5874142,0.23346832,15.047633171081543,0.18054741621017456,3.0387747287750244,-0.2393122762441635,4.179512977600098, 3.4954874515533447
110,236084993,0.7650542,0.12404211,-0.5870292,0.233886,15.393189430236816,-0.15883907675743103,3.111253499984741,0.14353996515274048,4.4132795333862305, 4.296472549438477
111,236101660,0.7653159,0.123486206,-0.58663803,0.23430534,15.24779224395752,0.18304336071014404,3.31609845161438,0.2967551350593567,4.3980393409729, 4.178538799285889
112,236118327,0.7655363,0.12285147,-0.58632874,0.23469207,15.318042755126953,-0.374160498380661,2.8957080841064453,-0.4286285936832428,3.910233736038208, 4.443720817565918
113,236134994,0.7657741,0.12231985,-0.5859574,0.23512088,15.2435302734375,-0.17784932255744934,3.1360952854156494,0.4623285233974457,4.173737525939941, 4.1995930671691895
114,236151661,0.7660576,0.12180184,-0.58556634,0.23544036,15.270563125610352,-0.19630534946918488,3.2099087238311768,0.05480477958917618,4.355458736419678, 3.4723331928253174
115,236168328,0.76628065,0.12135946,-0.5852552,0.23571666,15.06982135772705,-0.3252362608909607,2.974199056625366,0.23949800431728363,3.5310888290405273, 3.1229631900787354
116,236184995,0.7664756,0.120925836,-0.58496034,0.2360373,15.165752410888672,-0.3985188603401184,3.0015060901641846,0.4817941188812256,3.3589718341827393, 3.389770746231079
117,236201662,0.7666449,0.12055741,-0.58471787,0.23627633,15.376599311828613,-0.14454124867916107,3.243318557739258,0.5453521013259888,2.7982070446014404, 2.822885036468506
118,236218329,0.7668354,0.120259665,-0.5844193,0.236549,15.085752487182617,0.026251783594489098,2.9209487438201904,1.075893521308899,3.10188364982605, 2.625859022140503
119,236234996,0.76701355,0.119884804,-0.5841345,0.23686522,15.491154670715332,-0.30871492624282837,2.9343349933624268,0.7718708515167236,3.157835006713867, 3.1864445209503174
120,236251663,0.76723593,0.11945204,-0.5838108,0.23716094,15.34961223602295,-0.0315445251762867,3.335050582885742,0.40800386667251587,3.6263928413391113, 3.2078816890716553
121,236268330,0.7673924,0.1190221,-0.58357924,0.23744078,15.4825439453125,-0.1442146599292755,2.8826887607574463,0.2944371998310089,2.8488428592681885, 3.311882257461548
122,236284997,0.76757,0.11856597,-0.58328485,0.23781829,15.363419532775879,-0.054696571081876755,3.258070945739746,0.6869390606880188,3.3832008838653564, 3.8662307262420654
123,236301664,0.76772696,0.118024275,-0.5830541,0.23814642,15.29283618927002,-0.17691674828529358,2.9163293838500977,-0.11816419661045074,3.0676653385162354, 4.012185096740723
124,236318331,0.7678789,0.117509045,-0.58281106,0.23850618,15.322978019714355,-0.40405964851379395,2.9703261852264404,0.29643499851226807,3.0784482955932617, 4.114904403686523
125,236334998,0.7680887,0.11706971,-0.58245456,0.23891683,15.368857383728027,-0.11562276631593704,3.126758337020874,0.9383916854858398,3.840797185897827, 3.8520030975341797
126,236351665,0.76831806,0.11657029,-0.58211154,0.23925987,15.710902214050293,-0.20519478619098663,2.9908173084259033,0.27775052189826965,3.8951988220214844, 3.70479416847229
127,236368332,0.7686315,0.11600864,-0.5816839,0.23956528,15.681718826293945,0.05091280862689018,3.5828073024749756,-0.05248043313622475,4.743581295013428, 3.579484224319458
128,236384999,0.768855,0.11548257,-0.58141583,0.23975351,15.712140083312988,-0.04432591423392296,3.0727765560150146,-0.5220893621444702,3.379755973815918, 3.1027674674987793
129,236401666,0.76902324,0.11517002,-0.581124,0.24007085,15.477455139160156,-0.38794082403182983,3.093848705291748,1.0802348852157593,3.0585601329803467, 2.9626405239105225
130,236418333,0.76920813,0.11485517,-0.5808601,0.24026851,15.682726860046387,-0.44321125745773315,2.950460195541382,0.7105667591094971,2.8613548278808594, 2.400876760482788
131,236435000,0.7694247,0.11466966,-0.580536,0.24044667,15.590194702148438,-0.2896973490715027,3.053217887878418,1.3087513446807861,3.096940040588379, 1.6500403881072998
132,236451667,0.7696746,0.114380136,-0.5802211,0.2405441,15.615178108215332,-0.3358878195285797,2.9777028560638428,0.4484975337982178,3.2852957248687744, 1.6143747568130493
133,236468334,0.7698904,0.11411353,-0.57996106,0.24060774,15.816047668457031,-0.11112822592258453,2.9834747314453125,0.3599545359611511,2.802945137023926, 1.4427313804626465
134,236485001,0.7700467,0.11393096,-0.5797545,0.24069187,15.759819030761719,0.13790522515773773,3.3614840507507324,0.9002159833908081,2.1575050354003906, 1.3863193988800049
135,236501668,0.7701177,0.11377701,-0.579668,0.24074587,15.881933212280273,-0.18979711830615997,2.964275360107422,0.8449821472167969,1.1029404401779175, 1.3786226511001587
136,236518335,0.77025956,0.11356046,-0.5794632,0.24088755,15.701597213745117,0.011328183114528656,3.0345678329467773,0.9884133338928223,2.1959242820739746, 1.8825016021728516
137,236535002,0.7704174,0.11323614,-0.57927537,0.2409877,15.867522239685059,-0.1287199705839157,3.0614051818847656,0.20872431993484497,2.3220410346984863, 2.0874416828155518
138,236551669,0.7706222,0.11290351,-0.5789841,0.2411882,15.98454475402832,-0.10461879521608353,2.8183364868164062,0.6006242632865906,3.171870470046997, 2.461848258972168
139,236568336,0.7710499,0.112657264,-0.5783703,0.2414093,15.902278900146484,0.26418450474739075,3.0034186840057373,1.5993785858154297,5.636554718017578, 1.6548556089401245
140,236585003,0.7715734,0.11264175,-0.5775553,0.24169476,15.908370018005371,-0.5036728978157043,3.1058833599090576,3.319451093673706,6.76181173324585, 0.7726776599884033
141,236601670,0.77217823,0.11384454,-0.5762481,0.24231914,16.16139793395996,-1.0273072719573975,3.29823637008667,11.929963111877441,7.934147834777832, -2.7634074687957764
142,236618337,0.7732218,0.117084354,-0.5736973,0.24349703,16.309337615966797,-1.8340106010437012,3.4617066383361816,26.853092193603516,13.292298316955566, -9.529045104980469
143,236635004,0.775056,0.121664084,-0.5692019,0.24595805,15.367204666137695,-1.8386427164077759,3.2690625190734863,41.74500274658203,25.538373947143555, -10.863300323486328
144,236651671,0.77678716,0.12483299,-0.56572264,0.24693449,14.290600776672363,-0.23370769619941711,2.569326162338257,26.979598999023438,20.84726333618164, -12.159799575805664
145,236668338,0.7781355,0.12611109,-0.56386846,0.24627975,15.23018741607666,0.8152900338172913,2.5951058864593506,8.247049331665039,12.489017486572266, -11.393733978271484
146,236685005,0.77923954,0.12664326,-0.56255525,0.24551754,15.531571388244629,1.913680911064148,3.5950653553009033,3.092050075531006,9.848735809326172, -8.177205085754395
147,236701672,0.7798338,0.12646636,-0.56203806,0.2449061,15.972419738769531,1.290872573852539,2.917902708053589,-0.9655860066413879,4.936098575592041, -2.9896295070648193
148,236718339,0.7798997,0.12660022,-0.561762,0.24526061,16.324209213256836,1.458428978919983,3.5915794372558594,4.389101982116699,1.9540379047393799, 2.0791430473327637
149,236735006,0.7796661,0.12673374,-0.56174433,0.24597341,15.755685806274414,1.8553845882415771,3.0416276454925537,5.62956428527832,-0.2721990644931793, 4.785228252410889
150,236751673,0.7792194,0.1269883,-0.56191504,0.2468655,15.675549507141113,0.8989332318305969,2.802205801010132,6.84564208984375,-2.1424899101257324, 5.845415115356445
151,236768340,0.7787238,0.1271719,-0.5620746,0.24796946,15.401152610778809,0.07051694393157959,3.312833786010742,7.413003444671631,-1.9649814367294312, 7.369141578674316
152,236785007,0.77847695,0.12702511,-0.5619842,0.24902277,15.194490432739258,-0.37708884477615356,2.7424564361572266,5.7004852294921875,0.8425619602203369, 7.7408576011657715
153,236801674,0.778353,0.12637034,-0.56195825,0.2498001,15.407427787780762,-0.5408785343170166,3.270212173461914,1.6476585865020752,1.6120184659957886, 8.027859687805176
154,236818341,0.7783524,0.12569198,-0.56195295,0.25015628,15.112186431884766,-0.3125002682209015,3.1451501846313477,-0.23982453346252441,1.6444956064224243, 5.656187057495117
155,236835008,0.7782812,0.12504798,-0.5622098,0.25012326,15.27443790435791,-0.5159659385681152,3.353466272354126,-1.9408020973205566,-0.4342248737812042, 3.7813498973846436
156,236851675,0.778143,0.12443094,-0.5627165,0.2497211,15.501216888427734,-0.09606615453958511,3.157630681991577,-3.606640100479126,-2.399282693862915, 2.0125374794006348
157,236868342,0.77801746,0.12360964,-0.5633956,0.24898815,15.564178466796875,0.13877040147781372,3.19126033782959,-6.2603983879089355,-3.2106804847717285, 1.1694313287734985
158,236885009,0.77792495,0.12254244,-0.56413966,0.24811846,15.151238441467285,0.46856024861335754,2.9407827854156494,-8.342556953430176,-3.111264944076538, 1.3442572355270386
159,236901676,0.77767664,0.121390305,-0.565044,0.24740453,15.427985191345215,0.015426315367221832,2.607597827911377,-8.33309268951416,-4.297338008880615, 2.9185869693756104
160,236918343,0.77750105,0.12079097,-0.56548995,0.2472304,15.687331199645996,0.428247332572937,3.2498629093170166,-2.586101531982422,-2.040550947189331, 3.1388940811157227
161,236935010,0.77741516,0.12041808,-0.5656893,0.24722686,15.503498077392578,0.5051783919334412,2.8849804401397705,-0.3334261178970337,-0.6242583394050598, 2.8425421714782715
162,236951677,0.77731264,0.120089434,-0.56581575,0.24741942,15.507148742675781,0.041892848908901215,2.577802896499634,0.6538730263710022,-0.1811714470386505, 3.6238832473754883
163,236968344,0.7772034,0.11970873,-0.56590533,0.24774203,15.584600448608398,0.334161639213562,3.271056652069092,1.0508443117141724,0.17953865230083466, 4.556673049926758
164,236985011,0.77709836,0.11913889,-0.5660789,0.24794963,15.485928535461426,0.5742312073707581,2.825587511062622,-0.6225296258926392,-0.014842561446130276, 4.715638160705566
165,237001678,0.77698326,0.11857744,-0.5662775,0.24812606,15.406258583068848,-0.07374019175767899,2.700254440307617,-0.7722486853599548,-0.21439111232757568, 4.549642086029053
166,237018345,0.7770198,0.11772085,-0.5663637,0.24822234,15.20100212097168,0.019592203199863434,2.646310567855835,-2.5175747871398926,1.4107155799865723, 4.960622787475586
167,237035012,0.777122,0.116561204,-0.56645656,0.24823798,15.197096824645996,-0.2450789362192154,2.5276944637298584,-4.552184581756592,2.097597360610962, 5.5891594886779785
168,237051679,0.7773394,0.1154152,-0.5663867,0.24825175,15.195590019226074,0.2925494909286499,2.936171531677246,-4.302268981933594,3.4013607501983643, 5.199154853820801
169,237068346,0.7775156,0.115037546,-0.5661088,0.24850895,15.364544868469238,0.019381927326321602,2.570230484008789,0.9308103919029236,3.2763447761535645, 3.317082166671753
170,237085013,0.7776648,0.11503569,-0.5657127,0.24894491,15.356243133544922,-0.07502599060535431,2.7829244136810303,4.0928521156311035,3.2721447944641113, 2.8962652683258057
171,237101680,0.77782595,0.11500813,-0.56536806,0.24923722,15.253708839416504,0.22206975519657135,2.667492628097534,3.19549822807312,3.003838300704956, 2.1997787952423096
172,237118347,0.778023,0.11457594,-0.5651722,0.24926516,15.215996742248535,-0.10407837480306625,2.263763427734375,-0.11719091981649399,2.811896800994873, 2.5176963806152344
173,237135014,0.778302,0.11385307,-0.5649508,0.24922718,15.12059497833252,0.0878167524933815,2.6835055351257324,-2.0651650428771973,3.755507469177246, 3.077129602432251
174,237151681,0.7784518,0.11319265,-0.56485754,0.24927196,15.382397651672363,-0.2633482813835144,2.5923216342926025,-1.600806713104248,2.5502889156341553, 3.571160078048706
175,237168348,0.77858305,0.11298274,-0.5645838,0.24957666,15.53148078918457,0.32983943819999695,2.9532172679901123,2.167865514755249,2.883894443511963, 3.1219899654388428
176,237185015,0.77887,0.11250723,-0.5642684,0.24960946,15.262528419494629,0.595633327960968,2.6962225437164307,-0.37965714931488037,3.9683616161346436, 2.407088279724121
177,237201682,0.7790977,0.11167231,-0.5641391,0.2495663,15.299854278564453,0.0041796243749558926,2.551921844482422,-2.9197325706481934,3.3208463191986084, 3.6404166221618652
178,237218349,0.77922344,0.11142337,-0.56385654,0.24992336,15.348072052001953,0.030778488144278526,3.1583683490753174,2.1601176261901855,3.0557682514190674, 3.605903148651123
179,237235016,0.7792512,0.1121203,-0.56339896,0.25055665,15.391321182250977,-0.07591591775417328,2.677663803100586,8.680025100708008,2.203249931335449, 1.4695484638214111
180,237251683,0.7792751,0.11376604,-0.5625653,0.25161085,15.29872989654541,-0.20307686924934387,2.6116461753845215,16.081275939941406,2.9005064964294434, -0.20597751438617706
181,237268350,0.7794216,0.11523445,-0.5616483,0.25253588,15.031063079833984,0.027102401480078697,2.6533827781677246,14.762128829956055,4.021459102630615, -0.4422163963317871
182,237285017,0.7795561,0.11631978,-0.5608819,0.25332507,14.846495628356934,0.11310789734125137,2.374089479446411,12.042463302612305,3.7078945636749268, 0.516922116279602
183,237301684,0.77960587,0.11691213,-0.56041455,0.2539329,15.192314147949219,0.1323559731245041,2.5234198570251465,8.186452865600586,2.510281562805176, 1.7987096309661865
184,237318351,0.7797068,0.117254615,-0.5599917,0.25439736,15.193936347961426,0.3806420564651489,2.6015677452087402,6.24376916885376,2.77886962890625, 1.9831085205078125
185,237335018,0.77978987,0.11765964,-0.5595706,0.25488213,15.203514099121094,0.36994341015815735,2.4169695377349854,6.593637943267822,2.6238484382629395, 1.8477450609207153
186,237351685,0.77992666,0.11816629,-0.5590934,0.25527626,14.95433521270752,0.2961651682853699,2.5027430057525635,6.939691543579102,2.8640317916870117, 0.8983207941055298
187,237368352,0.7801007,0.11879617,-0.55844235,0.25587627,14.752943992614746,-0.09936759620904922,2.4100534915924072,8.71226978302002,3.8827128410339355, 1.3561735153198242
188,237385019,0.78023326,0.11933033,-0.55786127,0.2564903,14.475517272949219,-0.4118221402168274,2.2667367458343506,8.126687049865723,3.5401949882507324, 1.9018138647079468
189,237401686,0.7802627,0.119558126,-0.55746824,0.2571486,14.655672073364258,-0.36099734902381897,2.68345308303833,6.429064750671387,2.71262264251709, 3.6538639068603516
190,237418353,0.7802697,0.11943586,-0.5572792,0.25759336,14.884053230285645,0.3831174969673157,2.7608628273010254,3.3737881183624268,1.9778321981430054, 4.040038585662842
191,237435020,0.7802014,0.11923861,-0.5573203,0.2578033,15.500215530395508,0.5485126972198486,2.9402663707733154,1.8464006185531616,0.3667675256729126, 3.4820406436920166
192,237451687,0.7801929,0.118684344,-0.557481,0.2577364,15.302003860473633,0.6805588603019714,2.751220703125,-1.4092620611190796,0.36464163661003113, 3.3645036220550537
193,237468354,0.78027546,0.11761638,-0.5576402,0.2576319,14.859683990478516,0.113667331635952,2.0068013668060303,-4.432944297790527,1.6147209405899048, 4.957767963409424
194,237485021,0.7804896,0.11623973,-0.5575868,0.2577237,14.529415130615234,0.2817597985267639,2.2115557193756104,-5.093100070953369,3.986483097076416, 6.778140544891357
195,237501688,0.7807837,0.11463537,-0.557438,0.257873,14.721043586730957,0.21882657706737518,2.207035541534424,-6.003119945526123,5.26389217376709, 7.745622634887695
196,237518355,0.7810702,0.113121256,-0.5571592,0.25827643,14.900002479553223,-0.04637336730957031,2.763226270675659,-4.387879848480225,6.001256465911865, 8.633974075317383
197,237535022,0.78126097,0.111562006,-0.55691665,0.2589004,14.752443313598633,0.1679595559835434,2.711761713027954,-3.7620849609375,5.6887688636779785, 10.206684112548828
198,237551689,0.7813754,0.11007431,-0.5567542,0.25954014,14.855032920837402,0.2376123070716858,2.6842496395111084,-3.44999361038208,4.864551067352295, 10.196067810058594
199,237568356,0.78148776,0.10857105,-0.55663824,0.26008373,14.397245407104492,0.2980542778968811,2.772184133529663,-3.958496332168579,4.558979511260986, 9.81340217590332
200,237585023,0.78148115,0.10698937,-0.5567404,0.26053923,14.434977531433105,-0.23391710221767426,2.5110976696014404,-4.974167823791504,2.9930694103240967, 10.066454887390137
201,237601690,0.781409,0.1052312,-0.55696815,0.26098448,14.051870346069336,-0.26422935724258423,2.2668323516845703,-6.2618608474731445,2.4168221950531006, 10.814949989318848
202,237618357,0.7813791,0.10341945,-0.5572639,0.26116708,14.905893325805664,-0.036542799323797226,2.735564708709717,-7.7556586265563965,2.142906904220581, 9.55311393737793
203,237635024,0.78133273,0.10162318,-0.55778736,0.26089326,14.51800537109375,-0.1912185400724411,2.883558511734009,-9.864799499511719,0.523952841758728, 7.2170281410217285
204,237651691,0.7812481,0.099904954,-0.55853015,0.26022017,13.701324462890625,-0.5221902132034302,2.5361130237579346,-11.395390510559082,-1.2028498649597168, 4.9687957763671875
205,237668358,0.7809689,0.09850398,-0.5594989,0.25951073,13.897252082824707,-0.6320441961288452,2.4679362773895264,-10.159204483032227,-3.7344870567321777, 4.017360210418701
206,237685025,0.7807372,0.097395994,-0.5603368,0.25881684,14.278635025024414,-0.40033411979675293,2.46560001373291,-8.40767765045166,-3.3256819248199463, 2.7390804290771484
207,237701692,0.78059316,0.09695773,-0.5609071,0.25817975,13.89519214630127,-0.5406216382980347,2.2840707302093506,-4.299745559692383,-2.652310848236084, 0.04660871624946594
208,237718359,0.78036094,0.0971344,-0.5613904,0.2577649,13.782866477966309,-0.8301095962524414,2.1686959266662598,0.11069168150424957,-3.4650139808654785, -1.001021146774292
209,237735026,0.7801694,0.097474724,-0.56172675,0.25748324,13.752814292907715,-0.42965835332870483,2.0789546966552734,1.7207955121994019,-2.696504831314087, -1.1051238775253296
210,237751693,0.780068,0.09775668,-0.5619589,0.2571762,13.811527252197266,-0.06659146398305893,2.187284231185913,1.3534455299377441,-1.660689115524292, -1.2999086380004883
211,237768360,0.7800893,0.09775048,-0.5620938,0.25681928,13.942042350769043,0.00836577545851469,2.2143492698669434,-0.34451642632484436,-0.16520190238952637, -0.7606971263885498
212,237785027,0.7801851,0.09748755,-0.56217015,0.2564612,13.74655532836914,0.08063424378633499,2.2042858600616455,-1.6132540702819824,0.8713887929916382, 0.11098622530698776
213,237801694,0.78027487,0.096958354,-0.56229407,0.25611657,13.83387565612793,0.12512163817882538,2.302769184112549,-3.0132315158843994,1.0508185625076294, 1.3085591793060303
214,237818361,0.7803714,0.09638047,-0.5623728,0.2558675,13.657479286193848,0.1557982712984085,2.3041903972625732,-2.959009885787964,1.508844256401062, 1.8797162771224976
215,237835028,0.78047377,0.09613155,-0.56230545,0.25579682,13.59583568572998,-0.24971337616443634,2.1279237270355225,-0.2810481786727905,1.8586176633834839, 1.4448060989379883
216,237851695,0.7806062,0.09612647,-0.562106,0.25583288,13.338733673095703,-0.2163073718547821,2.2841837406158447,1.613171100616455,2.3397905826568604, 0.9003185033798218
217,237868362,0.78072083,0.096237965,-0.5619306,0.25582692,13.031912803649902,-0.2827260196208954,2.1797688007354736,2.0626227855682373,1.897139072418213, 0.2816692590713501
218,237885029,0.78073364,0.096277036,-0.56191415,0.25580934,12.943421363830566,-0.0635632872581482,2.1082539558410645,1.4708219766616821,0.7460082769393921, 0.8204900026321411
219,237901696,0.7806743,0.09623173,-0.5620344,0.2557434,13.040838241577148,0.07360263913869858,2.3311758041381836,0.5939777493476868,-0.13713039457798004, 1.070578932762146
220,237918363,0.78057253,0.09598115,-0.5622847,0.2555976,13.00076961517334,-0.052228230983018875,2.3384387493133545,-1.1255755424499512,-0.655428946018219, 1.5158683061599731
221,237935030,0.78046703,0.0955523,-0.5626159,0.25535166,13.057592391967773,-0.09915555268526077,2.181548833847046,-2.496777057647705,-0.9054602384567261, 1.8216583728790283
222,237951697,0.7804169,0.09502619,-0.5629077,0.25505835,12.793684005737305,-0.2126792073249817,2.1625258922576904,-3.237368583679199,-0.313461035490036, 1.7688708305358887
223,237968364,0.78038824,0.09468435,-0.5631011,0.25484598,12.566545486450195,-0.3553670346736908,1.9782469272613525,-1.8933931589126587,0.0750259980559349, 1.2933324575424194
224,237985031,0.7803761,0.09453163,-0.5632121,0.25469425,12.36191463470459,-0.2536771595478058,1.8853892087936401,-0.4470568895339966,0.26868367195129395, 0.8505657911300659
225,238001698,0.7803537,0.0943141,-0.5633479,0.2545432,12.114241600036621,-0.15527643263339996,1.882264256477356,-0.855413019657135,0.22652512788772583, 1.1162974834442139
226,238018365,0.78030396,0.09390315,-0.5635879,0.25431624,12.044397354125977,0.0030010121408849955,1.8671748638153076,-2.4140737056732178,-0.11898379027843475, 1.5249353647232056
227,238035032,0.7801459,0.093511306,-0.5639702,0.2540982,12.140379905700684,-0.027902673929929733,1.8575929403305054,-2.4816014766693115,-1.3138160705566406, 1.7658098936080933
228,238051699,0.77994615,0.09312235,-0.5644179,0.2538598,12.174240112304688,-0.08212113380432129,2.110074520111084,-2.5526771545410156,-1.8714560270309448, 1.834093689918518
229,238068366,0.77977234,0.092547156,-0.56491107,0.25350678,12.101122856140137,0.08142898976802826,2.071871042251587,-4.210920333862305,-1.7085849046707153, 1.8341190814971924
230,238085033,0.77960354,0.09198925,-0.5654043,0.25312898,11.915560722351074,-0.06188783794641495,2.013718843460083,-4.319376468658447,-1.6870956420898438, 1.553301215171814
231,238101700,0.77949876,0.09149979,-0.5657704,0.25281098,11.589223861694336,-0.2330140322446823,1.8456250429153442,-3.5278427600860596,-0.8385342955589294, 1.4334598779678345
232,238118367,0.7794209,0.091168545,-0.5660019,0.25265276,11.246519088745117,-0.29141485691070557,1.6777437925338745,-1.8979779481887817,-0.15261326730251312, 1.4969918727874756
233,238135034,0.7792781,0.09099325,-0.5662565,0.25258604,11.270135879516602,-0.3925010859966278,1.755904197692871,-0.7171811461448669,-0.7276183366775513, 1.4973247051239014
234,238151701,0.77911943,0.09088645,-0.5665112,0.25254253,11.322834968566895,-0.06334781646728516,1.9845352172851562,-0.25952067971229553,-0.8788614273071289, 1.371809720993042
235,238168368,0.7789517,0.09055772,-0.5668611,0.2523926,11.25556468963623,0.03916960209608078,1.7714027166366577,-2.0605671405792236,-1.0834299325942993, 1.7189642190933228
236,238185035,0.7787733,0.090100326,-0.5672563,0.25221908,11.172123908996582,0.1336134374141693,1.8212441205978394,-2.9652466773986816,-1.1242311000823975, 2.108943462371826
237,238201702,0.7786071,0.08959168,-0.56764174,0.25204626,10.919063568115234,0.09490904957056046,1.7899106740951538,-3.167881727218628,-0.9568138122558594, 2.353199005126953
238,238218369,0.7783936,0.08925029,-0.5680398,0.25193024,10.887703895568848,-0.08828487992286682,1.674068570137024,-2.030228853225708,-1.4621392488479614, 2.119649648666382
239,238235036,0.7781825,0.08932286,-0.56828815,0.2519962,10.533267974853516,-0.04723532870411873,1.745421290397644,1.0894938707351685,-1.2141062021255493, 1.3340694904327393
240,238251703,0.7779382,0.08944493,-0.5685495,0.25211757,10.313525199890137,-0.27083051204681396,1.4274414777755737,1.5063021183013916,-1.4253594875335693, 1.4572665691375732
241,238268370,0.777681,0.089457184,-0.568871,0.2521817,10.196524620056152,-0.21130387485027313,1.639862298965454,0.7045221328735352,-1.6817299127578735, 1.7318476438522339
242,238285037,0.7774159,0.08941344,-0.5692665,0.25212216,10.23840045928955,-0.10150054842233658,1.6198312044143677,-0.3079543113708496,-2.0219435691833496, 1.260087251663208
243,238301704,0.77708554,0.08935407,-0.56979793,0.25196102,10.190279006958008,-0.1900595724582672,1.609180212020874,-0.9923511743545532,-3.025256872177124, 0.977028489112854
244,238318371,0.7767271,0.089384764,-0.57041264,0.25166428,10.045037269592285,-0.14816518127918243,1.701821208000183,-1.1253581047058105,-3.8331334590911865, 0.04545614868402481
245,238335038,0.77637047,0.08960919,-0.571001,0.25135085,10.013636589050293,-0.019853437319397926,1.4833641052246094,-0.14569783210754395,-4.004942417144775, -0.8437719345092773
246,238351705,0.77605623,0.09043952,-0.5712994,0.25134552,9.885866165161133,-0.11938365548849106,1.5828189849853516,4.679575443267822,-3.084178924560547, -1.898464560508728
247,238368372,0.77583027,0.0916499,-0.57137334,0.25143686,9.483940124511719,-0.027912363409996033,1.376427412033081,7.4985737800598145,-2.171560287475586, -3.0901854038238525
248,238385039,0.77555066,0.0926714,-0.57158375,0.25144655,9.334939956665039,-0.002309710718691349,1.212770938873291,5.856952667236328,-2.761753797531128, -2.6930861473083496
249,238401706,0.7752677,0.09350099,-0.57182586,0.2514614,9.256745338439941,0.08025701344013214,1.4042632579803467,4.838937282562256,-2.6149284839630127, -1.8418222665786743
250,238418373,0.7749791,0.094194315,-0.57210076,0.25146726,9.352328300476074,0.054936956614255905,1.4261016845703125,4.071900844573975,-2.600086212158203, -1.2685842514038086
251,238435040,0.7747271,0.09478235,-0.5723766,0.25139517,9.335212707519531,0.0017538985703140497,1.3249431848526,3.1362812519073486,-2.2961270809173584, -1.3565125465393066
252,238451707,0.77447724,0.09535954,-0.57264316,0.25133905,8.955535888671875,0.08681141585111618,1.3445061445236206,3.172037124633789,-2.2045109272003174, -1.213030457496643
253,238468374,0.77423555,0.096088074,-0.57286584,0.25129923,8.848960876464844,0.24578973650932312,1.1768537759780884,4.119783401489258,-2.185403823852539, -1.7445836067199707
254,238485041,0.773958,0.0973237,-0.5729351,0.25152045,8.622533798217773,0.11749021708965302,1.2278796434402466,8.137008666992188,-2.2008867263793945, -2.3729658126831055
255,238501708,0.77364534,0.099045224,-0.572899,0.25189266,8.32935905456543,-0.02853701077401638,1.2150771617889404,11.525675773620605,-2.50986647605896, -3.479384183883667
256,238518375,0.77331495,0.10061459,-0.5729363,0.2521999,8.020733833312988,-0.09247639775276184,0.9694008827209473,10.429205894470215,-2.7901203632354736, -3.0676982402801514
257,238535042,0.77295357,0.102039754,-0.5730398,0.2525,7.973311424255371,0.09368904680013657,0.8991075754165649,9.521774291992188,-2.994279384613037, -2.454005002975464
258,238551709,0.7726271,0.1031239,-0.5732085,0.25267518,7.89376163482666,0.08654311299324036,0.9604553580284119,7.087233543395996,-2.687438488006592, -1.7742304801940918
259,238568376,0.77231395,0.10377654,-0.5734637,0.25278664,7.889420032501221,-0.1465596705675125,1.0896880626678467,4.403201103210449,-2.3876800537109375, -0.3487425148487091
260,238585043,0.77192533,0.10416463,-0.5738466,0.2529449,8.165043830871582,-0.08705383539199829,1.298219919204712,3.0444791316986084,-2.876127004623413, 1.1913363933563232
261,238601710,0.7715364,0.10439048,-0.57424325,0.25313818,8.148475646972656,0.3810573220252991,1.6166565418243408,2.247828483581543,-2.6062848567962646, 1.9902029037475586
262,238618377,0.7711502,0.10459422,-0.5746675,0.2532681,7.821020126342773,0.4112507700920105,1.2825263738632202,1.866249918937683,-2.775545835494995, 1.8143330812454224
263,238635044,0.7706969,0.104777016,-0.57517993,0.25340927,7.459840297698975,0.19060058891773224,1.1385926008224487,1.6965405941009521,-3.461595058441162, 2.16434383392334
264,238651711,0.7702162,0.10495765,-0.5757071,0.2535984,7.009728908538818,0.15168212354183197,1.1005064249038696,1.7324751615524292,-3.523129463195801, 2.3831019401550293
265,238668378,0.7697506,0.105047666,-0.5762637,0.25371066,6.818927764892578,0.08436508476734161,0.6129930019378662,0.9269941449165344,-3.5378692150115967, 2.377351760864258
266,238685045,0.76929384,0.104996584,-0.5768423,0.2538027,6.799460411071777,-0.031192157417535782,0.6691955327987671,0.002401190809905529,-3.336003065109253, 2.7924952507019043
267,238701712,0.7688522,0.10504673,-0.5773724,0.25391525,6.933128356933594,0.011140944436192513,0.9430097341537476,0.7039971351623535,-3.168419361114502, 2.451897621154785
268,238718379,0.7683955,0.10531963,-0.57784855,0.254101,6.989355564117432,-0.07087555527687073,0.9652962684631348,2.279049873352051,-3.2706263065338135, 1.9520140886306763
269,238735046,0.7680045,0.10555923,-0.5782849,0.25419095,6.841004848480225,0.154153510928154,1.2164469957351685,1.7469463348388672,-2.800377607345581, 1.4432437419891357
270,238751713,0.76767564,0.105889946,-0.5786244,0.254274,6.7674078941345215,0.12616564333438873,0.9980742931365967,2.302959442138672,-2.1947522163391113, 0.8652674555778503
271,238768380,0.7673932,0.10626405,-0.5788718,0.25440753,6.469736099243164,0.09589576721191406,0.8720671534538269,2.8516345024108887,-1.5506311655044556, 0.81952303647995
272,238785047,0.76717424,0.106353216,-0.5791071,0.25449497,5.940441131591797,0.22424741089344025,0.540290355682373,1.1244935989379883,-0.750977098941803, 1.591259241104126
273,238801714,0.76698613,0.106037855,-0.57940364,0.2545185,5.8133769035339355,0.11187393963336945,0.46340230107307434,-1.4114902019500732,-0.26310643553733826, 2.857295036315918
274,238818381,0.7667561,0.10570811,-0.57970345,0.25466612,5.929076194763184,0.05619732290506363,0.7340170741081238,-0.9969232082366943,-0.29482778906822205, 3.6324636936187744
275,238835048,0.76653224,0.10558954,-0.5798721,0.25500566,6.13207483291626,0.07059314101934433,0.963610827922821,1.1178086996078491,0.19493184983730316, 3.7161784172058105
276,238851715,0.766307,0.10582151,-0.5798844,0.25555715,6.073469638824463,-0.04407048225402832,0.8589289784431458,4.068110466003418,0.5682113766670227, 3.3245608806610107
277,238868382,0.76611257,0.10630771,-0.5797996,0.25613028,5.778757095336914,-0.04997927322983742,0.9053325653076172,5.656955242156982,0.7733819484710693, 2.3196589946746826
278,238885049,0.76592505,0.10693852,-0.5796484,0.25677022,5.541499614715576,-0.08897604793310165,0.9276590347290039,6.807465553283691,0.9439496397972107, 2.0495986938476562
279,238901716,0.7658419,0.10745311,-0.5795084,0.25711918,5.306671619415283,0.007754569873213768,0.7667714953422546,4.931155681610107,1.2994157075881958, 0.8022474646568298
280,238918383,0.76584584,0.10785433,-0.57940906,0.25716293,5.3869218826293945,-0.12124177068471909,0.570287823677063,3.003249168395996,1.4007521867752075, -0.4511420428752899
281,238935050,0.765958,0.10841431,-0.57914996,0.25717703,5.184926509857178,-0.02672802470624447,0.9969722032546997,3.964231252670288,2.3604791164398193, -1.5125707387924194
282,238951717,0.76612705,0.10904605,-0.57883537,0.25711483,4.669039249420166,-0.08307401835918427,0.6657888293266296,3.9797208309173584,2.7637064456939697, -2.4237940311431885
283,238968384,0.76624215,0.109596185,-0.5786127,0.25703925,4.937705039978027,-0.2630898952484131,0.22878390550613403,3.391793727874756,2.191441774368286, -1.9881728887557983
284,238985051,0.76626486,0.11003253,-0.5785441,0.2569396,4.878948211669922,0.08723282068967819,0.6703118681907654,2.535792112350464,1.19752836227417, -1.3546429872512817
285,239001718,0.76621914,0.11026143,-0.57865924,0.25671834,5.022527694702148,0.1498936414718628,0.9464248418807983,0.7545180916786194,0.1953800618648529, -0.8420686721801758
286,239018385,0.7661727,0.11039666,-0.57880557,0.25646892,5.224913597106934,0.056432537734508514,1.2676010131835938,0.025298943743109703,0.21423102915287018, -0.6261024475097656
287,239035052,0.76627904,0.11052782,-0.5786365,0.25647596,4.532704830169678,-0.15852952003479004,1.311369776725769,1.5135762691497803,2.640791416168213, 0.28808528184890747
288,239051719,0.7664919,0.11029131,-0.5783983,0.25647905,3.7403597831726074,0.0946226492524147,1.009031891822815,-0.41294077038764954,4.0634870529174805, 1.4813170433044434
289,239068386,0.7667683,0.109606475,-0.57828254,0.25620812,3.7386927604675293,0.15943042933940887,0.3398823142051697,-4.201558589935303,4.281848430633545, 1.7577036619186401
290,239085053,0.76689696,0.108945094,-0.5783939,0.2558527,4.123708724975586,0.1738390028476715,-0.20562505722045898,-4.627241611480713,2.354748249053955, 1.7222813367843628
291,239101720,0.7667745,0.10835789,-0.5788475,0.25544316,4.250925064086914,0.4376661777496338,0.11170966923236847,-4.903385639190674,-0.5516719818115234, 1.8276647329330444
292,239118387,0.7664564,0.107916735,-0.5795199,0.25505948,4.195361614227295,0.34256866574287415,0.7269244194030762,-4.357975482940674,-2.6330626010894775, 1.8557490110397339
293,239135054,0.76603305,0.10748956,-0.58029485,0.2547492,3.780498504638672,0.15823322534561157,1.0305373668670654,-4.148092746734619,-3.528841257095337, 2.437349557876587
294,239151721,0.7656282,0.106825806,-0.58112895,0.25434357,3.474700927734375,0.2987198233604431,0.48262739181518555,-5.883751392364502,-3.4479312896728516, 2.917357921600342
295,239168388,0.76516515,0.10593444,-0.582155,0.2537636,3.632995367050171,0.07534182816743851,0.08129876106977463,-8.1107759475708,-4.392528057098389, 3.1493194103240967
296,239185055,0.7646475,0.1047415,-0.5834113,0.2529325,3.6634840965270996,0.21978998184204102,0.4973858892917633,-11.135472297668457,-5.404743194580078, 3.2613883018493652
297,239201722,0.76413435,0.1036144,-0.5846776,0.25202206,3.621140480041504,-0.3783225119113922,0.912239134311676,-11.135960578918457,-5.600924491882324, 2.6022584438323975
298,239218389,0.7634161,0.10306333,-0.58589387,0.25159955,3.0138843059539795,-0.8991947174072266,0.6425021290779114,-5.9749321937561035,-6.7836408615112305, 3.123501777648926
299,239235056,0.76231146,0.10336351,-0.58728147,0.2515912,2.962756872177124,-0.33457422256469727,0.6526018381118774,0.17508210241794586,-10.442238807678223, 2.645786762237549
300,239251723,0.7611168,0.10386495,-0.588863,0.25130397,3.1192691326141357,0.08698029816150665,0.5179751515388489,-0.20923025906085968,-12.350553512573242, 0.6252255439758301
301,239268390,0.75977975,0.104612455,-0.590629,0.25089532,3.0921077728271484,-0.00358570390380919,0.5712170004844666,0.33402183651924133,-14.39801025390625, -0.6461704969406128
302,239285057,0.7583985,0.105346106,-0.5925341,0.25027472,2.9697012901306152,-0.1462436020374298,0.7447726130485535,-0.7831858992576599,-15.477051734924316, -1.511176347732544
303,239301724,0.7570344,0.1061797,-0.59440994,0.24960299,2.898797035217285,-0.31198203563690186,0.716412365436554,-0.503072202205658,-15.46063232421875, -2.298907995223999
304,239318391,0.7557175,0.10707444,-0.59612525,0.24912028,2.6950321197509766,-0.5877833366394043,0.5799360871315002,0.8415377736091614,-14.454499244689941, -1.7860517501831055
305,239335058,0.75444883,0.107888736,-0.5976877,0.24887006,2.141432285308838,-0.2698962986469269,0.14659756422042847,1.5976635217666626,-13.19318675994873, -0.4951321482658386
306,239351725,0.75342816,0.10796284,-0.59909815,0.24853852,1.7570158243179321,0.1685398668050766,-0.42542678117752075,-2.4961249828338623,-10.212235450744629, 1.553673267364502
307,239368392,0.75255907,0.10801134,-0.600231,0.2484176,1.3411779403686523,0.38496801257133484,-1.275602102279663,-1.4023851156234741,-7.960671901702881, 2.2670507431030273
308,239385059,0.7516235,0.1087916,-0.60118383,0.24860513,2.2597053050994873,0.6471982002258301,-0.6280204057693481,3.9988927841186523,-8.296250343322754, 0.8039509057998657
309,239401726,0.75069445,0.110069744,-0.6018748,0.24917726,3.8021392822265625,0.3000777065753937,0.881294310092926,8.595516204833984,-7.480639934539795, 0.5285758972167969
310,239418393,0.7499425,0.11132814,-0.6022618,0.24994649,4.12689733505249,0.6961132884025574,1.3002841472625732,9.721693992614746,-5.068332672119141, 1.1092416048049927
311,239435060,0.7495696,0.11136638,-0.6025911,0.25025398,3.064725160598755,0.7137805819511414,0.3775056004524231,1.2329888343811035,-1.4672619104385376, 3.0601606369018555
312,239451727,0.7494856,0.11077915,-0.60280335,0.25025538,1.7084848880767822,-0.07167837768793106,-0.3239198923110962,-3.2430291175842285,1.1166049242019653, 3.5197296142578125
313,239468394,0.74949193,0.11024982,-0.60283583,0.2503921,0.7081944346427917,-0.39259079098701477,-1.0293560028076172,-2.1284537315368652,2.399941921234131, 3.66228985786438
314,239485061,0.7495508,0.11005648,-0.6026521,0.2507426,1.3682979345321655,-0.5197542309761047,-0.8639244437217712,0.8095086812973022,3.3338711261749268, 3.0631704330444336
315,239501728,0.74977225,0.1097797,-0.6023121,0.25101855,2.2809195518493652,0.3676416873931885,-0.11829222738742828,0.23055912554264069,4.90118932723999, 2.5877089500427246
316,239518395,0.75016665,0.1092051,-0.6019255,0.25101832,2.702294111251831,0.3240808844566345,0.25602689385414124,-2.4617395401000977,6.120764255523682, 2.0834078788757324
317,239535062,0.75064784,0.10813678,-0.6016056,0.25080907,2.4819037914276123,0.2652781903743744,0.6952841281890869,-6.071569442749023,6.817161560058594, 2.946031093597412
318,239551729,0.7511867,0.10683965,-0.60128087,0.25052974,1.8203717470169067,0.1993223875761032,-0.04509931430220604,-7.624237060546875,7.412720680236816, 3.4102487564086914
319,239568396,0.75179195,0.10528928,-0.60095537,0.25015146,1.1455957889556885,-0.22145816683769226,-0.12673074007034302,-9.3758544921875,8.031961441040039, 3.832808017730713
320,239585063,0.7523412,0.10383159,-0.60058725,0.24999358,0.6787046790122986,-0.9419090151786804,-0.19969752430915833,-7.874641418457031,8.009664535522461, 4.63069486618042
321,239601730,0.75271416,0.1031955,-0.6000628,0.2503937,0.9291707277297974,-0.5576697587966919,-0.32423487305641174,-0.950218677520752,7.084903717041016, 4.255865097045898
322,239618397,0.7530853,0.10270543,-0.5995469,0.25071424,1.9433460235595703,0.4324627220630646,0.4423632025718689,-0.4846307933330536,6.68821382522583, 3.239501476287842
323,239635064,0.7534708,0.10192917,-0.5992529,0.25057584,2.5467772483825684,0.6730482578277588,1.0973644256591797,-4.27870512008667,5.760329723358154, 2.180095911026001
324,239651731,0.7537383,0.101299465,-0.5990688,0.25046667,2.218247413635254,0.1658828854560852,0.8754810094833374,-3.520735025405884,4.43950080871582, 2.030959129333496
325,239668398,0.753853,0.10053098,-0.59912395,0.25029954,1.4209458827972412,-0.28648853302001953,0.25671806931495667,-4.776486873626709,2.7321386337280273, 2.7415642738342285
326,239685065,0.7539201,0.099670306,-0.5992448,0.25015253,0.6995860934257507,-0.1500222086906433,0.03139111027121544,-5.264281272888184,2.3660566806793213, 3.3350493907928467
327,239701732,0.75387573,0.09903767,-0.5994067,0.2501493,0.5561263561248779,-0.3973262310028076,-0.1851719170808792,-3.4838011264801025,1.3925752639770508, 3.34921932220459
328,239718399,0.7536219,0.09898297,-0.59962994,0.25040105,0.5688490867614746,-0.8978197574615479,-0.0177509393543005,0.5571210980415344,-0.5773487091064453, 2.6566965579986572
329,239735066,0.7532588,0.09944362,-0.59985733,0.25076565,0.8676322102546692,-0.5506671071052551,0.21158453822135925,3.7974088191986084,-1.887706995010376, 1.285699725151062
330,239751733,0.7529206,0.09966831,-0.60025644,0.25073725,0.8482682108879089,-0.3927531838417053,0.7554144263267517,0.6356878876686096,-2.5437123775482178, 0.27846765518188477
331,239768400,0.7525723,0.099803716,-0.6007584,0.25052652,1.2558276653289795,-0.060845453292131424,0.7050213813781738,-0.7555233836174011,-3.1144917011260986, -0.22024361789226532
332,239785067,0.7521674,0.099937856,-0.6013158,0.2503523,1.1884897947311401,0.2410883605480194,0.3493550419807434,-0.6632793545722961,-3.636939525604248, 0.11554529517889023
333,239801734,0.75178814,0.100015014,-0.6018326,0.25021818,1.0742154121398926,0.23114977777004242,0.1396462321281433,-0.7728503942489624,-3.1853742599487305, 0.4915781021118164
334,239818401,0.7513491,0.10013641,-0.60232955,0.25029302,0.8622838258743286,-0.04059406742453575,0.12518785893917084,0.3767308294773102,-3.254272937774658, 1.4848130941390991
335,239835068,0.75090915,0.10028523,-0.60268927,0.25068718,0.616317868232727,-0.5887483358383179,-0.38050809502601624,2.074404716491699,-2.3794453144073486, 2.9293055534362793
336,239851735,0.75039816,0.10072883,-0.6028735,0.25159526,0.7130297422409058,-0.8245217204093933,-0.10386665165424347,6.09390926361084,-1.9192750453948975, 4.348454475402832
337,239868402,0.74983686,0.10142101,-0.6030151,0.25264865,0.8286174535751343,-0.03139282017946243,0.2094939947128296,8.095029830932617,-2.236539840698242, 4.103635311126709
338,239885069,0.74941885,0.10203942,-0.60329235,0.25297812,0.9747637510299683,0.3516199588775635,0.1685616374015808,4.3822245597839355,-2.730109214782715, 0.5298819541931152
339,239901736,0.74898106,0.102829136,-0.6037187,0.2529373,0.7525985240936279,-0.25729095935821533,0.25189292430877686,3.455159902572632,-4.125976085662842, -1.936909556388855
340,239918403,0.7484814,0.104178734,-0.6040686,0.25302902,0.6014212369918823,-0.6245797276496887,-0.013106390833854675,7.058074474334717,-4.874162197113037, -3.5275356769561768
341,239935070,0.7481046,0.10542473,-0.6043808,0.25288185,0.3494506776332855,-0.41976895928382874,-0.17179682850837708,5.50703239440918,-4.158568382263184, -4.5809478759765625
342,239951737,0.74780166,0.1062999,-0.6047945,0.25242212,0.36692100763320923,-0.38499715924263,-0.2186335325241089,2.0795528888702393,-3.961529493331909, -4.706603050231934
343,239968404,0.7476042,0.10713011,-0.60507447,0.25198433,0.43699726462364197,-0.6363458037376404,-0.44271203875541687,2.0698583126068115,-2.7201457023620605, -4.695550441741943
344,239985071,0.74739784,0.10847802,-0.6051146,0.2519234,0.2582117021083832,-1.1068756580352783,-0.5759330987930298,6.709421634674072,-2.1246254444122314, -5.0856852531433105
345,240001738,0.74713695,0.110658,-0.60486645,0.25234485,0.01783212460577488,-1.115480661392212,-0.32716020941734314,13.575170516967773,-1.9697458744049072, -6.2079596519470215
346,240018405,0.746877,0.11352122,-0.60445213,0.25283462,-0.02726571448147297,-1.0559748411178589,-0.1923932284116745,17.660921096801758,-2.246377468109131, -8.85167121887207
347,240035072,0.74679595,0.11671238,-0.60398513,0.25273728,0.3913809061050415,-0.1458187997341156,0.08705621212720871,16.898818969726562,-2.297590970993042, -13.60035228729248
348,240051739,0.74667174,0.119895905,-0.6037906,0.25207815,0.28219011425971985,-0.4942851960659027,0.3786417245864868,14.078230857849121,-4.323610782623291, -16.151308059692383
349,240068406,0.7463595,0.123339556,-0.603806,0.2513033,-0.1797739565372467,-0.6828207969665527,0.20569972693920135,14.690916061401367,-6.729902744293213, -17.32816505432129
350,240085073,0.74591416,0.12724173,-0.6037562,0.2507989,-0.3785303235054016,-0.8624847531318665,-0.07562871277332306,18.457639694213867,-7.579456806182861, -17.679672241210938
351,240101740,0.7452633,0.13186279,-0.6035109,0.2509375,0.032625529915094376,-1.4409101009368896,0.15872450172901154,25.36543083190918,-8.14529037475586, -17.197912216186523
352,240118407,0.74429,0.13718507,-0.60314125,0.25186017,-0.016547441482543945,-2.144390106201172,0.5625612139701843,32.75008773803711,-9.381260871887207, -15.675716400146484
353,240135074,0.7429735,0.1439253,-0.6024643,0.25359946,0.47740113735198975,-0.8449790477752686,0.8342124819755554,44.26285934448242,-10.953144073486328, -17.121580123901367
354,240151741,0.74172866,0.1502192,-0.6021339,0.2543773,1.1287285089492798,0.40162721276283264,0.6746295690536499,37.520606994628906,-12.765240669250488, -19.95124053955078
355,240168408,0.7405384,0.15620203,-0.60201484,0.2545236,1.8166667222976685,-0.5965076684951782,0.9339539408683777,33.00377655029297,-13.828075408935547, -21.70889663696289
356,240185075,0.73943007,0.16129102,-0.6019558,0.25471112,2.5492618083953857,-1.6545969247817993,2.3307111263275146,28.451671600341797,-12.224369049072266, -17.87371063232422
357,240201742,0.73947984,0.16005023,-0.6033821,0.25195986,3.136568307876587,-3.0451467037200928,1.995450496673584,-19.705291748046875,-7.255949020385742, -7.023449420928955
358,240218409,0.7403781,0.15456945,-0.6053114,0.24808621,3.620429754257202,-6.062510013580322,3.068814277648926,-47.86711120605469,-0.12683513760566711, 3.8724095821380615
359,240235076,0.7422869,0.14426567,-0.6079317,0.24210896,4.193450450897217,-3.7519030570983887,3.971965789794922,-83.55036163330078,6.583583354949951, 12.095152854919434
360,240251743,0.74311507,0.13008438,-0.61296445,0.23480383,1.6619282960891724,-4.337406158447266,-0.200592041015625,-112.04490661621094,-5.054248809814453, 25.656278610229492
361,240268410,0.7410145,0.11386153,-0.62129074,0.22788389,0.14620758593082428,-4.501007080078125,-4.260211944580078,-123.677978515625,-30.44921875, 43.841156005859375
362,240285077,0.7335638,0.10137249,-0.63226706,0.2276982,0.22166334092617035,-7.698796272277832,-10.76028823852539,-75.68980407714844,-67.29228973388672, 72.5879898071289
363,240301744,0.7172318,0.108189516,-0.64179933,0.24893238,-0.537825882434845,-6.595826625823975,-9.408217430114746,123.45858001708984,-113.66180419921875, 109.42448425292969
364,240318411,0.70067894,0.112547606,-0.6505559,0.2704793,-6.18150520324707,0.9887873530387878,0.3090156316757202,114.16522979736328,-106.05236053466797, 121.4910659790039
365,240335078,0.6873854,0.11559847,-0.6557549,0.2900415,-5.53740119934082,6.158080101013184,2.502657890319824,103.09616088867188,-73.52483367919922, 109.01481628417969
366,240351745,0.6797386,0.1122562,-0.65886503,0.30207807,-7.306817054748535,9.798789978027344,8.340414047241211,38.565921783447266,-31.5098934173584, 89.57260131835938
367,240368412,0.6763953,0.10618069,-0.65934277,0.31061608,-6.464635372161865,6.849466800689697,3.9022772312164307,12.01962661743164,2.990145206451416, 74.93460845947266
368,240385079,0.67592853,0.103220195,-0.65639675,0.31876314,-4.932408332824707,8.645448684692383,2.301813840866089,29.945165634155273,24.865697860717773, 50.53666305541992
369,240401746,0.67638594,0.10515258,-0.65074867,0.32858968,-3.0993881225585938,5.496297836303711,-2.4981729984283447,65.4398193359375,32.06607437133789, 32.574344635009766
370,240418413,0.6773329,0.10977344,-0.6439345,0.3384056,-1.387915015220642,6.405625343322754,-5.060669422149658,80.12384033203125,33.770652770996094, 18.708900451660156
371,240435080,0.67841816,0.113429554,-0.6384257,0.3453915,0.2937064468860626,2.7442336082458496,-7.1745452880859375,59.950660705566406,28.630107879638672, 10.639575958251953
372,240451747,0.6775538,0.118133254,-0.63540536,0.35103542,4.538578510284424,-1.8146493434906006,-11.657631874084473,54.626224517822266,5.152543544769287, 6.412753105163574
373,240468414,0.6724189,0.1274648,-0.6345917,0.35902506,9.342499732971191,-1.7544392347335815,6.146934986114502,84.70673370361328,-32.69047927856445, 9.178228378295898
374,240485081,0.66898257,0.13104047,-0.63369155,0.36568555,6.782088279724121,-1.2571587562561035,13.067350387573242,51.04092025756836,-12.046367645263672, 23.86676025390625
375,240501748,0.66481143,0.13417011,-0.6355296,0.36895317,10.897390365600586,2.125108480453491,5.247747421264648,28.479887008666992,-30.942184448242188, 14.317554473876953
376,240518415,0.6599172,0.13751991,-0.63853747,0.37130526,2.2593743801116943,5.231526851654053,2.438755989074707,22.618186950683594,-40.19483184814453, 12.428156852722168
377,240535082,0.6558823,0.13515288,-0.64335465,0.37100837,-4.01601505279541,0.2875334620475769,-2.5019876956939697,-20.4517765045166,-32.51259231567383, 25.207828521728516
378,240551749,0.6523731,0.13812625,-0.64385116,0.37521482,-5.1469550132751465,-0.6100661754608154,-7.648540019989014,34.05916213989258,-19.952423095703125, 16.525850296020508
379,240568416,0.6513198,0.13961807,-0.64244795,0.37887987,-1.9164563417434692,-2.1425912380218506,-2.04477596282959,27.711156845092773,2.9120776653289795, 12.41411304473877
380,240585083,0.65132266,0.14057672,-0.6399038,0.38280576,4.493488311767578,-2.992563247680664,4.004367828369141,29.003992080688477,13.453886985778809, 11.73050308227539
381,240601750,0.651379,0.14070287,-0.6387779,0.38454014,3.323329210281372,2.4683384895324707,0.1402745246887207,11.82524585723877,7.305125713348389, 6.7509307861328125
382,240618417,0.6510178,0.14095879,-0.63848144,0.38554898,0.5462344288825989,1.3727054595947266,-0.7595998644828796,7.41806173324585,0.71919846534729, 4.929645538330078
383,240635084,0.65029585,0.1424092,-0.63734967,0.38809845,-1.7240983247756958,-3.0369110107421875,-0.3835453391075134,22.092639923095703,1.2228997945785522, 6.7576093673706055
384,240651751,0.6497319,0.14578019,-0.63425577,0.3928312,-1.9199174642562866,-3.2735960483551025,-0.35472577810287476,45.346717834472656,7.700652599334717, 5.6400556564331055
385,240668418,0.6498626,0.14937742,-0.6307258,0.39692575,-0.24425195157527924,-1.2585467100143433,-0.5230473875999451,44.07430648803711,11.42420482635498, -0.6342902779579163
386,240685085,0.6500184,0.15348317,-0.62773275,0.39983842,0.7534875869750977,0.643373429775238,-0.38852137327194214,39.73999786376953,6.542540073394775, -7.680487155914307
387,240701752,0.6498156,0.1579237,-0.6255031,0.40192762,0.6285879611968994,0.13083551824092865,-0.8741249442100525,35.96025848388672,-0.19613023102283478, -10.990554809570312
388,240718419,0.64959025,0.16226408,-0.62359434,0.4035257,0.17036081850528717,0.7194957733154297,0.0027208435349166393,32.543033599853516,-1.9592771530151367, -12.337457656860352
389,240735086,0.64986455,0.16525133,-0.6220859,0.40419936,0.5770143866539001,1.0977340936660767,-0.45193690061569214,20.86215591430664,1.1132005453109741, -11.585505485534668
390,240751753,0.65080094,0.16648984,-0.6212171,0.4035203,0.8926121592521667,0.3623342216014862,0.0888824611902237,4.7288689613342285,4.41981315612793, -11.229933738708496
391,240768420,0.6521649,0.1671016,-0.620394,0.40233004,0.7791622281074524,-0.04751920700073242,0.033642929047346115,-0.8803091645240784,7.189458847045898, -11.960563659667969
392,240785087,0.65376043,0.167673,-0.61937594,0.4010693,0.3351476490497589,0.08258863538503647,-0.26838183403015137,-1.0908713340759277,9.077320098876953, -12.96961498260498
393,240801754,0.6556781,0.16821162,-0.6179888,0.3998513,0.17395295202732086,-0.13695457577705383,-0.45474663376808167,-0.4100470542907715,12.250185012817383, -13.952547073364258
394,240818421,0.6578951,0.16889499,-0.61604714,0.39891693,0.5490401387214661,0.25449538230895996,-0.5283147692680359,2.6286933422088623,15.95942211151123, -14.761876106262207
395,240835088,0.6600009,0.16945441,-0.6143034,0.3978887,0.14747798442840576,0.2603645920753479,0.3992881178855896,1.256605863571167,14.835161209106445, -14.120713233947754
396,240851755,0.6617626,0.16995512,-0.61310804,0.39659074,0.17301532626152039,0.03171496093273163,0.588547945022583,-1.255010724067688,10.719752311706543, -13.513901710510254
397,240868422,0.6631962,0.17056988,-0.61236864,0.39507148,0.20549696683883667,-0.4467664062976837,0.3855707049369812,-2.5350959300994873,6.667907238006592, -13.578302383422852
398,240885089,0.6646343,0.17116764,-0.6118748,0.39315677,0.2682695984840393,-0.5609747171401978,0.356954962015152,-4.950823783874512,5.132936954498291, -15.051956176757812
399,240901756,0.6661492,0.17112276,-0.6120442,0.39033866,-0.3091474771499634,-0.02261565811932087,0.3719339668750763,-13.570794105529785,3.0853168964385986, -15.922800064086914
400,240918423,0.66742635,0.17119119,-0.61294216,0.3867012,0.2739361822605133,0.20587241649627686,-0.11367237567901611,-18.178709030151367,-2.538390874862671, -18.664583206176758
401,240935090,0.6677206,0.1716523,-0.6147732,0.383065,0.07960382848978043,0.14268413186073303,1.292052149772644,-17.25871467590332,-13.013245582580566, -16.85268783569336
402,240951757,0.6662985,0.17276144,-0.6184344,0.3791289,-0.10267207026481628,0.5357421636581421,2.1927406787872314,-18.389142990112305,-30.687463760375977, -14.277386665344238
403,240968424,0.6631489,0.17539258,-0.62283045,0.37623563,-0.2993132174015045,0.17849865555763245,0.4772457182407379,-7.002947807312012,-43.87088394165039, -10.507391929626465
404,240985091,0.65941066,0.17774494,-0.62780535,0.373423,-0.23563577234745026,1.4287185668945312,-0.26899072527885437,-8.80111026763916,-48.03342819213867, -6.67859411239624
405,241001758,0.65573186,0.17887236,-0.63339305,0.36991096,0.7667517066001892,2.2673134803771973,-0.6820582747459412,-18.985553741455078,-48.34551239013672, -3.9639101028442383
406,241018425,0.65212345,0.17879966,-0.6397735,0.3653159,1.370721697807312,1.9198133945465088,0.2509410083293915,-31.5225830078125,-49.144588470458984, -2.530360460281372
407,241035092,0.6485539,0.17725475,-0.6467501,0.36010128,1.8651783466339111,0.7319578528404236,0.9042489528656006,-42.60798645019531,-48.204917907714844, 2.0462474822998047
408,241051759,0.64526045,0.174114,-0.6540457,0.3543269,2.6398417949676514,0.8107184767723083,1.0267544984817505,-53.446468353271484,-44.88865661621094, 6.498944282531738
409,241068426,0.64339745,0.16450682,-0.6635762,0.3444471,1.658164381980896,-2.5080173015594482,1.756667137145996,-107.99346923828125,-36.960819244384766, 16.880859375
410,241085093,0.6411249,0.15894084,-0.6707447,0.3373399,3.718836784362793,2.986003875732422,0.6990373730659485,-71.4972152709961,-34.60987854003906, 9.118051528930664
411,241101760,0.63815844,0.15546922,-0.6777348,0.33054304,2.585768222808838,2.000084161758423,0.6148533821105957,-59.661128997802734,-41.546974182128906, 2.4252030849456787
412,241118427,0.6348527,0.15381588,-0.68404126,0.324639,1.5904061794281006,-0.5787242650985718,-0.677900493144989,-45.55429458618164,-43.43577575683594, -2.021817684173584
413,241135094,0.6308584,0.15538354,-0.68903553,0.32109782,0.7233156561851501,-1.4591923952102661,-2.7866129875183105,-16.667388916015625,-45.7047119140625, -6.731931686401367
414,241151761,0.62638533,0.15672593,-0.6940336,0.31842712,0.7558373808860779,-3.179840087890625,-5.679563522338867,-12.978598594665527,-46.47196960449219, -0.8401418328285217
415,241168428,0.621265,0.15878396,-0.6991108,0.3163256,0.6743885278701782,-0.5671283602714539,-3.9261791706085205,-6.6020026206970215,-50.66063690185547, -0.35207536816596985
416,241185095,0.6164,0.15597688,-0.7070543,0.3095101,1.0154720544815063,-2.139481782913208,-4.796432971954346,-56.47829818725586,-56.22222137451172, 5.448896884918213
417,241201762,0.6108561,0.15250835,-0.71546584,0.30282807,-0.2705044150352478,-1.6389236450195312,-2.035236358642578,-58.8086051940918,-59.950443267822266, 11.10024356842041
418,241218429,0.6048049,0.14801414,-0.72408134,0.29666376,-1.5053749084472656,-1.9349528551101685,-1.541641116142273,-59.999305725097656,-62.024688720703125, 18.51539421081543
419,241235096,0.5984886,0.14574009,-0.7310278,0.2935469,-2.768219232559204,-0.2960052192211151,-0.08580587804317474,-31.91633415222168,-57.796321868896484, 18.90766716003418
420,241251763,0.593344,0.14413844,-0.73601604,0.2923143,-3.706575393676758,1.0269112586975098,1.2465025186538696,-16.902803421020508,-43.326622009277344, 18.92628288269043
421,241268430,0.59010905,0.14211248,-0.7392145,0.29178312,-3.949093818664551,1.8880400657653809,1.6971427202224731,-13.388901710510254,-24.857236862182617, 18.32615089416504
422,241285097,0.58876306,0.14001906,-0.7407004,0.291746,-3.7828807830810547,1.7761000394821167,2.2299726009368896,-9.570709228515625,-7.745495319366455, 15.237828254699707
423,241301764,0.5891582,0.1377997,-0.7405643,0.2923501,-3.0936102867126465,0.8546886444091797,1.7823169231414795,-5.251210689544678,8.489522933959961, 13.443421363830566
424,241318431,0.5908209,0.13565597,-0.73907363,0.29376572,-2.2821502685546875,0.38786831498146057,0.7760371565818787,0.6955975294113159,20.993690490722656, 12.513141632080078
425,241335098,0.5932954,0.13406706,-0.7363832,0.29625398,-1.7541838884353638,0.4168882668018341,0.03629910200834274,10.059061050415039,29.847379684448242, 11.283941268920898
426,241351765,0.5962068,0.133562,-0.7327168,0.29970798,-1.27567720413208,1.5165807008743286,-0.6962440013885498,20.954023361206055,34.71921920776367, 7.943089962005615
427,241368432,0.5993923,0.13422593,-0.7287455,0.30272472,-0.8724140524864197,2.1228556632995605,-1.414028525352478,23.927167892456055,34.55720901489258, -0.5487042665481567
428,241385099,0.6025208,0.13728805,-0.7243338,0.3057147,-0.25765150785446167,2.345240831375122,-1.2848949432373047,34.657501220703125,31.107219696044922, -12.909162521362305
429,241401766,0.60577625,0.13732383,-0.72155327,0.30584037,0.7060786485671997,1.3015247583389282,-3.254831552505493,4.31675910949707,28.668582916259766, -8.367093086242676
430,241418433,0.607955,0.14003386,-0.71740335,0.31002215,0.38922610878944397,-1.3390324115753174,-0.8036531805992126,39.4940071105957,27.32142448425293, -3.7321081161499023
431,241435100,0.60850286,0.14668061,-0.71184725,0.31856334,3.3882274627685547,-2.198201894760132,-0.9632813334465027,82.01849365234375,20.96990966796875, -2.857168674468994
432,241451767,0.60915834,0.14916769,-0.7084442,0.32370043,3.8958332538604736,-5.682525634765625,2.9851415157318115,42.73745346069336,19.971553802490234, 6.759814262390137
433,241468434,0.61076295,0.14733624,-0.70644015,0.32588834,3.2633254528045654,-2.3413918018341064,4.763207912445068,6.101969242095947,25.504610061645508, 14.87636947631836
434,241485101,0.6123774,0.14265865,-0.7057971,0.3263331,2.8130476474761963,-1.8433548212051392,2.2393672466278076,-17.40227508544922,24.21800994873047, 22.652334213256836
435,241501768,0.6132105,0.13854286,-0.70578444,0.3265687,1.8070762157440186,0.5348518490791321,1.5832467079162598,-16.690792083740234,16.109067916870117, 21.30698013305664
436,241518435,0.61277306,0.13755602,-0.7052659,0.32891902,0.8791292309761047,1.317307710647583,-0.6651080846786499,9.107856750488281,6.987366199493408, 17.435504913330078
437,241535102,0.6117006,0.13868184,-0.70448035,0.33211052,0.6338310837745667,2.3842146396636963,-1.4390016794204712,23.27976417541504,1.2096202373504639, 12.08876895904541
438,241551769,0.6106261,0.13974245,-0.70374984,0.33517766,0.6766895055770874,0.7410574555397034,0.009059634059667587,22.274105072021484,1.18951416015625, 12.137418746948242
439,241568436,0.6094163,0.13978824,-0.7035674,0.33773357,1.384230375289917,-0.4714493453502655,1.0399256944656372,14.422501564025879,0.058672379702329636, 15.736037254333496
440,241585103,0.6079616,0.1389956,-0.70396185,0.3398541,1.622738242149353,-0.6221296191215515,1.6069194078445435,7.692843914031982,-1.9833863973617554, 19.140918731689453
441,241601770,0.6062847,0.13768603,-0.7048997,0.3414353,1.2777233123779297,0.052692461758852005,0.5392796397209167,1.8716955184936523,-4.715330123901367, 20.398706436157227
442,241618437,0.60458654,0.1365257,-0.706012,0.3426122,0.8014780879020691,0.21184642612934113,-0.30457961559295654,0.1603805124759674,-6.309504508972168, 18.207406997680664
443,241635104,0.6027446,0.13591576,-0.7069973,0.3440654,-0.43402400612831116,-1.16749107837677,-0.25730037689208984,4.2517194747924805,-7.558483600616455, 16.872045516967773
444,241651771,0.6012502,0.13631864,-0.70693374,0.34664127,-0.846411406993866,-2.1032938957214355,-1.2667160034179688,16.078712463378906,-2.8446788787841797, 14.764483451843262
445,241668438,0.6001672,0.1388576,-0.7056268,0.35015553,0.4281320571899414,-0.9187195301055908,-0.8091866374015808,32.065895080566406,0.16572120785713196, 6.058213710784912
446,241685105,0.5996623,0.14199327,-0.70425355,0.35251978,1.4048141241073608,-0.5436514019966125,-0.21109849214553833,28.54314613342285,0.9351286888122559, -2.905564069747925
447,241701772,0.5996688,0.14541683,-0.70306164,0.35349107,1.4894554615020752,-0.308462917804718,0.08951511979103088,22.02073860168457,0.8199987411499023, -10.944034576416016
448,241718439,0.6000222,0.14898941,-0.7018774,0.35375652,0.9013709425926208,-0.4213460683822632,-0.2902711033821106,18.829389572143555,1.5447754859924316, -15.284692764282227
449,241735106,0.60113364,0.15212475,-0.70034915,0.3535644,0.6706453561782837,0.3997567296028137,-0.395923376083374,14.863789558410645,7.25009298324585, -17.251914978027344
450,241751773,0.60310143,0.15426205,-0.6985621,0.35282165,0.9016247987747192,0.18698769807815552,-1.3486899137496948,7.773988246917725,14.532937049865723, -16.86064338684082
451,241768440,0.6059427,0.15561792,-0.6964135,0.35160303,1.118847370147705,0.07382724434137344,-1.0240815877914429,2.1839170455932617,21.642087936401367, -17.577478408813477
452,241785107,0.60940194,0.1562088,-0.6941138,0.3499064,1.43205988407135,0.6967301964759827,-0.465669184923172,-3.6406149864196777,26.781394958496094, -17.376972198486328
453,241801774,0.6131531,0.15646918,-0.691798,0.34781674,1.2005057334899902,0.7195507884025574,-0.368476003408432,-7.214897155761719,28.6289005279541, -18.108060836791992
454,241818441,0.61672705,0.1572807,-0.68958104,0.34552705,0.8223592638969421,-0.17729006707668304,-0.06980814784765244,-5.946946144104004,25.940101623535156, -20.903017044067383
455,241835108,0.6201244,0.1582598,-0.6874573,0.3432232,0.7739863395690918,-0.13463984429836273,0.26057860255241394,-5.380825519561768,24.3016300201416, -21.207855224609375
456,241851775,0.6232763,0.15872188,-0.68595344,0.34029683,1.06173574924469,0.713463544845581,0.3860180675983429,-11.793601989746094,21.151994705200195, -20.02757453918457
457,241868442,0.6258528,0.15844986,-0.68555546,0.33647546,0.7482306957244873,0.4174649715423584,1.2020752429962158,-21.16204261779785,14.408596992492676, -17.788427352905273
458,241885109,0.62740105,0.15830594,-0.68605447,0.33262053,-0.024134205654263496,-0.8552783131599426,1.141095519065857,-21.755056381225586,5.2791290283203125, -15.15710735321045
459,241901776,0.62793165,0.15931591,-0.6870032,0.32916117,0.12302684783935547,-0.48348569869995117,0.6115843653678894,-14.857261657714844,-3.7283194065093994, -16.079145431518555
460,241918443,0.6276479,0.16090573,-0.6885222,0.32573724,0.5491625666618347,-0.21292799711227417,0.6116306781768799,-12.63262939453125,-11.192296981811523, -16.034873962402344
461,241935110,0.6266784,0.16265431,-0.69064003,0.32223323,1.1683956384658813,0.8965163230895996,0.5131771564483643,-12.909703254699707,-17.530166625976562, -14.930586814880371
462,241951777,0.62518805,0.16358107,-0.6937378,0.31797644,1.5567119121551514,1.14368736743927,0.6388536691665649,-21.644290924072266,-23.15908432006836, -11.827954292297363
463,241968444,0.623036,0.1639045,-0.6976024,0.3135479,1.9089877605438232,0.8965513706207275,0.7794172167778015,-25.968975067138672,-28.57086944580078, -7.312607288360596
464,241985111,0.6200805,0.16422626,-0.70192033,0.30957696,1.868101954460144,0.4257366359233856,0.8985687494277954,-23.78022003173828,-34.1730842590332, -3.308271646499634
465,242001778,0.61688244,0.1643192,-0.7066233,0.30518675,2.127545118331909,0.7233202457427979,1.2344253063201904,-27.32063102722168,-36.93867874145508, -2.881373405456543
466,242018445,0.61408603,0.16210303,-0.7122967,0.298755,2.3637843132019043,-1.1701985597610474,1.1086047887802124,-49.43587112426758,-36.954593658447266, -0.3161289691925049
467,242035112,0.61039114,0.16224901,-0.71765864,0.29336676,2.3264052867889404,-0.35478803515434265,1.6058522462844849,-32.665828704833984,-43.904056549072266, -6.067048072814941
468,242051779,0.6063629,0.1630738,-0.7228363,0.28851166,1.4115742444992065,-1.7993097305297852,0.8863551020622253,-26.428049087524414,-45.57621765136719, -6.603212356567383
469,242068446,0.602521,0.16335034,-0.7279794,0.2834276,0.9765186905860901,-2.4075634479522705,-0.1190352514386177,-29.937156677246094,-43.88616180419922, -5.4357991218566895
470,242085113,0.5996348,0.16359967,-0.73145723,0.280435,1.6184650659561157,-2.0607004165649414,-0.39367130398750305,-17.01714324951172,-32.1822624206543, -3.325773000717163
471,242101780,0.5992227,0.16160512,-0.73395395,0.27591208,0.9386134147644043,1.2267900705337524,1.5203537940979004,-34.855445861816406,-13.068560600280762, -4.276305198669434
472,242118447,0.6003959,0.15967114,-0.73457825,0.2728088,0.5443213582038879,0.6491058468818665,0.617063045501709,-25.653562545776367,4.068593502044678, -3.775897264480591
473,242135114,0.60284054,0.15794659,-0.7335706,0.27112836,-0.10733990371227264,1.158677339553833,0.7402798533439636,-15.93599796295166,18.38983154296875, -3.113640069961548
474,242151781,0.6058572,0.15714706,-0.7312694,0.27108517,-0.3315298557281494,1.5269383192062378,-0.9222195148468018,-2.053042411804199,26.680030822753906, -3.430048942565918
475,242168448,0.6083825,0.15837887,-0.72818273,0.27301466,-0.08440026640892029,2.239743947982788,-2.843895435333252,18.332834243774414,25.869884490966797, -5.315908908843994
476,242185115,0.6095266,0.16131715,-0.7252314,0.27657485,0.0045897020027041435,1.7372729778289795,-4.197415828704834,34.90575408935547,17.06130599975586, -4.2334303855896
477,242201782,0.60921735,0.16572246,-0.72308666,0.28024304,0.10191883146762848,2.503739356994629,-4.810366630554199,41.26027297973633,6.2039265632629395, -4.299617290496826
478,242218449,0.6077997,0.17061867,-0.7218907,0.2834481,-0.24662041664123535,1.9532564878463745,-4.959370136260986,40.4208869934082,-4.309874057769775, -5.05441427230835
479,242235116,0.605347,0.17519914,-0.722164,0.285201,-0.8164066672325134,1.2767804861068726,-4.2907514572143555,30.274547576904297,-16.4986572265625, -5.7797346115112305
480,242251783,0.6022284,0.17908168,-0.72375524,0.2853584,-1.4653632640838623,0.8128464818000793,-3.0332982540130615,17.671396255493164,-25.535808563232422, -5.821556568145752
481,242268450,0.59865254,0.18244405,-0.7261955,0.2845515,-2.0105044841766357,-0.0015676665352657437,-2.348374128341675,9.613974571228027,-31.170866012573242, -4.96306848526001
482,242285117,0.5949544,0.18657862,-0.72793233,0.28518835,-2.0204296112060547,-0.3584846556186676,-1.339861512184143,21.57633399963379,-28.581510543823242, -3.6162095069885254
483,242301784,0.5922274,0.18871722,-0.72962,0.28514442,-2.619955539703369,-0.4630453586578369,1.0658073425292969,8.869712829589844,-20.37411880493164, 1.6912415027618408
484,242318451,0.5906047,0.1899155,-0.7303287,0.28589925,-2.7515978813171387,-1.0006269216537476,1.8001011610031128,9.533955574035645,-7.9653496742248535, 6.267617225646973
485,242335118,0.5909319,0.18966044,-0.72959983,0.28725004,-2.6845908164978027,-0.40155959129333496,3.220306396484375,6.872937202453613,11.372721672058105, 10.427419662475586
486,242351785,0.5933922,0.18701318,-0.72769123,0.28875127,-2.0174529552459717,-0.3381517827510834,2.9100444316864014,-2.577199697494507,31.65082359313965, 17.25025177001953
487,242368452,0.5981086,0.18210578,-0.7244331,0.2903452,-1.704001784324646,0.7060627341270447,1.7702282667160034,-11.612067222595215,52.939300537109375, 22.7265567779541
488,242385119,0.5996322,0.17861891,-0.72330725,0.29217005,4.833882808685303,-5.9683613777160645,-11.172502517700195,-4.915356159210205,25.619779586791992, 25.644779205322266
489,242401786,0.59970766,0.17766145,-0.7220953,0.29557663,3.631930351257324,-0.45801594853401184,5.948171138763428,15.351858139038086,16.075136184692383, 22.406478881835938
490,242418453,0.60011595,0.17269367,-0.72230625,0.29717305,2.0600430965423584,-2.3462700843811035,3.0504486560821533,-13.513267517089844,17.642290115356445, 36.04282760620117
491,242435120,0.59903944,0.17077817,-0.7220728,0.3009942,4.300225734710693,-0.967580258846283,3.0224783420562744,12.813828468322754,8.232861518859863, 32.315208435058594
492,242451787,0.5962014,0.17016457,-0.72266245,0.305528,4.977322101593018,1.0843662023544312,3.454831123352051,22.083707809448242,-5.8671088218688965, 33.392738342285156
493,242468454,0.59167165,0.1714785,-0.72461575,0.30895278,3.5018198490142822,3.070209503173828,1.6076332330703735,23.602834701538086,-25.26728057861328, 24.55216407775879
494,242485121,0.5872263,0.1713206,-0.727612,0.31047663,0.9644160270690918,0.7984466552734375,-0.7552646994590759,5.864448547363281,-28.136171340942383, 25.480497360229492
495,242501788,0.5827174,0.17130892,-0.73033625,0.31257427,-0.5946111679077148,-0.01518709771335125,-1.2922277450561523,10.059347152709961,-27.131437301635742, 26.685962677001953
496,242518455,0.5788645,0.1708876,-0.7325092,0.31487104,-0.9778035283088684,-1.3840339183807373,-1.3424911499023438,9.89377498626709,-20.496639251708984, 27.42704963684082
497,242535122,0.57569593,0.17102934,-0.73385733,0.3174538,-0.4857509732246399,-1.4916326999664307,-1.3676767349243164,14.59501838684082,-14.415068626403809, 23.467876434326172
498,242551789,0.57303536,0.1718387,-0.73446214,0.32041734,0.682466447353363,-1.5137933492660522,-0.148015558719635,20.22473907470703,-9.881525993347168, 19.536165237426758
499,242568456,0.57049006,0.17361164,-0.73447496,0.32395506,1.7814918756484985,-0.6729277968406677,0.6806610822677612,28.109466552734375,-8.332087516784668, 16.00092315673828
500,242585123,0.56805396,0.17623092,-0.7341837,0.32746258,1.9621177911758423,-0.40012669563293457,0.13126927614212036,31.836864471435547,-8.51601505279541, 10.969804763793945
501,242601790,0.5662148,0.17971438,-0.7334488,0.3303885,1.742681622505188,-0.7752898931503296,-0.3941431939601898,32.5593376159668,-6.179701805114746, 2.724900484085083
502,242618457,0.5661367,0.18138832,-0.7328282,0.330984,1.4680202007293701,-1.5121201276779175,-0.43204253911972046,11.32715129852295,3.570610523223877, -1.027287483215332
503,242635124,0.5675578,0.18299037,-0.7314365,0.33074695,0.6533459424972534,0.1366584151983261,-1.1444177627563477,6.716520309448242,13.30052661895752, -8.26019287109375
504,242651791,0.5702138,0.18394113,-0.72952557,0.3298703,0.6740611791610718,-0.2585989832878113,-1.5830333232879639,0.549848198890686,22.504104614257812, -10.586763381958008
505,242668458,0.57384163,0.18438303,-0.7271961,0.32847327,1.0803227424621582,0.2834671139717102,-1.0096436738967896,-4.381836891174316,29.601930618286133, -12.72583293914795
506,242685125,0.5778554,0.18471278,-0.72456986,0.32705224,1.2633092403411865,0.6355152726173401,-0.5809695720672607,-4.818115711212158,32.84986114501953, -13.578838348388672
507,242701792,0.58190584,0.18488838,-0.72203004,0.32538417,1.0770214796066284,0.6140358448028564,-0.28222599625587463,-6.974228858947754,32.827125549316406, -13.567109107971191
508,242718459,0.58594674,0.18489678,-0.71961224,0.32347795,0.7930336594581604,0.22244396805763245,-0.15752440690994263,-9.150679588317871,32.29301834106445, -13.529280662536621
509,242735126,0.58991486,0.18475506,-0.7174215,0.3212049,0.7282094955444336,0.04132939130067825,0.17358165979385376,-12.05216121673584,30.87383460998535, -13.757576942443848
510,242751793,0.5933186,0.1851276,-0.7156467,0.31867033,0.3416295349597931,-0.5236321687698364,0.3241429924964905,-11.537971496582031,25.010175704956055, -15.393401145935059
511,242768460,0.5958414,0.18637623,-0.71432906,0.316182,0.2570686936378479,-0.9426671266555786,0.727495014667511,-7.657227039337158,16.76163101196289, -17.195159912109375
512,242785127,0.597398,0.18807931,-0.7139202,0.31314564,0.46193546056747437,-0.4416271150112152,1.2573827505111694,-9.272773742675781,6.556241035461426, -18.407930374145508
513,242801794,0.5977357,0.18971165,-0.7148677,0.30933127,0.25834181904792786,-0.41269227862358093,1.7547775506973267,-14.76779842376709,-5.866113662719727, -16.77328872680664
514,242818461,0.5968925,0.19143859,-0.7167529,0.3055095,0.2741532027721405,0.12768271565437317,0.7460764050483704,-14.887261390686035,-15.791839599609375, -13.449618339538574
515,242835128,0.5956863,0.19274907,-0.7193346,0.30093762,0.7420536279678345,0.6518914699554443,-0.17227062582969666,-21.30502700805664,-20.3840274810791, -12.397756576538086
516,242851795,0.5945889,0.19303434,-0.72246146,0.2953834,1.2641608715057373,1.2813715934753418,-0.09914541989564896,-31.585403442382812,-21.529312133789062, -11.091130256652832
517,242868462,0.5932489,0.1931825,-0.7259523,0.28936103,1.6509850025177002,0.6477384567260742,0.7408162355422974,-34.90097427368164,-24.353986740112305, -10.779702186584473
518,242885129,0.59175944,0.19317167,-0.72935873,0.28379834,2.2998366355895996,-0.3799319267272949,1.2130486965179443,-32.833763122558594,-24.187063217163086, -8.253934860229492
519,242901796,0.59022564,0.19297116,-0.732697,0.27848032,2.4106345176696777,0.2053762972354889,0.53805011510849,-32.15385437011719,-23.663848876953125, -6.454551696777344
520,242918463,0.58897704,0.1915662,-0.73690903,0.27087584,2.459088087081909,0.16938616335391998,1.3000057935714722,-50.58280944824219,-26.612226486206055, -8.975539207458496
521,242935130,0.5860777,0.19470142,-0.7399795,0.26652333,2.742414712905884,1.2883095741271973,0.36519986391067505,-11.386780738830566,-34.682830810546875, -17.235410690307617
522,242951797,0.583164,0.19647992,-0.7438286,0.26083422,1.4803603887557983,0.0051269326359033585,-0.3416915237903595,-25.03164291381836,-37.113670349121094, -14.277732849121094
523,242968464,0.57999283,0.19850032,-0.74739593,0.25613564,0.7378210425376892,-0.6348612308502197,-2.3764851093292236,-18.083602905273438,-36.53642654418945, -11.574131965637207
524,242985131,0.5768636,0.19972822,-0.7510143,0.25162417,1.2811729907989502,-2.702273368835449,-3.7226946353912354,-20.37055015563965,-34.88746643066406, -6.797483921051025
525,243001798,0.5729717,0.20232384,-0.75401545,0.24945794,0.712567925453186,-1.209452509880066,-2.446887731552124,-0.6625649929046631,-35.5410041809082, -4.2972025871276855
526,243018465,0.568959,0.2045257,-0.75746644,0.2463731,0.6150044202804565,-0.7200860977172852,-4.085790634155273,-7.526410102844238,-38.400367736816406, -4.838739395141602
527,243035132,0.56493104,0.20654842,-0.7612303,0.2423209,0.3370572030544281,-0.1935780942440033,-2.82898211479187,-13.704510688781738,-40.70905303955078, -7.247596740722656
528,243051799,0.561167,0.20819077,-0.7651567,0.23724164,-0.1881580799818039,0.3036195933818817,-1.5608421564102173,-21.13680076599121,-40.81266403198242, -9.511606216430664
529,243068466,0.5582022,0.20951818,-0.7686895,0.23157935,-0.7007912993431091,1.0387771129608154,0.3150191307067871,-25.861766815185547,-35.4173698425293, -11.861968040466309
530,243085133,0.5562352,0.21001646,-0.77189684,0.22510228,-1.0394775867462158,1.5270665884017944,0.388887882232666,-34.22347640991211,-28.88620948791504, -12.67081356048584
531,243101800,0.554836,0.21080619,-0.77407485,0.22028649,-0.7517683506011963,1.3322103023529053,0.5562604069709778,-23.483064651489258,-20.13665199279785, -10.259742736816406
532,243118467,0.5541934,0.2103006,-0.7756602,0.2167826,-0.839745819568634,0.5185838937759399,0.3887351453304291,-21.605318069458008,-9.993431091308594, -0.08317741006612778
533,243135134,0.5530943,0.21078739,-0.77635026,0.21664676,-1.3365213871002197,-0.14438694715499878,0.3865501880645752,2.142547845840454,-5.766009330749512, 6.7040815353393555
534,243151801,0.55130535,0.21227597,-0.7766426,0.2186951,-1.6533828973770142,-1.1367899179458618,0.0918043777346611,19.21697998046875,-6.28135871887207, 10.13344669342041
535,243168468,0.5492799,0.21413426,-0.7767599,0.22154512,-2.01996111869812,-0.4492260217666626,1.0876497030258179,25.538299560546875,-6.098811626434326, 11.662373542785645
536,243185135,0.5482706,0.21428001,-0.7771688,0.22246884,-1.8853460550308228,0.20476381480693817,1.134503722190857,6.861141681671143,-1.978441596031189, 12.535165786743164
537,243201802,0.5485494,0.21283703,-0.7775885,0.22169827,-1.6949901580810547,0.5284696221351624,1.3543157577514648,-10.101658821105957,4.656642913818359, 12.504523277282715
538,243218469,0.54991275,0.21051209,-0.7777131,0.22009769,-1.3768434524536133,0.5189496278762817,1.3299140930175781,-19.00270652770996,11.642322540283203, 12.147675514221191
539,243235136,0.5521074,0.20796604,-0.7773328,0.21836053,-1.0086047649383545,0.6653385162353516,1.2578632831573486,-21.021726608276367,18.067758560180664, 10.978026390075684
540,243251803,0.5549265,0.20492461,-0.7766389,0.21655157,-0.7093745470046997,0.025839239358901978,1.2471132278442383,-23.74238395690918,23.098344802856445, 11.936471939086914
541,243268470,0.55840224,0.20132498,-0.7754358,0.21530114,-1.1368088722229004,0.2323508858680725,1.3927818536758423,-23.091224670410156,30.12778663635254, 15.605314254760742
542,243285137,0.5621595,0.19671011,-0.7738471,0.2155062,-1.0607600212097168,-3.9112343788146973,-0.900077223777771,-19.11144256591797,36.44038772583008, 25.451387405395508
543,243301804,0.56268936,0.19925009,-0.7705194,0.22356252,-0.5389861464500427,-1.847009539604187,-3.0602502822875977,57.18523406982422,25.989530563354492, 19.850561141967773
544,243318471,0.5611274,0.20089506,-0.76986194,0.22823243,3.4231739044189453,-2.693347215652466,-5.882287979125977,34.54217529296875,1.6272286176681519, 18.800243377685547
545,243335138,0.56064594,0.20101508,-0.7698569,0.2293246,1.3956831693649292,1.2815574407577515,2.4088661670684814,7.225135326385498,2.5639548301696777, 12.612040519714355
546,243351805,0.56045926,0.2003702,-0.76991403,0.23015118,2.1784090995788574,0.051295362412929535,-0.0535040944814682,2.35874605178833,4.527746677398682, 15.084145545959473
547,243368472,0.559534,0.20128742,-0.76967925,0.23237745,2.322359561920166,0.7694513201713562,1.025518774986267,17.27828598022461,1.2509328126907349, 13.270044326782227
548,243385139,0.5579753,0.20288359,-0.76945597,0.2354563,2.490450143814087,0.4313567876815796,0.17838120460510254,25.277036666870117,-2.024484872817993, 14.244756698608398
549,243401806,0.5559488,0.20555243,-0.76899767,0.23939888,2.960749626159668,1.3179904222488403,0.8451606035232544,35.012229919433594,-4.09976863861084, 12.416747093200684
550,243418473,0.554009,0.20795187,-0.7689085,0.2420951,3.1216001510620117,1.59331476688385,0.4707707464694977,26.686290740966797,-6.365786075592041, 9.575289726257324
551,243435140,0.5516487,0.21116169,-0.76908493,0.24413738,1.634998083114624,0.29483917355537415,0.2411758005619049,26.506515502929688,-11.876771926879883, 4.003846645355225
552,243451807,0.55034345,0.21280193,-0.769019,0.2458605,0.43032678961753845,-0.3933277726173401,-0.775458037853241,17.761825561523438,-3.1908860206604004, 9.0367431640625
553,243468474,0.55034715,0.21271606,-0.7686218,0.24716547,-0.08848430216312408,0.10002806782722473,-1.2380303144454956,7.670915603637695,7.345378398895264, 13.981136322021484
554,243485141,0.5510553,0.21155025,-0.7681114,0.24817283,0.42921122908592224,-0.23461374640464783,-0.3447440564632416,1.1447293758392334,12.779341697692871, 16.808979034423828
555,243501808,0.551442,0.21132717,-0.7674022,0.24969311,0.5571343898773193,-0.5224368572235107,0.14866994321346283,8.23204231262207,11.082547187805176, 14.401100158691406
556,243518475,0.5511934,0.21268739,-0.7663475,0.25231278,0.4877835214138031,-0.5739800930023193,0.3478459119796753,21.527244567871094,7.871088027954102, 10.661673545837402
557,243535142,0.55063975,0.2147884,-0.7653227,0.25483957,0.3269583284854889,-0.40106141567230225,0.3183196783065796,24.199556350708008,4.548282146453857, 6.395999431610107
558,243551809,0.5500607,0.2167271,-0.76447314,0.2569896,0.18525874614715576,-0.9624168872833252,0.15946221351623535,21.329940795898438,3.536101818084717, 6.256124496459961
559,243568476,0.5495395,0.21886447,-0.76364833,0.25873953,0.04061191901564598,-0.765457808971405,0.041956521570682526,19.822763442993164,2.7041478157043457, 3.286491870880127
560,243585143,0.54911137,0.22142619,-0.7626961,0.26027253,0.1562473028898239,-0.4112044870853424,-0.5691071152687073,20.359315872192383,2.571077346801758, -0.2504541873931885
561,243601810,0.54910344,0.22366276,-0.76182634,0.26092345,0.2439984679222107,-0.2904718220233917,-0.23047928512096405,13.667709350585938,3.4161536693573, -3.411947250366211
562,243618477,0.54914784,0.22556804,-0.7610088,0.26157525,0.3128039538860321,-0.6935709714889526,0.07604770362377167,11.979615211486816,2.120509147644043, -7.372622489929199
563,243635144,0.5494558,0.22771645,-0.7601674,0.26151356,0.4864090085029602,0.17834754288196564,0.07975584268569946,8.795836448669434,2.0398802757263184, -11.880023956298828
564,243651811,0.54981357,0.22985564,-0.7595131,0.26079068,0.8748271465301514,-0.3143531382083893,0.04447641223669052,4.890204906463623,0.5564427375793457, -14.165051460266113
565,243668478,0.5503632,0.23179142,-0.75898606,0.25944826,0.7273416519165039,-0.1562330275774002,0.0806913673877716,0.3579057455062866,0.4784007966518402, -15.53030014038086
566,243685145,0.5510855,0.23357716,-0.7584181,0.2579702,0.44299542903900146,0.2038591206073761,-0.28027546405792236,-1.120223879814148,1.5822068452835083, -15.637067794799805
567,243701812,0.55182904,0.23550524,-0.75769234,0.25675812,0.3784536123275757,0.1401802897453308,-0.5262826085090637,1.0524715185165405,2.456343412399292, -15.708757400512695
568,243718479,0.552772,0.2371661,-0.7569415,0.25541186,0.5952766537666321,0.1825474053621292,-0.310476154088974,-0.9323159456253052,3.8715484142303467, -15.171157836914062
569,243735146,0.55385697,0.23847492,-0.7563059,0.25371963,0.7190431356430054,0.009334535337984562,0.00035718135768547654,-4.494853973388672,4.222238540649414, -14.689754486083984
570,243751813,0.55496246,0.2396368,-0.7558242,0.25163603,0.7399499416351318,0.11835209280252457,-0.0902925506234169,-7.38873291015625,3.3538899421691895, -15.187271118164062
571,243768480,0.55598086,0.24061596,-0.75571936,0.24875195,0.9192292094230652,0.44104382395744324,0.025033358484506607,-12.749969482421875,0.46489042043685913, -16.485153198242188
572,243785147,0.5563979,0.24151629,-0.75630724,0.24513397,1.0025712251663208,0.10937471687793732,0.5824270844459534,-17.049667358398438,-6.394275665283203, -16.6832275390625
573,243801814,0.55619913,0.24202451,-0.7577121,0.24070515,0.4590502679347992,0.5888733267784119,1.2475475072860718,-23.119905471801758,-13.430384635925293, -15.34692668914795
574,243818481,0.55613756,0.24150792,-0.7595721,0.2354469,0.4392069876194,0.20471817255020142,0.3869958519935608,-32.338802337646484,-14.177145957946777, -12.625636100769043
575,243835148,0.55674464,0.23860995,-0.76204896,0.2288713,1.057173728942871,0.14209085702896118,0.7992762327194214,-50.43143844604492,-11.384632110595703, -5.2731547355651855
576,243851815,0.5565764,0.23666577,-0.7643614,0.22352582,1.4182430505752563,0.1771833449602127,0.24341334402561188,-38.80347442626953,-14.326165199279785, -4.600427150726318
577,243868482,0.55474067,0.23709886,-0.7670924,0.2182122,1.9045634269714355,-0.11594980210065842,1.8216558694839478,-27.466711044311523,-28.30425262451172, -13.717873573303223
578,243885149,0.5519037,0.23789854,-0.77024144,0.21338914,1.4487820863723755,-1.8512530326843262,1.0372165441513062,-22.477670669555664,-34.99049377441406, -11.588067054748535
579,243901816,0.548409,0.23790172,-0.7742364,0.20786743,1.0779143571853638,-1.1103696823120117,0.43885862827301025,-29.374971389770508,-41.68556213378906, -7.7104692459106445
580,243918483,0.5449338,0.23609331,-0.7790649,0.20091093,0.44750964641571045,-1.4885729551315308,-0.15312251448631287,-45.07282638549805,-44.49006271362305, -2.1628689765930176
581,243935150,0.5419258,0.23291814,-0.7841142,0.19295247,1.0939326286315918,-0.9899474382400513,-0.6188018918037415,-56.63241195678711,-42.53617858886719, 1.0842112302780151
582,243951817,0.53947365,0.2279641,-0.78935456,0.18417406,1.26421058177948,-1.773568034172058,-1.229024887084961,-68.830810546875,-39.181610107421875, 7.167418956756592
583,243968484,0.5362123,0.22410704,-0.7939838,0.17844403,0.6383532285690308,-1.4616559743881226,-1.325840711593628,-46.186927795410156,-37.87803268432617, 12.549626350402832
584,243985151,0.5313721,0.22313689,-0.79748285,0.17853545,-0.29431232810020447,-2.059468984603882,-0.7590809464454651,0.04526430740952492,-36.8582878112793, 18.420076370239258
585,244001818,0.5263564,0.22401425,-0.7998136,0.18183808,-0.48269912600517273,-0.38509681820869446,0.048554446548223495,26.091331481933594,-30.859365463256836, 18.405061721801758
586,244018485,0.52246904,0.22575861,-0.80091107,0.18601254,-0.5463297963142395,1.2152334451675415,0.4163232743740082,33.8253288269043,-19.924264907836914, 13.48531436920166
587,244035152,0.520433,0.22737157,-0.80103385,0.18920012,-0.6074455976486206,2.182943344116211,0.604842483997345,26.303081512451172,-7.598144054412842, 6.822890758514404
588,244051819,0.52035993,0.22807154,-0.80060023,0.1903898,-0.600436806678772,2.495789051055908,0.6084880232810974,9.706761360168457,3.2562906742095947, 1.3404219150543213
589,244068486,0.5214955,0.22816326,-0.7998092,0.19049805,-0.7211992740631104,1.8879200220108032,-0.2703583538532257,0.17171399295330048,10.27645206451416, -1.2579808235168457
590,244085153,0.5228366,0.22923335,-0.7983982,0.19145338,-0.8106255531311035,1.7342453002929688,-0.9086004495620728,8.843490600585938,13.69375991821289, -4.795892715454102
591,244101820,0.5236711,0.23170944,-0.7964363,0.19434188,-0.7199321389198303,0.7710444331169128,-2.0188000202178955,26.047605514526367,14.12382984161377, -5.726595401763916
592,244118487,0.52378577,0.2357909,-0.79399115,0.19907118,-1.3258200883865356,1.3357605934143066,-1.4895516633987427,43.70792007446289,12.775178909301758, -7.684367656707764
593,244135154,0.52340984,0.24097812,-0.79125905,0.20464842,-1.749069333076477,1.7211875915527344,-1.344643473625183,53.51763916015625,11.04546070098877, -10.435148239135742
594,244151821,0.52325577,0.24680696,-0.78805256,0.21038827,-2.1193933486938477,1.9633402824401855,-0.7664715051651001,57.02406692504883,13.378381729125977, -14.406609535217285
595,244168488,0.5235672,0.2527822,-0.7844521,0.21590233,-2.30057954788208,1.8143082857131958,-0.16306617856025696,56.11943435668945,16.760446548461914, -17.317665100097656
596,244185155,0.52452993,0.2578319,-0.7808561,0.22057892,-2.0748913288116455,1.2290035486221313,-0.13081057369709015,47.14190673828125,20.19923210144043, -16.2670841217041
597,244201822,0.52635,0.26030248,-0.77814513,0.22290905,-1.5935618877410889,0.4491289258003235,-0.2186235785484314,22.385744094848633,21.381120681762695, -10.59506607055664
598,244218489,0.5289268,0.2602866,-0.7762423,0.22346172,-0.8493016362190247,0.5505357980728149,-1.3002196550369263,1.2856254577636719,23.151472091674805, -3.4368209838867188
599,244235156,0.5317983,0.2576125,-0.7752353,0.22324146,-1.0135782957077026,-0.35958024859428406,-1.0665544271469116,-14.408185005187988,24.205230712890625, 9.094335556030273
600,244251823,0.53314734,0.25521964,-0.77459013,0.22500442,-1.4306676387786865,-1.3742412328720093,-1.5104910135269165,-0.6712079048156738,17.880901336669922, 17.80792808532715
601,244268490,0.5323056,0.25485665,-0.7738576,0.2298764,-1.6523046493530273,-3.489842176437378,-1.4729526042938232,27.2994384765625,8.902389526367188, 21.583118438720703
602,244285157,0.5322976,0.25481027,-0.7726641,0.23392583,-1.969721794128418,1.6804513931274414,2.995452642440796,23.331127166748047,13.140542984008789, 14.663811683654785
603,244301824,0.53401434,0.25112602,-0.77205133,0.23601146,1.1152334213256836,-5.7311320304870605,-1.40437650680542,-4.364114284515381,22.506580352783203, 25.088951110839844
604,244318491,0.53276503,0.2505139,-0.7716462,0.24076204,3.432490825653076,-2.2183420658111572,-1.3855730295181274,25.817785263061523,5.64933443069458, 23.59601402282715
605,244335158,0.5317208,0.24889195,-0.7717195,0.24448918,1.504671335220337,0.12475675344467163,3.820004940032959,15.53669261932373,4.893648624420166, 25.64567756652832
606,244351825,0.5312017,0.24574846,-0.7723203,0.24688867,2.6596288681030273,-0.1510278582572937,-0.39777672290802,1.1402616500854492,5.903290748596191, 28.909543991088867
607,244368492,0.5289086,0.2453235,-0.77280277,0.25069574,4.808420181274414,4.216737270355225,2.065340518951416,21.74297332763672,-5.341445446014404, 22.436697006225586
608,244385159,0.5250782,0.24497472,-0.774588,0.25356275,2.8967080116271973,1.8304084539413452,1.3531495332717896,17.391029357910156,-20.086490631103516, 23.59545135498047
609,244401826,0.52045745,0.2448788,-0.7766193,0.25694537,0.4036273956298828,-0.7335743308067322,0.030425723642110825,21.957204818725586,-24.827491760253906, 25.96597671508789
610,244418493,0.516493,0.24455439,-0.7780601,0.2608656,-1.0334523916244507,-1.02968430519104,-1.3565069437026978,23.94480323791504,-17.902315139770508, 26.94054412841797
611,244435160,0.5137474,0.24405386,-0.77878106,0.26457798,-0.9329168796539307,-0.3892952799797058,-1.6425085067749023,21.446277618408203,-8.807995796203613, 23.708757400512695
612,244451827,0.5124173,0.24270403,-0.77911824,0.26739177,-0.10876672714948654,-0.4417124390602112,-0.8108448386192322,11.963314056396484,0.22191530466079712, 21.851219177246094
613,244468494,0.5118682,0.24126129,-0.7790872,0.2698279,0.9773001670837402,-0.6076256036758423,-0.029642172157764435,8.985135078430176,5.262323379516602, 18.94045066833496
614,244485161,0.51140034,0.24050416,-0.7788476,0.27207407,1.2333482503890991,-0.3279455006122589,-0.11220642924308777,10.627188682556152,4.832372665405273, 14.083819389343262
615,244501828,0.51054627,0.24105014,-0.77842325,0.2743985,0.3565536439418793,-0.26029106974601746,0.28750547766685486,16.610536575317383,1.0917744636535645, 7.793537139892578
616,244518495,0.5100736,0.24229877,-0.77744216,0.2769476,-0.3808216452598572,-1.7018672227859497,-0.44101712107658386,20.69814682006836,4.12614107131958, 3.1994340419769287
617,244535162,0.51086044,0.24356845,-0.77571964,0.27920434,0.15530835092067719,-1.072892427444458,-0.6245424151420593,18.515522003173828,12.94990062713623, -1.6162538528442383
618,244551829,0.51304615,0.24436763,-0.7736631,0.2802028,0.3583926558494568,-0.2769395709037781,-0.8029801845550537,8.446553230285645,20.390687942504883, -6.814028739929199
619,244568496,0.51615185,0.24498664,-0.77126664,0.28056508,0.33254891633987427,-0.12768112123012543,-0.6190221905708313,3.541356325149536,25.782846450805664, -10.428292274475098
620,244585163,0.5194984,0.24594009,-0.7685446,0.28102383,0.1981862336397171,-0.4269218444824219,-0.32501688599586487,5.46400785446167,27.742523193359375, -12.871821403503418
621,244601830,0.52283376,0.24737935,-0.76549166,0.28190616,0.17147797346115112,0.2024454027414322,-0.4513731896877289,10.095266342163086,28.645952224731445, -14.471784591674805
622,244618497,0.5259024,0.24939983,-0.7622863,0.28310135,0.34953469038009644,0.9344793558120728,-0.5901487469673157,14.5839204788208,27.2021484375, -16.137733459472656
623,244635164,0.5289574,0.25112957,-0.7593515,0.28376657,0.4502269923686981,0.7048642635345459,0.22439490258693695,10.252768516540527,25.797338485717773, -16.096654891967773
624,244651831,0.532394,0.2512069,-0.75718397,0.28306267,0.13892020285129547,-0.5830522179603577,0.9645010232925415,-5.111542224884033,25.62306785583496, -12.762796401977539
625,244668498,0.53588814,0.25081104,-0.7552878,0.2818832,-0.11455469578504562,-0.33313027024269104,0.06814708560705185,-9.968120574951172,24.88505744934082, -12.189593315124512
626,244685165,0.53922087,0.25081208,-0.753529,0.2802294,-0.14306510984897614,-0.3341068625450134,0.011497583240270615,-10.939177513122559,21.986984252929688, -15.326250076293945
627,244701832,0.5419123,0.2519567,-0.7518116,0.2786186,-0.3497146666049957,-0.33682677149772644,0.12929221987724304,-5.443480014801025,16.372785568237305, -19.850669860839844
628,244718499,0.5442437,0.25340357,-0.75030303,0.27682352,-0.17616024613380432,-0.7046708464622498,0.433721125125885,-5.055599689483643,12.70800495147705, -21.6297664642334
629,244735166,0.54580045,0.25515777,-0.74930656,0.27483863,-0.1109229102730751,0.22481705248355865,0.7120321393013,-4.5159759521484375,5.766767978668213, -22.049030303955078
630,244751833,0.5463375,0.25701603,-0.74935395,0.27189538,-0.27259382605552673,0.6544919610023499,1.2572685480117798,-9.180171012878418,-4.749512195587158, -19.926177978515625
631,244768500,0.54572624,0.25927714,-0.7501142,0.26886284,-0.5025708675384521,-0.041630517691373825,0.03835446760058403,-7.431323528289795,-14.293057441711426, -18.9100399017334
632,244785167,0.5447495,0.26219508,-0.7508277,0.26600707,0.06674782931804657,-0.0944335088133812,-0.31526729464530945,-3.3179163932800293,-16.898460388183594, -21.044307708740234
633,244801834,0.5442189,0.26445973,-0.7516073,0.2626283,0.6447753310203552,1.0634503364562988,-0.2171124666929245,-9.389050483703613,-14.581719398498535, -20.32785415649414
634,244818501,0.5444959,0.2652737,-0.7527588,0.25789237,1.3063633441925049,1.2248684167861938,-0.2561261057853699,-23.965930938720703,-11.651721000671387, -18.662700653076172
635,244835168,0.5452768,0.26466912,-0.754272,0.25238293,1.3864920139312744,0.8679198026657104,0.37549683451652527,-34.834442138671875,-9.301634788513184, -14.417542457580566
636,244851835,0.546159,0.2625339,-0.75642765,0.24617833,1.4565351009368896,0.6687945127487183,1.117037296295166,-45.47440719604492,-9.82047176361084, -8.067986488342285
637,244868502,0.545552,0.26121292,-0.7591594,0.24045394,1.0251206159591675,0.6884117722511292,1.2319549322128296,-38.205223083496094,-20.288877487182617, -6.916845798492432
638,244885169,0.54354745,0.260735,-0.76240236,0.23519449,0.9430689811706543,0.07201092690229416,0.9941577911376953,-30.949338912963867,-30.105226516723633, -6.326570987701416
639,244901836,0.54126596,0.25931737,-0.7666294,0.22817779,1.5604543685913086,-0.43135011196136475,1.7060537338256836,-44.7674560546875,-36.90048599243164, -5.75238561630249
640,244918503,0.5376207,0.2597392,-0.77057505,0.22296585,1.3569016456604004,-0.9453885555267334,0.8160448670387268,-25.539318084716797,-42.76856231689453, -7.100903034210205
641,244935170,0.5338055,0.2598722,-0.7748095,0.2172296,0.1796278953552246,-1.0465365648269653,0.19741776585578918,-29.527990341186523,-45.25767135620117, -6.752935886383057
642,244951837,0.53027403,0.26044968,-0.7784205,0.21221985,-0.5880825519561768,-2.1461920738220215,-1.798359990119934,-23.60731315612793,-40.818748474121094, -8.019271850585938
643,244968504,0.5263439,0.26376778,-0.7803674,0.21075071,-0.7504158020019531,-1.085431456565857,-1.8678950071334839,8.465211868286133,-34.46917724609375, -12.231982231140137
644,244985171,0.5236706,0.2663294,-0.7817975,0.20887971,-0.9493630528450012,0.04241319000720978,-0.8898477554321289,2.035568952560425,-25.41716957092285, -12.415997505187988
645,245001838,0.5220406,0.2681465,-0.78270096,0.20724536,-1.2123267650604248,0.07998371124267578,-0.41800469160079956,-0.5258549451828003,-16.370285034179688, -10.026281356811523
646,245018505,0.521603,0.26916656,-0.7830886,0.20555326,-1.4691957235336304,0.8086768984794617,0.6350502967834473,-5.160205841064453,-7.0455708503723145, -8.592974662780762
647,245035172,0.52196044,0.26980558,-0.78293383,0.20439486,-1.2269392013549805,0.6086104512214661,-0.06859251856803894,-4.352878570556641,0.7036002278327942, -6.7361159324646
648,245051839,0.5222708,0.27138105,-0.7819422,0.20530963,-0.7756543755531311,0.8204267621040344,-0.5133998990058899,11.435237884521484,5.998068332672119, -5.81069278717041
649,245068506,0.5224103,0.27346936,-0.7803894,0.20807308,-0.98799067735672,0.6254044771194458,-0.7237993478775024,24.331464767456055,9.84151840209961, -2.7184746265411377
650,245085173,0.5222764,0.27630532,-0.778265,0.21257152,-1.0477979183197021,0.8219432234764099,-1.2350729703903198,37.661590576171875,12.650662422180176, -1.1710959672927856
651,245101840,0.5220822,0.27989954,-0.7755253,0.21828207,-1.1027212142944336,1.1652073860168457,-1.390213966369629,47.88857650756836,15.775995254516602, -1.9448922872543335
652,245118507,0.52180797,0.28374818,-0.7724784,0.2246792,-1.106493353843689,0.7851575016975403,-1.6340298652648926,53.08441925048828,17.43800163269043, -1.289229393005371
653,245135174,0.5213622,0.2877268,-0.7693968,0.23113568,-0.8806973099708557,0.7192915081977844,-1.7046990394592285,54.25822830200195,16.62041473388672, -1.5617390871047974
654,245151841,0.5206433,0.29132795,-0.7667921,0.23683019,-0.6568486094474792,0.13907848298549652,-1.4769089221954346,48.660037994384766,12.609888076782227, -0.912972629070282
655,245168508,0.52026826,0.29363167,-0.7648926,0.24091688,-0.6365708112716675,0.3436839282512665,-0.8669388890266418,33.70254898071289,10.83244514465332, 1.0162203311920166
656,245185175,0.52082247,0.29401183,-0.76368904,0.24306418,-0.9127348065376282,0.23484200239181519,-0.06440793722867966,13.595114707946777,12.522466659545898, 4.06162166595459
657,245201842,0.5226821,0.2923455,-0.762823,0.24380058,-1.0510780811309814,0.2826661169528961,0.24269558489322662,-4.343535900115967,18.735992431640625, 8.257450103759766
658,245218509,0.5258382,0.2888532,-0.7620713,0.2435272,-0.8489678502082825,0.2510656416416168,0.029430177062749863,-18.997594833374023,26.149295806884766, 12.266619682312012
659,245235176,0.53008837,0.28454077,-0.76062506,0.24391077,-0.9370806813240051,0.28765538334846497,1.2537448406219482,-19.52932357788086,37.06864547729492, 15.732577323913574
660,245251843,0.53482246,0.28041545,-0.75827295,0.24567156,-0.7951160073280334,0.28997802734375,0.8264115452766418,-11.072632789611816,45.242122650146484, 17.197498321533203
661,245268510,0.53648114,0.27909043,-0.75608903,0.25025183,1.7031723260879517,-3.7526438236236572,-4.955084800720215,19.569395065307617,29.26930809020996, 18.490556716918945
662,245285177,0.5362808,0.2785852,-0.7552692,0.25369596,2.0108280181884766,-1.8512543439865112,2.024646759033203,17.896116256713867,11.119953155517578, 15.749485969543457
663,245301844,0.53600395,0.27683365,-0.7552091,0.2563629,1.3800252676010132,-0.2757631838321686,4.397572994232178,8.076616287231445,8.520088195800781, 20.913074493408203
664,245318511,0.534013,0.2751959,-0.75640005,0.25875968,1.9335706233978271,-0.508589506149292,1.6090842485427856,8.144698143005371,-5.85991907119751, 24.742359161376953
665,245335178,0.530709,0.27316663,-0.7588454,0.2605416,0.7117599844932556,0.7627047300338745,0.7239449620246887,3.7575457096099854,-17.829660415649414, 29.232690811157227
666,245351845,0.52644974,0.27156484,-0.7615202,0.26304057,-0.431325227022171,0.6670551896095276,-0.05613832175731659,10.443748474121094,-23.10381507873535, 31.785850524902344
667,245368512,0.5214517,0.2712683,-0.7638383,0.2665577,-1.3136262893676758,0.3092783987522125,-1.8483004570007324,22.527587890625,-26.137500762939453, 29.32268524169922
668,245385179,0.5174565,0.2710529,-0.76518905,0.2706565,-1.2845977544784546,-0.7598678469657898,-2.6646902561187744,25.78162384033203,-16.4003963470459, 27.3371524810791
669,245401846,0.5145583,0.27062538,-0.765655,0.27525327,0.22967495024204254,-0.6484178900718689,-0.23467305302619934,27.253684997558594,-6.066961765289307, 26.500436782836914
670,245418513,0.5125931,0.26897413,-0.7666299,0.27781302,1.216569423675537,-0.1442137360572815,1.1509196758270264,9.499715805053711,-4.430252552032471, 24.903961181640625
671,245435180,0.5100625,0.268037,-0.76783043,0.28005198,1.1376266479492188,0.14468184113502502,0.4422371983528137,10.936834335327148,-10.216931343078613, 21.515483856201172
672,245451847,0.50648344,0.26910183,-0.7689824,0.28235617,0.2424754500389099,-0.6848093271255493,0.38083577156066895,20.326366424560547,-19.34678840637207, 13.117364883422852
673,245468514,0.50271183,0.27132767,-0.7697443,0.28487924,-0.031096147373318672,-1.279728889465332,-0.2931956648826599,26.6350040435791,-20.870426177978516, 7.379695892333984
674,245485181,0.5003581,0.2735739,-0.7697038,0.28697634,0.08602922409772873,-0.33871597051620483,-0.9348116517066956,23.372343063354492,-11.418553352355957, 1.49543297290802
675,245501848,0.4999987,0.27452856,-0.7691833,0.28808442,0.5550423860549927,-0.6896858811378479,-1.5470269918441772,10.892874717712402,1.4982091188430786, 0.0828891322016716
676,245518515,0.50130093,0.27457687,-0.76825845,0.28824323,0.6233513355255127,-0.28763139247894287,-0.7794843912124634,0.4235893785953522,11.715080261230469, -2.4571681022644043
677,245535182,0.503462,0.27476433,-0.76685643,0.28803062,0.6364075541496277,0.008589320816099644,-0.5530893802642822,-1.7328037023544312,16.931148529052734, -7.076016426086426
678,245551849,0.50606185,0.27550426,-0.7649496,0.2878385,0.5087056756019592,-0.12928922474384308,-0.3670077323913574,0.46047231554985046,19.940719604492188, -11.734170913696289
679,245568516,0.5091307,0.27630723,-0.7628131,0.28732687,0.5786371231079102,0.29657235741615295,-0.7171904444694519,-1.433930516242981,22.47654914855957, -14.538496971130371
680,245585183,0.51259756,0.27700937,-0.76056814,0.2864369,0.3500146269798279,0.2143256813287735,-0.4275796413421631,-4.30978536605835,24.431358337402344, -16.3139705657959
681,245601850,0.5164305,0.27729565,-0.7584542,0.28487572,-0.1480947583913803,-0.09379534423351288,-0.2914794981479645,-10.238496780395508,25.42645263671875, -16.966489791870117
682,245618517,0.52035373,0.27728137,-0.7565368,0.28284183,-0.3914366662502289,-0.2718098759651184,0.11215516179800034,-14.327672958374023,24.892253875732422, -16.879911422729492
683,245635184,0.5236729,0.2776676,-0.7547936,0.2809881,-0.4769476354122162,-0.5629969835281372,0.8929207921028137,-11.146960258483887,20.686840057373047, -16.816987991333008
684,245651851,0.52584946,0.27867475,-0.7535457,0.27926996,-0.6098920702934265,-0.4261632263660431,0.9305891990661621,-6.988038539886475,12.00787353515625, -16.407609939575195
685,245668518,0.52671903,0.28027925,-0.7530269,0.27741912,-0.41115301847457886,-0.5122501850128174,0.8956317901611328,-4.415557384490967,1.1741833686828613, -16.08234405517578
686,245685185,0.5262811,0.2824254,-0.75326693,0.27541488,-0.3741439878940582,0.1400947868824005,0.9482659697532654,-2.180488348007202,-9.698195457458496, -15.493433952331543
687,245701852,0.5248596,0.28470173,-0.75434715,0.27281484,-0.20480041205883026,0.5999757647514343,0.3344823122024536,-4.478133201599121,-19.263185501098633, -14.821114540100098
688,245718519,0.52279365,0.28701255,-0.75609326,0.26950645,-0.3350737988948822,0.13608965277671814,0.5058274269104004,-8.013011932373047,-26.472801208496094, -15.02424430847168
689,245735186,0.52032244,0.28960127,-0.7580813,0.26591063,0.20076124370098114,0.004647697787731886,0.14675219357013702,-8.158051490783691,-30.545095443725586, -16.26704216003418
690,245751853,0.51814723,0.29205906,-0.76008534,0.261716,0.6062149405479431,0.011122620664536953,-0.21505463123321533,-12.366691589355469,-30.01936912536621, -18.23259162902832
691,245768520,0.5163685,0.2942665,-0.76193815,0.257335,0.6845316290855408,-0.07193964719772339,-0.1736212521791458,-14.756184577941895,-27.333574295043945, -18.600399017333984
692,245785187,0.51480937,0.29636788,-0.76359946,0.25308818,0.42293882369995117,-0.3172202408313751,-0.03345641866326332,-14.535035133361816,-25.047157287597656, -18.34164810180664
693,245801854,0.5134008,0.29857808,-0.76496845,0.24918751,0.270867258310318,-0.25147581100463867,-0.5477055311203003,-12.13304615020752,-22.709308624267578, -18.549999237060547
