Acc_X,Acc_Y,Acc_Z
-1.6579910516738892,2.2071986198425293,-29.184595108032227
-1.9432740211486816,0.7006062269210815,-27.078441619873047
-1.6749677658081057,2.600598096847534,-21.273069381713867
-1.5444408655166626,3.7549774646759033,-15.344462394714355
-2.7779409885406494,6.509152889251709,-5.429573059082031
-4.4813737869262695,1.2988653182983398,-39.61742401123047
19.04564094543457,7.2425055503845215,3.8554649353027344
4.511731147766113,8.618577003479004,1.132145643234253
5.765091896057129,-4.769908428192139,6.688875675201416
16.498414993286133,-6.5030598640441895,5.922221183776856
19.649200439453125,-0.8389910459518433,6.387813091278076
7.170538425445557,3.854957103729248,4.044943809509277
2.019798040390014,3.2372069358825684,-2.594521999359131
0.8932827711105347,1.5123131275177002,-4.917145729064941
0.4217698276042938,-0.5611470341682434,-3.528785228729248
3.5547854900360107,-2.315364360809326,-1.4893813133239746
6.062037467956543,-4.13289213180542,3.1024489402771
8.558878898620605,-3.847749710083008,7.586260318756103
7.834839820861816,-2.7374162673950195,10.048638343811035
3.4056105613708496,-0.4064947366714477,7.265813827514648
6.361539840698242,-1.4014427661895752,9.295085906982422
6.353936672210693,-1.871196985244751,17.77220916748047
3.279340505599976,-3.507900714874268,14.032166481018066
3.4276137351989746,-6.492203712463379,13.261924743652344
4.876229286193848,-9.904102325439451,9.94099235534668
5.520509243011475,-4.740965366363525,21.26437759399414
0.6984449028968811,-3.9934895038604736,20.446941375732425
1.392861008644104,-3.859577894210816,18.797096252441406
1.3727586269378662,0.7316190004348755,16.641029357910156
2.337202787399292,4.87212610244751,16.350366592407227
3.118988513946533,5.557907104492188,15.268568992614746
3.1225125789642334,3.438546895980835,11.935911178588867
3.167795181274414,1.9188172817230225,11.064976692199709
3.5796592235565186,-1.370745062828064,7.388478755950928
3.5033960342407227,-2.09081768989563,5.5897722244262695
5.291313648223877,-2.342472076416016,3.0680651664733887
7.732890605926514,-1.8214733600616453,-0.6894960403442383
9.55329704284668,-0.7097300291061401,-5.546794891357422
11.325881004333496,-0.1002417355775833,-8.95042896270752
10.306815147399902,1.6345523595809937,-9.243264198303224
8.609241485595703,3.0792737007141118,-12.368804931640623
7.537106990814209,-0.1950515210628509,-17.636640548706055
5.025389194488525,-1.1801589727401731,-20.387815475463867
1.949872732162476,-1.6780331134796145,-22.527603149414062
2.455726146697998,-1.8766334056854248,-23.03130149841309
1.9594464302062988,-2.466635227203369,-23.22612190246582
-0.8852525353431702,-2.6241323947906494,-23.166553497314453
-3.3428070545196533,-2.789451360702514,-21.597261428833008
-3.175034523010254,-3.1183769702911377,-17.890790939331055
-3.904374122619629,-0.7122983336448669,-11.56357192993164
-4.407126903533936,0.1890311241149902,-10.614745140075684
-3.988659858703613,2.4955897331237797,-5.904179573059082
-4.446547031402588,2.44309139251709,-2.7684807777404785
-4.070001602172852,2.4663121700286865,-2.736521482467652
-3.4678826332092285,4.117878437042236,-17.550634384155273
6.193278789520264,-11.896018028259276,-27.99201011657715
14.807311058044434,3.8024532794952393,10.82301139831543
-2.4343857765197754,-0.2161567658185959,2.1862306594848637
6.15321683883667,-4.728118896484375,0.5113224983215332
7.879546642303467,1.959371566772461,0.1640660315752029
11.079767227172852,1.1451600790023804,0.3572998642921448
7.52545690536499,0.834395706653595,2.372057676315308
7.331557273864746,0.8747994303703308,-2.424339532852173
8.909990310668945,3.808042764663696,0.2326339930295944
11.307560920715332,3.850830078125,1.2435468435287476
17.306047439575195,1.286118507385254,7.24762487411499
8.312125205993652,2.690476655960083,4.735903739929199
3.7263686656951904,2.030292510986328,3.819138526916504
4.855415344238281,-8.108115196228027,9.542421340942385
2.439298391342163,-7.464321613311768,16.332698822021484
0.1812239289283752,-9.772979736328123,13.86965274810791
0.5070919990539551,-5.976863384246826,9.477725982666016
3.3743739128112797,-3.5423879623413086,7.371171951293945
8.335865020751953,-3.123460054397583,16.386598587036133
8.080719947814941,-2.063992977142334,18.331750869750977
8.958334922790527,-6.682859420776367,16.771751403808594
9.12584400177002,-5.682564735412598,16.43370819091797
9.249098777770996,-6.287698745727539,16.636751174926758
7.910412311553955,-4.8528594970703125,16.048341751098633
7.429450035095215,-1.372517466545105,14.813800811767578
7.201367378234863,-1.1486737728118896,12.84685516357422
5.483311653137207,-0.7286137938499451,10.465646743774414
4.181027889251709,-1.357603907585144,8.377663612365723
2.929400682449341,-2.590073585510254,6.370065212249756
1.0265592336654663,-1.0717865228652954,6.6391215324401855
-0.4398661255836487,-3.884119272232056,4.89384651184082
-0.1580826193094253,-2.0673274993896484,3.084902048110962
-0.1433854103088379,-0.4690587222576141,1.033982515335083
0.5667633414268494,-0.0228624138981103,-2.594686985015869
1.149509072303772,3.49903416633606,-4.464856624603272
2.4677767753601074,5.189452648162842,-8.050275802612305
3.549271583557129,2.2197554111480717,-12.664819717407228
5.9230780601501465,-2.6515913009643555,-17.329914093017578
9.602510452270508,-3.816195487976074,-22.383419036865234
11.925044059753418,-2.3756232261657715,-27.58823585510254
4.180577278137207,-4.961194515228272,-32.79885482788086
-1.967142462730408,-0.9684916138648988,-31.13975524902344
-1.0702964067459106,2.214169979095459,-28.57881736755371
-0.7239335775375366,1.5070184469223022,-28.53816795349121
-0.4128094613552093,1.867422699928284,-21.9406681060791
1.874972105026245,1.8804744482040403,-17.47685432434082
1.9951481819152832,0.9707306623458862,-21.55978202819824
7.545149803161621,-5.657404899597168,-12.36643123626709
12.519989013671877,-3.6752755641937256,9.760395050048828
20.85452461242676,-3.895116090774536,11.780662536621094
17.003570556640625,9.427063941955566,-9.075271606445312
-10.148154258728027,7.125633239746094,-2.817051887512207
1.575543999671936,-0.2119176089763641,-2.701547145843506
5.150848865509033,-3.1958048343658447,-3.85221266746521
8.501965522766113,-1.623178005218506,-2.7787511348724365
10.116827011108398,-1.079959273338318,1.31527578830719
13.376522064208984,-0.763367235660553,2.082936286926269
13.554622650146484,4.0980095863342285,5.881363868713379
8.512925148010254,5.464239597320557,7.709127902984619
4.829087734222412,4.861863613128662,8.960112571716309
2.2898685932159424,2.4192614555358887,9.03598976135254
-1.4785900115966797,-12.271657943725586,3.936301946640015
-3.876902103424072,-12.722870826721191,8.528366088867188
-1.4841705560684204,-7.528903007507324,7.047878742218018
7.420736312866211,-0.3740028142929077,4.12946891784668
13.390777587890623,-3.362544298171997,12.534869194030762
11.308650970458984,-4.5902838706970215,16.44139289855957
10.904953002929688,-7.52526044845581,17.845808029174805
9.049012184143066,-5.70918083190918,19.371368408203125
6.497271537780762,-3.79266357421875,19.309816360473636
5.925775527954102,-4.851772785186768,17.32817840576172
4.372373104095459,-3.146698474884033,16.856565475463867
2.9781622886657715,-2.272077798843384,15.70150661468506
1.839267015457153,-1.9217013120651243,13.75408172607422
0.879003643989563,-0.3368857204914093,11.930879592895508
1.7439090013504028,-1.1576687097549438,8.443964958190918
1.9502732753753664,1.892582893371582,8.588457107543945
2.6316475868225098,-0.6128107905387878,4.85265064239502
3.563836097717285,-0.8386404514312744,1.400984525680542
4.02267599105835,0.6837652921676636,-1.1377795934677124
3.9900307655334473,0.0085952021181583,-3.624253511428833
4.453359127044678,0.2174515426158905,-6.833409309387207
4.390884399414063,1.50544011592865,-9.219005584716797
5.014208793640137,1.781644344329834,-11.72605323791504
6.151407241821289,-0.064180389046669,-14.718459129333496
7.015356063842773,-2.202990293502808,-17.406705856323242
6.401131629943848,-2.011819839477539,-20.436260223388672
5.669590950012207,-0.1238519847393035,-23.18443489074707
2.2845988273620605,-1.510236144065857,-24.33353614807129
-1.065865159034729,-4.586041927337647,-24.55349922180176
-1.151801824569702,-4.274960517883301,-22.804637908935547
-0.9596401453018188,-2.4120798110961914,-20.614694595336918
-0.6346065402030945,-1.0320574045181274,-16.848468780517578
-0.0557951480150222,-0.5328028202056885,-12.948497772216797
-0.1254605799913406,-0.501616895198822,-9.481488227844238
-1.6438885927200315,2.3920607566833496,-3.009171724319458
-4.924360275268555,4.83557653427124,1.1717462539672852
17.339305877685547,-21.502660751342773,-12.310172080993652
42.91787338256836,20.9666805267334,20.093833923339844
-21.633419036865234,-6.534802436828613,-14.563616752624512
-0.1496575474739074,1.838898539543152,-11.121980667114258
6.779402732849121,-3.0143074989318848,0.0430563986301422
5.281901836395264,-2.253030776977539,-2.302865982055664
1.2684791088104248,-0.8308601379394531,-2.7722606658935547
4.188562870025635,0.3445707857608795,-2.8734631538391118
6.584390640258789,-2.275914669036865,-1.3742828369140625
11.0534086227417,-1.0587830543518066,-0.603848397731781
14.529803276062012,0.178786814212799,5.389541149139404
12.884894371032717,0.2565372586250305,5.005017280578613
9.239116668701172,2.1657867431640625,8.3361177444458
3.5615413188934326,3.319654941558838,12.400877952575684
0.8529877066612244,-0.5052414536476135,9.388476371765137
-0.3653669357299804,-8.05931568145752,3.1188719272613525
2.6639068126678467,-5.508540630340576,10.59791374206543
5.479337215423584,-1.876650333404541,10.186078071594238
9.114701271057127,-7.3849711418151855,10.037449836730955
9.285955429077148,-3.93025016784668,17.431379318237305
7.002838134765625,-2.6720666885375977,19.984691619873047
6.596319675445557,-2.2597360610961914,19.859413146972656
6.746249198913574,0.1104137748479843,19.9169864654541
5.984353542327881,1.3319705724716189,18.361913681030277
5.864737987518311,0.8457175493240356,15.779888153076172
5.242264270782471,0.0895063132047653,13.705129623413086
4.527593612670898,0.254081517457962,11.685312271118164
4.013839244842529,-0.3277104496955871,8.6017484664917
3.183701038360596,1.952192306518555,8.933059692382812
3.707414150238037,-0.0869874507188797,6.023489952087402
4.61025333404541,-2.3585000038146973,3.298136949539185
5.784236431121826,-2.0433926582336426,1.223254919052124
6.837789058685303,-0.8953109979629517,-0.8744549751281738
6.365814685821533,-0.4987058639526367,-4.185632228851318
4.736973285675049,0.4108586311340332,-7.7063307762146
4.251730442047119,1.238857388496399,-9.64659595489502
4.533886909484863,1.1986238956451416,-11.113975524902344
5.099865913391113,0.0514508932828903,-13.113035202026367
4.989959239959717,-0.7270699143409729,-14.949102401733398
5.64354133605957,-0.2512308955192566,-17.07793617248535
4.129588127136231,0.6997015476226807,-19.689002990722656
2.0198144912719727,0.669160008430481,-19.41998291015625
0.7330288887023926,-2.3023180961608887,-20.67951393127441
-2.0758066177368164,-6.019323825836182,-24.93494033813477
-1.6495308876037598,-3.196272373199463,-21.32445335388184
-1.9477746486663816,-0.0007126331329345,-17.15018081665039
-1.6386244297027588,-1.0032824277877808,-17.282991409301758
-0.6801762580871582,-1.0563207864761353,-14.17302703857422
-0.0720069706439971,-2.08076548576355,-12.244027137756348
0.1646496355533599,0.7260415554046631,-6.979496002197266
-0.9789458513259888,-4.259445190429688,-24.79102897644043
6.963746070861816,-3.753873109817505,-8.49636173248291
4.779022216796875,-8.160024642944336,6.126577854156494
32.694366455078125,1.229013204574585,17.01078987121582
1.6404218673706057,5.8798933029174805,-11.411930084228516
-8.85612678527832,4.681168079376221,-5.585174083709717
7.742555618286133,-2.120471477508545,-0.0841797217726707
8.443564414978027,-5.197925567626953,-5.053670883178711
9.218019485473633,-1.1953469514846802,1.0106360912322998
17.241636276245117,-1.1455117464065552,-0.2563818693161011
18.68265724182129,3.6891188621521,2.391737699508667
17.057689666748047,6.9449076652526855,5.897539138793945
12.185452461242676,6.206271648406982,11.674620628356934
1.7733659744262695,4.433932304382324,12.168294906616213
-0.4523825645446777,-4.887190818786621,-3.353149652481079
2.9987339973449707,-9.11314868927002,4.583262920379639
1.4309444427490234,-6.59872579574585,3.329451322555542
5.888307094573975,-0.5843577980995178,3.253331184387207
6.64108943939209,-3.844015598297119,11.956283569335938
5.272073745727539,-7.420464038848877,13.926557540893556
7.422438621520996,-8.149697303771973,14.445289611816406
8.87983512878418,-6.002525329589844,16.5944766998291
9.48033332824707,-3.96540117263794,18.783449172973636
9.081068992614746,-4.826394557952881,16.90879249572754
9.643104553222656,-3.952678918838501,15.316320419311523
9.51129150390625,-2.08092737197876,15.11194896697998
8.537792205810547,-1.6350889205932615,13.350111961364746
6.414209365844727,-1.6683285236358645,11.54493808746338
4.446323871612549,-1.6465712785720823,10.155138969421388
2.9551892280578613,-2.315617084503174,8.48720932006836
1.7678593397140503,-1.3888784646987915,7.60528039932251
0.6621912121772766,-2.3036365509033203,6.324115753173828
1.296741604804993,-3.63686728477478,2.741199016571045
1.7353054285049438,-2.4334657192230225,1.460847020149231
2.388051748275757,-0.3771682679653168,-0.3024051785469055
2.129826784133911,0.5003492832183838,-3.275604724884033
2.8342297077178955,3.16635537147522,-4.572453498840332
3.0225212574005127,3.9138333797454834,-7.0518059730529785
3.227216482162476,4.033811569213867,-8.493056297302246
4.172389030456543,1.966206431388855,-11.867663383483888
5.886538505554199,-1.651464581489563,-18.234210968017575
7.654758930206299,-3.2146236896514893,-24.819847106933597
6.561377048492432,-2.9848053455352783,-30.187685012817383
2.9347245693206787,-1.688094139099121,-35.329185485839844
-1.2674020528793335,-0.1243920773267746,-29.58634376525879
-0.4807089865207672,-0.453705370426178,-30.07686996459961
1.3868600130081177,0.1763865500688552,-24.097490310668945
1.748440504074097,-0.9438758492469788,-18.630516052246094
2.813898086547852,-8.982601165771484,-27.97332572937012
8.404704093933105,-1.0997788906097412,4.277188301086426
8.54080867767334,-3.0899910926818848,5.401350498199463
19.76498031616211,5.657625675201416,0.236168086528778
4.68121337890625,7.782626152038574,-5.467731952667236
-2.9048099517822266,0.9206929802894592,-2.556069850921631
8.178631782531738,-2.186710834503174,-3.075831890106201
7.819930076599121,-0.2182460874319076,-3.519814968109131
8.319958686828613,-0.4099914729595184,-1.497402310371399
13.0108642578125,-1.3862624168395996,0.6895431876182556
13.940159797668455,0.2287049293518066,3.062079429626465
13.103793144226074,5.009219169616699,4.706360340118408
8.557046890258789,5.300427913665772,7.114864349365234
5.681015491485596,5.607218265533447,9.275426864624023
3.7026913166046143,0.9196905493736268,7.657224178314209
-0.2124000191688537,-14.85550022125244,0.3570809662342071
-2.786604642868042,-10.758378028869627,5.298169136047363
-1.1146032810211182,-5.925844669342041,-3.4044930934906006
7.723948001861572,2.29731559753418,4.742629528045654
8.187719345092773,-3.054565668106079,11.094374656677246
7.66785717010498,-5.580836772918701,14.132946968078612
8.793699264526367,-7.17928409576416,17.13822364807129
7.264003276824951,-4.118697643280029,19.212696075439453
7.253903388977051,-4.312526226043701,18.61921119689941
8.459794998168945,-4.928175449371338,17.932050704956055
8.605932235717773,-3.455118417739868,16.648963928222656
8.121236801147461,-1.7037951946258545,14.672611236572266
7.028923511505127,-2.1110999584198,12.62812614440918
6.044826507568359,-2.2010560035705566,9.858513832092283
4.5848708152771,0.1476467698812484,7.8897294998168945
3.5499017238616943,1.825513243675232,8.450121879577637
2.805583953857422,-0.5184110403060913,5.678152084350586
2.919676780700684,-2.8589653968811035,2.8475139141082764
3.0174596309661865,-1.6618813276290894,0.8413317203521729
2.505170583724976,-0.7092689871788025,-0.4950592517852783
2.6597554683685303,-0.4576117098331451,-2.8463292121887207
2.436859130859375,-0.1517079770565033,-5.714970588684082
2.349738597869873,1.306862473487854,-6.36040735244751
3.294534206390381,3.350405216217041,-6.807458400726318
3.5363035202026367,3.362356185913086,-8.138567924499512
3.5673813819885254,1.864912152290344,-10.949183464050291
3.6733922958374015,-0.9718296527862548,-14.953939437866213
4.16738224029541,-0.8723478317260742,-18.20999336242676
4.815484523773193,-0.3879968225955963,-22.687891006469727
3.5564124584198,-0.7010021805763245,-26.083017349243164
-0.9040201902389526,-4.998887062072754,-27.802215576171875
-2.0099055767059326,-4.170940399169922,-27.881776809692383
-0.6045790910720825,0.3049980401992798,-21.187849044799805
-1.1411136388778689,1.863142967224121,-19.39755630493164
-0.7049530744552612,2.209653854370117,-15.17547607421875
-0.191105380654335,0.0299755930900573,-12.24717903137207
2.564248561859131,-9.882566452026367,-24.660785675048828
7.574536323547363,-3.423413038253784,0.8769597411155701
17.26434898376465,-12.291877746582031,13.561022758483888
21.614824295043945,8.25053596496582,1.920243740081787
-9.6051025390625,6.691153049468994,-7.454723358154297
1.4947829246520996,1.2212804555892944,-2.7821664810180664
7.317651271820068,-4.530411243438721,-1.3649823665618896
3.312773942947388,2.094598293304444,-4.918663024902344
5.266358852386475,0.1535358279943466,-2.8618571758270264
11.119728088378906,-4.242233753204346,-2.405752182006836
13.68352508544922,-0.777645468711853,4.13425874710083
16.65927505493164,2.4612183570861816,4.616990566253662
11.43635368347168,4.374337196350098,7.061191082000732
6.459933757781982,4.540672302246094,9.289823532104492
4.824775695800781,3.1832332611083984,13.50934600830078
-0.4986864328384399,-5.393505096435547,3.057849407196045
1.1455132961273191,-14.769697189331056,11.50121021270752
-2.457617282867432,-6.625749588012695,10.862339973449709
3.868703842163086,-5.066727638244629,4.320431709289551
10.08283519744873,-5.493896007537842,9.651735305786133
9.314669609069824,-4.103045463562012,16.831640243530273
7.8575849533081055,-3.3753201961517334,19.46277236938477
8.040143013000488,-4.066102504730225,18.727375030517575
7.5843400955200195,-1.576941967010498,17.417898178100586
6.71152925491333,-1.911229968070984,16.170679092407227
5.55062198638916,-2.2800021171569824,15.159635543823242
4.820457458496094,-1.2453278303146362,14.14162826538086
3.77677059173584,-0.3565247356891632,12.17137336730957
2.488377332687378,1.1645842790603638,11.407416343688965
1.6060309410095217,1.477117896080017,10.275755882263184
1.9530372619628904,0.4437394142150879,7.154947280883789
2.834566116333008,0.357952207326889,6.3493757247924805
3.403972864151001,-0.9508727788925172,3.946964025497437
3.787388801574707,-2.668773651123047,0.4149021506309509
3.9207613468170166,-1.030961513519287,-1.4206881523132324
4.068005561828613,-0.3188790082931518,-4.809184074401856
3.372929096221924,0.8080893754959106,-7.547433853149414
3.1930222511291504,3.388629913330078,-9.274935722351074
4.002828598022461,4.923444747924805,-9.94309139251709
5.6533050537109375,1.6484994888305664,-13.77364730834961
6.512232780456543,-1.2121357917785645,-17.664268493652344
6.332644939422607,-3.1710777282714844,-21.30066299438477
5.104224681854248,-1.6939796209335327,-24.157304763793945
3.7902755737304688,0.8472787141799927,-25.803455352783203
0.6555486917495728,0.4075645208358764,-24.890439987182617
-1.4612503051757812,-1.4910032749176023,-23.99193382263184
-0.7444689273834229,-1.315598487854004,-23.38047790527344
-0.6950314044952393,-1.5715728998184204,-20.39776039123535
-0.2880371809005737,-1.790138602256775,-16.060264587402344
0.4505857527256012,-0.4471775889396667,-12.17094612121582
0.6301748156547546,-2.224453926086426,-19.22233772277832
0.9922985434532166,1.89167320728302,-1.6164034605026243
5.689218521118164,-9.218348503112791,0.2919403612613678
14.174501419067385,-7.741177558898926,6.736057758331299
22.44443893432617,7.522085189819336,1.908841609954834
-2.161220073699951,8.141218185424805,-6.62580156326294
-4.212656021118164,1.8625900745391848,-3.209700584411621
6.832865715026856,-0.6823349595069885,-3.291080474853516
8.913066864013672,-2.9917304515838623,-2.624307155609131
11.056883811950684,-0.8725635409355164,1.5453104972839355
15.3367338180542,0.6650679111480713,1.384875774383545
14.516387939453123,3.889341115951538,4.618041038513184
11.541708946228027,4.586196422576904,7.921297073364258
7.948620319366455,4.073904991149902,10.334463119506836
0.7087181806564331,4.068228244781494,8.804102897644043
1.3744412660598757,-2.4725217819213867,1.2339894771575928
3.0400960445404053,-13.320992469787598,12.27017879486084
-2.941713333129883,-6.4132161140441895,6.122192859649658
1.2911006212234497,-1.60884428024292,2.967595338821411
7.996273994445801,0.3731938004493713,9.989127159118652
6.879098415374756,-2.6076576709747314,13.318402290344238
6.736404895782471,-4.223987579345703,14.503972053527832
7.528086185455322,-8.03765869140625,14.496932983398438
7.501777648925781,-7.812351226806641,15.5512113571167
7.308229446411133,-7.121581077575684,14.234777450561523
7.487157821655273,-5.601860046386719,13.490894317626951
7.346912384033203,-3.513508081436157,13.357406616210938
7.1545729637146,-2.5528006553649902,12.49994659423828
6.131339550018311,-1.5615063905715942,10.44233512878418
4.852266788482666,-0.5910325050354004,8.660958290100098
3.349940061569214,0.2206059098243713,7.495790481567383
2.197275400161743,0.6085222959518433,6.081937313079834
1.3908456563949585,0.2648442983627319,4.904150009155273
1.102594971656799,-0.0289888214319944,3.376725912094116
1.256881833076477,-0.1772834807634353,1.6866461038589478
0.4570172727108001,-0.4103054404258728,0.1236105486750602
-0.0197214484214782,0.1530069857835769,-1.3226382732391355
-0.067825049161911,0.7825288772583008,-3.0787723064422607
0.2899796664714813,2.885932922363281,-3.807196855545044
-0.4119087755680084,3.376298427581787,-6.088332176208496
-0.4495278298854828,4.352197647094727,-7.775366306304932
-0.1751981377601623,2.120854377746582,-11.99978256225586
0.5703252553939819,-0.4451580643653869,-16.450687408447266
1.9786570072174072,-2.0201432704925537,-20.414648056030277
3.088137149810791,-0.2951954305171966,-25.395790100097656
2.492182970046997,0.7997799515724182,-27.48089027404785
0.0884536206722259,0.154281660914421,-28.543432235717773
-1.58305025100708,-1.0190200805664062,-27.68149948120117
-0.6704130172729492,0.1239235773682594,-23.68927001953125
-0.4022912979125976,-0.0340865515172481,-19.889982223510746
1.9075696468353271,-11.758105278015137,-42.68793869018555
16.832029342651367,3.9631035327911377,8.650589942932129
11.20377254486084,0.2919708490371704,14.58296012878418
12.981188774108888,-0.769341766834259,-3.511204719543457
2.757629156112671,6.972877025604248,-4.656767845153809
-0.3479377925395965,3.671927690505981,-1.8123615980148315
6.42718505859375,-1.4458651542663574,-2.903850555419922
8.274002075195312,0.1793965399265289,-1.9822922945022583
9.394866943359377,2.1393463611602783,-1.6062535047531128
10.864859580993652,1.2199219465255735,0.8689327836036682
9.51494026184082,1.2041229009628296,1.3852660655975342
8.723723411560059,3.6012985706329346,2.6781554222106934
6.614515781402588,4.123024940490723,4.3346333503723145
4.43017578125,1.4398292303085327,7.174806594848633
4.051115036010742,-4.011016845703125,9.284948348999023
0.6373447775840759,-13.45444679260254,-0.2883248925209045
-0.9472295641899108,-8.626838684082031,3.5304195880889893
-1.2229316234588623,-5.011958122253418,3.248570919036865
2.954392910003662,1.2771326303482056,7.814066410064697
6.978831768035889,-2.109407901763916,12.060351371765137
8.202808380126953,-3.662439584732056,16.03365135192871
7.927272796630859,-3.400989055633545,18.976219177246094
7.331164360046387,-3.516276836395264,19.495994567871094
7.152769088745117,-3.593843936920166,19.090984344482425
6.866952896118164,-4.24938440322876,17.066068649291992
7.010675430297852,-3.3809356689453125,16.069875717163086
6.677311897277832,-2.08953070640564,14.556324005126951
6.117756843566895,-1.819197654724121,11.278582572937012
5.349889755249023,-0.5795584321022034,9.161835670471191
3.875779151916504,0.92452073097229,7.925378322601318
3.1675164699554443,0.4328974485397339,5.279695987701416
3.204648971557617,-0.1858355849981308,3.432493209838867
2.3974318504333496,-2.01619553565979,2.180769681930542
2.17961859703064,-2.629215955734253,0.3696775138378143
2.601933479309082,-0.7478874921798706,-0.8261894583702087
2.3455727100372314,-0.1642350852489471,-2.5806126594543457
1.312272310256958,-0.2874627113342285,-5.1845903396606445
0.2266314625740051,1.076799988746643,-6.920350551605225
0.4713234901428222,2.810781955718994,-8.49121379852295
0.6060067415237427,2.268245220184326,-11.163093566894531
1.2365585565567017,0.1523916125297546,-15.630102157592772
1.8349006175994875,-1.1807488203048706,-19.37701797485352
1.7311124801635742,-2.5069234371185303,-22.164974212646484
0.5967238545417786,-1.3276528120040894,-24.41046142578125
-0.3737927675247192,0.2297654449939727,-25.310914993286133
-1.38952374458313,1.53602135181427,-23.409358978271484
-1.455790638923645,1.141026496887207,-21.28631019592285
-1.5221935510635376,0.9614382982254028,-18.825145721435547
-0.4979695081710815,0.5490902662277222,-15.291695594787598
-0.1880987882614135,-3.03316330909729,-22.27358627319336
8.523065567016602,-7.516247749328613,-18.631139755249023
10.760624885559082,-0.2831254303455353,8.412497520446777
5.38020133972168,0.2127788662910461,7.675431251525879
8.44522762298584,1.1011346578598022,-4.813161373138428
0.1971389353275299,5.5725274085998535,-5.065340995788574
2.60412073135376,3.971534013748169,-4.989736080169678
6.044341087341309,-0.2948310673236847,-2.0958824157714844
9.710508346557615,-2.079894542694092,-3.656722068786621
11.447422981262209,0.2635264694690704,2.243328332901001
15.365140914916992,-0.599437952041626,1.6816864013671875
13.906383514404297,2.4873690605163574,4.601083278656006
13.056817054748535,2.071765899658203,8.933042526245117
8.033809661865234,1.1392788887023926,10.124388694763184
1.9671146869659424,1.9531227350234983,7.90117883682251
3.350327730178833,-6.926093578338623,2.913630723953247
-0.5650314688682556,-13.854203224182127,7.543064117431641
-2.708791732788086,-5.935971260070801,5.198378086090088
1.669626235961914,2.640388011932373,1.035122990608215
7.619828224182129,-0.0672163963317871,9.875289916992188
5.072364330291748,-2.229175806045532,12.849336624145508
5.591665744781494,-8.051277160644531,12.248811721801758
5.020967483520508,-7.484477519989014,14.872453689575195
4.909243106842041,-5.52948808670044,15.55726718902588
6.166730880737305,-4.597294807434082,14.668774604797363
7.018660068511963,-3.0250773429870605,14.626755714416504
6.943524360656738,-2.0454680919647217,14.327837944030762
6.814152717590332,-1.5214319229125977,12.751350402832031
6.8437700271606445,-1.7538050413131714,10.29872703552246
6.431402206420898,-1.9274113178253172,8.28433609008789
5.051916599273682,-0.5022324323654175,6.960626602172852
4.012909412384033,-0.4271868169307709,5.518208980560303
2.7671024799346924,-0.6434112787246704,4.3475494384765625
1.4690489768981934,-1.754544377326965,2.779463768005371
1.1251598596572876,-2.978940486907959,1.203117609024048
1.2201974391937256,-1.629436492919922,0.8346831798553467
0.7705471515655518,0.0049949903041124,-0.7160199880599976
-0.2583710253238678,0.8734329342842102,-1.9765931367874143
-1.0087065696716309,2.612852096557617,-3.24089789390564
-1.2937140464782717,3.817996263504028,-4.047429084777832
-2.1727845668792725,4.073647975921631,-5.179877281188965
-2.2531909942626958,3.4335219860076904,-7.287344455718994
-2.1794230937957764,0.6288078427314758,-10.33011245727539
-1.5466914176940918,-2.6108615398406982,-15.217780113220217
-0.5137894749641418,-3.650211811065674,-18.482967376708984
0.8068200349807739,-2.236702680587769,-22.167709350585938
1.2306276559829712,-1.3985133171081543,-23.91349601745605
-0.3202218115329742,-1.4771612882614136,-25.04290008544922
-1.5900472402572632,-0.7589578032493591,-23.31648826599121
-1.453918218612671,-0.9464352130889891,-21.39228630065918
-1.616695761680603,-0.6163461804389954,-17.802534103393555
-1.406652569770813,-11.363799095153809,-43.60213470458984
33.890438079833984,3.076533317565918,2.40930438041687
7.244545459747314,10.744729042053224,11.898202896118164
-4.45532751083374,-5.506722450256348,-12.173888206481934
-1.3593454360961914,7.955460071563721,-4.501938343048096
6.011288642883301,2.3009250164031982,-1.9632275104522705
10.741691589355469,-4.054415225982666,-1.0285500288009644
11.778020858764648,0.111922450363636,-1.7004435062408447
12.895306587219238,1.5998806953430176,1.1778075695037842
12.611499786376951,1.6372989416122437,0.6843816637992859
10.667193412780762,2.086836099624634,4.626245021820068
9.21104621887207,2.6674063205718994,6.799747467041016
2.746574878692627,1.6468404531478882,7.573818206787109
1.0904779434204102,-1.819149613380432,2.5230154991149902
2.805140495300293,-11.415079116821287,4.191188335418701
-0.9320128560066224,-10.065756797790527,1.778167963027954
-1.883171558380127,-3.877739191055298,-2.0294294357299805
3.5764505863189697,0.3913924098014831,4.214025974273682
4.639482498168945,-0.6381937265396118,10.201098442077637
6.164056777954102,-1.5432780981063845,12.646180152893066
6.587674140930176,-4.560373783111572,14.369738578796388
6.529498100280762,-3.511573314666748,16.620895385742188
8.185209274291992,-2.78076171875,17.736474990844727
8.570722579956055,-2.9510657787323,17.6827335357666
8.63834285736084,-3.355119466781616,17.524621963500977
8.758928298950195,-3.290806531906128,15.20762538909912
9.508813858032228,-3.6061625480651855,12.414578437805176
9.514018058776855,-3.661882162094116,8.978545188903809
7.609694004058838,-1.5168391466140747,7.617803573608398
5.003157138824463,-0.4104663431644439,5.943917274475098
3.6443216800689697,-0.6765037178993225,3.5956711769104004
2.550767421722412,-1.5065487623214722,2.76741361618042
1.616041660308838,-3.3165462017059326,0.8032833337783813
2.091017007827759,-2.58479118347168,0.2780953347682953
1.3072267770767212,-0.5877301692962646,-0.1929562389850616
0.2579029202461242,1.2613590955734253,-1.253560185432434
-1.269115924835205,2.8034963607788086,-1.9061625003814695
-2.0166726112365723,3.821235179901123,-3.81871509552002
-3.186487436294556,5.041069507598877,-4.687867641448975
-4.235226154327393,3.930725574493408,-6.869295597076416
-5.192666530609131,2.840668201446533,-8.594167709350586
-5.19185209274292,0.8835381865501404,-11.363271713256836
-4.027860164642334,-1.396346092224121,-14.241843223571776
-2.867755651473999,-3.446652889251709,-19.46686744689941
-2.170544147491455,-2.2342276573181152,-21.041778564453125
-1.1801855564117432,1.0474237203598022,-20.927831649780277
-0.8010214567184448,1.7714793682098389,-20.76584243774414
-1.6406447887420654,-0.1911202073097229,-20.67389488220215
-1.7482857704162598,-0.3741359710693359,-19.21782493591309
-1.4817789793014526,0.8278204202651978,-16.085193634033203
-1.6895184516906738,-11.94645881652832,-46.98261642456055
31.28663825988769,-4.073037624359131,-3.266446590423584
13.202810287475586,14.156044006347656,17.71628761291504
-3.858033657073975,-4.722178936004639,-12.513063430786133
-2.687007188796997,9.415071487426758,-5.112513542175293
6.658870697021484,2.1552181243896484,-3.112414121627808
8.569231986999512,-4.610527992248535,-2.531064748764038
10.249709129333496,-0.4979709386825561,0.6196702718734741
13.490623474121094,-1.3589836359024048,-0.002061627805233
14.463726997375488,1.4701400995254517,2.348813772201538
10.56267547607422,3.16577410697937,4.813368320465088
7.653862476348877,2.07236647605896,6.511297702789307
4.946216106414795,1.3802762031555176,8.60759449005127
2.0650460720062256,0.7178370356559753,5.656810283660889
1.936191439628601,-6.067227840423584,5.600712776184082
-0.0579916387796402,-7.426797866821289,10.570834159851074
-2.985168933868408,-3.627094268798828,12.06448459625244
-1.2959672212600708,-8.251181602478027,5.086564064025879
3.534437417984009,-3.604386329650879,3.5200929641723637
6.651856422424316,-1.8004019260406494,12.031582832336426
5.3066887855529785,0.3707556128501892,16.33553695678711
6.3563642501831055,-0.8434578776359558,15.923419952392578
7.23844051361084,-0.7227003574371338,16.260719299316406
7.036811351776123,-0.8763026595115662,15.22582721710205
6.735193729400635,-2.347581624984741,13.114653587341309
7.2908148765563965,-3.745206117630005,12.282977104187012
7.886647701263428,-4.196787357330322,9.6532621383667
8.520841598510742,-4.151272296905518,7.417294979095459
6.869350910186768,-1.8339624404907229,6.854233264923096
4.991601943969727,-1.4623574018478394,5.513779163360596
3.979346513748169,-1.8225136995315552,2.4975028038024902
3.191378116607666,-2.4481306076049805,1.839285373687744
2.097404718399048,-3.411693334579468,0.3654529452323913
1.4044662714004517,-1.7721598148345947,0.1117425635457038
-0.1432613581418991,-0.7471269369125366,-0.8960636258125305
-1.7024366855621338,0.5417339205741882,-1.6818777322769165
-2.912038803100586,2.3234517574310303,-2.5426700115203857
-3.526552677154541,3.719029426574707,-3.392446279525757
-4.5160231590271,3.073458671569824,-5.347588062286377
-4.773891925811768,2.939246892929077,-7.518458843231201
-4.210970878601074,1.815714120864868,-9.58471965789795
-2.68355393409729,-0.3004575371742248,-12.02458953857422
-0.9782458543777466,-2.7761707305908203,-16.870269775390625
0.5139530897140503,-2.638424634933472,-20.110200881958008
1.1444261074066162,-1.1450297832489014,-22.203458786010746
0.6062995195388794,0.5760713815689087,-22.536762237548828
-0.530439555644989,-0.3550026416778564,-22.363718032836918
-1.5323199033737185,-0.1423159688711166,-20.035280227661133
-1.028456211090088,0.9046956300735474,-17.394805908203125
-1.177539348602295,0.99912428855896,-13.497035026550291
-2.636307716369629,-5.714813709259033,-26.275291442871094
25.69203758239746,-16.05178451538086,-19.49421119689941
25.01966667175293,20.627002716064453,24.9454402923584
-16.31452751159668,-7.669321060180664,-14.496684074401855
-1.050038456916809,7.185209274291992,-6.2997331619262695
5.65670108795166,-0.0521236807107925,-0.6906139850616455
9.707809448242188,-2.649181842803955,-1.0582677125930786
3.936355590820313,1.6418190002441406,-4.157594203948975
7.370140075683594,-0.3193974494934082,-3.6299121379852295
13.124616622924805,-0.5920252799987793,3.584526538848877
15.29183578491211,-0.0343788415193557,3.2864017486572266
12.778716087341309,3.183342456817627,3.038983106613159
8.72319221496582,3.0410749912261963,8.43408489227295
3.9061119556427,2.596574068069458,7.387243270874023
1.3710570335388184,-1.3242168426513672,7.830724239349365
0.9333142042160034,-7.786664485931396,-0.5809020400047302
1.8690435886383057,-11.106159210205078,10.397923469543455
-1.8059372901916504,-4.726895809173584,14.775259017944336
-3.2822439670562744,-4.328852653503418,6.812048435211182
2.816137790679932,-4.665019989013672,5.557842254638672
5.162898540496826,-1.632104754447937,12.850854873657228
4.178660392761231,1.3266054391860962,16.114721298217773
5.088191986083984,-0.1065868437290191,14.796600341796877
5.223081588745117,-2.249941110610962,13.199137687683104
5.007512092590332,-2.9150190353393555,12.954862594604492
4.523303508758545,-3.536918878555298,11.687932014465332
5.03564977645874,-4.57888126373291,11.502443313598633
5.844083309173584,-4.081165313720703,9.93471622467041
7.330151081085205,-3.737658977508545,9.13866138458252
7.26429557800293,-3.0311896800994877,7.501255512237549
6.445416927337647,-1.5294233560562134,6.548252105712891
5.529430866241455,-1.633507251739502,5.419458389282227
4.287055969238281,-0.9044193029403688,4.122646331787109
3.7645320892333984,-2.445041418075561,2.090123176574707
3.842400312423706,-2.3852059841156006,0.6613510847091675
3.1067299842834477,-0.9505529999732972,0.1044207140803337
1.971275806427002,-0.485414981842041,-1.6484363079071045
0.541490375995636,0.4844507575035095,-3.0281639099121094
-0.4616690576076507,2.587257146835327,-3.677099704742432
-1.6264737844467163,3.4328160285949707,-4.6762776374816895
-2.342233419418335,2.491366147994995,-6.566346168518066
-2.6596004962921143,1.8863600492477417,-8.827282905578613
-2.1111598014831543,0.2711415290832519,-11.370221138000488
-1.4111018180847168,-0.8140389919281006,-15.244304656982422
-0.8845515847206116,-2.2506935596466064,-19.08656883239746
-0.8806949257850647,-2.115123987197876,-20.85845947265625
-0.7310930490493774,-1.738816738128662,-22.11515235900879
-0.7300715446472168,-1.4378751516342163,-22.571996688842773
-1.5651921033859253,-1.1485588550567627,-21.71921730041504
-2.2107667922973637,-0.373808741569519,-19.523439407348636
-1.9581446647644043,0.5933163166046143,-16.56247901916504
-1.6885370016098022,0.7769511938095093,-13.981188774108888
-1.747528314590454,-2.680370330810547,-21.698530197143555
17.658931732177734,-15.016759872436523,-25.92264175415039
29.06654167175293,15.41328239440918,25.06545829772949
-14.59805965423584,-4.175200462341309,-10.303055763244627
1.444918155670166,5.476315021514893,-6.348306655883789
0.6170824766159058,3.983891487121582,-3.690702438354492
8.458210945129395,-1.4852155447006226,-0.9551831483840942
12.079024314880373,-2.106463432312012,-1.7611103057861328
11.170270919799805,1.7774213552474976,0.7768796682357788
13.504498481750488,2.971708059310913,0.3121062815189361
10.785123825073242,3.176078081130981,2.996645450592041
10.566404342651367,2.667809247970581,4.282793045043945
6.989051818847656,2.6752710342407227,7.527749538421631
2.445136547088623,3.572176456451416,5.448485374450684
3.097187757492065,-1.4721355438232422,2.7191567420959477
6.079103946685791,-10.760578155517578,6.780421733856201
0.5903879404067993,-10.471936225891112,9.38705348968506
-5.89376163482666,-5.039394855499268,5.166469573974609
-0.4221425950527191,-0.7095066905021667,2.046537399291992
5.232942581176758,0.5120939016342163,10.061084747314451
5.728330612182617,2.571885108947754,15.635675430297852
6.125412940979004,-0.1153641492128372,14.990914344787598
7.737259387969971,-2.342771530151367,15.865440368652344
8.677346229553223,-3.821892499923706,16.607284545898438
8.677742958068848,-6.512125492095947,14.667479515075684
8.58664608001709,-6.848466873168945,13.555176734924316
8.442851066589355,-5.21092700958252,13.580217361450195
7.704429149627685,-3.933072566986084,10.678528785705566
8.205143928527832,-3.603049039840698,7.407382488250732
7.409153461456299,-3.5004122257232666,5.864916801452637
4.848588943481445,-1.1070326566696167,4.597486972808838
2.907201051712036,-0.9439623951911926,3.4302570819854736
1.819034457206726,-3.8980422019958496,0.7727957367897034
0.8233540058135986,-3.129014253616333,0.7940290570259094
0.3141780793666839,-2.07523512840271,0.5161535739898682
-0.5296918153762817,-1.5975245237350464,-0.8411906957626343
-1.904893159866333,0.2910348176956177,-1.5347059965133667
-2.5578904151916504,2.658080816268921,-1.75782310962677
-3.188735246658325,4.993101596832275,-2.392106771469116
-3.751920461654663,6.09916877746582,-2.617452383041382
-4.363858222961426,5.084197521209717,-4.236208915710449
-4.792360305786133,3.539363384246826,-6.672430038452148
-4.18553638458252,1.998400092124939,-8.808015823364258
-2.5690009593963623,-0.3372692465782165,-13.690003395080566
-0.6139440536499023,-2.52675199508667,-19.331317901611328
0.7200314402580261,-2.179096221923828,-21.84709358215332
2.003718852996826,-1.1807208061218262,-24.68453788757324
1.7355482578277588,0.0746395587921142,-26.140926361083984
0.5093225836753845,-0.6444923281669617,-26.9954833984375
-0.3606573939323425,-1.2705981731414795,-24.568679809570312
-0.6436059474945068,-0.4254539906978607,-21.09461784362793
-1.443309307098389,-6.410346984863281,-33.826446533203125
15.204164505004885,-5.461806774139404,-3.360746383666992
26.023351669311523,1.9001414775848389,22.662790298461918
7.915640830993652,2.0388193130493164,-8.753912925720215
-14.41561794281006,3.651280164718628,-6.141391754150391
1.0470726490020752,6.994050025939941,-2.475980281829834
6.999011993408203,-4.293894290924072,-3.340345859527588
11.69286060333252,-2.6393930912017822,-2.222569465637207
6.463802814483643,1.4564028978347778,-1.0588021278381348
10.397786140441896,0.993323028087616,0.3677752315998077
9.489577293395996,3.5993471145629883,0.2068994790315628
9.595864295959473,3.4643683433532715,1.848507046699524
8.797048568725586,1.8973366022109983,3.739977359771729
6.865165710449219,0.2646078169345855,8.69503116607666
4.119969844818115,-1.4014358520507812,9.324158668518066
1.349372386932373,-4.148666858673096,4.8337273597717285
-0.8866339921951294,-8.184717178344727,6.641057968139648
-3.7014389038085938,-3.550778388977051,11.855731964111328
-1.7696847915649414,-6.0523529052734375,10.990971565246582
1.591468095779419,-4.656572818756104,6.25951623916626
5.633059501647949,-2.528759002685547,11.405397415161133
6.862385749816895,-2.676967144012451,17.18963050842285
6.04669189453125,-1.6270651817321775,17.250246047973633
7.222579002380371,-4.222696781158447,15.110629081726074
6.894027233123779,-4.00646448135376,14.847853660583496
6.32327938079834,-2.901087999343872,14.943315505981444
6.714584827423096,-4.345539569854736,12.419472694396973
7.859015941619873,-4.740923881530762,10.356472969055176
7.59373664855957,-3.375190496444702,9.13534164428711
6.133962631225586,-1.982837200164795,8.20716667175293
4.9534010887146,-2.173248052597046,6.048523902893066
4.024975776672363,-1.704336404800415,4.230727195739746
3.244208574295044,-1.6967382431030271,3.655731916427612
2.361003398895264,-2.074517011642456,2.0610616207122803
2.3249526023864746,-1.6120399236679075,1.2044882774353027
1.634990692138672,0.2957752645015716,-0.227426677942276
0.5296819806098938,2.1676347255706787,-1.1605489253997805
-1.142744541168213,2.6540915966033936,-3.5183897018432617
-1.298460841178894,3.278069019317627,-5.391332626342773
-1.2470594644546509,2.925619125366211,-6.901044845581055
-0.0076164007186889,3.3373866081237797,-8.571881294250488
0.98388934135437,2.178988456726074,-12.502595901489258
1.4944589138031006,0.6149540543556213,-16.435016632080078
1.380863070487976,-1.407598614692688,-22.02633285522461
0.8381946086883545,0.6706726551055908,-24.44967460632324
1.3982205390930176,1.584065318107605,-25.6810245513916
0.9696415662765504,-0.6286265850067139,-27.44203186035156
-0.1927970498800277,-1.6254936456680298,-27.08114624023437
-0.1985868662595749,0.2338220775127411,-24.232990264892575
-0.3290002942085266,1.3879952430725098,-20.36368179321289
0.1308526694774627,2.4689784049987797,-15.60954475402832
1.5511982440948486,-0.2027030140161514,-15.302385330200195
7.403437614440918,1.1636461019515991,-2.822446584701538
7.224724769592285,-3.2207958698272705,3.855881452560425
21.68794822692871,0.2512649595737457,10.267386436462402
3.538106918334961,3.0532267093658447,-0.8273739814758301
-2.037191152572632,3.668110847473145,-6.868129253387451
-1.4031015634536743,4.485498428344727,-3.8145692348480233
2.5636849403381348,-2.0006263256073,-4.04940938949585
7.167082786560059,-0.8434784412384033,-0.785334587097168
9.095267295837402,-0.0071540782228112,-1.493088722229004
10.911812782287598,-0.8730064630508423,0.4857258200645447
11.778472900390623,0.2557055950164795,4.054271697998047
11.44873046875,0.4701837599277496,4.872682571411133
11.070560455322266,-0.0963851064443588,8.028095245361328
8.37806224822998,1.5752551555633545,9.779112815856934
4.020146369934082,3.530632734298706,8.78176498413086
0.8297904133796692,-1.9202427864074707,2.376824855804444
4.847296714782715,-12.925731658935549,16.225542068481445
-1.4584308862686155,-4.46790075302124,10.768900871276855
2.025768518447876,-5.326013565063477,6.768276214599609
6.991557121276856,-2.6778323650360107,12.527759552001951
6.783708572387695,-0.0897437036037445,17.54616355895996
7.028387069702148,-2.598681926727295,15.25999927520752
6.77071475982666,-6.135051250457764,13.943876266479492
5.740288734436035,-5.82146692276001,13.70399284362793
4.875193119049072,-5.09299898147583,12.62702751159668
4.465897560119629,-4.222933769226074,11.535520553588867
4.312342166900635,-2.4007887840271,11.558713912963867
4.357670783996582,-1.8391598463058472,10.060362815856934
3.658456325531006,-2.01357650756836,7.7923173904418945
3.053607940673828,-1.1323354244232178,7.117655277252197
2.738872528076172,-0.3488352298736572,6.434258460998535
2.6276214122772217,-0.1486517935991287,5.225872993469238
2.250962972640991,-0.2145673036575317,4.4191670417785645
2.3465633392333984,-0.7063992619514465,2.534456968307495
2.478232383728028,-0.1753209084272384,1.0406934022903442
1.908602833747864,1.0522500276565552,-0.4500094056129455
0.9220609664916992,1.591433048248291,-1.4452406167984009
0.0167129635810852,2.112293243408203,-3.147930383682251
-0.2785096764564514,2.770745277404785,-4.601339817047119
-0.5048229694366455,2.865007162094116,-5.994976043701172
-0.2439486384391784,1.42399001121521,-8.913476943969727
0.4877538681030273,-1.0588107109069824,-14.025402069091797
1.961054444313049,-4.072866916656494,-18.148202896118164
3.205615520477295,-3.779053926467896,-22.599666595458984
3.277085304260254,-1.3159406185150146,-25.17486000061035
1.285995602607727,-0.9243543148040771,-26.92403793334961
0.3567898273468017,-1.197478413581848,-26.38684844970703
-0.0983567684888839,-1.1277050971984863,-24.716800689697266
-0.6068115234375,-0.0185549817979335,-21.09341812133789
-0.8615060448646545,1.6580573320388794,-15.999134063720703
-1.7493948936462402,-2.7119994163513184,-31.91179847717285
16.990739822387695,4.471879482269287,-6.589662551879883
25.02912712097168,6.027165412902832,18.27855682373047
-3.856778144836426,-2.739565849304199,-10.023191452026367
-6.24563455581665,3.768931388854981,-4.638050079345703
2.8513004779815674,4.268959999084473,-3.564521551132202
9.613585472106934,-1.3665729761123655,-0.8830255270004272
11.568584442138672,-0.1977152675390243,-2.051537036895752
9.85849380493164,1.571993350982666,-0.2448963820934295
11.958758354187012,1.1075739860534668,2.773228406906128
12.22917938232422,1.408377170562744,2.046848773956299
10.623750686645508,2.5727438926696777,6.10475492477417
7.094841480255127,4.142883777618408,6.484707832336426
2.971193790435791,4.46219539642334,8.011627197265625
0.6674097776412964,-1.5434633493423462,3.058168888092041
2.1171724796295166,-13.043952941894531,2.221325397491455
-1.0603275299072266,-9.55070972442627,2.2406017780303955
-0.0971754938364029,-1.0875396728515625,0.1383368670940399
4.6808953285217285,2.834801197052002,8.929349899291992
4.965734481811523,-1.7191309928894043,12.142924308776855
6.693498611450195,-5.108789443969727,13.824577331542969
6.647501468658447,-4.9898681640625,17.112796783447266
7.030825614929199,-3.416910409927368,18.077287673950195
8.715076446533203,-3.9571051597595215,17.519765853881836
9.552412986755373,-4.851861953735352,16.96731948852539
9.40019989013672,-3.5948848724365234,15.71902084350586
9.311574935913086,-3.946812152862549,13.613449096679688
8.228801727294922,-4.193417549133301,10.67880916595459
6.780406475067139,-2.231081962585449,8.34589958190918
5.436263561248779,-1.848676443099976,7.035140037536621
3.480579137802124,-1.7348999977111816,5.878346920013428
2.5657739639282227,-1.5784378051757812,4.767516136169434
1.916422128677368,-2.271538257598877,3.8208508491516113
1.2372695207595823,-3.136974811553955,2.577800035476685
1.2032012939453125,-1.955909252166748,0.8844071626663208
0.4124452173709869,-0.2901525795459747,-0.2902372479438782
-1.1598443984985352,-1.547645092010498,-3.0936760902404785
-0.8428940773010254,-0.2265067994594574,-4.891904354095459
-0.4329730570316314,0.8374934196472168,-6.599796772003174
-0.217348575592041,3.509118795394897,-7.643401145935059
-0.3387739062309265,3.925504446029663,-8.954360961914062
-0.3722817301750183,1.01138174533844,-13.126617431640623
0.2621136903762817,-0.9083046317100524,-17.942203521728516
0.8267676830291748,-0.9387197494506836,-21.739336013793945
1.7934391498565674,2.059698820114136,-24.509204864501957
1.8853801488876345,2.8287546634674072,-26.319555282592773
-0.5041756629943848,-1.135592341423035,-28.11600112915039
-0.983644723892212,-1.3827825784683228,-27.13308525085449
-0.5969470143318176,1.5719718933105469,-23.731128692626957
-0.3932814598083496,1.6881319284439087,-19.789905548095703
1.2599611282348633,-5.281599044799805,-32.42392349243164
11.760774612426758,2.125499725341797,3.547430992126465
8.988661766052246,-2.728498697280884,12.182032585144045
16.22054672241211,-0.8899425864219666,2.620537042617798
2.9907960891723637,4.476084232330322,-7.087575912475586
-2.860826015472412,6.995919227600098,-2.9839582443237305
4.729982376098633,0.6217355132102966,-2.3431198596954346
8.11734390258789,-2.348269462585449,-3.7381768226623535
8.336359977722168,0.6523821353912354,0.3411343991756439
10.478835105895996,-1.2310011386871338,0.0170834511518478
12.474658966064451,0.8689020276069641,0.3480306267738342
10.930375099182127,1.6803401708602903,3.548840045928955
10.285152435302734,0.9478808045387268,5.537503242492676
6.805619239807129,0.4996525943279266,8.097577095031738
1.6417993307113647,-0.2254341691732406,7.782618045806885
2.147150039672852,-1.9162189960479736,-0.1526769697666168
3.519251108169556,-6.842803478240967,11.983628273010254
-2.47391128540039,-3.392419576644897,13.582812309265137
-2.248325824737549,-5.12430477142334,7.27755069732666
2.226330518722534,-7.389954090118408,4.0323638916015625
6.038028717041016,-2.663870334625244,12.439508438110352
5.601744651794434,-1.493608832359314,17.067466735839844
6.289958477020264,-4.008277416229248,16.593379974365234
6.396135330200195,-3.24830174446106,17.713010787963867
5.642166614532471,-1.863903880119324,16.294084548950195
5.601753234863281,-2.0165393352508545,15.492524147033691
5.121242046356201,-2.065833330154419,13.309368133544922
5.912479400634766,-2.941739559173584,11.710140228271484
6.201697826385498,-2.511659622192383,9.193877220153809
5.770087718963623,-1.1880834102630615,8.374292373657227
5.014754772186279,-0.8042094111442566,5.596797943115234
5.211672306060791,-1.031589388847351,3.5188851356506348
4.82132625579834,-1.1501569747924805,2.595198154449463
4.513422012329102,-2.126131534576416,0.9428898096084596
4.153873443603516,-0.3771896660327911,-0.1363123208284378
3.16828727722168,1.6241347789764404,-1.3315788507461548
1.881912112236023,2.6679940223693848,-3.1455812454223637
0.6200849413871765,4.640023231506348,-5.536609172821045
-0.3456529378890991,4.825576305389404,-6.972394943237305
-0.1835370659828186,4.870574951171875,-8.616645812988281
0.2388171851634979,3.764594554901123,-10.62904453277588
0.725266695022583,1.6109524965286257,-12.699681282043455
0.808179497718811,-0.2352984845638275,-16.140106201171875
1.2302358150482178,-1.2793642282485962,-17.784282684326172
