Acc_X,Acc_Y,Acc_Z
0.5169360637664795,4.237805843353272,-22.93661499023437
-0.5253162980079651,0.6558151245117188,-23.376201629638672
0.5817744731903076,1.0757726430892944,-20.64366149902344
1.921958923339844,1.131694793701172,-15.861762046813965
5.900539398193359,-1.786052107810974,0.9493502378463744
13.327947616577148,-1.9596692323684688,20.09461975097656
3.338461637496948,10.374347686767578,-6.553508281707764
0.7506991624832153,-4.292175769805908,-13.648151397705078
7.185967922210693,3.563558340072632,-3.901695728302002
3.383085250854492,1.087756633758545,0.8388974666595459
0.4836542904376983,0.6223275661468506,-0.5419666767120361
1.425925612449646,-1.4393805265426636,-1.7993113994598389
1.2137140035629272,-2.8503646850585938,-2.4679532051086426
2.3307347297668457,0.7479033470153809,-0.4668787121772766
0.8670974373817444,1.4352083206176758,-0.553884744644165
0.4817425310611725,0.6294195652008057,-0.2342170476913452
-0.0182822998613119,-1.2689272165298462,-0.6048444509506226
-0.279994785785675,-1.1635633707046509,-0.3325365483760834
-0.4682612717151642,-0.3596852421760559,-0.1236644983291626
-0.0706489235162735,-0.1079709827899932,0.6399320960044861
0.3998399674892425,-0.3368971645832062,0.95364511013031
-0.2727542817592621,-0.4181945025920868,0.7615682482719421
1.4837757349014282,-0.4844419062137604,1.2961145639419556
0.9109215140342712,-0.783250093460083,2.266808032989502
0.870549738407135,-0.5822202563285828,1.6407387256622314
1.7618318796157837,0.225248783826828,1.464550256729126
1.7275066375732422,0.4753455519676208,1.724716067314148
1.951779007911682,0.9929021000862122,1.8811670541763303
3.0169379711151123,0.804915189743042,2.894200563430786
3.1525719165802,0.2858896553516388,3.1076784133911133
3.72184419631958,0.5785537362098694,4.669102668762207
4.745159149169922,0.7867518067359924,5.951393127441406
6.644572734832764,-0.0261465497314929,8.176312446594238
9.11562156677246,0.9937434196472168,10.893866539001465
12.007691383361816,0.8946358561515808,15.021926879882812
11.72684383392334,-1.273162841796875,10.072664260864258
11.044565200805664,-0.8829120397567749,4.191348075866699
12.578744888305664,-5.533703327178955,12.812084197998049
5.168529510498047,-10.289573669433594,6.671435832977295
2.6833927631378174,-11.56395149230957,5.779434680938721
1.9151768684387207,-2.6045472621917725,14.601805686950684
-1.0322097539901731,0.7206777334213257,18.359764099121094
-1.4185068607330322,1.0983425378799438,13.979599952697754
-1.5540391206741333,-2.35022521018982,9.646195411682127
-1.1580730676651,-1.0531848669052124,8.493921279907227
-0.4398022294044494,-1.1239778995513916,6.8618268966674805
-0.1038061529397964,0.2682772278785705,6.88238525390625
1.0322118997573853,-0.2869991958141327,4.968688011169434
2.7331337928771973,1.1279217004776,3.142700672149658
3.205860137939453,0.5416409373283386,0.2199614942073822
2.7927608489990234,0.323504626750946,-1.5898710489273071
3.6003379821777344,-0.959143877029419,-4.12249755859375
3.660258293151856,1.1777243614196775,-5.704443454742432
5.564786434173584,3.6058349609375,-6.897919178009033
9.198640823364258,4.192354679107666,-10.515007019042969
10.922351837158203,2.8237690925598145,-14.076334953308104
8.003471374511719,-3.972506284713745,-20.62028312683105
1.109546184539795,1.0253199338912964,-25.79610824584961
-2.1847238540649414,7.574160575866699,-26.4604606628418
-1.7553250789642334,1.8762106895446775,-27.98434066772461
2.02891206741333,-1.4858810901641846,-18.507551193237305
14.889591217041016,0.1048600077629089,15.81891632080078
0.377295434474945,11.973501205444336,1.5616140365600586
3.599254608154297,-6.136806488037109,-23.32514190673828
11.0258150100708,4.346467018127441,1.0220121145248413
-2.864990711212158,1.1165872812271118,-1.2108625173568726
0.1432865113019943,1.921457052230835,-1.0851292610168457
1.470801591873169,-0.9549521803855896,-2.077741861343384
0.8316837549209595,-2.2175424098968506,-3.234137773513794
1.5219322443008425,0.145164281129837,-1.8326486349105835
1.3808633089065552,1.4796457290649414,-1.3768168687820437
0.4644823372364044,0.0121818613260984,-0.8804798126220703
0.3308091461658478,-0.8111215829849243,-0.499044269323349
0.1166401281952858,-1.5863338708877563,0.2421104609966278
-0.0244936272501945,-1.4142171144485474,0.6402870416641235
-0.3334381580352783,-0.8967886567115784,0.292203277349472
-0.6583777070045471,-1.2199782133102417,1.0921025276184082
-0.0175012219697237,-4.247581005096436,1.9647623300552368
-0.7862600684165955,-1.7762199640274048,1.0392533540725708
0.0454757884144783,-1.6555944681167605,1.7746108770370483
0.7047008872032166,-0.1926971524953842,1.6606104373931885
1.332121968269348,2.176267385482788,1.925092458724976
1.4264439344406128,2.37966537475586,2.2484257221221924
2.13356614112854,2.761482715606689,3.1177780628204346
2.8080179691314697,2.7942824363708496,3.221369743347168
3.3498151302337646,1.9629172086715696,4.454044818878174
4.165265083312988,1.373660922050476,5.75136661529541
5.912661075592041,0.7764041423797607,7.5228681564331055
8.395882606506348,0.4405383169651031,10.467373847961426
10.633220672607422,-0.2499174922704696,13.959182739257812
9.804485321044922,0.5652279257774353,11.959786415100098
13.174114227294922,-2.566744327545166,4.950007438659668
15.923786163330078,-5.336042881011963,14.450035095214844
7.418321132659912,-10.033329963684082,9.80483055114746
2.882641077041626,-11.613481521606444,7.225197792053223
2.3414552211761475,-3.2492237091064453,17.350725173950195
-0.81155925989151,0.983998477458954,17.849390029907227
-1.464826583862305,-3.412325382232666,10.88951587677002
-0.9765060544013976,-2.5703370571136475,9.988530158996582
-0.5759596228599548,-2.6523332595825195,8.246373176574707
-0.0371890217065811,-1.2985719442367554,6.583276271820068
-0.1220050305128097,-0.1001650989055633,5.0507636070251465
1.2556298971176147,0.8319540023803711,3.988790512084961
2.256428003311157,1.8232712745666504,1.8095974922180176
2.387700080871582,1.0099339485168457,-0.0346026793122291
2.778259038925171,0.985742449760437,-1.427852749824524
3.558973550796509,0.0107742827385663,-3.5942130088806152
1.5601571798324585,2.5406644344329834,-4.315036773681641
3.0191919803619385,1.811447501182556,-7.653407096862793
6.442127227783203,4.492587566375732,-10.265122413635254
7.873061180114746,3.892863988876343,-11.878498077392578
7.727104663848877,-0.9866921305656432,-15.957581520080566
3.670161724090576,-1.551971197128296,-21.2926082611084
0.2105524837970733,5.332653999328613,-20.979053497314453
-1.3354588747024536,5.472066879272461,-22.576984405517575
-1.3257145881652832,1.4185065031051636,-22.749866485595703
0.6482203006744385,2.1043601036071777,-18.427228927612305
1.2169339656829834,5.014590740203857,-13.20129108428955
10.53255844116211,-2.2414910793304443,22.8642692565918
5.692687511444092,10.56696605682373,7.580765724182129
-3.080094814300537,-0.6390279531478882,-22.323701858520508
14.528116226196287,-0.2448157370090484,-4.179622173309326
1.6381783485412598,3.8010544776916495,1.3598666191101074
-2.8844974040985107,0.0232626590877771,-1.7585350275039673
1.8441734313964844,-1.5042743682861328,-1.1745896339416504
1.0494098663330078,-1.533772349357605,-3.105778217315674
0.6981138586997986,-0.9063169956207277,-2.5620205402374268
0.5824610590934753,1.9510267972946167,-1.911441683769226
0.137699082493782,0.4777562320232391,-2.045287132263184
-0.7677214741706848,0.1759621649980545,-0.3673583567142486
-0.3944838345050812,-1.7999956607818604,0.5025988221168518
-0.1657910645008087,-0.8215420246124268,0.9778161644935608
0.11231230199337,-0.0028344951570034,1.4408247470855713
-0.0460535436868667,0.8069748282432556,0.8466467261314392
0.2777969539165497,0.6108734011650085,0.9744175672531128
0.3176418840885162,-0.7016343474388123,1.1660335063934326
0.6464238166809082,-1.443152904510498,2.560809135437012
0.2090954780578613,-1.709341049194336,2.8068134784698486
1.765731692314148,0.3758001327514648,1.6475082635879517
1.9824408292770384,1.1136645078659058,2.151599884033203
1.9801326990127563,2.1944146156311035,1.4910622835159302
2.3008828163146973,2.2634260654449463,2.687477827072144
2.6275765895843506,1.4966236352920532,3.164715051651001
3.1413729190826416,0.8224125504493713,4.993565559387207
3.465602397918701,0.3200719952583313,6.475566387176514
5.188480854034424,0.0525572896003723,8.32772159576416
7.26431131362915,0.7121606469154358,9.545653343200684
9.156249046325684,1.8154622316360476,13.003568649291992
9.823809623718262,1.1286040544509888,9.791060447692873
13.672056198120115,-3.598778009414673,5.743931293487549
12.73132038116455,-5.11463737487793,15.587088584899902
4.308157444000244,-5.574900627136231,8.284605026245117
1.6862168312072754,-9.983023643493652,4.6345415115356445
2.1829323768615723,-2.377318859100342,14.208348274230955
0.0680051743984222,0.9501215815544128,17.113555908203125
-0.9754738211631776,0.2279535084962844,11.805129051208496
-0.2059471905231475,-4.04343318939209,7.19871187210083
0.9038249254226683,-3.110480308532715,7.615386009216309
0.9184345006942748,-3.262040853500366,6.757355690002441
0.5528239011764526,-2.176943778991699,6.580783843994141
1.6248606443405151,-1.6713765859603882,4.753842830657959
2.267634391784668,-0.5539268255233765,2.467773199081421
1.0220638513565063,-1.0632914304733276,0.7131339907646179
0.3078478574752807,0.2295105308294296,-0.1296152621507644
-0.1086176708340644,1.2860490083694458,-1.7723332643508911
0.613517165184021,2.419464111328125,-2.4209771156311035
1.835172772407532,2.996673345565796,-3.564119338989258
3.463059902191162,2.991415977478028,-7.260321140289307
5.667802810668945,3.763564825057984,-11.99480438232422
7.623260498046875,3.550994396209717,-13.856223106384276
6.330450057983398,1.8844573497772217,-16.31007957458496
1.855413556098938,1.8754868507385252,-20.15610885620117
-1.4527530670166016,4.255744457244873,-22.167463302612305
-1.2857656478881836,1.978407382965088,-23.05653190612793
3.768084526062012,-2.9490153789520264,-24.515504837036133
17.243165969848633,3.7344937324523926,0.1573285162448883
0.3617216050624847,12.773386001586914,5.254701137542725
3.786566019058228,-6.241697788238525,-16.14293670654297
3.916382789611816,-0.5993396043777466,-0.1759341359138488
-1.461330533027649,3.78631854057312,-3.0635669231414795
1.985279083251953,-1.1595669984817505,-2.9939069747924805
0.5739622116088867,-1.524821162223816,-2.280488967895508
0.4113941192626953,-3.281200885772705,-3.19277024269104
1.0973750352859497,-0.1878639012575149,-0.9006523489952087
0.8135898113250732,1.7129095792770386,-0.0719386637210846
0.1318536847829818,0.5391202569007874,-0.3363134860992431
0.2563530504703522,-0.2315790504217147,-0.2975494265556335
0.5397678017616272,0.1895907372236251,0.5002392530441284
0.3263667523860931,-0.101448968052864,0.6147822737693787
0.3069799840450287,-0.8554086685180664,0.8664644956588745
0.6187921762466431,-2.17362904548645,0.8970471024513245
0.3267862498760223,0.4660921394824981,0.7659670114517212
0.7618804574012756,-0.6099730134010315,1.3803331851959229
1.165058732032776,-0.4919845163822174,1.3253073692321775
1.0077300071716309,0.8677990436553955,1.8399937152862549
1.9004499912261963,0.8018935918807983,1.90831995010376
1.439786434173584,0.9084335565567015,2.578979730606079
1.7535499334335327,1.2831250429153442,2.9242806434631348
2.232435941696167,1.2712159156799316,3.7636566162109375
2.8034555912017822,1.0825235843658447,4.529603958129883
3.4212474822998047,0.8088038563728333,5.586138725280762
4.1782732009887695,1.0660964250564575,6.272782325744629
5.546750545501709,1.5139412879943848,8.62558650970459
6.722013473510742,0.9463911056518556,11.027839660644531
6.006478309631348,0.5400090217590332,6.865316390991211
8.851447105407715,-0.8473351001739502,6.4629106521606445
11.250894546508787,-1.5799871683120728,11.300992965698242
10.892206192016602,-5.740083694458008,9.265588760375977
7.729819297790527,-9.9677152633667,5.521009922027588
5.552206993103027,-3.997828245162964,11.837519645690918
2.262470960617065,1.2569665908813477,16.07588768005371
0.6966565251350403,-1.9819469451904297,12.294031143188477
0.4188960790634155,-5.26158618927002,9.527889251708984
0.3129093945026397,-5.061158180236816,8.952051162719727
0.3859194219112396,-4.7867631912231445,6.826158046722412
0.8595025539398193,-2.4931931495666504,6.024206161499023
0.8968249559402466,-1.1465396881103516,5.517142295837402
2.0416300296783447,0.478118360042572,4.182425022125244
2.584056615829468,0.5660941004753113,1.8188755512237549
1.696827054023743,0.4079243242740631,0.4505693018436432
1.226978421211243,0.4755327105522156,-1.5502400398254397
1.273631930351257,1.0164507627487185,-2.712766408920288
1.4481525421142578,2.3298540115356445,-3.625725030899048
1.7442268133163452,3.1756021976470947,-5.325845241546631
3.4859209060668945,4.017145156860352,-8.661141395568848
5.537741661071777,4.998653411865234,-10.504167556762695
8.062990188598633,2.8810062408447266,-12.59222412109375
6.591302871704102,1.0911074876785278,-15.423298835754396
2.2251667976379395,3.677976608276367,-18.226045608520508
-0.2162577807903289,4.320703983306885,-20.271541595458984
-1.4922289848327637,1.3859659433364868,-22.01612663269043
-0.8264027237892151,1.4561445713043213,-19.48125457763672
1.0631062984466553,2.987466335296631,-15.607375144958496
12.645516395568848,-1.234047293663025,17.346424102783203
10.43742561340332,8.70909595489502,4.161391735076904
-4.00277853012085,13.068346977233888,-8.484908103942871
7.227283954620361,-7.837040901184082,-12.245511054992676
7.806001663208008,3.597013473510742,-4.612424850463867
-2.499236583709717,0.9165825247764589,2.5021073818206787
0.1960280388593673,-1.6634169816970823,-3.0222978591918945
1.0041393041610718,-2.484728574752808,-2.4467968940734863
1.3169735670089722,-2.41614842414856,-2.117297887802124
1.927091121673584,1.613825798034668,-1.4276607036590576
0.2874986827373504,2.5903725624084477,-0.5166240334510803
0.2574561536312103,0.320831149816513,-1.0950279235839844
0.5926655530929565,-0.6099575757980347,0.0118071511387825
0.5610401630401611,-0.5873198509216309,0.2336060106754303
0.4605545401573181,-0.0080576771870255,0.8053281307220459
0.2211101800203323,0.2046189159154892,0.0257679559290409
0.4593488872051239,-0.0578219257295131,0.4033755660057068
0.7353719472885132,-0.9185158610343932,0.9770971536636353
1.1628326177597046,-3.3424532413482666,3.093504905700684
0.8204357028007507,0.1026477664709091,1.1019498109817505
1.595775127410889,0.6416959762573242,2.1166446208953857
1.9878044128417969,1.5833556652069092,1.6671960353851318
2.3037421703338623,2.2403364181518555,2.09177041053772
2.627168893814087,2.399618148803711,2.6479854583740234
3.909790515899658,2.2864744663238525,2.7064006328582764
4.207569122314453,2.2653775215148926,4.254641056060791
4.69612455368042,1.2793917655944824,5.51894474029541
6.336081504821777,0.4421459138393402,7.9618682861328125
9.027905464172363,-0.1182368397712707,10.94426155090332
10.728269577026367,0.0982442647218704,13.519067764282228
9.003340721130371,0.7993051409721375,10.10551643371582
12.951318740844728,-4.02302885055542,4.857358455657959
13.068222045898438,-4.72977352142334,12.034331321716309
6.256534576416016,-7.202572822570801,6.999425888061523
3.85041880607605,-9.181800842285156,9.623533248901367
2.004701614379883,0.4286379814147949,18.45052146911621
0.2329624146223068,-0.3543225228786468,14.270647048950195
-0.3201183676719665,-4.807648658752441,9.334959030151367
-0.1062726527452468,-3.445253133773804,8.616129875183105
0.0825975984334945,-3.701006412506104,6.896412372589111
0.3333213925361633,-1.5895819664001465,6.450460910797119
0.662796676158905,-0.8399355411529541,5.564722537994385
1.7222920656204224,-0.0433196537196636,3.78106689453125
3.1633896827697754,0.8157588839530945,2.3033392429351807
2.770092248916626,0.4163892269134521,0.705761730670929
2.8916921615600586,0.4610748589038849,-1.4668715000152588
2.638017177581787,0.971790850162506,-3.201866388320923
1.5278444290161133,4.913258075714111,-2.955836296081543
2.874178171157837,4.36407470703125,-5.623524188995361
5.2135515213012695,5.704322814941406,-8.851269721984863
6.500221252441406,5.383777141571045,-10.652238845825195
7.478107929229736,1.2057263851165771,-14.110555648803713
4.558284759521484,0.6082597970962524,-17.406328201293945
0.3197292387485504,5.458467960357666,-19.37128257751465
-1.2046899795532229,4.605311870574951,-21.478778839111328
-2.0698254108428955,1.096757888793945,-21.89740562438965
-0.6159597039222717,2.988806962966919,-18.894065856933597
8.230867385864258,-0.8698315024375916,6.186070919036865
16.210325241088867,7.058014392852783,4.253064632415772
-0.6401188373565674,13.646895408630373,-4.817869663238525
5.751909732818604,-9.058560371398926,-11.912463188171388
7.355708599090576,4.810999393463135,-3.928076267242432
-1.6678696870803833,0.2150601297616958,-0.2475626766681671
0.5764502286911011,-1.9225590229034424,-4.748518466949463
1.7415611743927002,-1.6621772050857544,-3.769329309463501
2.1239473819732666,-2.803773641586304,-3.2178900241851807
2.2952229976654053,0.7629530429840088,-2.241438627243042
1.2721989154815674,2.244826078414917,-0.2078888863325119
0.907157301902771,0.0842243432998657,-0.0757897496223449
0.5281062722206116,-0.7200649976730347,-0.3520212471485138
0.8180994987487793,-0.1788473576307296,-0.2458427846431732
0.7181987166404724,-0.0620791539549827,0.7852798700332642
0.049911294132471,-0.4232351779937744,0.1449321061372757
0.3980488777160644,-0.5136504769325256,0.7350860238075256
0.1077027022838592,0.1603546887636184,0.609337329864502
0.4649653136730194,0.425468772649765,0.6717175245285034
0.9614975452423096,0.3556713461875915,1.4818257093429563
1.7321549654006958,0.9755299091339112,1.608842134475708
1.7711083889007568,0.8300983309745789,2.010258197784424
1.6169116497039795,0.7786371111869812,2.054999828338623
2.083171129226685,0.8766090869903564,2.474708080291748
2.616834878921509,0.5638539791107178,2.979487180709839
3.5536067485809326,0.6439324021339417,3.712347507476807
3.921188354492188,1.0095068216323853,4.622229099273682
4.636191368103027,0.9375793933868408,6.0453877449035645
6.0442399978637695,0.6870428323745728,8.272871017456055
8.265325546264648,0.3176431059837341,10.579751014709473
9.891108512878418,0.3462722599506378,12.291900634765623
9.027877807617188,0.2639724910259247,5.649289131164551
14.726642608642578,-6.295745849609375,10.139910697937012
11.147573471069336,-3.08547306060791,13.424365997314451
5.954138278961182,-9.885614395141602,4.397835731506348
4.134293556213379,-9.028399467468262,7.2172770500183105
2.885713577270508,0.3613027334213257,16.359888076782227
0.0351834818720817,-0.9663401246070862,12.673514366149902
-0.8136873245239258,-3.622771263122559,8.3645658493042
-0.3144444227218628,-1.8859227895736692,8.681519508361816
-0.0601668357849121,-2.912374496459961,6.847806930541992
0.1821556687355041,-1.5913618803024292,5.82934045791626
0.1854189485311508,-1.1831507682800293,4.555320262908936
0.9692426323890686,-0.6717498898506165,3.455047607421875
2.0760862827301025,0.4350073039531708,2.067509174346924
1.8506510257720947,-0.1113156378269195,0.4955773949623108
1.4187467098236084,0.4330905079841614,-0.844423234462738
1.6234955787658691,1.109068512916565,-2.1805741786956787
1.5791553258895874,2.592418670654297,-2.941624164581299
1.6714494228363037,4.720271110534668,-3.0890426635742188
3.662785053253174,3.984709262847901,-5.758211612701416
5.424558639526367,4.9800238609313965,-7.615002632141113
8.212270736694336,1.7736650705337524,-9.637660026550291
7.708714485168457,-1.2475451231002808,-13.179693222045898
3.020425319671631,1.4757933616638184,-16.531085968017578
0.0009093880653381,4.441252708435059,-18.964529037475582
-1.194627046585083,1.6590396165847778,-20.9060173034668
-1.240487575531006,1.395838975906372,-20.01238250732422
0.4260874688625335,3.349130392074585,-16.97206687927246
7.872489929199219,2.8464152812957764,5.7773213386535645
16.184675216674805,6.869165420532227,3.977586269378662
-1.5536534786224363,13.067935943603516,-3.1608846187591557
3.087768793106079,-5.547115802764893,-13.882979393005373
8.242691993713379,2.4297170639038086,-4.535318851470947
-0.3454746007919311,0.8753139972686768,2.077378511428833
-0.6676863431930542,-1.748140811920166,-2.68686580657959
2.1156015396118164,0.0780066028237342,-2.546803474426269
2.6287176609039307,-1.2782167196273804,-2.946869134902954
2.357536554336548,1.0351011753082275,-2.5838217735290527
1.1227928400039673,2.731247663497925,-0.4880311191082001
0.8536118865013123,1.0248727798461914,-0.1743819117546081
0.5425829887390137,-1.427775740623474,-0.256628155708313
1.162630319595337,-1.308526873588562,0.2753052115440368
0.4095838963985443,-0.2531373798847198,0.0350584276020526
0.2461185157299041,-0.5069093108177185,-0.0803019553422927
-0.2060776203870773,-1.1308170557022097,-0.707261323928833
0.781936764717102,-0.2948990762233734,0.2370436936616897
0.3563974499702453,-0.8172019720077515,0.643405020236969
1.0535577535629272,-0.2278120070695877,0.9581432342529296
1.7883788347244265,1.3573614358901978,1.6249322891235352
1.775151610374451,1.8821758031845093,1.2756304740905762
1.3858604431152344,1.9190354347229004,2.2718539237976074
1.9354219436645508,1.456533908843994,2.907597780227661
3.0210347175598145,0.4869601130485534,3.6962406635284415
3.819236040115357,0.5177327990531921,3.444756031036377
4.436956882476807,0.0450585447251796,4.780026435852051
5.420101165771484,-0.3175849020481109,5.690326690673828
7.212307929992676,0.233862429857254,7.936746597290039
8.845269203186035,1.028700351715088,9.538572311401367
9.368053436279297,2.848201274871826,11.785956382751465
7.952189445495605,3.683170557022095,9.96199893951416
9.31045150756836,-3.002410888671875,4.13021183013916
12.864387512207031,-5.833037376403809,10.262944221496582
7.143351078033447,-4.856461048126221,8.197877883911133
5.904527187347412,-9.928946495056152,3.6806585788726807
4.6824212074279785,-4.6729044914245605,11.03731918334961
0.520962119102478,0.8860395550727844,14.310943603515623
-0.703879714012146,-0.0334739983081817,11.658873558044434
-0.9277272820472716,-4.290120601654053,8.585641860961914
-0.2195341140031814,-4.662376880645752,7.887654781341553
-0.2813401818275451,-5.256210803985596,6.66491174697876
-0.4686554670333862,-2.669245958328247,6.2435832023620605
-0.3921498656272888,-2.04141902923584,5.253142356872559
0.323595643043518,-0.2812196612358093,4.621691703796387
1.1026551723480225,0.3480779230594635,2.606599807739258
0.7376797199249268,-0.265997052192688,0.499041736125946
0.6171878576278687,0.4490821361541748,-0.7527470588684082
0.8257657289505005,0.8085254430770874,-2.287541151046753
1.189934253692627,0.1153695285320282,-4.133300304412842
1.46413254737854,1.180088996887207,-4.812493801116943
4.651896953582764,0.8151331543922424,-7.84015417098999
7.116364002227783,3.606595754623413,-9.823512077331545
9.012727737426758,5.11324405670166,-10.791268348693848
7.974193572998047,0.9151970744132996,-14.84870719909668
2.940464735031128,0.5261183381080627,-20.53933525085449
-1.0237849950790403,5.553344249725342,-21.649099349975582
-1.7742096185684204,4.663861274719238,-23.17628288269043
1.0329127311706543,1.5366430282592771,-14.187495231628418
18.785608291625977,4.211024761199951,-2.1756222248077397
1.8819652795791624,13.414578437805176,5.092031478881836
4.0975213050842285,0.3475122153759002,-16.255338668823242
7.855109691619873,1.4348915815353394,-0.9380581974983216
-2.3237690925598145,0.4619590938091278,-0.03569957613945
-0.1696456521749496,-3.200984239578247,-3.0161728858947754
1.7016011476516724,-1.9698290824890137,-1.7504907846450806
1.5128815174102783,-2.443979501724243,-2.799058198928833
2.217587471008301,1.2941482067108154,-1.7676516771316528
1.448709487915039,1.803361654281616,-1.005908727645874
1.1978667974472046,0.7468553781509399,-1.216058373451233
1.790884017944336,-0.4507127702236175,0.1251736879348755
1.0711116790771484,-0.1612833589315414,-0.1501173228025436
0.5763468742370605,-0.009147155098617,0.1639623790979385
0.7600032091140747,-0.4135966897010803,0.1214492619037628
1.274548053741455,-0.5849012136459351,0.4907203018665313
0.9461186528205872,0.1444446444511413,0.0025507900863885
1.066841959953308,0.021271763369441,-0.1017911285161972
1.2402751445770264,0.8522855639457703,1.155634522438049
1.164650559425354,0.5263189077377319,1.745071530342102
1.4236159324645996,-0.3362419307231903,1.9957994222640991
1.2408602237701416,0.2339721024036407,2.054805278778076
1.377371072769165,0.9091498851776124,2.9963107109069824
1.8612595796585083,0.2673276960849762,3.758624792098999
2.845664978027344,0.8699959516525269,4.716685771942139
3.710214138031006,1.1017998456954956,5.683119297027588
5.178834438323975,0.4503294825553894,7.531651496887207
7.406237125396728,0.6179572939872742,9.63767433166504
10.189496040344238,1.1463954448699951,13.604494094848633
10.257146835327148,1.0395495891571045,6.704129219055176
15.880899429321287,-5.778608798980713,6.801422119140625
13.688809394836426,-4.584095001220703,8.91883373260498
7.491599559783935,-7.554921627044678,9.274059295654297
4.402603149414063,-2.684742927551269,13.76497745513916
1.9825750589370728,-0.6283102631568909,16.180282592773438
1.1097276210784912,-3.6665327548980713,12.64715576171875
0.3417225182056427,-4.452638149261475,10.26023006439209
0.1120215207338333,-3.7832350730896,8.17921257019043
0.7907488346099854,-2.736086368560791,6.833150863647461
1.108673095703125,-1.2051126956939695,6.579964637756348
1.4963446855545044,-0.6172753572463989,5.034938335418701
2.655978918075561,0.0183488391339778,3.066281795501709
2.9328999519348145,-0.1130913197994232,1.7722434997558594
2.47070860862732,0.0591286458075046,0.9457638263702391
1.896003484725952,0.0080669894814491,-0.6420265436172485
1.3245407342910769,0.6784210801124573,-1.612282395362854
1.3346292972564695,1.432559847831726,-2.5016748905181885
0.5674257278442383,2.8674259185791016,-3.4214859008789062
1.005261778831482,3.421139717102051,-7.33803653717041
3.4525792598724365,4.718098163604736,-10.443927764892578
6.796370029449463,4.509517192840576,-11.286809921264648
7.350400447845459,0.5100623369216919,-15.148337364196776
3.7376492023468018,1.3931626081466677,-18.61954116821289
-0.3661540150642395,5.588607311248779,-20.55955696105957
-1.1025174856185913,3.545210838317871,-22.39914321899414
-1.2014830112457275,-0.0108660757541656,-21.6778507232666
0.5598011612892151,1.9392926692962649,-17.23179054260254
4.26524829864502,4.814532279968262,1.5617170333862305
17.41360855102539,5.768704414367676,17.614826202392578
2.964174270629883,13.13429355621338,-7.332679271697998
1.6423439979553225,-4.760851860046387,-15.007548332214355
10.285417556762695,6.792594909667969,-1.9531044960021973
-0.7099093198776245,-0.8274489641189575,0.6088927388191223
-1.283247947692871,-3.4760587215423584,-2.922253131866455
0.9780542850494384,0.1607477366924286,-2.3789141178131104
2.045060157775879,-2.448408603668213,-3.4028778076171875
1.8452075719833372,0.6881060004234314,-1.8893606662750244
1.4037796258926392,3.0994019508361816,-0.4234347939491272
0.6873054504394531,0.9901068806648254,-1.382990479469299
0.120643638074398,0.0466740764677524,-0.820737898349762
0.297314316034317,-0.453417956829071,-0.5116453170776367
0.5304480195045471,0.0443060249090194,0.6734995245933533
0.3729322850704193,0.0179759599268436,0.937300443649292
0.3120893836021423,-0.4485698640346527,1.5423051118850708
-0.6516088247299194,-2.783813238143921,1.582104206085205
0.0232898648828268,-1.7675732374191284,1.7483397722244265
0.1794591099023819,-0.7706275582313538,1.807559967041016
1.2053664922714231,2.094163417816162,1.5431547164916992
1.514872908592224,2.780604362487793,1.8370873928070068
2.008633136749268,2.463521718978882,1.7281733751296997
2.7296712398529053,2.1490962505340576,1.820157647132873
3.57482385635376,1.0306402444839478,3.076936960220337
4.12095832824707,1.2038999795913696,3.816339492797852
4.602910041809082,1.1421514749526978,4.203216075897217
5.785457611083984,0.8050038814544678,5.86030387878418
6.8457794189453125,0.1016775891184806,6.721958637237549
7.237176895141602,1.1311466693878174,9.108012199401855
7.19937801361084,2.5445187091827397,11.23740577697754
7.393095016479492,-0.0780049562454223,6.199877738952637
11.575703620910645,-7.199587345123291,4.7929511070251465
9.108753204345703,-6.09374475479126,8.247917175292969
6.060978412628174,-6.515045642852783,6.562403678894043
5.645732402801514,-5.081425189971924,11.504312515258787
1.855884671211243,1.7607733011245728,15.964004516601562
-0.6222862601280212,-0.1617458909749984,13.611698150634766
-1.4190276861190796,-4.952523231506348,10.473626136779783
-0.7547045946121216,-5.666585445404053,9.228682518005373
-1.0503549575805664,-5.509903430938721,7.514771461486816
-1.04449462890625,-3.0670082569122314,6.346341609954834
-0.852297306060791,-1.552209496498108,5.680217742919922
0.2490094155073166,-0.4557602405548095,4.813051700592041
2.0800893306732178,0.5617343783378601,3.229092121124268
2.105643510818481,-0.6626120805740356,0.6824783682823181
2.1488332748413086,-0.4314969778060913,-0.7200780510902405
2.5634937286376958,0.3229343593120575,-1.687137246131897
2.593994140625,0.1698978245258331,-2.1321141719818115
1.739782214164734,-1.0360658168792725,-3.9718093872070312
1.2177127599716189,0.3863798975944519,-5.946824550628662
3.1545002460479736,1.397613525390625,-9.148487091064451
5.299245357513428,4.683969497680664,-9.152679443359377
6.121252059936523,2.251184701919556,-12.01691722869873
4.321108818054199,-1.1468380689620972,-15.66357135772705
0.6363909244537354,0.9289106726646424,-18.09552764892578
-1.589491605758667,5.424536228179932,-19.559555053710938
-2.479151487350464,3.941730737686157,-20.59574508666992
0.4690539538860321,1.760797381401062,-13.285202026367188
18.18946647644043,6.832458019256592,-3.066180467605591
1.234796404838562,11.427454948425291,1.5412349700927734
8.175448417663574,-0.7015130519866943,-14.910767555236816
4.8044281005859375,1.1301943063735962,1.052539587020874
-4.506634712219238,-0.9154379963874816,-2.604649066925049
1.3528046607971191,-2.737126588821411,-3.59403395652771
2.645686626434326,-1.770858645439148,-3.4542429447174072
1.6921643018722534,0.2077895253896713,-2.921579599380493
1.759022831916809,1.246480941772461,-1.4403541088104248
1.5962083339691162,2.427830219268799,-0.0101260282099246
1.220426321029663,-0.2610489428043365,0.2881190478801727
0.5769612193107605,-1.5830811262130735,-0.1970414519309997
-0.3683531880378723,-1.528738260269165,-0.1653906106948852
-0.6130390167236328,-1.0502667427062988,1.040367841720581
-0.3356645405292511,-0.6995163559913635,0.3263045251369476
0.1634369641542434,0.1116178333759307,0.248109683394432
0.1154775843024253,1.116665959358215,0.2159767299890518
0.931583046913147,1.0363701581954956,0.2180552035570144
1.4297534227371216,1.2817929983139038,0.497840404510498
1.570056676864624,0.8096256256103516,1.709530472755432
1.4500508308410645,0.8066233992576599,2.268989562988281
1.7729710340499878,1.0507888793945312,4.0984320640563965
2.553659200668335,1.022308588027954,4.52935266494751
2.892991542816162,0.8526983857154846,4.773622989654541
3.526553153991699,0.3834588825702667,6.525074005126953
4.439350128173828,-0.3230164051055908,8.050405502319336
6.025832176208496,-0.2152246683835983,9.438587188720703
7.353240013122559,0.5945565104484558,7.783259868621826
8.042149543762207,-0.0187387093901634,5.374241352081299
11.20993709564209,-2.766627073287964,9.4188232421875
12.761131286621094,-2.9140288829803467,10.216832160949709
9.831425666809082,-9.049717903137209,7.452011108398437
6.189398288726807,-5.465981483459473,10.103879928588867
3.636012554168701,-1.1490464210510254,15.494674682617188
1.141590237617493,-1.0122718811035156,14.24844455718994
-0.5767265558242798,-2.2749595642089844,10.554977416992188
-0.7605833411216736,-1.8300137519836424,10.305088996887209
0.0484937876462936,-1.4966434240341189,8.330581665039062
1.1795233488082886,-0.6699832677841187,6.356048107147217
2.313530683517456,0.5090233087539673,5.4950270652771
3.0092873573303223,0.502637505531311,3.386777877807617
3.0707058906555176,1.2417107820510864,2.010807514190674
2.401339530944824,1.8988375663757324,0.8696617484092712
1.3364462852478027,2.30265212059021,-0.2884953022003174
0.8947913646697998,2.7486042976379395,-0.4947417676448822
0.2608582675457001,2.353132486343384,-1.2760193347930908
-0.1646961271762848,1.226109504699707,-4.030129432678223
-0.2323627471923828,1.5287257432937622,-6.312954902648926
1.369049310684204,2.4279494285583496,-7.46684455871582
4.1312689781188965,1.6610790491104126,-8.737481117248535
5.424647331237793,0.5199517011642456,-10.768460273742676
4.479098796844482,-0.1429109126329422,-12.701677322387695
2.195467710494995,0.871281623840332,-15.661209106445312
0.4612403810024261,1.6476997137069702,-18.206993103027344
-0.4616378247737884,0.7492389678955078,-18.42362403869629
-0.3167841136455536,-0.8736398220062256,-18.06387710571289
1.0478036403656006,0.8986063003540039,-13.322080612182615
9.102425575256348,7.821125030517578,-4.794674873352051
12.525038719177246,8.951579093933105,3.493645668029785
-1.6907862424850464,8.539016723632812,-12.732172966003418
10.525404930114746,7.818922996520996,-5.098089694976807
0.9122931957244872,-4.405073165893555,0.1041096001863479
-3.330193042755127,-0.7086871266365051,-1.897221803665161
1.5434726476669312,-2.4292232990264893,-1.064901351928711
1.6501646041870115,-1.9669760465621948,-2.675737142562866
1.742919683456421,0.4369259476661682,-2.244995355606079
1.7672113180160522,2.794619560241699,-0.7720685005187988
0.3989370465278625,1.623746395111084,-0.9215809106826782
1.039375066757202,0.8900700211524963,0.0280811805278062
0.4853660464286804,-0.726712167263031,0.2288561910390854
-0.7167507410049438,-1.146122694015503,-0.054958127439022
-0.8987770080566406,-0.3330070674419403,0.1088424324989318
-0.8346664905548096,-0.931986927986145,-0.3574068248271942
-0.5897523760795593,-0.4895448386669159,-0.2249647080898285
-0.1056776419281959,0.1734775006771087,-0.1008885577321052
0.1315907090902328,-0.1159125342965126,0.5627920627593994
1.4468356370925903,0.9222322702407836,1.5363214015960691
1.288339376449585,1.2047566175460815,1.6523466110229492
0.7404899597167969,0.7167872786521912,1.868060827255249
1.094454050064087,0.9075717926025392,2.4442577362060547
2.104748010635376,0.995889127254486,3.278810977935791
2.935016870498657,0.1472085118293762,3.330096483230591
3.6646578311920166,-0.1346761584281921,4.140317916870117
4.683197021484375,0.1528486609458923,5.494021415710449
6.708041191101074,0.438984751701355,7.13890552520752
8.601221084594727,1.9869606494903564,8.258410453796387
9.399846076965332,3.485069751739502,11.631356239318848
8.93845272064209,2.3962082862854004,8.951358795166016
11.599756240844728,-6.293684959411621,3.870859146118164
11.10116958618164,-7.040974140167236,6.925937175750732
6.560475826263428,-5.374277114868164,8.878390312194824
4.928392887115479,-2.5713295936584477,14.311354637145996
1.5280579328536987,2.4240705966949463,17.34530258178711
0.4823384284973144,-2.932053565979004,12.981450080871582
0.2757189571857452,-6.053593158721924,10.164382934570312
-0.2468742132186889,-5.462455749511719,8.72695541381836
-0.0264764130115509,-4.475401878356934,7.063742160797119
0.3087395429611206,-2.543663501739502,6.308652877807617
0.7297671437263489,-0.714921236038208,5.995594024658203
1.54333758354187,-0.0521040298044681,4.191582679748535
1.3910614252090454,-0.768833577632904,2.837976217269897
1.4388427734375,-0.5803095698356628,1.6984350681304932
1.3138175010681152,-0.1804617047309875,-0.2577160000801086
1.4023375511169434,0.8942182660102844,-0.7161685228347778
1.816862940788269,1.0324853658676147,-0.7722032070159912
1.834906816482544,-0.5856991410255432,-2.8754091262817383
0.3114872574806213,1.6433509588241575,-5.543854713439941
1.450365662574768,3.028304100036621,-7.633439064025879
4.48639440536499,7.032247066497803,-8.320345878601074
6.581334114074707,3.8291211128234863,-10.097305297851562
5.347503662109375,-1.6752742528915403,-14.670489311218262
1.7948263883590698,0.5190092921257019,-17.673856735229492
-0.9744724035263062,4.425285339355469,-18.94283103942871
-1.562660574913025,1.983543038368225,-19.9977970123291
-0.8444955348968506,0.1539583206176757,-18.90446662902832
1.7793290615081787,3.1003177165985107,-7.607470512390137
17.8201961517334,8.660162925720215,4.180480003356934
3.20327377319336,11.12004852294922,0.1186225414276123
1.4502923488616943,-3.294907808303833,-17.504425048828125
13.54133415222168,5.489229679107666,-1.080897092819214
-3.660798311233521,0.472894936800003,-1.3275302648544312
-0.7866752743721008,-1.5684664249420166,-2.839833974838257
1.960508942604065,-2.710374593734741,-3.952228546142578
2.4357717037200928,-1.535290002822876,-3.2667837142944336
2.352408170700073,0.97124981880188,-1.6286702156066897
1.721419095993042,2.833349704742432,-0.3624427020549774
1.7297958135604858,-1.250029683113098,-0.0689286589622497
0.117740549147129,-0.1575366407632827,-1.746443510055542
-0.6395809054374695,0.3544941246509552,-0.6127750873565674
-1.2425379753112793,0.0189366936683654,-0.9251604080200196
-0.627982497215271,0.3720148205757141,0.20086170732975
-0.1401815712451934,0.560982346534729,0.0936238467693328
0.1621363908052444,0.7449570894241333,-0.0844192057847976
-0.1672534942626953,0.4995668828487396,0.5357168912887573
-0.209544226527214,-0.4271482527256012,0.7573562264442444
-0.0216237567365169,-0.3938645720481872,2.321700096130371
0.0398645065724849,-0.4924583733081817,2.247995376586914
0.9012685418128968,0.0254384316504001,2.428263902664185
2.3260741233825684,1.1921610832214355,2.128769636154175
2.9141721725463867,1.529852271080017,3.458599328994751
3.093024969100952,1.192304253578186,4.005216598510742
2.9448463916778564,0.47041916847229,4.858784198760986
4.0516862869262695,0.6060763001441956,5.313207149505615
5.571359157562256,0.4712717831134796,6.845583438873291
6.626827239990234,1.0079911947250366,7.344152927398682
7.367562294006348,-1.2140473127365112,5.876513481140137
12.264012336730955,-6.687050342559815,4.866064548492432
13.723237991333008,-4.883419036865234,7.360788822174072
9.03172492980957,-3.478454113006592,8.52345085144043
3.0009915828704834,3.8708558082580566,15.816276550292969
1.6534817218780518,-2.248436450958252,12.205521583557127
2.114190101623535,-9.019137382507324,8.86783218383789
1.6711030006408691,-0.6344602704048157,7.269619941711426
1.387340426445007,-0.545462429523468,5.893730163574219
0.6368275880813599,-0.2558963000774383,3.674287796020508
0.553882896900177,0.5818310379981995,3.1220462322235107
2.751753091812134,-1.2898133993148804,-4.014569282531738
3.990848064422608,0.8179199695587158,-5.593319416046143
6.396694183349609,3.510660171508789,-11.402738571166992
2.058295488357544,1.4271597862243652,-19.77560806274414
22.50575828552246,9.971126556396484,-1.566354513168335
6.515704154968262,-6.315831184387207,-15.699103355407717
1.3376625776290894,-2.7117838859558105,-5.292980670928955
1.857271790504456,1.6944293975830078,-2.349053144454956
0.9756048917770386,2.240162849426269,-1.492203950881958
-0.6614246964454651,-1.590132474899292,0.999909281730652
-0.7946045994758606,-0.0209902171045541,0.3348278403282165
-0.4334070682525635,0.2766781151294708,0.8603299856185913
-0.2535785734653473,0.3613991141319275,0.0137645248323678
0.0644143149256706,0.6643075942993164,0.622150719165802
-0.8646549582481384,0.4751883149147033,0.6007674932479858
-0.7348860502243042,-0.7529535889625549,1.9029831886291504
0.432433009147644,-0.4826672673225403,2.522296667098999
2.2221038341522217,0.5401882529258728,2.03098726272583
3.0123610496521,1.797545313835144,2.0117642879486084
3.755734443664551,2.0546467304229736,2.59983229637146
4.222612380981445,1.706468105316162,3.774893045425415
4.224662780761719,1.4221538305282593,4.251480102539063
6.124471187591553,0.828633189201355,5.905017852783203
8.81610107421875,1.2955107688903809,8.144688606262207
10.461027145385742,2.0724332332611084,11.688547134399414
8.428786277770996,2.007892608642578,11.853263854980469
9.846912384033203,-5.679690837860107,0.8497083187103271
12.514381408691406,-8.17457103729248,7.145040988922119
7.150707244873047,-3.0198893547058105,11.385787010192873
5.380590915679932,-4.522145748138428,14.522272109985352
0.4734185039997101,1.3263076543807983,17.639144897460938
-1.4948716163635254,-1.435699462890625,14.52619171142578
-1.54579496383667,-4.894050121307373,11.17595672607422
-1.5503026247024536,-6.010862350463867,8.89608383178711
-1.1297945976257324,-5.937170505523682,6.812254428863525
-0.2888695299625397,-3.622908353805542,6.066897392272949
0.8298878073692322,-0.893541157245636,6.358387470245361
2.2630624771118164,-0.1181048527359962,4.34732723236084
2.1703081130981445,-1.4143649339675903,1.889885187149048
2.6562020778656006,-0.3378484845161438,0.8546514511108398
2.689615249633789,0.3568295240402221,-0.5956993103027344
2.53744912147522,0.6120051741600037,-0.8639695644378662
2.8266561031341557,-0.4879059493541717,-1.4954736232757568
3.130792617797852,-2.860447883605957,-3.825248718261719
2.9665887355804443,-3.1476073265075684,-7.163542747497559
1.5636436939239502,3.718904733657837,-6.819662570953369
4.96851921081543,5.534299373626709,-9.228667259216309
5.645524024963379,3.3013710975646973,-11.381319999694824
3.123305082321167,-2.6493797302246094,-15.75372314453125
-0.7982990741729736,3.1555335521698,-17.864845275878906
-2.0304970741271973,6.978922367095947,-18.822874069213867
-2.1314799785614014,4.2627949714660645,-19.319847106933597
-0.6823746562004089,2.848538398742676,-16.297504425048828
2.930315494537353,2.9328858852386475,-0.5928753614425659
19.417451858520508,10.58324146270752,3.196147918701172
1.946460008621216,11.636168479919434,-5.45304536819458
6.412985324859619,-5.278929233551025,-14.825663566589355
11.229400634765623,6.835935115814209,0.2139854431152343
-4.662168979644775,-0.3756142854690552,-1.3922072649002075
-1.0216591358184814,-2.4885659217834477,-3.700211524963379
1.5268256664276123,-2.636515855789185,-5.473598480224609
2.3556063175201416,-1.36357843875885,-4.047334671020508
1.9116888046264648,1.7696566581726074,-1.471776008605957
1.629539132118225,2.963020086288452,-0.8313984870910645
0.9047720432281494,0.3573521971702575,-0.351533442735672
-0.0929156839847564,-1.267465353012085,-0.8519454002380371
-0.1118998825550079,0.670487642288208,0.4760397374629974
-0.6499056816101074,-0.4233061075210571,0.2089045494794845
-0.9200095534324646,-0.3796324133872986,0.3127177357673645
-0.2405136823654174,0.3371357917785644,0.2987719476222992
-0.3015847504138946,0.8181179165840149,0.3714304268360138
-0.3226896524429321,0.1974006742238998,0.7058637738227844
-0.0684724748134613,-0.786917507648468,0.8189510107040405
0.1860630363225937,-0.5841830968856812,2.219646692276001
0.9576034545898438,-0.549476683139801,2.431849241256714
1.523010492324829,0.5826991200447083,1.5629011392593384
2.021944522857666,2.0891520977020264,1.897513747215271
2.257786273956299,1.7650622129440308,2.9114904403686523
3.0617690086364746,1.115695834159851,3.8648407459259033
3.5143134593963623,0.6209490299224854,4.437405586242676
4.462730407714844,0.4668988883495331,5.666222095489502
5.788130283355713,0.3451102077960968,6.94908618927002
6.762073040008545,1.5003135204315186,7.108633041381836
7.686698436737059,-2.066089391708374,4.721929550170898
13.335424423217772,-9.065335273742676,5.395398616790772
13.005057334899902,-3.793294668197632,9.635296821594238
8.760315895080566,-3.0601186752319336,10.405516624450684
5.280073165893555,0.861619770526886,14.971296310424805
1.6559540033340454,1.5972715616226196,16.413190841674805
1.1587647199630735,-4.974303245544434,11.941262245178224
1.219401240348816,-6.869595527648926,10.636399269104004
0.8221117258071899,-5.1730475425720215,9.307849884033203
1.417949080467224,-3.6898386478424072,7.888023853302002
2.336625576019287,-2.5046229362487797,6.674391746520996
3.1089746952056885,-1.7280917167663574,5.630127906799316
3.022186517715454,-1.4231384992599487,4.056128978729248
2.3769218921661377,-1.07107412815094,2.911324977874756
1.845430374145508,-0.087895356118679,2.0125317573547363
1.3522913455963137,0.6001337170600891,1.721505880355835
1.045862913131714,0.4346272945404053,1.6877875328063965
0.853888988494873,-0.4517877399921417,0.0335994698107242
0.2629177570343017,-1.64131498336792,-2.8408591747283936
0.779625654220581,-1.5456093549728394,-4.450018405914307
1.4945571422576904,-0.043132159858942,-5.6411871910095215
2.2994909286499023,3.7087557315826416,-6.736284255981445
5.458433151245117,2.5703885555267334,-10.26299285888672
5.33592414855957,0.2447190582752227,-12.17681884765625
2.776080369949341,-1.856156349182129,-16.821683883666992
-0.9507542252540588,4.473257064819336,-18.641298294067383
-1.604647159576416,4.430206775665283,-19.824478149414062
-1.2735774517059326,0.4474221467971802,-19.287111282348636
-0.5087400674819946,1.5182009935379028,-13.468873023986816
12.102090835571287,6.277029514312744,-11.492435455322266
13.002463340759276,10.413554191589355,5.891902923583984
0.6702501773834229,-2.0585954189300537,-21.26773452758789
15.838239669799805,9.563214302062988,3.095284938812256
-3.5551884174346924,-0.7439302802085876,-2.712214469909668
-1.8331923484802248,-1.0923287868499756,-2.216972589492798
1.5532010793685913,-3.448974132537842,-4.754271984100342
2.3087124824523926,-1.1541469097137451,-3.549241065979004
1.7266827821731567,0.4592346251010895,-1.7125662565231323
2.0159873962402344,1.4420326948165894,-0.617525041103363
0.907279133796692,0.5972349047660828,-1.4018194675445557
0.0245056860148906,0.3959537446498871,-0.9410593509674072
-0.8478708863258362,0.3111483454704284,-0.0514449626207351
-0.988767683506012,-0.1019008606672287,-0.1684726774692535
-1.431263446807861,0.3817134797573089,-0.646569013595581
-1.6011017560958862,0.4585552513599396,-1.2861088514328003
-0.9219740629196168,0.1918142139911651,-0.2613725960254669
-0.3719916939735412,-0.2495723515748977,0.419830709695816
-0.0616695769131183,-0.2342186719179153,0.9874371290206908
-0.2143987119197845,-1.1087002754211426,0.9661834836006165
0.2767591178417206,-0.3153322339057922,1.6358214616775513
0.2843811511993408,-0.349850445985794,1.972870111465454
2.0370547771453857,-0.4535785019397735,2.362834930419922
3.453629493713379,0.9529768824577332,1.6486430168151855
4.051262855529785,2.8288848400115967,2.6773648262023926
4.218371868133545,2.588958740234375,3.815860509872437
4.635148048400879,1.5511674880981443,4.428997039794922
5.711509704589844,1.6431010961532593,5.689087390899658
6.534468173980713,1.688037991523743,6.179633140563965
7.0486369132995605,1.3832958936691284,6.392168521881104
8.300366401672363,-1.5116615295410156,6.071703910827637
13.527326583862305,-8.93104076385498,6.09910249710083
11.182717323303224,-6.804208755493164,9.221198081970217
7.069055557250977,-5.191893100738525,10.536444664001465
6.322208881378174,-3.0349559783935547,12.886102676391602
2.763638973236084,4.357016086578369,17.812725067138672
0.5058950185775757,-1.667803168296814,13.639504432678224
0.0056450143456459,-6.489394187927246,10.680652618408203
-0.9568061232566832,-6.413220405578613,9.402503967285156
-0.7793819904327393,-4.863168239593506,7.162288188934326
-0.0558693632483482,-2.881728172302246,6.377803325653076
1.134483814239502,-0.8579172492027283,6.0826921463012695
1.8888596296310425,-0.7816991209983826,3.648737907409668
1.9237737655639648,-0.6873708963394165,1.510026931762695
2.111378669738769,-0.1791011095046997,-0.2468381077051162
2.0747172832489014,0.9016513824462892,-0.5635359287261963
2.097456216812134,1.2675114870071411,-0.2813075184822082
2.3961167335510254,-0.5643290877342224,-1.203966736793518
2.563318967819214,-2.8366892337799072,-3.642247200012207
1.6198678016662598,-0.91663920879364,-4.735211849212647
3.041935682296753,0.7254619002342224,-5.512265205383301
4.776631832122803,3.920107126235962,-5.217331409454346
5.161001682281494,3.893935441970825,-7.4722418785095215
4.057908058166504,1.507032036781311,-10.711143493652344
1.9137043952941892,-0.0227027982473373,-12.718249320983888
0.0390850752592086,2.088329315185547,-14.596373558044434
-1.4330976009368896,3.469910860061645,-17.49851417541504
-1.8956427574157717,3.1307430267333984,-17.895771026611328
-1.370464563369751,3.416080474853516,-16.366252899169922
0.0793507099151611,4.354350566864014,-7.951969146728516
14.510190963745115,3.4088876247406006,3.904232025146485
8.769558906555176,10.96266269683838,-3.1204466819763184
5.536450386047363,-0.3072583079338074,-17.206205368041992
12.983627319335938,9.782218933105469,2.2355711460113525
-4.013400554656982,-0.899192750453949,-1.7753777503967283
-2.481335163116455,-3.203364133834839,-4.36566972732544
1.6193814277648926,-2.6145122051239014,-5.032975673675537
2.3457202911376958,-1.1102523803710938,-3.6972711086273193
1.5936329364776611,2.210543155670166,-2.684412002563477
1.3842881917953491,2.619026899337769,-1.5821977853775024
0.4522798955440521,0.2531677782535553,-1.0645920038223269
-0.6182606816291809,-0.4773416817188263,-1.0617575645446775
-0.8436036705970764,-1.4072657823562622,-0.0006364858709275
-0.3595765829086303,-1.3690078258514404,-0.1807665675878524
-0.4438197016716003,-0.2312249690294265,0.0407137908041477
-0.6062050461769104,1.4069591760635376,-0.4727442562580108
-0.6574311852455139,1.7280627489089966,0.284159243106842
-0.3594230115413666,1.3420305252075195,0.6794833540916443
0.1350335478782653,0.1753720939159393,1.721181035041809
0.820648193359375,-0.6432090997695923,1.9584649801254272
1.6921603679656982,0.3286414444446563,2.5983359813690186
1.97004508972168,1.197368860244751,1.6490377187728882
2.8628547191619877,0.8596278429031372,1.8644578456878664
3.8843603134155273,1.2691608667373655,2.5353550910949707
5.185384750366211,1.41098952293396,4.228392124176025
6.236220836639404,0.9980674982070924,4.913920879364014
8.199520111083984,1.7946163415908811,7.010209083557129
8.783966064453125,1.944796562194824,8.607355117797852
8.684968948364258,2.195884943008423,9.533533096313477
8.769668579101562,-2.837857246398926,4.011206150054932
13.616819381713867,-9.528472900390623,5.51203727722168
8.50303840637207,-1.404291749000549,12.00011920928955
5.109189510345459,-4.871741771697998,12.421097755432127
2.9951086044311523,1.207396388053894,18.106428146362305
1.493598461151123,1.691709041595459,17.439491271972656
1.0125329494476318,-5.9768805503845215,11.344752311706545
0.5862946510314941,-6.578745365142822,10.249713897705078
0.3815847635269165,-5.103170394897461,8.601753234863281
1.421971321105957,-3.456076145172119,6.897045135498047
2.2418532371521,-1.173650145530701,5.996263027191162
2.769033908843994,-0.8880239129066467,4.0060319900512695
2.9229366779327397,-1.2399609088897705,2.1457223892211914
2.933586597442627,-0.3128743469715118,0.3764702677726745
2.807192802429199,0.9687866568565368,-0.3100296258926391
2.3436355590820312,2.2099809646606445,0.3365380764007568
1.873551726341248,0.7690340280532837,-1.592965841293335
0.6306575536727905,-1.2029279470443726,-4.565231323242188
-0.6820411682128906,0.5003386735916138,-5.83348560333252
