PacketCounter,SampleTimeFine,Quat_W,Quat_X,Quat_Y,Quat_Z,Acc_X,Acc_Y,Acc_Z,Gyr_X,Gyr_Y,Gyr_Z 
1,2190363560,0.8208653,0.10614744,-0.56038326,0.029725546,-0.14473474025726318,-0.1340063214302063,-0.09563598036766052,-0.0794367790222168,0.5679426193237305, -0.3343789577484131
2,2190380227,0.8212457,0.104482874,-0.5601229,0.030020334,15.855034828186035,2.3012332916259766,5.99572229385376,0.45655274391174316,2.671205759048462, 1.755807876586914
3,2190396894,0.82151854,0.10345102,-0.5598743,0.030759498,15.426257133483887,2.539760112762451,5.910843372344971,0.011967533268034458,2.5981714725494385, 1.8353354930877686
4,2190413561,0.8219053,0.103977054,-0.55922425,0.030474171,15.836301803588867,2.277437925338745,5.9709553718566895,0.4485744535923004,2.751758098602295, 1.898419737815857
5,2190430228,0.8220975,0.10387669,-0.5589622,0.030441627,16.02936363220215,2.256119728088379,6.038132667541504,0.5229920744895935,2.7506566047668457, 2.027482032775879
6,2190446895,0.8221739,0.10336032,-0.5589433,0.030485064,15.353271484375,2.690274953842163,5.949059009552002,-0.35134223103523254,2.2479820251464844, 1.9056938886642456
7,2190463562,0.82238734,0.10364116,-0.55859166,0.030215513,15.982270240783691,2.1667520999908447,5.95784330368042,0.30414441227912903,2.5585615634918213, 2.1242854595184326
8,2190480229,0.82246476,0.10364381,-0.5584656,0.030427475,15.73367691040039,2.404209613800049,5.966789245605469,0.6874127984046936,2.544666290283203, 2.1292669773101807
9,2190496896,0.8225513,0.103560016,-0.5583513,0.030473942,15.830450057983398,2.356689929962158,5.92360258102417,-0.42344197630882263,2.393500566482544, 1.814717411994934
10,2190513563,0.82258916,0.10347496,-0.5583113,0.030476423,15.795275688171387,2.3679521083831787,5.960433006286621,0.7773903608322144,2.375891923904419, 1.879338264465332
11,2190530230,0.8226579,0.103360325,-0.55822533,0.030584523,15.824110984802246,2.3333709239959717,5.942866325378418,-0.7636297941207886,2.519296884536743, 1.7753121852874756
12,2190546897,0.82270443,0.10339548,-0.55813724,0.030820642,15.69270133972168,2.494683265686035,6.009166717529297,0.8940816521644592,2.5885026454925537, 1.807558536529541
13,2190563564,0.82281595,0.10330047,-0.55799234,0.03078257,16.14985466003418,2.328862190246582,5.981323719024658,0.40827280282974243,2.8212578296661377, 1.737520694732666
14,2190580231,0.8228871,0.10331056,-0.55787206,0.031026628,15.86180305480957,2.390878677368164,6.0862908363342285,0.8378490209579468,2.824894905090332, 2.0500338077545166
15,2190596898,0.82299584,0.10305663,-0.55775714,0.031050917,15.687514305114746,2.3999857902526855,5.942392349243164,-0.4833500385284424,2.651458501815796, 2.2017123699188232
16,2190613565,0.82310456,0.10298189,-0.5576014,0.031215195,16.11199951171875,2.3753442764282227,6.132848262786865,0.014067775569856167,2.723968029022217, 1.9524366855621338
17,2190630232,0.82320714,0.103064954,-0.55741596,0.031546637,16.052452087402344,2.3626034259796143,6.101301670074463,1.2072482109069824,2.792520523071289, 2.0067358016967773
18,2190646899,0.82332873,0.10285826,-0.55727315,0.031574912,15.946859359741211,2.413400650024414,6.0124592781066895,-0.3078134059906006,2.597684621810913, 1.8328768014907837
19,2190663566,0.82342607,0.102832206,-0.5571219,0.03178724,15.716804504394531,2.5237231254577637,6.049160957336426,0.2194688320159912,2.494670867919922, 1.7532086372375488
20,2190680233,0.82356966,0.102781855,-0.55691236,0.031900194,16.310033798217773,2.2568752765655518,6.0596113204956055,0.21850833296775818,2.8786816596984863, 1.6793029308319092
21,2190696900,0.82370156,0.1028422,-0.5566884,0.032209117,16.218549728393555,2.3943939208984375,6.10806131362915,1.1005586385726929,3.0951988697052, 1.8715393543243408
22,2190713567,0.823809,0.10282326,-0.5565173,0.032474514,15.541971206665039,2.648491859436035,5.971906661987305,0.6182200908660889,2.731843948364258, 1.9801881313323975
23,2190730234,0.82396805,0.10258377,-0.5563269,0.03246023,16.48939323425293,2.278893232345581,6.1963019371032715,-1.012457251548767,2.9046530723571777, 1.8490129709243774
24,2190746901,0.8240748,0.10271532,-0.5561222,0.032840528,16.41331672668457,2.4080448150634766,6.210111141204834,1.9172834157943726,2.914616346359253, 2.1519596576690674
25,2190763568,0.82420444,0.10251073,-0.55596006,0.032974068,15.80976390838623,2.542851209640503,5.995767116546631,-1.064194917678833,2.647514581680298, 1.9668313264846802
26,2190780235,0.8243254,0.102484904,-0.55577356,0.033169314,16.561555862426758,2.3985583782196045,6.25432014465332,0.5403959155082703,2.799999237060547, 1.8981761932373047
27,2190796902,0.8244343,0.102437116,-0.55560803,0.033387665,16.005762100219727,2.446599006652832,6.0547590255737305,-0.04510395973920822,2.5865304470062256, 1.83336341381073
28,2190813569,0.824577,0.10227727,-0.5554207,0.033470165,16.17983055114746,2.354337453842163,6.07566499710083,-0.07776015251874924,2.9334161281585693, 1.9426014423370361
29,2190830236,0.8247043,0.10223985,-0.5552278,0.033646137,16.3218994140625,2.4878597259521484,6.228907108306885,0.2347339689731598,2.8626224994659424, 1.6552654504776
30,2190846903,0.8248612,0.10220822,-0.5549824,0.03394311,16.229270935058594,2.44319486618042,6.136198997497559,0.5506922006607056,2.867732286453247, 1.9374406337738037
31,2190863570,0.82506335,0.10200167,-0.55470926,0.03411833,16.14157485961914,2.546196460723877,6.266502380371094,-0.2724422812461853,2.7957990169525146, 1.8394975662231445
32,2190880237,0.82526237,0.10194767,-0.55440325,0.03443623,16.480316162109375,2.421046257019043,6.200920581817627,0.9813056588172913,2.835408926010132, 1.88145112991333
33,2190896904,0.82546324,0.10179826,-0.55411553,0.034694124,16.198444366455078,2.5426013469696045,6.285604953765869,0.5322704315185547,2.726997137069702, 2.002183437347412
34,2190913571,0.8256645,0.101559035,-0.55384725,0.03489194,16.155975341796875,2.389777898788452,6.146315574645996,-0.16732774674892426,2.5833287239074707, 2.0272254943847656
35,2190930238,0.82589006,0.101277225,-0.5535557,0.03499457,16.601089477539062,2.3522183895111084,6.228287220001221,-0.2752212882041931,2.8184404373168945, 1.8215687274932861
36,2190946905,0.8260889,0.101221815,-0.5532487,0.035316177,16.320362091064453,2.584805965423584,6.160141944885254,1.1641292572021484,2.8052759170532227, 1.9149785041809082
37,2190963572,0.82630396,0.10099308,-0.5529598,0.035465524,16.034812927246094,2.471696138381958,6.05426549911499,-0.679799497127533,2.659104108810425, 1.5337204933166504
38,2190980239,0.82652843,0.10084807,-0.55263335,0.0357369,16.430526733398438,2.3420491218566895,6.178482532501221,0.6602889895439148,3.027888536453247, 2.040147542953491
39,2190996906,0.826769,0.10077891,-0.5522678,0.036015768,16.482454299926758,2.5960586071014404,6.307491779327393,0.8973217606544495,3.2681615352630615, 1.6721956729888916
40,2191013573,0.82698923,0.1005844,-0.55195725,0.036259122,16.460861206054688,2.44209623336792,6.247349739074707,0.4121531546115875,2.933236837387085, 2.1386795043945312
41,2191030240,0.8272121,0.10037843,-0.5516468,0.03647454,16.168834686279297,2.488344669342041,6.13144063949585,0.4961628317832947,2.9614877700805664, 2.1263086795806885
42,2191046907,0.8274658,0.10003069,-0.5513221,0.036582734,16.413969039916992,2.436344861984253,6.279270648956299,-1.0336005687713623,3.0808939933776855, 1.9181288480758667
43,2191063574,0.82767415,0.09999648,-0.5509911,0.036948316,16.90667724609375,2.4682202339172363,6.342986583709717,1.4364691972732544,2.9991512298583984, 2.0707035064697266
44,2191080241,0.82791024,0.099637575,-0.550696,0.037028536,16.200931549072266,2.5487594604492188,6.160033702850342,-1.0101137161254883,2.8582046031951904, 1.9016085863113403
45,2191096908,0.82812506,0.09949543,-0.5503767,0.037350312,16.256887435913086,2.3783857822418213,6.21870231628418,0.6151338219642639,2.953035831451416, 2.227095127105713
46,2191113575,0.8283769,0.099219136,-0.55003947,0.037468538,16.669281005859375,2.4944217205047607,6.290847301483154,-0.4399493336677551,3.156566619873047, 1.7574472427368164
47,2191130242,0.8285951,0.09904618,-0.5497242,0.037727732,16.453693389892578,2.3701300621032715,6.264571189880371,0.6605963110923767,2.9704644680023193, 2.1791088581085205
48,2191146909,0.82880044,0.098790795,-0.5494454,0.037946787,16.64865493774414,2.611407995223999,6.38617467880249,-0.21250855922698975,2.6755857467651367, 2.186677932739258
49,2191163576,0.8290013,0.09864088,-0.549148,0.038253196,16.689199447631836,2.3433997631073,6.299618244171143,1.078877329826355,2.843029022216797, 2.4239413738250732
50,2191180243,0.8292239,0.098358,-0.5488477,0.038466807,16.3182430267334,2.5927226543426514,6.299709320068359,-0.3269333243370056,2.8789894580841064, 2.2706363201141357
51,2191196910,0.8294734,0.098076396,-0.5485119,0.038595572,16.793872833251953,2.408635377883911,6.418345928192139,-0.5217563509941101,3.14034104347229, 1.8086601495742798
52,2191213577,0.8296788,0.0980175,-0.54818916,0.038915217,17.00301742553711,2.457303047180176,6.4029693603515625,1.6452769041061401,2.9903407096862793, 2.139653444290161
53,2191230244,0.8299138,0.097659595,-0.5478889,0.039031498,16.417165756225586,2.530637741088867,6.21541166305542,-0.9049095511436462,2.9125802516937256, 2.0928714275360107
54,2191246911,0.83015686,0.09734153,-0.5475719,0.03910537,16.766502380371094,2.5077688694000244,6.423439979553223,-0.6111319065093994,3.0306291580200195, 1.785865068435669
55,2191263578,0.8303981,0.09724944,-0.54720396,0.039363835,17.056629180908203,2.3540420532226562,6.398430347442627,1.3220953941345215,3.3688318729400635, 1.929782509803772
56,2191280245,0.8306223,0.097107895,-0.54687005,0.039620858,16.54922103881836,2.646362066268921,6.395733833312988,0.6183866858482361,3.0726468563079834, 1.958328127861023
57,2191296912,0.83086914,0.09680498,-0.5465416,0.03971852,17.063997268676758,2.335584878921509,6.391250133514404,-0.38338369131088257,3.132747173309326, 1.8835644721984863
58,2191313579,0.8311016,0.0965836,-0.5462143,0.039896406,16.80816078186035,2.65486741065979,6.5083231925964355,0.18043506145477295,3.079306125640869, 1.948671817779541
59,2191330246,0.8313293,0.09632263,-0.5459036,0.04003544,16.85308265686035,2.4273321628570557,6.39163064956665,-0.1277945637702942,2.9595985412597656, 1.9212852716445923
60,2191346913,0.83156085,0.09624197,-0.545545,0.0403081,16.959753036499023,2.506965160369873,6.367574214935303,1.2770557403564453,3.2694807052612305, 1.9162721633911133
61,2191363580,0.8317899,0.09593884,-0.5452416,0.0404087,16.65285873413086,2.7166378498077393,6.499692440032959,-0.4054362177848816,2.923503875732422, 1.9095226526260376
62,2191380247,0.83201146,0.09585596,-0.5448959,0.040707827,17.276288986206055,2.413700580596924,6.487423896789551,1.3388463258743286,3.1668248176574707, 2.0800650119781494
63,2191396914,0.8322494,0.09556593,-0.54457414,0.04083145,16.67329216003418,2.551374912261963,6.280418872833252,-0.3402007222175598,3.057368755340576, 1.9370821714401245
64,2191413581,0.8324722,0.09527412,-0.54427636,0.0409439,16.750139236450195,2.6422111988067627,6.59518575668335,-0.4282955825328827,2.8518784046173096, 1.884832501411438
65,2191430248,0.8326776,0.09522399,-0.5439464,0.041266326,17.360868453979492,2.3995110988616943,6.5291948318481445,1.6910464763641357,3.028618335723877, 2.13889741897583
66,2191446915,0.83290416,0.09492874,-0.5436413,0.04139218,16.911865234375,2.5425286293029785,6.4371442794799805,-0.13021495938301086,2.950204849243164, 2.0836760997772217
67,2191463582,0.8331296,0.09460626,-0.5433475,0.041452873,17.10497283935547,2.6604576110839844,6.5852861404418945,-0.875954270362854,2.805621385574341, 1.673911452293396
68,2191480249,0.8333389,0.09450198,-0.5430249,0.041709747,17.34998321533203,2.4287595748901367,6.595739364624023,1.1377993822097778,2.976778507232666, 1.977332353591919
69,2191496916,0.8335541,0.0943306,-0.542713,0.041857127,16.920766830444336,2.8122775554656982,6.446994781494141,0.6292592287063599,2.9225306510925293, 1.7312071323394775
70,2191513583,0.8337999,0.09410434,-0.54236525,0.04197867,17.19828224182129,2.430438280105591,6.542042255401611,-0.00510973297059536,3.2171530723571777, 1.6699286699295044
71,2191530250,0.83402115,0.09397658,-0.5420304,0.042196248,17.270769119262695,2.5744032859802246,6.56973934173584,1.2330529689788818,3.1233983039855957, 1.9999611377716064
72,2191546917,0.8342485,0.09364453,-0.541732,0.042267445,16.616039276123047,2.6696016788482666,6.3883376121521,-0.5597015023231506,2.896469831466675, 1.9190763235092163
73,2191563584,0.8344872,0.09341533,-0.5413946,0.042384624,17.377294540405273,2.443089246749878,6.550389766693115,0.10669609904289246,3.151034116744995, 1.7332433462142944
74,2191580251,0.8347015,0.09326464,-0.5410729,0.04260931,17.536388397216797,2.516126871109009,6.6702165603637695,0.9981716275215149,3.0218822956085205, 2.0874030590057373
75,2191596918,0.83491606,0.09297324,-0.54077995,0.04275695,16.857999801635742,2.6809253692626953,6.473668098449707,0.06598471850156784,2.873136520385742, 2.2632341384887695
76,2191613585,0.83514035,0.09268668,-0.5404725,0.042886082,17.300460815429688,2.5358057022094727,6.582060813903809,0.04093549773097038,2.981926679611206, 2.1404471397399902
77,2191630252,0.8353649,0.09247688,-0.5401442,0.04310311,17.46378517150879,2.3936402797698975,6.615564823150635,0.7092605829238892,3.125703811645508, 2.3017561435699463
78,2191646919,0.83559346,0.092094645,-0.5398531,0.043137804,16.987154006958008,2.6777827739715576,6.566664695739746,-0.8491634130477905,2.879155397415161, 1.971185326576233
79,2191663586,0.83580554,0.091859214,-0.5395545,0.043267637,17.651123046875,2.536963701248169,6.66351842880249,0.3197297155857086,2.8739817142486572, 1.9610555171966553
80,2191680253,0.83601743,0.09162799,-0.5392527,0.04342595,17.15581512451172,2.5615134239196777,6.575289249420166,0.2716931104660034,2.8917441368103027, 2.028775453567505
81,2191696920,0.83623594,0.09129884,-0.5389644,0.04349044,16.799203872680664,2.5721681118011475,6.439393997192383,-0.49371036887168884,2.8275458812713623, 1.9312678575515747
82,2191713587,0.8364596,0.091098666,-0.53863585,0.04368075,17.736190795898438,2.369898796081543,6.720896244049072,0.7643533945083618,3.1249098777770996, 2.1728599071502686
83,2191730254,0.8366571,0.09092055,-0.53834087,0.043904133,17.108657836914062,2.667207717895508,6.604602813720703,0.9210262894630432,2.842081069946289, 2.2641303539276123
84,2191746921,0.83685756,0.090577364,-0.53808296,0.043958582,17.319551467895508,2.6619935035705566,6.700522422790527,-0.5961227416992188,2.593266487121582, 1.9637062549591064
85,2191763588,0.8370558,0.09038498,-0.53779316,0.044120282,17.72017478942871,2.436100721359253,6.747095108032227,0.7308775782585144,2.7977969646453857, 2.032233476638794
86,2191780255,0.8372801,0.09012359,-0.5374784,0.04423426,17.381303787231445,2.5250940322875977,6.523003101348877,0.014490384608507156,3.0184378623962402, 1.9282971620559692
87,2191796922,0.83748615,0.08984515,-0.5371964,0.044325806,17.05771255493164,2.8369834423065186,6.691420555114746,-0.16620081663131714,2.75840425491333, 1.8906461000442505
88,2191813589,0.8377234,0.089640915,-0.536852,0.044428732,17.957019805908203,2.343195676803589,6.712452411651611,0.5529589653015137,3.244264602661133, 1.7584205865859985
89,2191830256,0.83795166,0.08942851,-0.5365206,0.044555094,17.189199447631836,2.615940809249878,6.571812152862549,0.49306368827819824,3.150073766708374, 1.885638952255249
90,2191846923,0.8381831,0.08902369,-0.5362274,0.044540934,17.210506439208984,2.6219358444213867,6.580740451812744,-1.1346811056137085,2.916281223297119, 1.8184186220169067
91,2191863590,0.8383943,0.08889909,-0.53589976,0.044761818,17.666366577148438,2.4438259601593018,6.760854244232178,1.378546118736267,3.0966079235076904, 2.130957841873169
92,2191880257,0.8385978,0.08870191,-0.5356,0.04492598,17.56416893005371,2.551680088043213,6.699987411499023,0.5959243774414062,2.8775806427001953, 2.0175445079803467
93,2191896924,0.8387934,0.0884096,-0.53533787,0.044979047,17.11098861694336,2.7359774112701416,6.59787654876709,-0.10181047767400742,2.6194937229156494, 1.8762263059616089
94,2191913591,0.83899564,0.08809803,-0.5350665,0.045048334,17.72366714477539,2.3855879306793213,6.698592185974121,-0.30540579557418823,2.6938986778259277, 1.9669466018676758
95,2191930258,0.83920306,0.087828115,-0.5347765,0.04514799,17.585771560668945,2.6060612201690674,6.772480010986328,0.19535449147224426,2.8416972160339355, 2.0409672260284424
96,2191946925,0.8394232,0.08754742,-0.5344767,0.04515422,17.37062644958496,2.6369776725769043,6.633091926574707,-0.11697319149971008,2.9013617038726807, 1.5798232555389404
97,2191963592,0.8396143,0.087382056,-0.5341907,0.045304712,17.627256393432617,2.518590211868286,6.708902835845947,0.8104178309440613,2.737248182296753, 1.8770713806152344
98,2191980259,0.83982515,0.08714316,-0.5338968,0.045319024,17.531164169311523,2.6896424293518066,6.766822338104248,0.08159565180540085,2.819797992706299, 1.4475336074829102
99,2191996926,0.84001184,0.08700073,-0.5336138,0.045472216,17.585201263427734,2.459135055541992,6.665321350097656,1.038217306137085,2.709177017211914, 1.8564276695251465
100,2192013593,0.8402417,0.086675756,-0.5333049,0.04546695,17.088743209838867,2.657458782196045,6.517083644866943,-0.5271349549293518,2.9916975498199463, 1.623953938484192
101,2192030260,0.84044117,0.08645434,-0.533023,0.045510888,17.711875915527344,2.5835137367248535,6.8679304122924805,0.3314475119113922,2.7306149005889893, 1.5926295518875122
102,2192046927,0.8406205,0.086393274,-0.5327339,0.045694496,17.813812255859375,2.545426368713379,6.735913276672363,1.7122539281845093,2.7253386974334717, 1.7823046445846558
103,2192063594,0.8408153,0.08605163,-0.532483,0.04568156,16.923072814941406,2.651735544204712,6.519147872924805,-0.5281722545623779,2.5489439964294434, 1.7523632049560547
104,2192080261,0.84100723,0.085811324,-0.5322141,0.045736007,17.499574661254883,2.470423698425293,6.735607624053955,0.1273527592420578,2.6338248252868652, 1.6785348653793335
105,2192096928,0.84119165,0.08564127,-0.5319449,0.045794267,17.780990600585938,2.601322889328003,6.799497604370117,0.7424289584159851,2.6098639965057373, 1.5383309125900269
106,2192113595,0.8413788,0.085379414,-0.53169084,0.045793563,17.116743087768555,2.5267906188964844,6.53229284286499,0.037887584418058395,2.5347800254821777, 1.5682719945907593
107,2192130262,0.8415654,0.08510982,-0.53144336,0.045738652,17.516033172607422,2.709895133972168,6.70367431640625,-0.26514267921447754,2.463090181350708, 1.2623155117034912
108,2192146929,0.8417465,0.085039206,-0.5311603,0.04582607,17.598682403564453,2.442277669906616,6.6251301765441895,1.3686466217041016,2.6695027351379395, 1.3208532333374023
109,2192163596,0.84194976,0.08483133,-0.53087324,0.045804374,17.114395141601562,2.6547322273254395,6.568971633911133,0.26590466499328613,2.768432140350342, 1.2319260835647583
110,2192180263,0.8421477,0.08464253,-0.5305885,0.045813523,17.67502212524414,2.606790065765381,6.78892707824707,0.3909458518028259,2.7409238815307617, 1.3013237714767456
111,2192196930,0.84232193,0.084564365,-0.5303177,0.045891777,17.510120391845703,2.667328119277954,6.6280107498168945,1.5257805585861206,2.605868101119995, 1.4313721656799316
112,2192213597,0.84251136,0.08416286,-0.53008914,0.045791123,16.916584014892578,2.565859079360962,6.545078754425049,-1.002865195274353,2.422954797744751, 1.6089961528778076
113,2192230264,0.8426962,0.083971515,-0.529826,0.04578927,17.648273468017578,2.5986270904541016,6.809831619262695,0.5387310981750488,2.5947394371032715, 1.3774828910827637
114,2192246931,0.8428704,0.08387188,-0.5295546,0.045902215,17.744670867919922,2.4790945053100586,6.696956634521484,1.3933501243591309,2.6368725299835205, 1.6600168943405151
115,2192263598,0.8430284,0.08352252,-0.5293613,0.04586826,16.862903594970703,2.7574567794799805,6.545053958892822,-0.6141414046287537,2.1254379749298096, 1.7648624181747437
116,2192280265,0.843221,0.0831294,-0.52912813,0.045734793,17.187726974487305,2.5657436847686768,6.5180864334106445,-1.2249785661697388,2.442843198776245, 1.3292030096054077
117,2192296932,0.8433897,0.08317655,-0.5288377,0.04589687,17.900644302368164,2.5372798442840576,6.883358001708984,2.486013889312744,2.730128526687622, 1.4461123943328857
118,2192313599,0.8435637,0.08303934,-0.5285774,0.045943566,16.976961135864258,2.569474220275879,6.4505934715271,0.979781985282898,2.5721492767333984, 1.4632984399795532
119,2192330266,0.8437529,0.082598954,-0.5283595,0.045767955,16.959936141967773,2.697115421295166,6.485452175140381,-1.5726580619812012,2.360626459121704, 1.3189324140548706
120,2192346933,0.843924,0.08257012,-0.52808595,0.04582417,17.639554977416992,2.4972567558288574,6.748833656311035,1.7348697185516357,2.6263325214385986, 1.1748864650726318
121,2192363600,0.8441028,0.08248803,-0.5278071,0.045892622,16.984830856323242,2.534329891204834,6.540087699890137,1.4847362041473389,2.7115843296051025, 1.4409639835357666
122,2192380267,0.8443026,0.08222232,-0.5275398,0.045765057,17.270538330078125,2.592625141143799,6.550937652587891,-0.44057682156562805,2.6528546810150146, 0.9022265672683716
123,2192396934,0.84447855,0.08213427,-0.5272657,0.045837067,17.281177520751953,2.522899866104126,6.622972011566162,1.536384105682373,2.6795814037323, 1.5248456001281738
124,2192413601,0.84465355,0.08181219,-0.5270478,0.04569242,16.846820831298828,2.717392683029175,6.478384017944336,-0.6690037250518799,2.295787811279297, 1.1237379312515259
125,2192430268,0.84483963,0.081611484,-0.5267858,0.04563311,17.51198387145996,2.345363140106201,6.599452018737793,0.41342097520828247,2.6048691272735596, 1.1862456798553467
126,2192446935,0.8449867,0.08148411,-0.52657294,0.045596037,16.74687385559082,2.8615896701812744,6.53039026260376,0.926891565322876,2.1687488555908203, 1.0854854583740234
127,2192463602,0.8451646,0.08114469,-0.5263495,0.045484066,17.608903884887695,2.184028148651123,6.594842433929443,-0.5351517796516418,2.368809461593628, 1.4386589527130127
128,2192480269,0.8453251,0.08109167,-0.52609575,0.04552961,16.884998321533203,2.787875175476074,6.550919055938721,1.7133934497833252,2.483323812484741, 1.2968157529830933
129,2192496936,0.84549755,0.08071285,-0.5258896,0.04538098,16.690696716308594,2.5524940490722656,6.4044365882873535,-1.0066046714782715,2.234611988067627, 1.3242853879928589
130,2192513603,0.8456813,0.0806366,-0.5256027,0.045416445,17.920719146728516,2.3463284969329834,6.74847412109375,1.5862904787063599,2.7662417888641357, 1.3326863050460815
131,2192530270,0.845847,0.0804799,-0.52536273,0.045386005,16.923559188842773,2.8206117153167725,6.631617069244385,0.752353847026825,2.412095069885254, 1.2052119970321655
132,2192546937,0.8460323,0.08021287,-0.52511126,0.045318272,16.726606369018555,2.428325653076172,6.316296577453613,0.08087210357189178,2.57300066947937, 1.44205904006958
133,2192563604,0.8462075,0.07996661,-0.5248806,0.045149174,17.13203239440918,2.678859233856201,6.679071426391602,-0.22984838485717773,2.3533525466918945, 0.7599096894264221
134,2192580271,0.84638417,0.07991207,-0.52459973,0.045202047,17.476112365722656,2.2524685859680176,6.567904472351074,1.6225579977035522,2.708754539489746, 1.2965211868286133
135,2192596938,0.84654546,0.07968521,-0.524386,0.04506357,16.551311492919922,2.871455669403076,6.502946376800537,0.06905823945999146,2.2306933403015137, 0.9231777787208557
136,2192613605,0.8467038,0.07943167,-0.524178,0.044952378,17.090702056884766,2.3081698417663574,6.430290699005127,0.021559489890933037,2.21199631690979, 1.199615716934204
137,2192630272,0.8468571,0.07937711,-0.5239362,0.044979457,17.076313018798828,2.5388176441192627,6.463286399841309,1.5356929302215576,2.399634838104248, 1.1874369382858276
138,2192646939,0.84704876,0.07911053,-0.5236805,0.04481601,16.925891876220703,2.4864981174468994,6.525888442993164,-0.4511549174785614,2.583156108856201, 0.8011012673377991
139,2192663606,0.8472062,0.079103984,-0.52342135,0.044880718,17.028383255004883,2.436833620071411,6.42506742477417,1.9390032291412354,2.531245708465576, 1.2247546911239624
140,2192680273,0.84739083,0.0788059,-0.52318436,0.044684734,16.787527084350586,2.603977680206299,6.434326648712158,-0.5327569246292114,2.471221923828125, 0.8616431951522827
141,2192696940,0.8475639,0.07869495,-0.5229238,0.04464639,17.121999740600586,2.435990333557129,6.6999101638793945,0.9425281286239624,2.5851471424102783, 1.0007715225219727
142,2192713607,0.8477296,0.07864346,-0.52266705,0.044598892,16.960094451904297,2.5619704723358154,6.410065650939941,1.556067705154419,2.540555953979492, 0.900664210319519
143,2192730274,0.8478993,0.07840892,-0.5224419,0.0444207,16.752479553222656,2.538290023803711,6.427071571350098,-0.1893290877342224,2.3500611782073975, 0.7134865522384644
144,2192746941,0.8480431,0.07830551,-0.5222309,0.044341665,16.937103271484375,2.4520561695098877,6.5506911277771,1.1514381170272827,2.2109456062316895, 0.9562692642211914
145,2192763608,0.84821326,0.078073524,-0.5220019,0.044192143,16.945940017700195,2.479038953781128,6.426495552062988,-0.10501206666231155,2.39949369430542, 0.8606570959091187
146,2192780275,0.848362,0.078016266,-0.52176845,0.044194285,16.86673927307129,2.554262399673462,6.4450883865356445,1.4180405139923096,2.382460832595825, 1.0985734462738037
147,2192796942,0.8485321,0.07771828,-0.52155375,0.04398902,16.767303466796875,2.3542189598083496,6.360321998596191,-0.737850546836853,2.320094347000122, 0.7686306238174438
148,2192813609,0.84868747,0.07756766,-0.52133197,0.04388358,17.115564346313477,2.5436439514160156,6.580350875854492,0.5994076132774353,2.3352057933807373, 0.8864490389823914
149,2192830276,0.8488311,0.0775962,-0.52109563,0.04386242,16.515735626220703,2.6419320106506348,6.402421474456787,2.138333797454834,2.3911309242248535, 0.837938666343689
150,2192846943,0.8490135,0.0773552,-0.5208499,0.0436764,17.06965446472168,2.3721277713775635,6.426539421081543,-0.15158876776695251,2.574530839920044, 0.7745216488838196
151,2192863610,0.84917057,0.07735504,-0.5205968,0.043640025,16.79136848449707,2.592869281768799,6.4853668212890625,1.6019784212112427,2.524522304534912, 0.6752083897590637
152,2192880277,0.8493397,0.077066444,-0.5203787,0.043458033,16.568845748901367,2.450876235961914,6.366827011108398,-0.4351085126399994,2.384612560272217, 0.9782323241233826
153,2192896944,0.84950584,0.07702236,-0.520119,0.043399688,16.962003707885742,2.5004966259002686,6.476043701171875,1.281115174293518,2.595200300216675, 0.7103105187416077
154,2192913611,0.84966874,0.07687944,-0.51988506,0.043269522,16.920265197753906,2.3984785079956055,6.440824031829834,0.6543276309967041,2.438598155975342, 0.7779858112335205
155,2192930278,0.84983367,0.076741256,-0.519645,0.043160364,16.51935577392578,2.6224801540374756,6.3417277336120605,0.5820037722587585,2.4791622161865234, 0.7789014577865601
156,2192946945,0.8500131,0.076587364,-0.51938915,0.042980056,16.839374542236328,2.401029109954834,6.442914009094238,0.5109028220176697,2.6079423427581787, 0.5676478147506714
157,2192963612,0.8501718,0.076551676,-0.5191407,0.04290812,16.97918701171875,2.478008508682251,6.465927600860596,1.3414844274520874,2.4958744049072266, 0.6430260539054871
158,2192980279,0.8503491,0.07638726,-0.5188894,0.042722188,16.72308921813965,2.532839298248291,6.375933647155762,0.21745821833610535,2.56207013130188, 0.4552465081214905
159,2192996946,0.85050297,0.07633459,-0.51865005,0.04266116,16.6433048248291,2.479947090148926,6.413806438446045,1.3241702318191528,2.443931818008423, 0.8022090196609497
160,2193013613,0.8506692,0.076179616,-0.5184165,0.042460546,16.991779327392578,2.4626433849334717,6.493487358093262,0.3487745523452759,2.420509099960327, 0.42629140615463257
161,2193030280,0.8508232,0.0762012,-0.51816577,0.042396586,16.596269607543945,2.581413745880127,6.374622344970703,1.8127837181091309,2.497577428817749, 0.5541243553161621
162,2193046947,0.8509876,0.07600906,-0.51793575,0.042252187,16.745830535888672,2.3700637817382812,6.419371604919434,0.3833388388156891,2.444725513458252, 0.9267891049385071
163,2193063614,0.8511416,0.0758993,-0.5177074,0.042148888,16.709444046020508,2.6034348011016846,6.455578327178955,0.783140242099762,2.3844590187072754, 0.7438375949859619
164,2193080281,0.85130805,0.07572435,-0.51747197,0.041991323,16.97562026977539,2.338383197784424,6.4716386795043945,0.36393722891807556,2.476062774658203, 0.7502151131629944
165,2193096948,0.85145766,0.07557237,-0.5172602,0.0418424,16.598939895629883,2.5460338592529297,6.414231300354004,0.5591060519218445,2.284057378768921, 0.7529429793357849
166,2193113615,0.85162354,0.075373404,-0.5170291,0.04168043,16.58289337158203,2.401952028274536,6.247753620147705,0.16770555078983307,2.462104082107544, 0.7964204549789429
167,2193130282,0.851792,0.0752557,-0.5167823,0.04151087,16.82420539855957,2.5726211071014404,6.530741214752197,0.5605275630950928,2.540863037109375, 0.4231281578540802
168,2193146949,0.851952,0.07524722,-0.5165268,0.04142105,17.26230812072754,2.3594281673431396,6.529952526092529,1.5400340557098389,2.5821123123168945, 0.5362851619720459
169,2193163616,0.85210353,0.075205974,-0.51628846,0.041351907,16.245561599731445,2.686124801635742,6.273263931274414,1.3435720205307007,2.4763829708099365, 0.7405592203140259
170,2193180283,0.852293,0.07487472,-0.516051,0.041011643,16.690332412719727,2.3889567852020264,6.361536026000977,-1.1005905866622925,2.5700361728668213, 0.32345637679100037
171,2193196950,0.8524617,0.074956425,-0.5157625,0.04098547,17.40593719482422,2.36879563331604,6.62321138381958,2.1232481002807617,2.828596353530884, 0.4828570783138275
172,2193213617,0.8526131,0.07487858,-0.5155356,0.04083286,16.540435791015625,2.7469727993011475,6.397377014160156,1.0809006690979004,2.4203295707702637, 0.5545213222503662
173,2193230284,0.8527703,0.07471181,-0.5153115,0.040684365,16.493515014648438,2.491471290588379,6.257801532745361,0.5008372068405151,2.454957962036133, 0.8656132817268372
174,2193246951,0.852941,0.07450531,-0.5150755,0.04047355,17.075834274291992,2.3821630477905273,6.489851474761963,-0.023397201672196388,2.55722975730896, 0.5982294082641602
175,2193263618,0.85310626,0.0744395,-0.51481515,0.04042438,16.840200424194336,2.4431631565093994,6.512633323669434,1.229275107383728,2.7274515628814697, 0.9467158913612366
176,2193280285,0.853266,0.07424818,-0.514593,0.040229045,16.436874389648438,2.6073009967803955,6.348175048828125,0.13787956535816193,2.4640121459960938, 0.6636571288108826
177,2193296952,0.85342157,0.07414631,-0.5143593,0.040108185,16.960224151611328,2.3481967449188232,6.450962066650391,0.735744059085846,2.528517723083496, 0.6711103320121765
178,2193313619,0.8535765,0.07400522,-0.5141411,0.039868496,16.821975708007812,2.5297605991363525,6.521180152893066,0.38660451769828796,2.41766619682312, 0.31036829948425293
179,2193330286,0.85372883,0.07398088,-0.51390254,0.0397288,16.89115333557129,2.545194625854492,6.432863712310791,1.1528468132019043,2.540555715560913, 0.3121868073940277
180,2193346953,0.85388064,0.07392497,-0.5136733,0.039531853,16.738018035888672,2.728872776031494,6.421605110168457,0.8680592775344849,2.480980634689331, 0.1646832525730133
181,2193363620,0.85404295,0.07381267,-0.51343673,0.03930986,16.942554473876953,2.3686184883117676,6.410867691040039,0.4474090039730072,2.568960189819336, 0.22136415541172028
182,2193380287,0.8541943,0.07384496,-0.5131897,0.03918648,16.633460998535156,2.7819862365722656,6.443786144256592,1.6188827753067017,2.6054201126098633, 0.26411178708076477
183,2193396954,0.85437024,0.07382312,-0.5129107,0.039044272,16.87131118774414,2.4980204105377197,6.4189629554748535,1.3377705812454224,2.8897976875305176, 0.39718252420425415
184,2193413621,0.8545272,0.07371709,-0.51267654,0.038886383,16.891550064086914,2.6046955585479736,6.458503246307373,0.6699065566062927,2.569408655166626, 0.556749701499939
185,2193430288,0.85467046,0.073562525,-0.5124723,0.038722467,16.695096969604492,2.5818846225738525,6.429621696472168,0.43733036518096924,2.360715866088867, 0.7603834271430969
186,2193446955,0.8548208,0.073464416,-0.5122475,0.038563274,16.840251922607422,2.577277898788452,6.454405784606934,0.9334484338760376,2.501060962677002, 0.6709567308425903
187,2193463622,0.8549734,0.07339604,-0.51201063,0.03845614,16.658998489379883,2.559145927429199,6.380346298217773,1.0465924739837646,2.5842125415802, 0.7108100056648254
188,2193480289,0.8551227,0.073324,-0.5117827,0.038308717,16.905712127685547,2.445884943008423,6.409024715423584,0.8194207549095154,2.4989094734191895, 0.45350489020347595
189,2193496956,0.8552826,0.07324377,-0.51153713,0.038170137,16.6484375,2.679452896118164,6.376877784729004,0.8012996315956116,2.6506004333496094, 0.5214553475379944
190,2193513623,0.85544014,0.07310839,-0.5113085,0.037961677,16.65875816345215,2.6159181594848633,6.3735151290893555,0.2767772078514099,2.5274033546447754, 0.3509387671947479
191,2193530290,0.8556201,0.07302803,-0.5110371,0.037712734,17.211280822753906,2.5160765647888184,6.565821170806885,0.7022938132286072,2.8409926891326904, 0.05486880615353584
192,2193546957,0.85576373,0.07306101,-0.5107984,0.03762203,16.51241683959961,2.6970531940460205,6.346638202667236,1.8721282482147217,2.5744028091430664, 0.5741918683052063
193,2193563624,0.8559256,0.072828166,-0.5105793,0.03736559,16.88582992553711,2.583245277404785,6.397008895874023,-0.4011460840702057,2.5070412158966064, 0.4722020924091339
194,2193580291,0.85606945,0.07283696,-0.5103449,0.037254333,17.100330352783203,2.675316333770752,6.620223522186279,1.570948600769043,2.553208112716675, 0.49778926372528076
195,2193596958,0.8562195,0.072758876,-0.5101109,0.037163656,16.684490203857422,2.5412111282348633,6.254758834838867,1.0634969472885132,2.609043836593628, 0.8859624862670898
196,2193613625,0.85637057,0.07255755,-0.50990283,0.03693353,16.788923263549805,2.866609573364258,6.538416385650635,-0.006480013020336628,2.440845489501953, 0.614685595035553
197,2193630292,0.8565277,0.072547145,-0.50964725,0.036839303,17.132150650024414,2.435458183288574,6.487636566162109,1.3569673299789429,2.753615140914917, 0.5700043439865112
198,2193646959,0.8566846,0.072395295,-0.50941694,0.036674637,16.815406799316406,2.663748264312744,6.486871242523193,0.3355455994606018,2.620211362838745, 0.7070450186729431
199,2193663626,0.85685575,0.072276935,-0.50915706,0.03651394,16.569530487060547,2.5761446952819824,6.324061870574951,0.721541702747345,2.8557839393615723, 0.7197232842445374
200,2193680293,0.8570174,0.07213058,-0.5089191,0.036328815,17.047130584716797,2.670870065689087,6.572343349456787,0.20493359863758087,2.684601306915283, 0.5155132412910461
201,2193696960,0.8571627,0.07214502,-0.50867987,0.0362231,16.804685592651367,2.5724592208862305,6.475673198699951,1.5712945461273193,2.6522018909454346, 0.5223134160041809
202,2193713627,0.85730934,0.07195985,-0.50847346,0.03601826,16.580516815185547,2.675675630569458,6.318531513214111,-0.04925322160124779,2.4698903560638428, 0.5985624194145203
203,2193730294,0.85744685,0.07181366,-0.5082742,0.03585016,16.849897384643555,2.6222941875457764,6.5162034034729,0.4617008864879608,2.425490379333496, 0.7972016334533691
204,2193746961,0.85756093,0.071972474,-0.5080575,0.035877712,17.11187171936035,2.6150717735290527,6.475013732910156,2.7459118366241455,2.46835994720459, 0.7434726357460022
205,2193763628,0.8577038,0.071698934,-0.5078718,0.03563443,16.718141555786133,2.652095317840576,6.3319010734558105,-0.7458034157752991,2.3758788108825684, 0.6902430653572083
206,2193780295,0.8578473,0.07165406,-0.5076401,0.035569668,16.824081420898438,2.5613842010498047,6.45977783203125,1.3896872997283936,2.704476833343506, 1.0377559661865234
207,2193796962,0.8580055,0.07150158,-0.5074021,0.03545651,16.78619384765625,2.554091691970825,6.326560974121094,0.4413388669490814,2.8029325008392334, 1.0318524837493896
208,2193813629,0.85814935,0.07137077,-0.50718737,0.03531417,17.170774459838867,2.532470703125,6.568847179412842,0.6692662835121155,2.6239633560180664, 0.9466646313667297
209,2193830296,0.85829884,0.07119434,-0.5069671,0.035198025,16.555500030517578,2.543278217315674,6.305179595947266,0.2875857651233673,2.7059621810913086, 1.1205490827560425
210,2193846963,0.8584564,0.070913,-0.50675625,0.034960147,16.927461624145508,2.4930434226989746,6.438113212585449,-0.6183930039405823,2.664431095123291, 0.8795336484909058
211,2193863630,0.85860103,0.07096228,-0.5065061,0.03493258,16.845067977905273,2.54280686378479,6.482503890991211,1.8513818979263306,2.8720991611480713, 0.7918357849121094
212,2193880297,0.85875535,0.07067146,-0.5063044,0.03465112,16.822452545166016,2.5683047771453857,6.4187517166137695,-0.9198289513587952,2.588195323944092, 0.5984855890274048
213,2193896964,0.8589024,0.07067623,-0.5060599,0.03457016,16.735837936401367,2.5964949131011963,6.5176005363464355,1.4840190410614014,2.843348979949951, 0.6984263062477112
214,2193913631,0.8590351,0.070567384,-0.50586295,0.034378126,16.724817276000977,2.6990256309509277,6.470629692077637,0.378600537776947,2.4823639392852783, 0.4344618618488312
215,2193930298,0.85917,0.070558265,-0.5056427,0.034260705,17.12408447265625,2.510641098022461,6.524672031402588,1.3957833051681519,2.647937059402466, 0.6405928730964661
216,2193946965,0.8592936,0.07049092,-0.5054513,0.03412724,16.37967872619629,2.8546464443206787,6.354071140289307,0.9377899169921875,2.4438040256500244, 0.7217082977294922
217,2193963632,0.85944223,0.07026911,-0.50524074,0.0339592,16.895465850830078,2.448166608810425,6.395786762237549,-0.17955783009529114,2.6583611965179443, 0.9932284951210022
218,2193980299,0.8595752,0.07017313,-0.50503,0.033928506,16.792760848999023,2.559260606765747,6.4743452072143555,1.0325056314468384,2.6454269886016846, 1.3560326099395752
219,2193996966,0.8596923,0.06996132,-0.5048675,0.033819817,16.663570404052734,2.6131434440612793,6.393318176269531,0.05600856617093086,2.294750690460205, 1.312477946281433
220,2194013633,0.8597978,0.069886684,-0.5047028,0.033747926,16.929698944091797,2.56697940826416,6.453377723693848,0.966130256652832,2.255319833755493, 1.0331203937530518
221,2194030300,0.85991913,0.069828354,-0.50450736,0.033698376,16.67085838317871,2.3945186138153076,6.30602502822876,1.100814700126648,2.5029945373535156, 1.06295907497406
222,2194046967,0.86005616,0.06965305,-0.5043125,0.033480335,16.376052856445312,2.6759743690490723,6.351283550262451,-0.009822470135986805,2.5147252082824707, 0.597499430179596
223,2194063634,0.8602186,0.06962164,-0.5040511,0.03331017,17.21539878845215,2.418301820755005,6.455017566680908,0.8243767619132996,2.980684518814087, 0.2120027393102646
224,2194080301,0.86036783,0.06967404,-0.50379586,0.033202987,16.54778480529785,2.662580966949463,6.457186698913574,1.6730918884277344,2.9268975257873535, 0.3980277180671692
225,2194096968,0.8605233,0.0695492,-0.50355905,0.03303248,16.56043815612793,2.490589141845703,6.308797836303711,0.21174657344818115,2.846550703048706, 0.5102114081382751
226,2194113635,0.86068064,0.069414444,-0.5033187,0.032874912,16.588085174560547,2.631690263748169,6.474579334259033,0.2103762924671173,2.892000198364258, 0.6324735283851624
227,2194130302,0.86080396,0.069372356,-0.50311804,0.032806046,16.798473358154297,2.476370096206665,6.483211040496826,1.1937885284423828,2.573403835296631, 0.9641580581665039
228,2194146969,0.8608986,0.06932417,-0.5029656,0.032762267,16.506101608276367,2.7702255249023438,6.430697441101074,1.285277247428894,2.214108943939209, 1.1960554122924805
229,2194163636,0.86099225,0.06906928,-0.50284576,0.0326817,16.710792541503906,2.2848024368286133,6.319487571716309,-0.08473961055278778,2.054849147796631, 1.7124202251434326
230,2194180303,0.86109084,0.06889742,-0.5027039,0.032628115,16.700881958007812,2.446301221847534,6.382317543029785,0.32322582602500916,2.2032618522644043, 1.4310261011123657
231,2194196970,0.86120284,0.068626106,-0.502561,0.032444727,16.5897159576416,2.452516794204712,6.349900245666504,-0.5855318903923035,2.235828399658203, 1.1135823726654053
232,2194213637,0.8613195,0.0686132,-0.5023639,0.032427378,16.816558837890625,2.4528656005859375,6.434584140777588,1.4247255325317383,2.602128505706787, 1.100635290145874
233,2194230304,0.8614587,0.06848335,-0.50215226,0.03228058,16.771772384643555,2.3290023803710938,6.328030109405518,0.37811392545700073,2.7515532970428467, 0.8114295601844788
234,2194246971,0.86158967,0.06844826,-0.50194246,0.032125674,16.525440216064453,2.705894947052002,6.509035587310791,0.6660006642341614,2.6941423416137695, 0.24145732820034027
235,2194263638,0.8617174,0.068395175,-0.5017372,0.03202123,16.76392936706543,2.3275837898254395,6.429844856262207,0.7703211903572083,2.6967294216156006, 0.6496981978416443
236,2194280305,0.861835,0.06853707,-0.50151664,0.032004174,16.716964721679688,2.578050136566162,6.400315761566162,2.2128794193267822,2.7671895027160645, 0.4737260639667511
237,2194296972,0.8619651,0.068359256,-0.5013281,0.031838283,16.247058868408203,2.584446907043457,6.3198442459106445,-0.04250427708029747,2.645235061645508, 0.8529348969459534
238,2194313639,0.86207616,0.06827693,-0.5011544,0.031742603,17.113849639892578,2.326185703277588,6.529329776763916,0.8875505328178406,2.522242784500122, 1.0600392818450928
239,2194330306,0.86217517,0.0682021,-0.500995,0.031725675,16.256515502929688,2.5734670162200928,6.271485328674316,0.9295041561126709,2.4422287940979004, 1.2837406396865845
240,2194346973,0.8622668,0.067910686,-0.50088894,0.031533234,16.296783447265625,2.597452163696289,6.350950241088867,-0.9608476758003235,2.078284978866577, 1.0334789752960205
241,2194363640,0.86236364,0.06792134,-0.50071985,0.031548463,17.327722549438477,2.10638427734375,6.542347431182861,1.6038991212844849,2.510831832885742, 1.2431058883666992
242,2194380307,0.86245334,0.06778028,-0.50059104,0.031445775,16.325193405151367,2.662961483001709,6.250057697296143,0.20075875520706177,2.234842538833618, 0.9971344470977783
243,2194396974,0.86256534,0.067564964,-0.5004429,0.031190513,16.767499923706055,2.433317184448242,6.4646806716918945,-0.610465943813324,2.3800792694091797, 0.4801676273345947
244,2194413641,0.862678,0.06764691,-0.5002449,0.031074816,16.787818908691406,2.4843099117279053,6.376701354980469,1.6943376064300537,2.683243989944458, 0.3047206699848175
245,2194430308,0.8628063,0.06768188,-0.5000258,0.030961905,16.80594253540039,2.563318967819214,6.5247273445129395,1.2710621356964111,2.8734819889068604, 0.3415261209011078
246,2194446975,0.86292183,0.06769568,-0.49983558,0.030789986,16.749666213989258,2.5566585063934326,6.444730281829834,1.0471303462982178,2.6396000385284424, 0.1737629473209381
247,2194463642,0.8630242,0.0676159,-0.4996763,0.030676913,16.6971435546875,2.5848660469055176,6.390077114105225,0.43868789076805115,2.451308250427246, 0.6429491639137268
248,2194480309,0.86312747,0.06755651,-0.49950916,0.030625772,16.435035705566406,2.555070400238037,6.439978122711182,0.9331411123275757,2.534050226211548, 1.079607367515564
249,2194496976,0.86323327,0.06738363,-0.49935895,0.030470792,17.173812866210938,2.473916530609131,6.614874362945557,-0.04474538192152977,2.4193050861358643, 0.9142388701438904
250,2194513643,0.8633154,0.06745224,-0.49920452,0.030525122,16.892688751220703,2.6015844345092773,6.523066520690918,2.0129470825195312,2.4114294052124023, 1.2356911897659302
251,2194530310,0.8633808,0.067178965,-0.49913463,0.030418664,16.297531127929688,2.5244596004486084,6.296800136566162,-0.6106708645820618,1.8534055948257446, 1.4734793901443481
252,2194546977,0.86347795,0.06699144,-0.49900028,0.030281423,16.89265251159668,2.3380985260009766,6.406670093536377,-0.05144309997558594,2.320965051651001, 1.1048485040664673
253,2194563644,0.8635834,0.06695803,-0.49882916,0.030170213,17.12205696105957,2.4785585403442383,6.57203483581543,0.829563319683075,2.553208112716675, 0.5941442251205444
254,2194580311,0.8636585,0.06699795,-0.49869642,0.030121233,16.446325302124023,2.558762311935425,6.352922439575195,1.4052599668502808,2.241694211959839, 0.6675758957862854
255,2194596978,0.8637455,0.06689873,-0.49856716,0.029989984,16.524532318115234,2.514277696609497,6.2971601486206055,0.17226462066173553,2.2556397914886475, 0.5538298487663269
256,2194613645,0.8638587,0.06687194,-0.49838257,0.029854458,17.0445613861084,2.315911054611206,6.503846168518066,0.9470871686935425,2.6786081790924072, 0.5857304334640503
257,2194630312,0.8639673,0.0668133,-0.49820828,0.029754104,16.62303924560547,2.573047161102295,6.4683003425598145,0.6416558027267456,2.6307764053344727, 0.6886038184165955
258,2194646979,0.8640505,0.06686814,-0.49805477,0.029780913,16.409177780151367,2.5839290618896484,6.258185386657715,1.6745266914367676,2.462040424346924, 1.0004258155822754
259,2194663646,0.86414784,0.066624425,-0.49792844,0.029615568,16.820308685302734,2.3471362590789795,6.458385944366455,-0.7635273337364197,2.3343350887298584, 0.9057995080947876
260,2194680313,0.864214,0.06673146,-0.49779594,0.029673627,16.8253173828125,2.4612386226654053,6.552069187164307,2.2143266201019287,2.312525510787964, 1.1437797546386719
261,2194696980,0.8642957,0.06647605,-0.49769825,0.029505786,16.607397079467773,2.4672226905822754,6.345151901245117,-0.8444251418113708,2.1384875774383545, 0.947830080986023
262,2194713647,0.8643663,0.066469386,-0.49757814,0.029478036,16.57371711730957,2.520273208618164,6.432449817657471,1.3215065002441406,2.2680366039276123, 1.1177959442138672
263,2194730314,0.8644671,0.06625616,-0.49744028,0.029325787,16.670452117919922,2.311911106109619,6.361691951751709,-0.5789494514465332,2.469762086868286, 0.852755606174469
264,2194746981,0.86455995,0.066163465,-0.4972957,0.029251382,16.733203887939453,2.473465919494629,6.482969760894775,0.5694663524627686,2.5156984329223633, 1.059834361076355
265,2194763648,0.86463344,0.06616782,-0.4971698,0.029206667,16.415145874023438,2.646716594696045,6.413347244262695,1.1413723230361938,2.345937728881836, 0.8169490694999695
266,2194780315,0.8647194,0.06606192,-0.49703702,0.029164432,16.699270248413086,2.2715682983398438,6.339690208435059,0.47828516364097595,2.4670217037200928, 1.2070817947387695
267,2194796982,0.8648014,0.06601365,-0.49690175,0.02914851,16.477285385131836,2.559941530227661,6.448004722595215,0.7028573751449585,2.4857447147369385, 0.9610205292701721
268,2194813649,0.86487865,0.06589494,-0.49678585,0.029101616,16.529277801513672,2.4548652172088623,6.35014533996582,0.24303248524665833,2.3721134662628174, 1.106244444847107
269,2194830316,0.8649593,0.06585606,-0.49665245,0.029065957,16.65827751159668,2.453134775161743,6.307971477508545,0.756848931312561,2.497091054916382, 0.8994860649108887
270,2194846983,0.86503863,0.06570788,-0.49654067,0.028950628,16.452457427978516,2.4868619441986084,6.408562183380127,-0.13436421751976013,2.371537446975708, 0.8515901565551758
271,2194863650,0.86510247,0.065766715,-0.49642053,0.028972752,16.449678421020508,2.5067193508148193,6.318441390991211,1.7168642282485962,2.401721954345703, 1.1122123003005981
272,2194880317,0.8652008,0.06561725,-0.49627408,0.02888204,16.459426879882812,2.3716156482696533,6.255071640014648,-0.10558836162090302,2.6710269451141357, 0.947727620601654
273,2194896984,0.8652813,0.065539114,-0.4961455,0.028860997,16.318103790283203,2.5065248012542725,6.365470886230469,0.5937856435775757,2.5294909477233887, 1.163130283355713
274,2194913651,0.86535835,0.065431744,-0.49602842,0.028802367,16.561185836791992,2.4308056831359863,6.380300998687744,0.23815324902534485,2.4382710456848145, 0.9947011470794678
275,2194930318,0.86543506,0.06539853,-0.4959008,0.028770478,16.403432846069336,2.501178026199341,6.27718448638916,0.9565895795822144,2.503430128097534, 1.086330771446228
276,2194946985,0.86550903,0.065216675,-0.49580345,0.028633647,16.358692169189453,2.525491714477539,6.325798511505127,-0.46526747941970825,2.2955894470214844, 0.8034063577651978
277,2194963652,0.8655597,0.065284476,-0.49570528,0.028650813,16.663549423217773,2.4386491775512695,6.402276515960693,1.6064733266830444,2.2428336143493652, 0.9299778938293457
278,2194980319,0.8656287,0.06527992,-0.49558935,0.02857636,16.22132682800293,2.6812994480133057,6.238161087036133,0.8274375200271606,2.3873918056488037, 0.5847443342208862
279,2194996986,0.8657029,0.06516842,-0.4954761,0.028546736,16.51222038269043,2.277021884918213,6.2800211906433105,0.22898396849632263,2.430177927017212, 1.1071794033050537
280,2195013653,0.8657816,0.06506868,-0.495359,0.028422972,16.12310218811035,2.6950061321258545,6.23169469833374,0.09938368201255798,2.4308695793151855, 0.6289135217666626
281,2195030320,0.86585534,0.06494412,-0.49525034,0.028353922,16.1739559173584,2.494765043258667,6.265872001647949,0.13731609284877777,2.3953187465667725, 1.0537641048431396
282,2195046987,0.8659184,0.064969204,-0.49513584,0.02837409,16.637378692626953,2.5028269290924072,6.349308013916016,1.2779393196105957,2.4067678451538086, 1.0131551027297974
283,2195063654,0.8659762,0.064855054,-0.49505016,0.028366653,16.035465240478516,2.602217197418213,6.17308235168457,0.22803626954555511,2.239824056625366, 1.2041747570037842
284,2195080321,0.86604714,0.064679176,-0.49495,0.02834719,15.893919944763184,2.461820602416992,6.148556232452393,-0.21331536769866943,2.382282018661499, 1.3093019723892212
285,2195096988,0.86610764,0.06466231,-0.49484527,0.028366674,16.436595916748047,2.461494207382202,6.377103805541992,0.9357664585113525,2.365710735321045, 1.0750995874404907
286,2195113655,0.8661762,0.064756125,-0.4947108,0.028406007,16.525026321411133,2.6231367588043213,6.301606178283691,1.6728230714797974,2.566514015197754, 0.813593864440918
287,2195130322,0.86622083,0.06469164,-0.49463987,0.028423151,15.814186096191406,2.6378555297851562,6.1280927658081055,0.5539579391479492,2.1398580074310303, 1.1507081985473633
288,2195146989,0.86630803,0.06451187,-0.49451482,0.02835329,16.05747413635254,2.4207112789154053,6.1586432456970215,-0.29062730073928833,2.5998361110687256, 1.1702890396118164
289,2195163656,0.8664071,0.06444019,-0.49435067,0.028352076,16.563385009765625,2.4955382347106934,6.362181663513184,0.5348765254020691,2.8935630321502686, 1.1333812475204468
290,2195180323,0.8664699,0.06449199,-0.49422657,0.02847799,16.108932495117188,2.6617627143859863,6.273399353027344,1.6540746688842773,2.579423427581787, 1.4370198249816895
291,2195196990,0.86652917,0.0642942,-0.4941501,0.02844798,15.659317016601562,2.5460245609283447,5.927247524261475,-0.2706877887248993,2.2753231525421143, 1.5065454244613647
292,2195213657,0.866597,0.0641676,-0.49404705,0.028460292,16.487823486328125,2.3410234451293945,6.3360795974731445,0.21433348953723907,2.48185133934021, 1.417528510093689
293,2195230324,0.8666519,0.06414565,-0.49395138,0.028497055,16.16312599182129,2.5325725078582764,6.191913604736328,0.9214873909950256,2.401965379714966, 1.2101681232452393
294,2195246991,0.86670786,0.063974634,-0.4938771,0.028459929,15.986922264099121,2.5875816345214844,6.156070232391357,-0.32957136631011963,2.2919204235076904, 1.169533371925354
295,2195263658,0.8667663,0.06393312,-0.49377862,0.028486252,16.28960609436035,2.5010669231414795,6.199642658233643,0.6690101623535156,2.4636406898498535, 1.1202418804168701
296,2195280325,0.8668459,0.0638278,-0.49365616,0.028423505,16.16023826599121,2.554417371749878,6.197204113006592,0.08543755859136581,2.6727938652038574, 0.924522340297699
297,2195296992,0.86692524,0.06373354,-0.4935292,0.028421015,16.247142791748047,2.591414451599121,6.274126052856445,0.22379735112190247,2.742537498474121, 1.0972673892974854
298,2195313659,0.86699873,0.06373071,-0.4933945,0.02852202,16.2249698638916,2.569897174835205,6.304323673248291,1.2561042308807373,2.816685914993286, 1.5762629508972168
299,2195330326,0.8670656,0.063556656,-0.49329916,0.02852779,16.157302856445312,2.710857391357422,6.276808738708496,-0.009630375541746616,2.5709962844848633, 1.7221020460128784
300,2195346993,0.8671331,0.063501365,-0.49317715,0.028708423,16.246667861938477,2.3941996097564697,6.214121341705322,1.1501574516296387,2.8030219078063965, 2.19014835357666
301,2195363660,0.8671835,0.06318228,-0.49312702,0.028752442,16.342121124267578,2.5438225269317627,6.31602668762207,-1.003569483757019,2.3251912593841553, 2.16896653175354
302,2195380327,0.86721176,0.063153684,-0.49307063,0.02892987,16.224538803100586,2.6445152759552,6.350148677825928,1.2809613943099976,2.2976319789886475, 2.0988261699676514
303,2195396994,0.86724645,0.06296385,-0.49303162,0.028969593,16.62872886657715,2.3744544982910156,6.320690631866455,-0.052659716457128525,2.1919286251068115, 1.9652048349380493
304,2195413661,0.8673018,0.06288315,-0.49293956,0.029053323,16.175283432006836,2.4664549827575684,6.139931678771973,0.5865116715431213,2.58685040473938, 1.6192412376403809
305,2195430328,0.86737704,0.06257733,-0.49285412,0.02891426,16.163267135620117,2.482020854949951,6.267059803009033,-1.4686065912246704,2.5690624713897705, 1.1200369596481323
306,2195446995,0.8674435,0.062702045,-0.49271357,0.029047053,16.647706985473633,2.4341793060302734,6.443540573120117,2.0198755264282227,2.9009268283843994, 1.2411211729049683
307,2195463662,0.8675172,0.06258525,-0.4925992,0.029035263,16.23189353942871,2.525883197784424,6.157345294952393,0.17561988532543182,2.7582509517669678, 1.3242982625961304
308,2195480329,0.86758643,0.062421277,-0.49249318,0.029116046,15.956608772277832,2.4907548427581787,6.1628265380859375,-0.05076436698436737,2.7521934509277344, 1.707579493522644
309,2195496996,0.8676381,0.06228351,-0.49241447,0.029205212,16.22604751586914,2.484001636505127,6.173098564147949,0.2079431265592575,2.5279157161712646, 1.7800248861312866
310,2195513663,0.8676835,0.062194843,-0.49233627,0.029368138,16.322139739990234,2.2649264335632324,6.2719879150390625,0.7961515188217163,2.5305538177490234, 2.111530065536499
311,2195530330,0.86771214,0.06206004,-0.492296,0.029477445,15.882176399230957,2.7109432220458984,6.238471984863281,0.280631959438324,2.2410919666290283, 1.881195306777954
312,2195546997,0.8677359,0.061865516,-0.49227452,0.029547952,16.420930862426758,2.282366991043091,6.247203350067139,-0.17942975461483002,2.1075856685638428, 1.9140433073043823
313,2195563664,0.8677761,0.0617625,-0.49220806,0.029688744,16.241146087646484,2.3436288833618164,6.204200744628906,0.6118682026863098,2.4522688388824463, 2.0003581047058105
314,2195580331,0.8678171,0.061527107,-0.49216434,0.029705642,15.915572166442871,2.652494430541992,6.284946918487549,-0.7080502510070801,2.306173801422119, 1.572920799255371
315,2195596998,0.8678809,0.061592612,-0.49203378,0.029866122,16.820322036743164,2.2585387229919434,6.364238262176514,1.6813008785247803,2.9000940322875977, 1.5200049877166748
316,2195613665,0.8679333,0.06151225,-0.49194607,0.02995673,16.07550048828125,2.5488178730010986,6.223114013671875,0.5350557565689087,2.623361825942993, 1.560037612915039
317,2195630332,0.8679963,0.061230637,-0.4918703,0.029949589,15.645611763000488,2.4805009365081787,6.084935665130615,-0.9249898195266724,2.5942015647888184, 1.779218077659607
318,2195646999,0.8680646,0.061140668,-0.49175665,0.03002041,16.545528411865234,2.384692430496216,6.351062774658203,0.4345643222332001,2.8409416675567627, 1.5139859914779663
319,2195663666,0.8681067,0.061121207,-0.491674,0.030198185,16.500009536743164,2.3721859455108643,6.39761209487915,1.1870653629302979,2.614000082015991, 1.887073040008545
320,2195680333,0.86813927,0.060961895,-0.4916312,0.030278457,15.485660552978516,2.741819143295288,5.976056098937988,-0.0631353110074997,2.3503942489624023, 1.6842974424362183
321,2195697000,0.8682035,0.060673546,-0.49155393,0.030268854,16.4113712310791,2.2230916023254395,6.301083087921143,-1.0636953115463257,2.6589887142181396, 1.7012274265289307
322,2195713667,0.86826265,0.060875155,-0.4914064,0.03056279,16.292734146118164,2.4690966606140137,6.2325968742370605,2.83937931060791,3.1069934368133545, 1.7327697277069092
323,2195730334,0.868324,0.060563102,-0.49134147,0.030485358,15.777229309082031,2.6307125091552734,6.151381969451904,-1.5352123975753784,2.594085931777954, 1.2459617853164673
324,2195747001,0.8683676,0.060579598,-0.4912517,0.030651936,16.67613983154297,2.3437886238098145,6.432964324951172,1.2894264459609985,2.7279508113861084, 1.6453020572662354
325,2195763668,0.86839724,0.06056036,-0.49118987,0.030843839,15.96839427947998,2.5284318923950195,6.1487226486206055,1.1377480030059814,2.5547449588775635, 1.8996105194091797
326,2195780335,0.8684413,0.06019609,-0.4911577,0.030830687,15.842357635498047,2.4682693481445312,6.130259990692139,-1.6870957612991333,2.4360945224761963, 1.778232216835022
327,2195797002,0.86846036,0.060173053,-0.49111798,0.030970747,16.555694580078125,2.462186813354492,6.426128387451172,0.9726487398147583,2.40090274810791, 1.6945555210113525
328,2195813669,0.8684796,0.060211916,-0.49106526,0.031186335,16.146055221557617,2.5413925647735596,6.1519904136657715,1.4884628057479858,2.5269808769226074, 1.778219223022461
329,2195830336,0.8685037,0.05994097,-0.4910509,0.031265844,16.034423828125,2.3946304321289062,6.195691108703613,-0.8297746181488037,2.348895788192749, 2.046410083770752
330,2195847003,0.8685417,0.059789892,-0.49099788,0.03133127,16.31539535522461,2.443502187728882,6.256778240203857,-0.13232801854610443,2.6123225688934326, 1.5889288187026978
331,2195863670,0.8685839,0.05966312,-0.49093375,0.031408705,16.481243133544922,2.50563645362854,6.331176280975342,-0.015393235720694065,2.714684009552002, 1.476578712463379
332,2195880337,0.8686194,0.05978993,-0.49084273,0.031610552,16.17118263244629,2.601431369781494,6.239503383636475,1.980444073677063,2.858754873275757, 1.4421292543411255
333,2195897004,0.8686662,0.059574574,-0.49078333,0.031650852,15.85511589050293,2.4551424980163574,6.084901332855225,-0.6313786506652832,2.725235939025879, 1.6374773979187012
334,2195913671,0.8687301,0.059633583,-0.4906544,0.031785723,16.444196701049805,2.6531083583831787,6.3862690925598145,1.304064393043518,3.185035467147827, 1.200371265411377
335,2195930338,0.8687729,0.05955628,-0.4905824,0.031871438,16.723745346069336,2.5169005393981934,6.495473384857178,0.33710798621177673,2.787116527557373, 1.431410789489746
336,2195947005,0.86880136,0.05948177,-0.49052647,0.03209707,15.830001831054688,2.524477005004883,6.105075359344482,0.8267588019371033,2.7058987617492676, 2.2666664123535156
337,2195963672,0.8688368,0.05915978,-0.49050233,0.032099176,15.670583724975586,2.7886481285095215,6.168283462524414,-1.4131808280944824,2.5044162273406982, 1.7848658561706543
338,2195980339,0.8688669,0.059193563,-0.49042648,0.032377265,17.107324600219727,2.1850178241729736,6.51063871383667,1.5759429931640625,2.8334240913391113, 2.1051785945892334
339,2195997006,0.86889637,0.05903913,-0.49037987,0.032579895,16.013442993164062,2.4972431659698486,6.214541912078857,0.3149529695510864,2.668670654296875, 2.48053240776062
340,2196013673,0.8689101,0.058634136,-0.490403,0.03259459,15.559039115905762,2.740494728088379,6.136314392089844,-1.9316842555999756,2.1917364597320557, 2.0653891563415527
341,2196030340,0.86892724,0.0586377,-0.49035594,0.032840233,16.87375259399414,2.245906352996826,6.396239280700684,1.3371942043304443,2.618405342102051, 2.1132333278656006
342,2196047007,0.868959,0.058580432,-0.4902993,0.03294585,16.07948875427246,2.510162353515625,6.157732963562012,0.4971104562282562,2.6959993839263916, 1.4619920253753662
343,2196063674,0.8689891,0.05845416,-0.49025548,0.033025727,16.020872116088867,2.561603546142578,6.256697654724121,-0.09015670418739319,2.636129379272461, 1.4114711284637451
344,2196080341,0.8690168,0.0584638,-0.49019408,0.03319172,16.410350799560547,2.43192458152771,6.239284992218018,1.0626002550125122,2.735980272293091, 1.5465011596679688
345,2196097008,0.8690567,0.058334578,-0.49013743,0.033211716,15.896575927734375,2.6125869750976562,6.178596019744873,-0.22381657361984253,2.729398012161255, 1.2110003232955933
346,2196113675,0.86910695,0.058232974,-0.4900525,0.033328705,16.284875869750977,2.445380210876465,6.253050327301025,0.2316988855600357,2.9771242141723633, 1.6339812278747559
347,2196130342,0.8691404,0.05822553,-0.48998204,0.033506084,15.98317813873291,2.7521443367004395,6.265676975250244,1.0303027629852295,2.845346689224243, 1.740811824798584
348,2196147009,0.8691677,0.05804303,-0.489943,0.033683054,16.09714698791504,2.3802685737609863,6.136046886444092,-0.059011660516262054,2.6893656253814697, 2.3016152381896973
349,2196163676,0.8691704,0.0578374,-0.4899534,0.033814494,16.233184814453125,2.6019372940063477,6.356502056121826,-0.36295756697654724,2.314664363861084, 2.1174979209899902
350,2196180343,0.8691967,0.057733726,-0.4899018,0.03406411,15.963787078857422,2.3465521335601807,6.132864952087402,0.6034543514251709,2.805992841720581, 2.3855345249176025
351,2196197010,0.8692162,0.05753729,-0.48987812,0.0342371,16.016464233398438,2.620549440383911,6.30949068069458,-0.20917890965938568,2.6223113536834717, 2.262068510055542
352,2196213677,0.86922276,0.057553127,-0.4898502,0.034443196,16.746337890625,2.4624812602996826,6.489926815032959,1.1632328033447266,2.580435037612915, 1.7423232793807983
353,2196230344,0.8692524,0.057481036,-0.4897915,0.03465145,15.937952995300293,2.4521560668945312,6.0563740730285645,0.689513087272644,2.8772990703582764, 2.1241700649261475
354,2196247011,0.8693157,0.057171587,-0.48971513,0.034652658,16.030040740966797,2.6397109031677246,6.294806957244873,-1.5017365217208862,3.1005516052246094, 1.566901683807373
355,2196263678,0.8693516,0.05724833,-0.48962235,0.034936212,16.63725471496582,2.3881852626800537,6.376849174499512,1.777937412261963,3.1394827365875244, 1.989229440689087
356,2196280345,0.8693878,0.057092182,-0.48956788,0.035053905,16.17342758178711,2.6046221256256104,6.343222618103027,-0.19478456676006317,2.9291000366210938, 1.7819586992263794
357,2196297012,0.86941993,0.0569287,-0.48951408,0.03527488,16.042037963867188,2.4244353771209717,6.254456996917725,0.047505155205726624,2.982041597366333, 2.3351545333862305
358,2196313679,0.86943775,0.05676457,-0.4894856,0.03549525,16.363346099853516,2.4354991912841797,6.335087299346924,0.08210791647434235,2.7956838607788086, 2.4346086978912354
359,2196330346,0.8694441,0.056611903,-0.48947942,0.03566601,16.156904220581055,2.557108163833618,6.344058036804199,-0.013561923988163471,2.6249492168426514, 2.133556842803955
360,2196347013,0.8694378,0.056571122,-0.4894778,0.035909217,16.375816345214844,2.3187129497528076,6.2870635986328125,0.8735402822494507,2.579205274581909, 2.161206007003784
361,2196363680,0.86944914,0.056376364,-0.48946863,0.036060814,15.965312957763672,2.5585849285125732,6.216899871826172,-0.34979259967803955,2.7032599449157715, 2.1483867168426514
362,2196380347,0.8694739,0.056259815,-0.48942673,0.036216218,16.449979782104492,2.2882745265960693,6.349843502044678,0.10923177003860474,2.9412155151367188, 1.8606667518615723
363,2196397014,0.8694959,0.05624776,-0.48937762,0.03636971,16.446584701538086,2.566767930984497,6.352305889129639,0.7175717949867249,2.963395595550537, 1.4682799577713013
364,2196413681,0.86952037,0.056046437,-0.4893525,0.036433354,16.031702041625977,2.533474922180176,6.2490057945251465,-0.6851270198822021,2.841966152191162, 1.6595429182052612
365,2196430348,0.8695438,0.056152035,-0.48927695,0.03672705,16.727062225341797,2.411320924758911,6.5098042488098145,1.9117381572723389,3.1607284545898438, 1.9438437223434448
366,2196447015,0.86955917,0.056058094,-0.4892489,0.036879536,16.343748092651367,2.5558950901031494,6.3040032386779785,0.24326300621032715,2.8516345024108887, 1.8044722080230713
367,2196463682,0.8695686,0.055785507,-0.48925498,0.036989678,16.020355224609375,2.5365350246429443,6.308906555175781,-1.0078084468841553,2.66957950592041, 2.109647512435913
368,2196480349,0.8695826,0.055780075,-0.48920876,0.037276234,16.652101516723633,2.414783000946045,6.43247127532959,1.1771405935287476,3.0021097660064697, 2.217682361602783
369,2196497016,0.8695939,0.055609126,-0.48919186,0.03749163,16.317766189575195,2.376275062561035,6.308664321899414,-0.04083945229649544,2.836536407470703, 2.393359661102295
370,2196513683,0.869601,0.055389438,-0.4891911,0.037659906,16.22488784790039,2.5974740982055664,6.414407730102539,-0.5154427886009216,2.732740640640259, 2.236072063446045
371,2196530350,0.86961406,0.055281606,-0.48916522,0.037855398,16.452762603759766,2.413501262664795,6.3230719566345215,0.2718852162361145,2.8800392150878906, 2.06852650642395
372,2196547017,0.8696485,0.055187665,-0.4891001,0.038039282,16.530672073364258,2.341397523880005,6.383059978485107,0.291440486907959,3.195075273513794, 1.879478931427002
373,2196563684,0.86965525,0.055175178,-0.48907393,0.03823968,16.113964080810547,2.6631178855895996,6.4164533615112305,0.8547917604446411,2.8582043647766113, 1.764734148979187
374,2196580351,0.8696799,0.055011597,-0.48904094,0.03833569,16.456377029418945,2.3048291206359863,6.322649955749512,-0.39100342988967896,2.9573895931243896, 1.6874734163284302
375,2196597018,0.8696884,0.05502783,-0.4890044,0.038584415,16.392454147338867,2.5764782428741455,6.525208473205566,1.1769996881484985,2.9540855884552, 1.939374566078186
376,2196613685,0.8697004,0.054874193,-0.48899275,0.038681444,16.231857299804688,2.534311294555664,6.291019916534424,-0.3617665469646454,2.8109488487243652, 1.6171025037765503
377,2196630352,0.8697012,0.0548797,-0.4889691,0.03895381,16.616413116455078,2.3002617359161377,6.423647403717041,1.1731576919555664,2.883368968963623, 2.115628242492676
378,2196647019,0.86969554,0.054738685,-0.48898038,0.03913607,16.340160369873047,2.5706212520599365,6.3789286613464355,-0.011909904889762402,2.6732678413391113, 2.0851874351501465
379,2196663686,0.8696976,0.054560408,-0.4889835,0.039301462,16.405550003051758,2.3103160858154297,6.291138648986816,-0.3007955253124237,2.7649741172790527, 2.1052165031433105
380,2196680353,0.8697106,0.054493282,-0.48895147,0.039503664,16.52802085876465,2.5296132564544678,6.4971089363098145,0.48377910256385803,3.016017436981201, 1.9198319911956787
381,2196697020,0.86970454,0.05445006,-0.48895353,0.03967347,16.17430305480957,2.525269031524658,6.284213066101074,0.5027580857276917,2.7459051609039307, 1.6559056043624878
382,2196713687,0.8697166,0.054316454,-0.48893794,0.039781444,16.515439987182617,2.3552937507629395,6.27872896194458,-0.25453901290893555,2.9301888942718506, 1.5831785202026367
383,2196730354,0.8697143,0.054253522,-0.48893717,0.03993043,16.153602600097656,2.601707935333252,6.3750786781311035,0.3167586624622345,2.8083877563476562, 1.6305365562438965
384,2196747021,0.8697256,0.054147232,-0.4889203,0.040031247,16.381683349609375,2.3158719539642334,6.257446765899658,-0.13488927483558655,2.9657905101776123, 1.4440118074417114
385,2196763688,0.8697165,0.054133903,-0.48892704,0.040166814,16.246082305908203,2.723118543624878,6.464582920074463,0.5326993465423584,2.7678685188293457, 1.3509738445281982
386,2196780355,0.8697082,0.054197088,-0.48891616,0.040391743,16.276945114135742,2.527576208114624,6.324039459228516,1.3176006078720093,2.8929738998413086, 1.706030011177063
387,2196797022,0.8696895,0.05414609,-0.48893884,0.04058968,16.312318801879883,2.5357813835144043,6.396971702575684,0.4929228723049164,2.713313341140747, 1.8719875812530518
388,2196813689,0.8696738,0.054072008,-0.4889601,0.040767428,15.981856346130371,2.590134382247925,6.23816442489624,0.2831484079360962,2.750701665878296, 1.8467522859573364
389,2196830356,0.86966383,0.053981535,-0.48897353,0.04093674,16.615291595458984,2.4460747241973877,6.526248455047607,0.14485900104045868,2.8400957584381104, 1.8524320125579834
390,2196847023,0.86964107,0.054086946,-0.4889762,0.04124587,17.131729125976562,2.512803316116333,6.6576924324035645,1.7975188493728638,2.87630033493042, 2.056591272354126
391,2196863690,0.86963004,0.05385982,-0.48900908,0.041389618,15.79747486114502,2.609607458114624,6.122540473937988,-0.7768587470054626,2.7960293292999268, 2.172193765640259
392,2196880357,0.8696352,0.053543787,-0.48902884,0.04145562,15.955142974853516,2.4083831310272217,6.295649528503418,-1.5758599042892456,2.934863567352295, 2.013613224029541
393,2196897024,0.86964124,0.05358555,-0.4889932,0.04169301,17.299407958984375,2.367640972137451,6.669496536254883,1.1634763479232788,3.231548547744751, 1.8397541046142578
394,2196913691,0.8696191,0.053682722,-0.48899937,0.041959714,16.3322811126709,2.6646947860717773,6.403276443481445,1.5795159339904785,2.902949810028076, 1.8233232498168945
395,2196930358,0.8695992,0.053363305,-0.48906735,0.041986693,15.981658935546875,2.6019487380981445,6.278379917144775,-1.7467219829559326,2.579960823059082, 1.809031367301941
396,2196947025,0.8696081,0.05338655,-0.48902583,0.042253595,16.97434425354004,2.24178409576416,6.489684581756592,1.1291553974151611,3.322114944458008, 2.055464267730713
397,2196963692,0.86962354,0.05329141,-0.48899707,0.04238875,16.512834548950195,2.6760430335998535,6.530710220336914,-0.008400966413319111,3.2590560913085938, 1.698448657989502
398,2196980359,0.8696183,0.053257406,-0.48898932,0.04262967,16.2513427734375,2.4706501960754395,6.380206108093262,0.688463032245636,3.095391035079956, 2.1012978553771973
399,2196997026,0.8696103,0.053183,-0.4889917,0.042856917,16.392166137695312,2.558811902999878,6.357677459716797,0.38965243101119995,3.0388894081115723, 2.141535758972168
400,2197013693,0.86959857,0.05308048,-0.4890049,0.043074004,16.62397575378418,2.3646368980407715,6.5297698974609375,0.18718403577804565,2.9706060886383057, 2.194553852081299
401,2197030360,0.86956537,0.05295213,-0.48906055,0.043267474,16.402769088745117,2.6137051582336426,6.497386455535889,-0.029941245913505554,2.640547513961792, 2.205836057662964
402,2197047027,0.8695266,0.05279298,-0.48912826,0.043474484,16.55097770690918,2.381289482116699,6.331002712249756,-0.17148983478546143,2.565950870513916, 2.4090218544006348
403,2197063694,0.8694903,0.052743193,-0.48917514,0.043732125,16.589754104614258,2.406555414199829,6.499497413635254,0.6410027146339417,2.702364206314087, 2.29891300201416
404,2197080361,0.8694732,0.05256519,-0.4892126,0.043869704,16.65315818786621,2.3687777519226074,6.451045989990234,-0.5384814143180847,2.8277509212493896, 1.994198203086853
405,2197097028,0.8694593,0.052460957,-0.48923835,0.043980498,16.67734146118164,2.503114700317383,6.534466743469238,-0.163319393992424,2.8779518604278564, 1.6341478824615479
406,2197113695,0.86942434,0.05245757,-0.4892816,0.044196494,16.365150451660156,2.5324337482452393,6.400654315948486,0.766581654548645,2.7306532859802246, 1.883461833000183
407,2197130362,0.8694182,0.052353963,-0.48929173,0.044326857,16.71136474609375,2.387362241744995,6.492060661315918,-0.11126156151294708,3.0270047187805176, 1.7268273830413818
408,2197147029,0.86940783,0.05236959,-0.4892909,0.044521313,16.834392547607422,2.54154109954834,6.625157356262207,0.8210214972496033,3.079050064086914, 1.7111397981643677
409,2197163696,0.86940837,0.052346054,-0.48927498,0.044714022,16.579313278198242,2.4300639629364014,6.418515682220459,0.5639340281486511,3.2356462478637695, 1.802269697189331
410,2197180363,0.8694,0.05216286,-0.48929211,0.0448981,16.434738159179688,2.431401252746582,6.498025894165039,-0.43786197900772095,3.0729801654815674, 2.2883095741271973
411,2197197030,0.8693861,0.05212112,-0.48930177,0.045114785,16.591081619262695,2.441030502319336,6.534078121185303,0.5326353311538696,3.071763277053833, 2.0469605922698975
412,2197213697,0.8693571,0.052044094,-0.48934656,0.04527488,16.43158721923828,2.586651563644409,6.477591037750244,0.12051417678594589,2.8164174556732178, 1.8505240678787231
413,2197230364,0.86932135,0.051981244,-0.4893957,0.04550091,16.826440811157227,2.3281638622283936,6.490509510040283,0.4195809066295624,2.8021512031555176, 2.208256721496582
414,2197247031,0.8692903,0.051737923,-0.48947176,0.045552798,16.36871910095215,2.553864002227783,6.475212097167969,-1.2766777276992798,2.682488203048706, 1.7436164617538452
415,2197263698,0.8692465,0.051689614,-0.4895434,0.04567588,16.581348419189453,2.5432825088500977,6.511166572570801,0.13442185521125793,2.6415977478027344, 1.5469237565994263
416,2197280365,0.8692006,0.051811293,-0.48959437,0.04586167,16.43295669555664,2.5792224407196045,6.416134357452393,1.377956748008728,2.7367870807647705, 1.3948482275009155
417,2197297032,0.8691666,0.051821202,-0.48963997,0.046007864,16.895103454589844,2.349815845489502,6.543810844421387,0.5464405417442322,2.859689950942993, 1.4985030889511108
418,2197313699,0.8691271,0.051836986,-0.48969275,0.046175417,16.383676528930664,2.717538833618164,6.465353965759277,0.675208330154419,2.8147904872894287, 1.6800585985183716
419,2197330366,0.86910087,0.05158749,-0.4897602,0.046233617,16.450254440307617,2.5172011852264404,6.4542155265808105,-1.3393458127975464,2.857724189758301, 1.8451005220413208
420,2197347033,0.8690799,0.051799275,-0.48974586,0.046543464,16.821548461914062,2.5054070949554443,6.584869384765625,2.3161373138427734,3.306426763534546, 1.8599367141723633
421,2197363700,0.86904263,0.0518025,-0.4897932,0.04673403,16.190034866333008,2.6761105060577393,6.393465518951416,0.6295409202575684,2.9355673789978027, 1.838972568511963
422,2197380367,0.8690103,0.05169128,-0.48985803,0.046779744,16.689382553100586,2.542314291000366,6.579870700836182,-0.5514542460441589,2.83811092376709, 1.391582727432251
423,2197397034,0.8689593,0.051679306,-0.48993513,0.046932656,17.19764518737793,2.3711400032043457,6.682590007781982,0.40229228138923645,2.716578960418701, 1.7188105583190918
424,2197413701,0.8689017,0.051669132,-0.49002478,0.047076568,15.862347602844238,2.857666015625,6.328630447387695,0.35487037897109985,2.6424176692962646, 1.6053721904754639
425,2197430368,0.86887115,0.051464554,-0.4900975,0.047104225,16.318845748901367,2.275716543197632,6.346467018127441,-1.1847155094146729,2.8390846252441406, 1.6311897039413452
426,2197447035,0.8688342,0.051696673,-0.49010846,0.047418058,17.22407341003418,2.649543285369873,6.792218208312988,2.3788628578186035,3.1697187423706055, 1.76645028591156
427,2197463702,0.86877733,0.05158385,-0.49019757,0.047660656,16.35219383239746,2.455503463745117,6.396076202392578,0.07008275389671326,2.7231359481811523, 2.575965404510498
428,2197480369,0.86873496,0.05125175,-0.49029955,0.04774257,16.32058334350586,2.5836100578308105,6.3887739181518555,-1.7831050157546997,2.7064497470855713, 2.378990888595581
429,2197497036,0.8686852,0.05116347,-0.49037543,0.047965266,17.02876853942871,2.4592206478118896,6.743747711181641,0.1789495199918747,2.7958755493164062, 2.4534213542938232
430,2197513703,0.8686243,0.051311474,-0.49043384,0.048305564,16.67793846130371,2.511054754257202,6.487367153167725,1.9843885898590088,2.837329864501953, 2.329455852508545
431,2197530370,0.868594,0.051061537,-0.49051008,0.048343662,16.632919311523438,2.4348878860473633,6.435933589935303,-1.4349515438079834,2.867873430252075, 1.855108618736267
432,2197547037,0.8685703,0.051068794,-0.49053323,0.04852776,16.678287506103516,2.4490482807159424,6.486132621765137,0.5940417051315308,3.1880574226379395, 1.8088135719299316
433,2197563704,0.86853445,0.05095312,-0.49060538,0.048559718,16.409128189086914,2.6738762855529785,6.530337333679199,-0.6508442759513855,2.8396220207214355, 1.377213954925537
434,2197580371,0.8685133,0.051004883,-0.49062377,0.04869933,16.899877548217773,2.328630208969116,6.541854381561279,0.7217210531234741,3.1907083988189697, 1.449608325958252
435,2197597038,0.86847395,0.051050033,-0.4906692,0.04889478,16.54952049255371,2.7129063606262207,6.583608627319336,0.8597095012664795,3.0058107376098633, 1.7996829748153687
436,2197613705,0.8684143,0.050935816,-0.4907755,0.04900715,16.415542602539062,2.532616376876831,6.441816806793213,-0.37540534138679504,2.5907692909240723, 1.9238530397415161
437,2197630372,0.86837274,0.05092368,-0.4908341,0.049168263,16.98145294189453,2.4538779258728027,6.647151947021484,0.4096943140029907,2.922914743423462, 1.8666980266571045
438,2197647039,0.8682943,0.050894592,-0.49095258,0.049401492,16.75782585144043,2.612914562225342,6.605756759643555,0.501951277256012,2.5089879035949707, 2.2952115535736084
439,2197663706,0.8682392,0.05078497,-0.4910472,0.049542375,16.55442237854004,2.6474010944366455,6.495314121246338,-0.25993049144744873,2.7118277549743652, 2.098928928375244
440,2197680373,0.86818564,0.050734095,-0.49112776,0.049734417,16.97403335571289,2.5537023544311523,6.665576934814453,0.24456928670406342,2.8197855949401855, 2.1724629402160645
441,2197697040,0.8681441,0.05073957,-0.49118212,0.04991552,16.998716354370117,2.558741569519043,6.701639175415039,0.5551360845565796,2.9996378421783447, 1.9404631853103638
442,2197713707,0.8680967,0.05060796,-0.49127045,0.05000439,16.59368133544922,2.6609795093536377,6.460299491882324,-0.6239253878593445,2.8275845050811768, 1.7944577932357788
443,2197730374,0.86803734,0.050590355,-0.49135405,0.05023031,16.85885238647461,2.486240863800049,6.663365840911865,0.5613215565681458,2.8103342056274414, 2.3500101566314697
444,2197747041,0.8679947,0.050494354,-0.4914298,0.050324578,17.00545883178711,2.5620248317718506,6.67563009262085,-0.3781202435493469,2.9211859703063965, 1.7853779792785645
445,2197763708,0.867935,0.050496835,-0.4915138,0.05053074,16.90847396850586,2.565086603164673,6.644623279571533,0.6089739799499512,2.819746971130371, 2.2009825706481934
446,2197780375,0.8678757,0.050399225,-0.49161586,0.050652158,16.615074157714844,2.6711208820343018,6.5211334228515625,-0.29594191908836365,2.7405011653900146, 2.03425669670105
447,2197797042,0.8678562,0.050352328,-0.49164656,0.050732587,16.91246795654297,2.265657901763916,6.601284980773926,0.18786278367042542,3.058176040649414, 2.3845620155334473
448,2197813709,0.86780626,0.05036666,-0.49171802,0.05088332,17.179689407348633,2.711930274963379,6.866801738739014,0.4331428110599518,2.9877536296844482, 1.754578948020935
449,2197830376,0.86774546,0.050368186,-0.4918061,0.051066104,16.785934448242188,2.569213628768921,6.549343109130859,0.4897085130214691,2.8606886863708496, 2.107112407684326
450,2197847043,0.8677169,0.050302584,-0.49186644,0.05103607,16.812917709350586,2.593175172805786,6.588055610656738,-0.324423223733902,2.871381998062134, 1.8412649631500244
451,2197863710,0.8676522,0.050361086,-0.49195492,0.05122534,16.990320205688477,2.354893922805786,6.633302688598633,0.8315099477767944,2.8654017448425293, 1.9635015726089478
452,2197880377,0.8676197,0.05025572,-0.49202713,0.051186256,16.776914596557617,2.5455498695373535,6.562973499298096,-0.6053433418273926,2.824446678161621, 1.9353018999099731
453,2197897044,0.8675749,0.050253972,-0.4921057,0.05119346,16.803855895996094,2.6068482398986816,6.682848930358887,0.17034363746643066,2.72833514213562, 1.8822835683822632
454,2197913711,0.8675104,0.05037523,-0.49219346,0.051320583,16.95882225036621,2.5230438709259033,6.665803909301758,1.3098399639129639,2.607776403427124, 2.199932336807251
455,2197930378,0.86746275,0.050254356,-0.49229598,0.05125956,16.725358963012695,2.3888285160064697,6.5081987380981445,-0.7842864394187927,2.6015524864196777, 1.8997514247894287
456,2197947045,0.86740726,0.050191626,-0.49240187,0.05124526,16.635520935058594,2.530465841293335,6.5196075439453125,-0.2791656255722046,2.5550270080566406, 1.9798938035964966
457,2197963712,0.8673459,0.050194878,-0.49250865,0.051253166,16.819677352905273,2.470017433166504,6.693227291107178,0.1908850371837616,2.5143792629241943, 1.8991236686706543
458,2197980379,0.86729646,0.05035452,-0.49257654,0.051281456,16.805644989013672,2.4691038131713867,6.613766193389893,1.201062798500061,2.736684799194336, 1.473837971687317
459,2197997046,0.86725974,0.050342616,-0.49264902,0.051217694,16.71099853515625,2.526595115661621,6.594152927398682,-0.13852627575397491,2.7802135944366455, 1.5072369575500488
460,2198013713,0.8672141,0.05039319,-0.4927201,0.05125806,16.431913375854492,2.476602554321289,6.443836212158203,0.5865628123283386,2.7737081050872803, 1.9163869619369507
461,2198030380,0.8671811,0.05028531,-0.49280244,0.051128488,16.62757682800293,2.526132106781006,6.625331401824951,-0.9443658590316772,2.74517560005188, 1.439440131187439
462,2198047047,0.86714226,0.050465234,-0.49284256,0.05122551,16.94919776916504,2.403667449951172,6.714776039123535,1.5554784536361694,2.9523568153381348, 1.8072642087936401
463,2198063714,0.8671011,0.050436992,-0.49291888,0.05121388,16.309162139892578,2.6539306640625,6.416981220245361,-0.0635451152920723,2.7639365196228027, 1.880887746810913
464,2198080381,0.86705774,0.05033389,-0.49301735,0.05110196,16.25494384765625,2.5148627758026123,6.444604396820068,-0.8606762886047363,2.6154983043670654, 1.555273413658142
465,2198097048,0.86701256,0.050415654,-0.49308774,0.051108822,16.93055534362793,2.381798267364502,6.591629981994629,0.6532967686653137,2.749709129333496, 1.6360560655593872
466,2198113715,0.86696184,0.050493844,-0.4931732,0.051068213,16.360546112060547,2.724544048309326,6.489882469177246,0.4658118188381195,2.634784698486328, 1.367929458618164
467,2198130382,0.8669207,0.050579354,-0.49323747,0.05105921,16.519914627075195,2.4633629322052,6.365605354309082,0.6148264408111572,2.8021507263183594, 1.5331823825836182
468,2198147049,0.86687636,0.050552446,-0.4933271,0.05097176,16.139652252197266,2.5912628173828125,6.367001533508301,-0.3368198573589325,2.6654052734375, 1.445741057395935
469,2198163716,0.8668395,0.050622117,-0.4933927,0.05089599,16.219348907470703,2.6913671493530273,6.44562292098999,0.28476840257644653,2.8026123046875, 1.1979765892028809
470,2198180383,0.8668028,0.05093323,-0.4934148,0.05099759,16.88136863708496,2.5338032245635986,6.565944194793701,2.3376259803771973,3.038684129714966, 1.4409127235412598
471,2198197050,0.8667477,0.05091433,-0.4935177,0.050958462,15.910456657409668,2.6840806007385254,6.28668737411499,-0.1341337114572525,2.5758631229400635, 1.7559235095977783
472,2198213717,0.86670214,0.050835863,-0.49361265,0.050891202,16.069744110107422,2.6937308311462402,6.412695407867432,-0.5965709686279297,2.6736903190612793, 1.7863256931304932
473,2198230384,0.8666683,0.0509778,-0.49365067,0.05095748,16.993959426879883,2.4426991939544678,6.673146724700928,1.1794072389602661,3.0248279571533203, 1.824783205986023
474,2198247051,0.86659616,0.05102139,-0.4937699,0.050982367,16.12019920349121,2.660447835922241,6.352788925170898,0.4321438670158386,2.449118137359619, 1.9491456747055054
475,2198263718,0.86653244,0.050848115,-0.49391136,0.05086759,16.01518440246582,2.6094868183135986,6.3291239738464355,-1.34712553024292,2.376826763153076, 1.8811054229736328
476,2198280385,0.8664796,0.050939213,-0.49398574,0.050958596,16.652685165405273,2.4362316131591797,6.526311874389648,0.9377642869949341,2.803175687789917, 2.188624382019043
477,2198297052,0.86644447,0.050964072,-0.4940439,0.05096545,16.542646408081055,2.4852261543273926,6.490697383880615,0.2618962824344635,2.960745096206665, 1.9277461767196655
478,2198313719,0.86639804,0.05097565,-0.49412727,0.050935116,16.095958709716797,2.732469081878662,6.346102237701416,0.03824615851044655,2.7860915660858154, 1.7516587972640991
479,2198330386,0.86635226,0.050971877,-0.49420774,0.050939452,16.472837448120117,2.375183582305908,6.472198009490967,0.05422848463058472,2.8365230560302734, 2.021885633468628
480,2198347053,0.8663157,0.051085785,-0.49425018,0.05103156,16.468889236450195,2.3611650466918945,6.502065658569336,1.062690258026123,3.097017765045166, 2.136874198913574
481,2198363720,0.86628985,0.051023588,-0.49431247,0.050932117,16.135961532592773,2.7046656608581543,6.474273681640625,-0.6487568616867065,3.0184760093688965, 1.60114586353302
482,2198380387,0.8662456,0.05111664,-0.4943682,0.051048025,16.457033157348633,2.344369888305664,6.482040882110596,1.0057148933410645,3.020819902420044, 2.361881732940674
483,2198397054,0.8661978,0.05113144,-0.49444377,0.05111206,15.969863891601562,2.5615954399108887,6.34608793258667,0.35791826248168945,2.9071762561798096, 2.322540521621704
484,2198413721,0.86617124,0.05084656,-0.49452937,0.051019423,16.394874572753906,2.243532180786133,6.469799041748047,-1.9683233499526978,2.962153911590576, 2.4220714569091797
485,2198430388,0.86611825,0.05093204,-0.4946005,0.05114225,16.469820022583008,2.4309465885162354,6.587071895599365,0.9885798096656799,2.9060490131378174, 2.444520950317383
486,2198447055,0.8660604,0.05075583,-0.49471804,0.05115964,16.07600212097168,2.3605620861053467,6.375,-0.9431365728378296,2.667710304260254, 2.721996784210205
487,2198463722,0.8659845,0.05069864,-0.49485597,0.05117142,16.246959686279297,2.4979519844055176,6.516111373901367,-0.25405237078666687,2.4381048679351807, 2.291459321975708
488,2198480389,0.86593103,0.050618596,-0.49496323,0.051117502,16.502620697021484,2.105584144592285,6.424327373504639,-0.605868399143219,2.675509452819824, 1.9724788665771484
489,2198497056,0.865876,0.050669104,-0.49505305,0.051128108,16.131092071533203,2.4446094036102295,6.375943660736084,0.4065055549144745,2.747826337814331, 1.9052326679229736
490,2198513723,0.8658088,0.050732005,-0.49516892,0.05108299,16.26030921936035,2.4418017864227295,6.477595806121826,0.2770718038082123,2.5328080654144287, 1.5254348516464233
491,2198530390,0.86575925,0.05092051,-0.49523342,0.051110774,16.408906936645508,2.3259589672088623,6.400171756744385,1.273546576499939,2.8876075744628906, 1.481521725654602
492,2198547057,0.86572945,0.05084882,-0.49530295,0.051011343,16.28257942199707,2.36216402053833,6.442888259887695,-0.7010579705238342,2.9605014324188232, 1.6362992525100708
493,2198563724,0.86568135,0.050961692,-0.49537072,0.05105605,16.151386260986328,2.405939817428589,6.369309902191162,0.8920709490776062,2.89833927154541, 1.8607177734375
494,2198580391,0.865643,0.05082331,-0.49546343,0.050944205,16.06340217590332,2.355015754699707,6.383440971374512,-1.1490881443023682,2.815187692642212, 1.7908079624176025
495,2198597058,0.86561006,0.050969172,-0.49549806,0.05102376,16.442073822021484,2.266597270965576,6.555635929107666,1.2140101194381714,3.1433379650115967, 1.941436529159546
496,2198613725,0.8655742,0.05105164,-0.49555108,0.051033657,16.169654846191406,2.4152565002441406,6.4179229736328125,0.5982677936553955,3.0217669010162354, 1.7521966695785522
497,2198630392,0.86551696,0.0510615,-0.4956526,0.051010977,15.930663108825684,2.4193193912506104,6.347145080566406,0.041742295026779175,2.6771864891052246, 1.826038122177124
498,2198647059,0.8654802,0.051086772,-0.49572265,0.05092759,16.329891204833984,2.4152278900146484,6.558756351470947,-0.06941042095422745,2.905305862426758, 1.4026603698730469
499,2198663726,0.8654272,0.051338714,-0.4957783,0.051030584,16.479534149169922,2.3200888633728027,6.5642852783203125,1.921215295791626,2.924746513366699, 1.7378153800964355
500,2198680393,0.86538726,0.051382873,-0.49584907,0.050976895,15.97149658203125,2.500814914703369,6.374205589294434,0.1470361053943634,2.8981213569641113, 1.5287513732910156
501,2198697060,0.86534446,0.051382225,-0.49593174,0.050901838,16.1621036529541,2.301191568374634,6.391363620758057,-0.2033776491880417,2.829460620880127, 1.5590834617614746
502,2198713727,0.8653007,0.051415093,-0.49600923,0.050858524,16.465152740478516,2.3049545288085938,6.608399868011475,0.10118936747312546,2.8665924072265625, 1.6239795684814453
503,2198730394,0.8652725,0.05142335,-0.49606004,0.050832786,16.07396125793457,2.390658140182495,6.421648979187012,0.023070640861988068,3.0946478843688965, 1.8125402927398682
504,2198747061,0.86523426,0.051542882,-0.49611226,0.05085313,16.373483657836914,2.458813428878784,6.554289817810059,0.8488753437995911,3.028733968734741, 1.7325775623321533
505,2198763728,0.8651954,0.051582552,-0.49617782,0.05083619,16.2368106842041,2.2254903316497803,6.434507846832275,0.22624337673187256,2.981170892715454, 1.769305944442749
506,2198780395,0.86514777,0.051521648,-0.49627367,0.050771534,16.020978927612305,2.346750259399414,6.351161003112793,-0.5524531006813049,2.8054676055908203, 1.822209119796753
507,2198797062,0.8651151,0.051582683,-0.49633145,0.05070106,16.28776741027832,2.373643159866333,6.525732517242432,0.16652736067771912,3.0414376258850098, 1.3801466226577759
508,2198813729,0.86506104,0.051818814,-0.49639234,0.050785694,16.28169822692871,2.2613720893859863,6.482244968414307,1.7405304908752441,2.9548799991607666, 1.720949649810791
509,2198830396,0.8650064,0.05176791,-0.49650833,0.050634548,16.080442428588867,2.3813631534576416,6.412419319152832,-0.7915220856666565,2.649179220199585, 1.3268979787826538
510,2198847063,0.8649516,0.05181095,-0.49660835,0.050546855,16.296968460083008,2.2961840629577637,6.51285982131958,-0.0321311354637146,2.761721611022949, 1.3450318574905396
511,2198863730,0.86489004,0.05192913,-0.49670196,0.050558854,16.41659927368164,2.315460443496704,6.474259853363037,0.7773647308349609,2.774912118911743, 1.727672815322876
512,2198880397,0.8648268,0.051937133,-0.49682018,0.050471064,16.030624389648438,2.3708155155181885,6.4049248695373535,-0.22957944869995117,2.633146047592163, 1.5199666023254395
513,2198897064,0.86476904,0.051937427,-0.49692577,0.050420307,16.347076416015625,2.1412973403930664,6.421058654785156,-0.15756931900978088,2.755676507949829, 1.7385069131851196
514,2198913731,0.86470556,0.05202416,-0.49703026,0.05038887,16.289379119873047,2.4586448669433594,6.625082969665527,0.43013331294059753,2.7200751304626465, 1.5616766214370728
515,2198930398,0.86463374,0.052172303,-0.49713725,0.0504135,16.342384338378906,2.144125461578369,6.485644817352295,0.9887462258338928,2.6718590259552, 1.6948754787445068
516,2198947065,0.86458266,0.05211687,-0.4972503,0.05023415,16.072235107421875,2.40673565864563,6.418177604675293,-0.9163969159126282,2.6970369815826416, 1.1854263544082642
517,2198963732,0.8645245,0.052410845,-0.4973154,0.050284017,16.35578155517578,2.348397731781006,6.616388320922852,1.954153060913086,2.922569513320923, 1.3234786987304688
518,2198980399,0.8644917,0.052494597,-0.4973746,0.05017681,16.30107879638672,2.1920127868652344,6.345589637756348,0.161417618393898,3.0571253299713135, 1.0968061685562134
519,2198997066,0.8644594,0.052452855,-0.4974583,0.049944744,16.053020477294922,2.4691731929779053,6.586740493774414,-1.0194364786148071,2.9137837886810303, 0.7846897840499878
520,2199013733,0.86441654,0.052703846,-0.49750468,0.049959,16.33536148071289,2.28702974319458,6.514893531799316,1.5802844762802124,3.079024314880371, 1.2444250583648682
521,2199030400,0.86437076,0.052819945,-0.49757662,0.049913436,16.028106689453125,2.4316458702087402,6.430387020111084,0.5634346008300781,2.9429056644439697, 1.3485279083251953
522,2199047067,0.864326,0.05287336,-0.49765885,0.04981232,16.246137619018555,2.3531734943389893,6.520653247833252,0.0019529684213921428,2.879424571990967, 1.2517118453979492
523,2199063734,0.8642488,0.053026434,-0.49777487,0.049831476,16.247394561767578,2.4170749187469482,6.489065170288086,1.0064574480056763,2.574479341506958, 1.648414134979248
524,2199080401,0.8641561,0.053047992,-0.4979351,0.049813624,15.981780052185059,2.388561487197876,6.441371917724609,0.09132847934961319,2.2880144119262695, 1.9085239171981812
525,2199097068,0.8640831,0.053024776,-0.49807176,0.049737062,16.14188575744629,2.156583547592163,6.343428611755371,-0.37675002217292786,2.488203287124634, 1.6959642171859741
526,2199113735,0.8640181,0.053060897,-0.49818832,0.049660023,16.127662658691406,2.295593738555908,6.394704818725586,-0.02170676365494728,2.6171247959136963, 1.4695991277694702
527,2199130402,0.86396664,0.05318883,-0.49827257,0.04957402,16.224924087524414,2.26068377494812,6.440176010131836,0.49908268451690674,2.8256125450134277, 1.0830010175704956
528,2199147069,0.86389124,0.05340064,-0.4983894,0.049485184,15.947134017944336,2.316453218460083,6.395435333251953,0.9905903339385986,2.516723155975342, 0.8097391128540039
529,2199163736,0.8638259,0.05359975,-0.4984946,0.04935167,16.167997360229492,2.1500346660614014,6.436991214752197,0.7550944685935974,2.613961935043335, 0.5684162378311157
530,2199180403,0.86375827,0.053890448,-0.4985906,0.049250197,16.22633171081543,2.3793785572052,6.5586748123168945,1.4160302877426147,2.6451964378356934, 0.44112110137939453
531,2199197070,0.86368126,0.054196604,-0.49870095,0.049150363,16.134672164916992,2.392016887664795,6.468719959259033,1.5088378190994263,2.5234079360961914, 0.4078502058982849
532,2199213737,0.86360955,0.054459944,-0.49880278,0.04908353,16.06361961364746,2.4229965209960938,6.397573947906494,1.3776624202728271,2.6111831665039062, 0.7748419046401978
533,2199230404,0.86353844,0.054649662,-0.4989132,0.049002804,16.067171096801758,2.441908597946167,6.428007125854492,0.8641788363456726,2.6072638034820557, 0.9060172438621521
534,2199247071,0.8635008,0.05470048,-0.4989801,0.04892836,16.46295738220215,2.236334800720215,6.493549823760986,0.07140180468559265,3.024507761001587, 1.4232913255691528
535,2199263738,0.8634828,0.054798014,-0.4990049,0.048884593,16.23687744140625,2.488779306411743,6.491075038909912,0.4654659926891327,3.3461005687713623, 1.4315897226333618
536,2199280405,0.8634675,0.05480853,-0.4990346,0.04883807,16.106792449951172,2.2771081924438477,6.453305244445801,-0.0993516743183136,3.3880162239074707, 1.6607210636138916
537,2199297072,0.8634751,0.05492424,-0.49902013,0.0487218,16.238082885742188,2.2541885375976562,6.436863422393799,0.32436564564704895,3.645845651626587, 0.9329745173454285
538,2199313739,0.8634797,0.055162426,-0.49899423,0.04863802,16.419048309326172,2.263300657272339,6.551198482513428,1.1350077390670776,3.7047946453094482, 0.6440377831459045
539,2199330406,0.86348224,0.05551109,-0.49895522,0.048597258,16.229341506958008,2.264779567718506,6.479030609130859,1.949389100074768,3.7665719985961914, 0.5327634215354919
540,2199347073,0.8634938,0.055822477,-0.49891242,0.048474427,16.073368072509766,2.5381336212158203,6.457486629486084,1.4698426723480225,3.784001588821411, 0.22699898481369019
541,2199363740,0.86350703,0.056002505,-0.49888697,0.048292067,16.2724609375,2.342263698577881,6.523897647857666,0.42602241039276123,3.755993127822876, 0.24226412177085876
542,2199380407,0.8635028,0.056204516,-0.49888307,0.048175886,16.279205322265625,2.4977314472198486,6.638683319091797,0.8051481246948242,3.5686559677124023, 0.6243223547935486
543,2199397074,0.86346954,0.0562725,-0.4989375,0.04812674,16.155502319335938,2.4163129329681396,6.497605800628662,0.22967547178268433,3.194063186645508, 1.519364356994629
544,2199413741,0.8634049,0.05612652,-0.49908283,0.047949478,16.210506439208984,2.522054433822632,6.581731796264648,-1.4814000129699707,2.5506341457366943, 1.5757378339767456
545,2199430408,0.86331993,0.056252226,-0.49921688,0.047937583,16.388856887817383,2.26021671295166,6.577447414398193,0.7124749422073364,2.519899368286133, 1.6386302709579468
546,2199447075,0.86321604,0.056248147,-0.49940646,0.04783947,16.238229751586914,2.3902413845062256,6.530101776123047,-0.41628319025039673,2.170003890991211, 1.4906399250030518
547,2199463742,0.8631245,0.056338068,-0.49956325,0.04774902,16.65365982055664,2.143192768096924,6.597992420196533,0.15915091335773468,2.40067195892334, 1.1627205610275269
548,2199480409,0.8630391,0.056468293,-0.49970767,0.04762708,16.574378967285156,2.4197380542755127,6.639639377593994,0.3345082402229309,2.437105894088745, 0.8972576260566711
549,2199497076,0.86296976,0.05658474,-0.4998346,0.047411315,16.35803985595703,2.3507652282714844,6.563292980194092,-0.05952391028404236,2.560469627380371, 0.3964012861251831
550,2199513743,0.8629178,0.056812838,-0.49991593,0.04722974,16.65806770324707,2.3658714294433594,6.6401686668396,0.7184938788414001,2.868628978729248, 0.16852517426013947
551,2199530410,0.86286587,0.057211507,-0.4999671,0.047154,16.569564819335938,2.179239273071289,6.573962688446045,2.1467604637145996,3.007603645324707, 0.2745489478111267
552,2199547077,0.86279726,0.057489827,-0.5000721,0.046958894,16.373340606689453,2.755652904510498,6.658507347106934,0.9803966283798218,2.644364356994629, -0.06641373038291931
553,2199563744,0.86272097,0.057739243,-0.5001859,0.046840258,16.80417251586914,2.1920249462127686,6.615175247192383,1.0400868654251099,2.6275877952575684, 0.4502904713153839
554,2199580411,0.86266845,0.058005515,-0.50025624,0.046729222,16.2810115814209,2.501335620880127,6.541802883148193,1.2337828874588013,2.923811197280884, 0.5173060297966003
555,2199597078,0.86260563,0.058088213,-0.50037503,0.046511684,16.39919090270996,2.545133590698242,6.558233737945557,-0.3470264971256256,2.70363187789917, 0.3296290338039398
556,2199613745,0.8625387,0.058354754,-0.5004699,0.046403315,16.83977699279785,2.397571325302124,6.735060691833496,1.1916885375976562,2.761990547180176, 0.4639676511287689
557,2199630412,0.86246294,0.058657534,-0.5005719,0.046326064,16.167333602905273,2.540029764175415,6.515068531036377,1.4922277927398682,2.7081141471862793, 0.48479077219963074
558,2199647079,0.86237735,0.058879644,-0.500714,0.04610276,16.37491226196289,2.53865647315979,6.635540962219238,0.5193423628807068,2.389645576477051, -0.04450206831097603
559,2199663746,0.86229634,0.059283335,-0.500817,0.045983765,17.245220184326172,2.154269218444824,6.705539226531982,1.9706346988677979,2.6177520751953125, -0.05123819783329964
560,2199680413,0.86219084,0.059750717,-0.50095165,0.045890316,16.079822540283203,2.6701533794403076,6.521884918212891,2.3757383823394775,2.397611618041992, -0.22595524787902832
561,2199697080,0.8621167,0.05990774,-0.50109214,0.04554097,16.724773406982422,2.4748055934906006,6.603381156921387,-0.3213753402233124,2.4267966747283936, -0.5923064947128296
562,2199713747,0.8620268,0.06063508,-0.5011562,0.04557786,17.120357513427734,2.500901222229004,6.786808490753174,4.444194316864014,2.7938785552978516, -0.246035635471344
563,2199730414,0.86195785,0.060966887,-0.5012501,0.045405686,16.189176559448242,2.623990535736084,6.383475303649902,1.40003502368927,2.7133517265319824, -0.04204324632883072
564,2199747081,0.8619164,0.061069965,-0.50133425,0.04512499,16.523454666137695,2.517521381378174,6.520055770874023,-0.3272150456905365,2.8861353397369385, 0.12536776065826416
565,2199763748,0.86188054,0.06140594,-0.50135654,0.04510872,17.258159637451172,2.3896472454071045,6.826486587524414,1.8990731239318848,3.370382308959961, 0.7191727161407471
566,2199780415,0.8618328,0.061615396,-0.5014217,0.045008834,16.12133026123047,2.8338820934295654,6.475334167480469,0.8449437022209167,3.1045727729797363, 0.6698169112205505
567,2199797082,0.861796,0.061568625,-0.50151426,0.04474667,16.667104721069336,2.5069754123687744,6.65524435043335,-1.2238644361495972,2.9660212993621826, 0.6620050668716431
568,2199813749,0.8617463,0.06199696,-0.5015374,0.044850536,16.93501853942871,2.448957681655884,6.762340545654297,2.8547725677490234,3.373033046722412, 1.1346875429153442
569,2199830416,0.86171854,0.06213327,-0.5015803,0.0447199,16.58373260498047,2.5412650108337402,6.582010746002197,0.3380812704563141,3.3012659549713135, 0.818946897983551
570,2199847083,0.86168224,0.0623762,-0.5016232,0.044598714,16.563688278198242,2.64631724357605,6.615659236907959,0.9802045226097107,3.270658493041992, 0.4777985215187073
571,2199863750,0.86171764,0.0626681,-0.5015317,0.04453436,17.066421508789062,2.2303991317749023,6.645327568054199,1.482866644859314,4.321778774261475, 0.5882020592689514
572,2199880417,0.8617957,0.06293306,-0.50136924,0.044481244,16.287893295288086,2.7944579124450684,6.454953670501709,1.140232801437378,5.069131851196289, 0.3021978735923767
573,2199897084,0.86199224,0.06262462,-0.5011048,0.044088047,16.786144256591797,2.796321392059326,6.6259870529174805,-3.2762742042541504,5.9885125160217285, 0.4978404939174652
574,2199913751,0.86214817,0.06265896,-0.5008243,0.044178497,17.443227767944336,2.6702499389648438,7.174753665924072,0.46209800243377686,6.038726329803467, 2.2412075996398926
575,2199930418,0.86217135,0.062244844,-0.5008599,0.043903485,16.252429962158203,2.6832897663116455,6.882359504699707,-3.430654764175415,3.6437079906463623, 1.9073587656021118
576,2199947085,0.86208475,0.06224639,-0.5010145,0.043840356,16.74127960205078,2.308262825012207,6.733397006988525,-0.3031263053417206,2.560187816619873, 1.680391788482666
577,2199963752,0.86195666,0.06259,-0.5011903,0.043861087,16.901769638061523,2.429356813430786,6.848869323730469,1.9892170429229736,2.2526819705963135, 0.9508011937141418
578,2199980419,0.8618324,0.06320405,-0.50132096,0.043928888,16.766624450683594,2.500732183456421,6.576578617095947,3.820460796356201,2.436094284057617, 0.3534872829914093
579,2199997086,0.8617751,0.063472055,-0.50140446,0.043713342,16.93551254272461,2.58746075630188,6.732296466827393,0.7053802013397217,2.978891611099243, -0.30197376012802124
580,2200013753,0.8617554,0.063586235,-0.5014507,0.043403193,16.841691970825195,2.77872371673584,6.734603404998779,-0.4756278097629547,3.294875144958496, -0.25921329855918884
581,2200030420,0.86178464,0.06327826,-0.5014897,0.042819213,16.840105056762695,2.5570342540740967,6.702117919921875,-3.8692984580993652,3.464560031890869, -0.3112071752548218
582,2200047087,0.8617934,0.06342109,-0.50147146,0.042649154,16.924636840820312,2.688434600830078,6.807962894439697,0.2441594898700714,3.788573741912842, 0.5506923198699951
583,2200063754,0.8618038,0.06366838,-0.50142026,0.042669624,16.54268455505371,2.711669445037842,6.72518253326416,1.4251224994659424,4.104492664337158, 1.1240324974060059
584,2200080421,0.8617781,0.06423628,-0.5013688,0.042940192,16.98722267150879,2.4187846183776855,6.779660224914551,4.1991448402404785,3.9937825202941895, 1.5125645399093628
585,2200097088,0.8617382,0.064627364,-0.5013868,0.0429483,17.089061737060547,2.6818771362304688,6.919172763824463,2.346872329711914,3.406034231185913, 0.776634693145752
586,2200113755,0.86167896,0.06465501,-0.50150716,0.04268712,16.766908645629883,2.550164222717285,6.727741718292236,-0.8030861020088196,2.7490811347961426, 0.40838804841041565
587,2200130422,0.86166316,0.06485266,-0.50152576,0.04248668,16.902997970581055,2.6983120441436768,6.789600849151611,0.4174549877643585,3.48152756690979, 0.11564774066209793
588,2200147089,0.8616792,0.06498044,-0.5015012,0.042257432,17.141016006469727,2.6099157333374023,6.879127502441406,-0.1627047061920166,3.8946359157562256, 0.04892667010426521
589,2200163756,0.86171275,0.06532526,-0.5013997,0.04224533,17.14409065246582,2.4550857543945312,6.781741142272949,1.98373544216156,4.393095970153809, 0.7050086855888367
590,2200180423,0.8617896,0.06530429,-0.5012927,0.041983686,16.54669189453125,2.8530077934265137,6.8089985847473145,-1.0811378955841064,4.5859222412109375, 0.4357937276363373
591,2200197090,0.86184347,0.06564406,-0.5011515,0.04203112,17.38435935974121,2.5717430114746094,7.128615379333496,2.1837072372436523,4.7193522453308105, 1.093246340751648
592,2200213757,0.8618814,0.06585655,-0.50105804,0.042039543,17.057418823242188,2.6230366230010986,6.8943681716918945,1.1317676305770874,4.489900588989258, 1.0710911750793457
593,2200230424,0.86189604,0.0657919,-0.50105464,0.041876037,16.39798355102539,2.7844860553741455,6.817371368408203,-1.0048630237579346,3.824174404144287, 1.2349995374679565
594,2200247091,0.86188793,0.065871954,-0.50106484,0.04180033,17.343393325805664,2.5022568702697754,7.068786144256592,0.16032911837100983,3.6547088623046875, 1.2839713096618652
595,2200263758,0.86184955,0.065983154,-0.5011232,0.041716658,16.84376335144043,2.4995219707489014,6.8652496337890625,0.31659215688705444,3.2629873752593994, 1.1522831916809082
596,2200280425,0.8617645,0.06599009,-0.50128496,0.04151759,16.83445930480957,2.5393757820129395,6.92550802230835,-0.8144710063934326,2.530540943145752, 0.714357316493988
597,2200297092,0.86168027,0.066206075,-0.5014122,0.041384526,17.212892532348633,2.697657823562622,6.995269775390625,0.8085353374481201,2.6248342990875244, 0.6121243238449097
598,2200313759,0.8616004,0.06638492,-0.5015349,0.04127479,16.9582576751709,2.537977695465088,6.814410209655762,0.7045477628707886,2.6819634437561035, 0.9346138834953308
599,2200330426,0.86155075,0.06643414,-0.50162804,0.041103546,16.969518661499023,2.6222329139709473,6.857144355773926,-0.44746658205986023,3.0761232376098633, 0.7263120412826538
600,2200347093,0.86150926,0.06665998,-0.5016778,0.041000977,17.007003784179688,2.588960647583008,6.86659574508667,0.919592022895813,3.30153489112854, 0.6337542533874512
601,2200363760,0.8614748,0.06691718,-0.50171226,0.040886194,17.316781997680664,2.5038647651672363,7.007392406463623,1.0837949514389038,3.4056503772735596, 0.47113925218582153
602,2200380427,0.86142015,0.06715013,-0.50177944,0.040827323,16.96422004699707,2.648890495300293,6.93993616104126,0.9714191555976868,3.259939432144165, 0.6489809155464172
603,2200397094,0.86136556,0.06721025,-0.50188416,0.040594324,16.824504852294922,2.7791035175323486,6.895121097564697,-0.5378538966178894,2.944058418273926, 0.42878857254981995
604,2200413761,0.861305,0.067529835,-0.50194836,0.040550586,17.26605987548828,2.6742637157440186,7.100873947143555,1.7094365358352661,3.159858226776123, 0.7090171575546265
605,2200430428,0.8612353,0.06765037,-0.5020655,0.040380582,17.028650283813477,2.5727012157440186,6.94031286239624,0.034878093749284744,2.8288137912750244, 0.601699948310852
606,2200447095,0.86116695,0.06788091,-0.5021573,0.040309798,16.951862335205078,2.6330981254577637,6.855228900909424,1.0531237125396729,2.9945790767669678, 0.8150537610054016
607,2200463762,0.8610858,0.06790535,-0.50230885,0.040114947,17.08629035949707,2.613018035888672,6.995838642120361,-0.6053177118301392,2.6065852642059326, 0.8148104548454285
608,2200480429,0.8610092,0.06803758,-0.5024337,0.039968047,17.039962768554688,2.626234292984009,6.9289116859436035,0.0717603787779808,2.820451259613037, 0.51642245054245
609,2200497096,0.8609391,0.06826351,-0.5025343,0.03982929,17.125988006591797,2.5963692665100098,6.951259136199951,0.7508555054664612,2.9202001094818115, 0.36497458815574646
610,2200513763,0.8608379,0.06862608,-0.5026601,0.039803673,16.910850524902344,2.564884901046753,6.862002849578857,1.9584944248199463,2.672948122024536, 0.5797498822212219
611,2200530430,0.8607541,0.06871358,-0.50281477,0.0395094,16.926055908203125,2.6872358322143555,6.946533203125,-0.5037890076637268,2.4625651836395264, 0.10727239400148392
612,2200547097,0.86066335,0.069020145,-0.5029412,0.03934047,17.233972549438477,2.7043795585632324,7.038992404937744,1.2365362644195557,2.612476348876953, 0.06941681355237961
613,2200563764,0.86059695,0.069282845,-0.5030284,0.039219614,17.056060791015625,2.5190534591674805,6.847046375274658,1.074267029762268,2.9801971912384033, 0.38841012120246887
614,2200580431,0.8605242,0.069436975,-0.5031442,0.03905301,16.75771141052246,2.792285919189453,6.82279634475708,0.24552975594997406,2.827815055847168, 0.44913792610168457
615,2200597098,0.86045617,0.069509335,-0.5032655,0.038860306,17.18625831604004,2.5745303630828857,6.9701995849609375,-0.38845503330230713,2.8405444622039795, 0.5047814846038818
616,2200613765,0.8603871,0.06977273,-0.50335103,0.038810004,17.10138702392578,2.6827738285064697,6.983213424682617,1.2154570817947388,3.0815725326538086, 0.6167345643043518
617,2200630432,0.8603307,0.06988616,-0.5034408,0.03868837,16.871509552001953,2.618845224380493,6.885372638702393,0.13717523217201233,3.0534372329711914, 0.8249658942222595
618,2200647099,0.86026883,0.0700889,-0.50352794,0.038565364,16.957609176635742,2.7751450538635254,6.925241947174072,0.631308376789093,3.060391902923584, 0.4403015971183777
619,2200663766,0.86020786,0.07027646,-0.50361156,0.03848986,17.27142906188965,2.5426807403564453,7.0217485427856445,0.6993610858917236,3.112013339996338, 0.7677854299545288
620,2200680433,0.8601394,0.07045949,-0.50371075,0.038386855,16.9559383392334,2.8131051063537598,6.848227024078369,0.632524847984314,2.9359519481658936, 0.7240518927574158
621,2200697100,0.86010164,0.07066781,-0.50375146,0.03831761,16.728466033935547,2.608861207962036,6.8302903175354,1.0075972080230713,3.361557960510254, 0.9588305950164795
622,2200713767,0.8600711,0.07082689,-0.5037904,0.03819667,17.182024002075195,2.547788619995117,6.983717441558838,0.4277000427246094,3.424846887588501, 0.6694455146789551
623,2200730434,0.8600262,0.07101034,-0.5038451,0.03814073,17.098936080932617,2.5586910247802734,6.9918904304504395,0.7212343811988831,3.3682427406311035, 0.843445360660553
624,2200747101,0.85998046,0.07112485,-0.5039185,0.037988245,16.50759506225586,2.943504810333252,6.815227508544922,0.059453483670949936,3.171396255493164, 0.656805694103241
625,2200763768,0.8599179,0.07128603,-0.5040116,0.037869766,17.050745010375977,2.5396974086761475,6.921056270599365,0.5141558647155762,2.9748706817626953, 0.8115577697753906
626,2200780435,0.8598422,0.07138892,-0.50413775,0.03771334,16.863170623779297,2.624763250350952,6.83056640625,-0.1151546984910965,2.789318799972534, 0.5948100686073303
627,2200797102,0.8597889,0.07147946,-0.50423455,0.037461277,16.754480361938477,2.719406843185425,6.891226768493652,-0.36085736751556396,2.9389231204986572, 0.28570327162742615
628,2200813769,0.859714,0.07181447,-0.5043144,0.037464254,16.750356674194336,2.6972007751464844,6.8358588218688965,1.8109781742095947,3.091536283493042, 0.7091965079307556
629,2200830436,0.8596544,0.07186094,-0.5044237,0.03727058,16.673612594604492,2.6812195777893066,6.857698440551758,-0.48935621976852417,2.928959369659424, 0.6971840262413025
630,2200847103,0.85960543,0.07204971,-0.5044871,0.037176386,17.065040588378906,2.631016254425049,6.878907203674316,0.6837501525878906,3.2528703212738037, 0.7484734654426575
631,2200863770,0.85955894,0.072207704,-0.50455135,0.0370753,16.755399703979492,2.7914321422576904,6.899493217468262,0.5429700016975403,3.2578392028808594, 0.8948244452476501
632,2200880437,0.85950565,0.07242979,-0.50461304,0.037030265,16.61736488342285,2.760563611984253,6.798426628112793,1.1316009759902954,3.223428726196289, 1.049896478652954
633,2200897104,0.8594468,0.0725293,-0.5047041,0.036962092,16.970325469970703,2.492323160171509,6.933506965637207,0.01182666327804327,3.1489083766937256, 0.9390831589698792
634,2200913771,0.8593781,0.072716184,-0.5047987,0.036902644,16.772048950195312,2.8308486938476562,6.912911415100098,0.6262753009796143,3.0892691612243652, 0.7403799295425415
635,2200930438,0.85931766,0.07293803,-0.5048764,0.036811374,16.702486038208008,2.6627135276794434,6.749580383300781,0.9565638303756714,3.0891153812408447, 0.7586801052093506
636,2200947105,0.859246,0.07288232,-0.5050269,0.036527973,16.470430374145508,2.7742316722869873,6.845168590545654,-1.439971685409546,2.6562483310699463, 0.4897468090057373
637,2200963772,0.85918385,0.0731337,-0.5051002,0.036469832,16.953964233398438,2.5286660194396973,6.832950115203857,1.1591602563858032,3.1623551845550537, 0.7118601202964783
638,2200980439,0.85912174,0.073278576,-0.50519305,0.03635488,16.574676513671875,2.825840950012207,6.874262809753418,0.3539867401123047,3.0212934017181396, 0.788019597530365
639,2200997106,0.8590415,0.073364325,-0.5053226,0.036278337,16.50933837890625,2.667646646499634,6.802267074584961,0.17019638419151306,2.786623239517212, 1.2669578790664673
640,2201013773,0.85895014,0.073435724,-0.5054716,0.036222607,16.79145050048828,2.7407071590423584,6.950827598571777,0.014387935400009155,2.6806445121765137, 1.2607018947601318
641,2201030440,0.8588578,0.073571645,-0.50560915,0.036213305,16.532331466674805,2.712779998779297,6.787163734436035,0.7244744300842285,2.7159388065338135, 1.5024601221084595
642,2201047107,0.8587857,0.07358886,-0.50573725,0.036100697,16.543561935424805,2.600163221359253,6.7662835121154785,-0.38754576444625854,2.8186583518981934, 1.2417869567871094
643,2201063774,0.85870004,0.073877335,-0.50583893,0.036125,16.82280731201172,2.589805841445923,6.856468677520752,1.621904969215393,2.951690673828125, 0.981613039970398
644,2201080441,0.85861236,0.07389187,-0.50599796,0.035949077,16.493839263916016,2.6627798080444336,6.837040424346924,-0.6185851693153381,2.550711154937744, 0.8807503581047058
645,2201097108,0.8585421,0.07406589,-0.5061032,0.035787772,16.58927345275879,2.584890604019165,6.734579086303711,0.5482718348503113,2.830094575881958, 0.605221688747406
646,2201113775,0.8584842,0.074134596,-0.5062073,0.035562996,16.7380313873291,2.6626601219177246,6.853013515472412,-0.40614059567451477,2.933403491973877, 0.4238581955432892
647,2201130442,0.8584159,0.074318275,-0.5063092,0.035375863,16.471601486206055,2.6716556549072266,6.732193470001221,0.46350666880607605,2.872842311859131, 0.3209463357925415
648,2201147109,0.85833,0.07456389,-0.5064266,0.035266057,16.589879989624023,2.6935765743255615,6.754605293273926,1.0541738271713257,2.7479031085968018, 0.515628457069397
649,2201163776,0.85826206,0.07476289,-0.5065201,0.035152014,16.385982513427734,2.6062355041503906,6.704873085021973,0.7191598415374756,2.975280284881592, 0.5777649283409119
650,2201180443,0.8581677,0.07508255,-0.5066375,0.035082027,16.500431060791016,2.854550838470459,6.9093098640441895,1.6419470310211182,2.7204208374023438, 0.4933198094367981
651,2201197110,0.8580798,0.07529665,-0.5067625,0.034965366,16.722461700439453,2.6920244693756104,6.762191295623779,0.8867565393447876,2.6930794715881348, 0.6316412091255188
652,2201213777,0.8579973,0.075312346,-0.5069127,0.03477731,16.298053741455078,2.773817300796509,6.701577663421631,-0.49015024304389954,2.545114755630493, 0.9910257458686829
653,2201230444,0.8579196,0.075416744,-0.50703835,0.03463569,16.30988121032715,2.805055618286133,6.742832183837891,0.13750818371772766,2.7315878868103027, 0.8635002374649048
654,2201247111,0.8578475,0.0755983,-0.5071403,0.034534052,16.810117721557617,2.7197377681732178,6.844219207763672,0.7558820843696594,2.8984103202819824, 0.838508665561676
655,2201263778,0.85776573,0.07587581,-0.5072395,0.03450209,16.387451171875,2.8271586894989014,6.7285027503967285,1.5373700857162476,2.8973660469055176, 0.8814674019813538
656,2201280445,0.8576864,0.075870074,-0.5073882,0.03430129,16.3402042388916,2.7694413661956787,6.717819690704346,-0.7891656756401062,2.613347053527832, 0.8339686393737793
657,2201297112,0.85759616,0.07607679,-0.50750977,0.034297626,16.385438919067383,2.6816835403442383,6.649698734283447,1.06913161277771,2.811000108718872, 1.1344186067581177
658,2201313779,0.8575109,0.07609945,-0.5076653,0.034075115,16.451574325561523,2.8232290744781494,6.7628397941589355,-0.6993419528007507,2.5444488525390625, 0.6110357642173767
659,2201330446,0.857397,0.076444365,-0.50780404,0.03410451,16.29405975341797,2.8425350189208984,6.664361953735352,2.0819218158721924,2.6140894889831543, 0.9498533010482788
660,2201347113,0.8573089,0.07647751,-0.5079591,0.033931788,16.391820907592773,2.6951959133148193,6.6388468742370605,-0.45621341466903687,2.564964532852173, 0.891571581363678
661,2201363780,0.85721374,0.076645486,-0.50810236,0.033817284,16.285205841064453,2.8196206092834473,6.671646595001221,0.5616929531097412,2.597480058670044, 0.7831147909164429
662,2201380447,0.85713077,0.07675968,-0.5082357,0.033655114,16.26468276977539,2.9149932861328125,6.721756935119629,0.058493006974458694,2.693258762359619, 0.6643101572990417
663,2201397114,0.8570529,0.076948084,-0.5083431,0.033584576,16.123445510864258,2.625084161758423,6.539857864379883,0.7946531772613525,2.89937686920166, 0.9051336646080017
664,2201413781,0.8569863,0.07713432,-0.50843495,0.03346824,16.377779006958008,2.929011106491089,6.783641815185547,0.6633369326591492,2.9919283390045166, 0.6791015267372131
665,2201430448,0.8569045,0.07738774,-0.5085344,0.03346369,16.04953956604004,2.764284610748291,6.5704450607299805,1.444011926651001,2.946964979171753, 1.0890071392059326
666,2201447115,0.8568271,0.07747428,-0.50866044,0.033332925,15.933758735656738,2.8319284915924072,6.564291477203369,0.027271123602986336,2.757520914077759, 0.9678846597671509
667,2201463782,0.85675853,0.07759535,-0.5087607,0.033279326,16.246835708618164,2.6841864585876465,6.557122707366943,0.509442925453186,2.9581961631774902, 1.3007088899612427
668,2201480449,0.8566873,0.07768814,-0.50886863,0.0332498,16.098281860351562,2.7685580253601074,6.597626209259033,0.37076300382614136,2.943814516067505, 1.4617102146148682
669,2201497116,0.8566255,0.07765722,-0.50898546,0.033126615,15.763277053833008,2.781658172607422,6.542770862579346,-0.6533159613609314,2.8779261112213135, 1.396884560585022
670,2201513783,0.85656047,0.077711426,-0.5090866,0.033122577,16.137304306030273,2.649430274963379,6.621042728424072,0.17380136251449585,3.00893497467041, 1.6836186647415161
671,2201530450,0.8564902,0.07774496,-0.5092025,0.0330824,15.99756145477295,2.900799512863159,6.630730152130127,0.010930218733847141,2.8779516220092773, 1.631996512413025
672,2201547117,0.8564313,0.07776644,-0.5092991,0.03306799,15.697671890258789,2.544114828109741,6.3856377601623535,-0.0034705207217484713,3.0421290397644043, 1.7822916507720947
673,2201563784,0.8563875,0.07766974,-0.50939333,0.032979287,16.0372314453125,2.7133989334106445,6.663382053375244,-0.8759799599647522,3.0678699016571045, 1.8533415794372559
674,2201580451,0.8563219,0.07789599,-0.50946087,0.03310657,15.849374771118164,2.6143155097961426,6.528665065765381,1.7172354459762573,3.1973037719726562, 1.8853700160980225
675,2201597118,0.8562788,0.07782568,-0.5095507,0.033004828,15.817781448364258,2.676776647567749,6.445030689239502,-0.8296850323677063,3.087912082672119, 1.5867133140563965
676,2201613785,0.85622084,0.07785349,-0.5096457,0.032974117,15.810041427612305,2.68086314201355,6.588095664978027,0.02574716880917549,3.009319305419922, 1.69210946559906
677,2201630452,0.856174,0.077849984,-0.5097265,0.032947738,16.03435516357422,2.5352301597595215,6.529592514038086,-0.07504520565271378,3.1331562995910645, 1.8809388875961304
678,2201647119,0.8561294,0.07777825,-0.5098168,0.03288085,15.592206001281738,2.792008638381958,6.480288028717041,-0.733726978302002,3.09578800201416, 1.750877857208252
679,2201663786,0.8560728,0.077799864,-0.50990796,0.03288966,15.739579200744629,2.5601229667663574,6.529685974121094,0.11166497319936752,3.0592644214630127, 1.9011603593826294
680,2201680453,0.8560175,0.077888876,-0.5099846,0.03293024,15.968318939208984,2.5836727619171143,6.50471830368042,0.4712032973766327,3.155503988265991, 1.681697964668274
681,2201697120,0.85594517,0.07786543,-0.51011306,0.032879192,15.791494369506836,2.660804271697998,6.6354804039001465,-0.29249700903892517,2.7233405113220215, 1.8154600858688354
682,2201713787,0.8558663,0.077880435,-0.51024806,0.032802045,15.6248197555542,2.753922462463379,6.4519147872924805,-0.1424962729215622,2.642789125442505, 1.5348092317581177
683,2201730454,0.85580474,0.07798457,-0.51033527,0.032806642,15.52160930633545,2.510552167892456,6.346751689910889,0.5506538152694702,3.010279655456543, 1.559281826019287
684,2201747121,0.8557548,0.07808485,-0.5104059,0.03276799,15.911027908325195,2.5908095836639404,6.581252574920654,0.45031607151031494,3.1261260509490967, 1.3727574348449707
685,2201763788,0.8557115,0.07821314,-0.51046026,0.03274681,15.698431968688965,2.5931034088134766,6.457650661468506,0.5803389549255371,3.253613233566284, 1.2662469148635864
686,2201780455,0.85566765,0.078232884,-0.5105403,0.032599077,15.495574951171875,2.7943854331970215,6.489285945892334,-0.34285157918930054,3.0216898918151855, 1.1035808324813843
687,2201797122,0.8556092,0.07833168,-0.5106251,0.032563932,15.723628997802734,2.605548858642578,6.496645927429199,0.3839983642101288,3.0167789459228516, 1.3381098508834839
688,2201813789,0.855564,0.07847372,-0.5106801,0.032551423,15.503860473632812,2.7120683193206787,6.474164009094238,0.6399653553962708,3.2371444702148438, 1.2314012050628662
689,2201830456,0.85550785,0.07862194,-0.51075053,0.032563627,15.795633316040039,2.716052293777466,6.5478715896606445,0.8842337131500244,3.118621587753296, 1.482277512550354
690,2201847123,0.8554492,0.07874483,-0.51082957,0.03256843,15.582752227783203,2.6020548343658447,6.389737606048584,0.7280730605125427,3.071110248565674, 1.5447723865509033
691,2201863790,0.85539824,0.07867158,-0.5109344,0.032438654,15.25419807434082,2.807731866836548,6.460829734802246,-0.8837533593177795,2.9064457416534424, 1.4871052503585815
692,2201880457,0.8553299,0.0789298,-0.51100427,0.032515943,16.139596939086914,2.4786972999572754,6.536874294281006,1.7621346712112427,3.07100772857666, 1.4980419874191284
693,2201897124,0.85527945,0.07900037,-0.5110794,0.032487433,15.233445167541504,2.7291104793548584,6.369819641113281,0.3045158088207245,3.0936367511749268, 1.545003056526184
694,2201913791,0.8552319,0.07893414,-0.5111739,0.03241592,15.880939483642578,2.4279704093933105,6.56143856048584,-0.6514974236488342,3.010113000869751, 1.7678844928741455
695,2201930458,0.8551715,0.07901734,-0.5112622,0.032415077,15.71638298034668,2.7814531326293945,6.611567497253418,0.40941259264945984,2.996640920639038, 1.5813087224960327
