PacketCounter,SampleTimeFine,Quat_W,Quat_X,Quat_Y,Quat_Z,Acc_X,Acc_Y,Acc_Z,Gyr_X,Gyr_Y,Gyr_Z 
1,2383527326,0.7772372,0.24430634,-0.53414834,0.22561578,0.17045103013515472,0.07464568316936493,0.06964022666215897,-0.29533737897872925,0.18528859317302704, -0.40520116686820984
2,2383543993,0.77719885,0.24341542,-0.53455436,0.22574973,15.996304512023926,2.230154275894165,5.165250301361084,0.6634777784347534,3.615072250366211, 2.5473172664642334
3,2383560660,0.77673066,0.2427157,-0.5351643,0.2266665,15.910537719726562,2.3364386558532715,5.210937976837158,-0.27757763862609863,3.422875165939331, 2.5480988025665283
4,2383577327,0.7766195,0.2425475,-0.5351978,0.22714823,15.843473434448242,2.3978683948516846,5.184719085693359,0.7442218065261841,3.3762850761413574, 2.3897862434387207
5,2383593994,0.7765799,0.24293284,-0.5348992,0.2275747,15.84156608581543,2.2971673011779785,5.117153644561768,0.9851862788200378,3.022305488586426, 2.5070674419403076
6,2383610661,0.7765816,0.24298073,-0.5348288,0.22768328,15.86768627166748,2.219805955886841,5.224127769470215,-0.048343971371650696,2.8610732555389404, 2.439488410949707
7,2383627328,0.77663,0.24288464,-0.5346846,0.22795933,15.952195167541504,2.2757997512817383,5.165334224700928,-0.08019337058067322,2.7449324131011963, 2.0858407020568848
8,2383643995,0.77661043,0.24293874,-0.5344803,0.22844659,15.930651664733887,2.274095296859741,5.135315895080566,1.2722147703170776,3.174623727798462, 2.3268561363220215
9,2383660662,0.77668804,0.24272998,-0.5343785,0.22864287,15.675232887268066,2.403578519821167,5.0604729652404785,0.0453408807516098,3.420607805252075, 2.22367525100708
10,2383677329,0.7767418,0.24265839,-0.5342332,0.22887594,15.965781211853027,2.3793716430664062,5.138310432434082,0.12740395963191986,3.386901617050171, 2.6557743549346924
11,2383693996,0.776844,0.24249622,-0.53409857,0.22901496,16.066574096679688,2.2442197799682617,5.266610622406006,0.24815510213375092,3.7386932373046875, 2.9816713333129883
12,2383710663,0.77691305,0.24222353,-0.53400505,0.22928703,15.632624626159668,2.4729831218719482,5.066614151000977,-1.310461163520813,3.201850175857544, 3.146859884262085
13,2383727330,0.7770141,0.24200769,-0.5338824,0.22945806,15.992162704467773,2.15409779548645,5.111316204071045,-0.31974902749061584,3.3625190258026123, 3.39074444770813
14,2383743997,0.77705514,0.2418286,-0.53376096,0.22979029,15.943164825439453,2.314802646636963,5.234732627868652,0.270847886800766,3.459974527359009, 3.3931896686553955
15,2383760664,0.7771641,0.24151564,-0.53368664,0.22992349,16.039745330810547,2.322298049926758,5.201347827911377,-0.6555570363998413,3.1912333965301514, 3.0073089599609375
16,2383777331,0.7772094,0.24133728,-0.53355455,0.23026401,15.98874282836914,2.2959375381469727,5.172527313232422,0.019151899963617325,3.232201337814331, 3.2730026245117188
17,2383793998,0.77733815,0.24103509,-0.5334223,0.23045291,16.018997192382812,2.0603322982788086,5.0723772048950195,-0.9075220227241516,3.5402069091796875, 2.878336191177368
18,2383810665,0.777405,0.24086027,-0.53324085,0.23082906,15.869759559631348,2.2921667098999023,5.165362358093262,0.42803308367729187,3.81905198097229, 2.8889784812927246
19,2383827332,0.77753866,0.2405665,-0.5331063,0.23099613,15.726831436157227,2.35739803314209,5.094771385192871,-0.5619298219680786,3.651557445526123, 2.4593379497528076
20,2383843999,0.777626,0.24034573,-0.53292245,0.23135588,16.337818145751953,2.1339077949523926,5.215601921081543,-0.5772718191146851,3.748450517654419, 2.9784560203552246
21,2383860666,0.7776865,0.24013607,-0.53276515,0.23173279,15.815174102783203,2.350057363510132,5.2013068199157715,0.8585569858551025,3.760617256164551, 3.2996270656585693
22,2383877333,0.7777968,0.23983362,-0.5325873,0.23208381,15.877605438232422,2.192852258682251,5.083325386047363,-0.2315516322851181,3.9803099632263184, 3.3857877254486084
23,2383894000,0.77786595,0.23964173,-0.5323851,0.23251353,15.970410346984863,2.3382017612457275,5.262661457061768,0.898461639881134,3.9733307361602783, 3.422106981277466
24,2383910667,0.7779252,0.2394288,-0.53218055,0.2330032,15.862600326538086,2.2646427154541016,5.173397541046143,0.9760551452636719,3.979733467102051, 3.9050211906433105
25,2383927334,0.7779591,0.23914778,-0.53204453,0.23348808,15.876043319702148,2.245478391647339,5.214257717132568,0.5661624073982239,3.59472393989563, 4.319371223449707
26,2383944001,0.77797216,0.23890515,-0.53188336,0.23405945,16.018993377685547,2.302417755126953,5.252620220184326,0.8219819664955139,3.634333372116089, 4.52468204498291
27,2383960668,0.77805066,0.23856358,-0.53171915,0.23451951,15.951635360717773,2.0758156776428223,5.259373664855957,0.23621951043605804,3.8909595012664795, 4.377318859100342
28,2383977335,0.7781595,0.23817459,-0.5315533,0.23493,15.745267868041992,2.256834030151367,5.113287925720215,-0.35075315833091736,3.9397270679473877, 4.082376956939697
29,2383994002,0.778378,0.23750381,-0.53146005,0.23509555,15.994942665100098,2.025371789932251,5.162067413330078,-3.145099639892578,4.004899024963379, 3.7645492553710938
30,2384010669,0.7785702,0.23707905,-0.5311872,0.23550443,16.15738868713379,1.9673492908477783,5.268467903137207,-0.6508956551551819,4.367919921875, 3.4842050075531006
31,2384027336,0.7787746,0.23677738,-0.5307749,0.23606057,15.857486724853516,1.9958738088607788,5.18394136428833,0.7727416157722473,4.660365581512451, 3.2213287353515625
32,2384044003,0.779082,0.23617557,-0.53047544,0.23632208,15.990753173828125,1.990038514137268,5.243725776672363,-1.7993693351745605,4.30350399017334, 2.8188633918762207
33,2384060670,0.7793343,0.23591869,-0.5300272,0.23675232,15.88264274597168,2.058926820755005,5.207966327667236,0.8769468665122986,4.538986682891846, 2.247380018234253
34,2384077337,0.7796339,0.23556387,-0.52961415,0.23704363,16.22135353088379,1.8756166696548462,5.251755714416504,-0.13325007259845734,4.456847190856934, 1.8914659023284912
35,2384094004,0.7798627,0.23547405,-0.5291049,0.23751749,15.857410430908203,2.247002363204956,5.32408332824707,1.8436602354049683,4.526155471801758, 1.7245738506317139
36,2384110671,0.7801978,0.23512986,-0.52866,0.23774768,16.083332061767578,1.9921284914016724,5.115114212036133,-0.3664793074131012,4.621625900268555, 1.3935164213180542
37,2384127338,0.7804944,0.23499297,-0.5281329,0.238081,15.81840705871582,2.159130334854126,5.3712077140808105,1.0567350387573242,4.7218098640441895, 1.029034972190857
38,2384144005,0.7807828,0.23476094,-0.52769023,0.23834543,15.857083320617676,2.202059268951416,5.2377824783325195,0.3224574625492096,4.2980475425720215, 1.2113205194473267
39,2384160672,0.7811044,0.2344105,-0.5272768,0.23855183,16.087339401245117,2.0036184787750244,5.289684295654297,-0.5407354235649109,4.37261962890625, 1.3554050922393799
40,2384177339,0.7813876,0.23402457,-0.52692705,0.23877572,15.801301956176758,2.176860809326172,5.2945356369018555,-0.7029149532318115,3.9806811809539795, 1.74373197555542
41,2384194006,0.78162503,0.23372336,-0.52657187,0.23907734,16.192646026611328,2.0784590244293213,5.28078556060791,0.12863337993621826,3.83060359954834, 1.9284379482269287
42,2384210673,0.7817589,0.23368222,-0.52612805,0.23965678,15.681809425354004,2.148043394088745,5.233509540557861,2.650268077850342,3.9305191040039062, 2.43715763092041
43,2384227340,0.7819756,0.23320378,-0.5259236,0.23986351,15.98394775390625,2.3129031658172607,5.357586860656738,-1.5152983665466309,3.072249412536621, 2.288283109664917
44,2384244007,0.7821441,0.23292686,-0.52561355,0.24026285,16.12696647644043,1.981999397277832,5.228871822357178,0.6271334290504456,3.4554030895233154, 2.5500452518463135
45,2384260674,0.78235257,0.23249348,-0.52535087,0.24057843,16.155834197998047,2.313960552215576,5.3039116859436035,-0.7785492539405823,3.4586684703826904, 2.628023147583008
46,2384277341,0.78256977,0.23212557,-0.52502567,0.24093719,15.685063362121582,2.0191500186920166,5.142333030700684,0.0417679138481617,3.815300226211548, 2.595546245574951
47,2384294008,0.78284705,0.2315648,-0.5247553,0.24116431,16.124061584472656,2.1662983894348145,5.323274612426758,-1.878832459449768,3.8213956356048584, 2.4896504878997803
48,2384310675,0.78305644,0.23132266,-0.5243442,0.24161096,16.149822235107422,1.8554474115371704,5.318305492401123,1.1599669456481934,4.178974628448486, 2.4818384647369385
49,2384327342,0.78326374,0.23103315,-0.52399147,0.24198057,15.817707061767578,2.2582921981811523,5.343710899353027,0.221697136759758,3.777905225753784, 2.2145190238952637
50,2384344009,0.7835129,0.23054042,-0.5237281,0.24221404,16.151195526123047,1.8118796348571777,5.216097831726074,-1.2678160667419434,3.605058431625366, 2.4066145420074463
51,2384360676,0.7836957,0.2303501,-0.5233374,0.24264804,15.964142799377441,2.2583212852478027,5.372717380523682,1.1271573305130005,3.838261127471924, 2.200521469116211
52,2384377343,0.7839626,0.22996286,-0.5229877,0.24290678,16.127534866333008,1.893509864807129,5.2492356300354,-0.46558770537376404,4.005333423614502, 2.0077219009399414
53,2384394010,0.78410685,0.22989202,-0.5225453,0.24345979,15.862258911132812,2.248509168624878,5.342514991760254,2.539403200149536,3.991861343383789, 2.4715042114257812
54,2384410677,0.7843961,0.2293246,-0.52227765,0.2436373,15.961650848388672,1.7538819313049316,5.215770721435547,-1.9898377656936646,3.810215473175049, 2.2779998779296875
55,2384427344,0.784601,0.229066,-0.52192724,0.24397157,16.04866600036621,2.2661471366882324,5.423623561859131,0.5321870446205139,3.688746929168701, 2.0286474227905273
56,2384444011,0.78482413,0.22882028,-0.52154565,0.24430054,16.055816650390625,1.738784909248352,5.193702220916748,0.5658677816390991,3.888244867324829, 1.8654305934906006
57,2384460678,0.7850716,0.22850588,-0.52121675,0.24450085,15.892290115356445,2.2015693187713623,5.3516716957092285,-0.17570313811302185,3.6331429481506348, 1.5369607210159302
58,2384477345,0.7853296,0.22815253,-0.52090055,0.24467622,16.149890899658203,1.8186991214752197,5.308304309844971,-0.734585165977478,3.6035983562469482, 1.4662312269210815
59,2384494012,0.78553116,0.22805203,-0.5204515,0.24507841,16.21471405029297,1.938091516494751,5.359309673309326,2.0152008533477783,4.082081317901611, 1.768319845199585
60,2384510679,0.78577286,0.22777553,-0.5200781,0.24535279,15.746438026428223,2.1378259658813477,5.281447410583496,0.1361250877380371,3.882507085800171, 1.6504758596420288
61,2384527346,0.78606147,0.22735587,-0.519718,0.24558152,16.274383544921875,1.8852330446243286,5.306280136108398,-0.660807728767395,4.17062520980835, 1.9525651931762695
62,2384544013,0.7862925,0.22717333,-0.51924205,0.24601708,16.055988311767578,2.0916759967803955,5.374968528747559,1.3321870565414429,4.479924201965332, 2.0148425102233887
63,2384560680,0.7865668,0.22667874,-0.51893294,0.24624808,16.065160751342773,2.0445470809936523,5.335340976715088,-1.3897453546524048,3.943568468093872, 2.229886770248413
64,2384577347,0.7867667,0.22648235,-0.51850677,0.24668765,16.09562110900879,1.9322227239608765,5.359477996826172,1.643266201019287,4.169101238250732, 2.3807713985443115
65,2384594014,0.78703266,0.22602062,-0.5182184,0.24686882,16.126779556274414,1.9472126960754395,5.3466033935546875,-1.157322645187378,3.6948561668395996, 1.9890245199203491
66,2384610681,0.78723353,0.22583665,-0.51780325,0.24726759,16.08359718322754,1.9225541353225708,5.326380729675293,1.3080344200134277,4.00313138961792, 2.0392513275146484
67,2384627348,0.78744304,0.2255966,-0.5174347,0.24759035,15.670090675354004,2.0624444484710693,5.336112976074219,0.7487808465957642,3.770836114883423, 1.9285786151885986
68,2384644015,0.7877342,0.22509043,-0.5171702,0.24767755,16.243026733398438,1.8208091259002686,5.300498008728027,-1.6817684173583984,3.6007041931152344, 1.686564326286316
69,2384660682,0.7878792,0.22505815,-0.51674455,0.24813356,15.932987213134766,2.042365550994873,5.373371124267578,2.415911912918091,3.692756414413452, 1.8841538429260254
70,2384677349,0.78814596,0.22458291,-0.51648736,0.24825262,16.067441940307617,1.877663016319275,5.28464937210083,-1.5505672693252563,3.458066463470459, 1.7312198877334595
71,2384694016,0.7883466,0.2242707,-0.51621985,0.24845387,16.119314193725586,2.055037498474121,5.466516017913818,0.09820549190044403,3.166555643081665, 1.837538242340088
72,2384710683,0.7885585,0.22394481,-0.51595443,0.24862656,15.885998725891113,1.8982679843902588,5.272121906280518,-0.2860298752784729,3.156092882156372, 1.6425617933273315
73,2384727350,0.78877616,0.22362788,-0.5156838,0.24878316,16.045391082763672,1.9425405263900757,5.326062202453613,-0.3523154556751251,3.161548137664795, 1.4825847148895264
74,2384744017,0.7890208,0.2233275,-0.515372,0.24892329,16.12380027770996,2.0121428966522217,5.306288242340088,-0.05055947229266167,3.4536359310150146, 1.3252204656600952
75,2384760684,0.7892095,0.22315867,-0.5150344,0.24917534,15.909141540527344,1.9425675868988037,5.3143792152404785,1.1040419340133667,3.336266040802002, 1.4905377626419067
76,2384777351,0.7895316,0.22264095,-0.5147859,0.24913128,16.007402420043945,1.9177608489990234,5.263481140136719,-2.312391519546509,3.4587326049804688, 0.9806270003318787
77,2384794018,0.78974456,0.22250137,-0.51439106,0.24939634,15.813669204711914,2.0420563220977783,5.278685569763184,1.307457685470581,3.7017457485198975, 1.3072400093078613
78,2384810685,0.7900391,0.22219127,-0.5140248,0.24949537,16.136037826538086,1.8544299602508545,5.2122483253479,-0.22271524369716644,3.8904097080230713, 0.9815235733985901
79,2384827352,0.7902749,0.22194661,-0.5136753,0.24968606,15.890718460083008,1.9837881326675415,5.276915073394775,0.26573818922042847,3.6004865169525146, 1.2695767879486084
80,2384844019,0.79053825,0.22170442,-0.51331824,0.24980225,16.139949798583984,2.112384557723999,5.308058261871338,0.27102717757225037,3.6506614685058594, 0.91879802942276
81,2384860686,0.79074335,0.2215048,-0.51295215,0.25008154,15.76181697845459,1.8214350938796997,5.131222248077393,1.0408936738967896,3.6598689556121826, 1.6869099140167236
82,2384877353,0.7910626,0.22102802,-0.51266044,0.25009194,15.632780075073242,2.035385847091675,5.191653251647949,-1.4793636798858643,3.7514729499816895, 1.2189403772354126
83,2384894020,0.79129076,0.22071946,-0.5123426,0.2502944,15.980798721313477,1.7838163375854492,5.17966365814209,0.14838078618049622,3.563962936401367, 1.7295171022415161
84,2384910687,0.791493,0.22052065,-0.51197505,0.25058162,15.977986335754395,1.9943755865097046,5.293638229370117,1.304710865020752,3.7004330158233643, 1.8303090333938599
85,2384927354,0.79171556,0.22018193,-0.5117043,0.25072914,15.735448837280273,1.9895951747894287,5.20427942276001,-0.3517264425754547,3.2593507766723633, 1.5895050764083862
86,2384944021,0.79194844,0.21981323,-0.51142895,0.2508791,16.19588279724121,1.7262353897094727,5.238859176635742,-0.3821159303188324,3.391166925430298, 1.7439115047454834
87,2384960688,0.79215837,0.21957445,-0.51110005,0.25109586,15.741362571716309,2.0462887287139893,5.228530406951904,0.4964829981327057,3.4670441150665283, 1.5248329639434814
88,2384977355,0.79241765,0.21928805,-0.51076525,0.25120938,16.064435958862305,1.8025466203689575,5.219770908355713,0.055381063371896744,3.6244211196899414, 1.1478395462036133
89,2384994022,0.79267323,0.21900871,-0.5104403,0.25130683,15.9729642868042,1.9675110578536987,5.1924519538879395,0.10696504265069962,3.535109758377075, 1.0916197299957275
90,2385010689,0.79298115,0.2186343,-0.51008874,0.2513756,15.929458618164062,1.7458456754684448,5.137181758880615,-0.5743007063865662,3.984048843383789, 1.1290141344070435
91,2385027356,0.7932463,0.218335,-0.5097465,0.2514936,16.003063201904297,2.066333055496216,5.275312900543213,0.09161023050546646,3.730278491973877, 1.2353709936141968
92,2385044023,0.79350746,0.218122,-0.5093115,0.25173527,15.694877624511719,1.7223832607269287,5.069734573364258,1.0478605031967163,4.2451581954956055, 1.428593397140503
93,2385060690,0.79382014,0.2176113,-0.5090745,0.25167078,15.977331161499023,2.0565528869628906,5.191933631896973,-1.912398099899292,3.413539171218872, 1.0750868320465088
94,2385077357,0.7940183,0.21760961,-0.5085855,0.25203586,16.074552536010742,1.8066473007202148,5.204636096954346,2.640010118484497,4.119284629821777, 1.3130415678024292
95,2385094024,0.79426706,0.21732244,-0.50826615,0.25214377,15.797268867492676,2.10414457321167,5.141870498657227,0.1827274113893509,3.5130317211151123, 1.2374712228775024
96,2385110691,0.79457366,0.21693198,-0.5079508,0.25214896,15.771072387695312,1.8616130352020264,5.072019100189209,-1.0543981790542603,3.6994669437408447, 0.8492724299430847
97,2385127358,0.79484254,0.21666138,-0.5075807,0.25227997,15.99164867401123,2.0092380046844482,5.193408012390137,0.14820149540901184,3.844383478164673, 1.0831419229507446
98,2385144025,0.7951041,0.21646596,-0.5071936,0.25240207,16.017820358276367,2.0063059329986572,5.2957916259765625,0.5851414799690247,3.7715024948120117, 0.7698218822479248
99,2385160692,0.7953375,0.2162575,-0.5068349,0.25256628,15.858054161071777,1.9653818607330322,5.084588050842285,0.8109173774719238,3.617263078689575, 1.2113463878631592
100,2385177359,0.7956245,0.21572538,-0.5066409,0.25250596,16.10776138305664,1.8465652465820312,5.185136795043945,-2.4107184410095215,3.110783815383911, 1.1259021759033203
101,2385194026,0.7957903,0.21559022,-0.50631595,0.25275072,15.717302322387695,2.0577609539031982,5.203955173492432,1.5483325719833374,3.197969913482666, 1.5745086669921875
102,2385210693,0.7960445,0.21520616,-0.50605565,0.25279894,15.727973937988281,1.7933326959609985,4.931084632873535,-0.8656964898109436,3.2847843170166016, 1.254798173904419
103,2385227360,0.7962251,0.21494937,-0.5058075,0.2529454,16.055383682250977,2.1023776531219482,5.257227897644043,0.21703562140464783,2.888683319091797, 1.4751954078674316
104,2385244027,0.79640377,0.2147957,-0.50549793,0.2531326,15.960515022277832,1.829437255859375,5.139322757720947,1.1603256464004517,3.1133322715759277, 1.3168320655822754
105,2385260694,0.79662865,0.21447945,-0.50525004,0.25318748,15.896547317504883,1.9803557395935059,5.021857738494873,-0.4289230406284332,3.0227911472320557, 1.13861882686615
106,2385277361,0.79685205,0.21422283,-0.50497985,0.25324124,15.62476634979248,2.008484363555908,5.045539855957031,0.04878578707575798,3.0494158267974854, 0.9520816206932068
107,2385294028,0.79713917,0.2139209,-0.5046472,0.25325534,15.940986633300781,1.6485776901245117,4.985532760620117,-0.34135326743125916,3.636869192123413, 0.6842880845069885
108,2385310695,0.79735774,0.21381257,-0.50427693,0.2533964,15.618450164794922,2.0416719913482666,5.069303512573242,1.189024806022644,3.4510228633880615, 0.7046117186546326
109,2385327362,0.79765,0.2134997,-0.5039854,0.25332046,15.661768913269043,1.9693838357925415,4.949568748474121,-0.9126188158988953,3.3175549507141113, 0.22580792009830475
110,2385344029,0.7978551,0.21341391,-0.50363535,0.2534428,15.928444862365723,1.7792476415634155,5.041029453277588,1.1903694868087769,3.235069751739502, 0.5670203566551208
111,2385360696,0.7980886,0.21326075,-0.50330037,0.25350156,15.533183097839355,2.0113167762756348,5.030776500701904,0.7801563739776611,3.3005995750427246, 0.5436743497848511
112,2385377363,0.7983,0.21308531,-0.5030129,0.2535543,15.550652503967285,1.9126945734024048,4.889252662658691,0.37294015288352966,2.9823365211486816, 0.5977044105529785
113,2385394030,0.79856217,0.21278562,-0.50276077,0.25348094,15.68368148803711,1.8438866138458252,5.033534049987793,-0.7000463604927063,3.01637601852417, 0.3896140158176422
114,2385410697,0.79877436,0.21259163,-0.5024851,0.2535219,15.867742538452148,1.7916001081466675,4.942376136779785,0.2822199761867523,2.953906536102295, 0.6540395617485046
115,2385427364,0.7990121,0.2124077,-0.5021827,0.2535261,15.402166366577148,2.0456035137176514,4.91106653213501,0.36567890644073486,3.137895107269287, 0.40627506375312805
116,2385444031,0.7992793,0.21205172,-0.5019351,0.2534722,15.529946327209473,2.015650987625122,4.932819366455078,-0.8115639686584473,3.1676056385040283, 0.7694118618965149
117,2385460698,0.7994464,0.21200347,-0.5015705,0.25370654,15.845251083374023,1.7127037048339844,4.9552388191223145,1.8272807598114014,3.3280954360961914, 1.104195475578308
118,2385477365,0.7997099,0.21168388,-0.5012943,0.25368872,15.242537498474121,2.0594186782836914,4.814191818237305,-0.6230674386024475,3.304211378097534, 0.7157533764839172
119,2385494032,0.79992574,0.21140617,-0.50103754,0.25374782,15.631041526794434,1.8146982192993164,4.873386383056641,-0.2211400419473648,3.0698935985565186, 1.0488593578338623
120,2385510699,0.8001232,0.21125482,-0.5007278,0.2538622,15.309998512268066,1.9619570970535278,4.864322662353516,0.8287052512168884,3.167990207672119, 0.895490288734436
121,2385527366,0.80034506,0.21091048,-0.5005586,0.25378302,15.461835861206055,1.8953484296798706,4.839176177978516,-0.9221340417861938,2.552119731903076, 0.7898252010345459
122,2385544033,0.8005186,0.21081589,-0.5002598,0.25390404,15.380915641784668,1.9301667213439941,4.795997142791748,1.1351996660232544,2.9299967288970947, 0.7754821181297302
123,2385560700,0.8006752,0.21056612,-0.50009006,0.25395074,15.301706314086914,2.0095365047454834,4.86682653427124,-0.022270241752266884,2.3340535163879395, 1.1955047845840454
124,2385577367,0.8008742,0.21026592,-0.49991074,0.25392565,15.5942964553833,1.8472753763198853,4.73667573928833,-0.49910181760787964,2.5191304683685303, 0.9354462027549744
125,2385594034,0.8010509,0.21015446,-0.4996291,0.25401503,15.39450454711914,1.961043357849121,4.775857448577881,1.0789287090301514,2.839686632156372, 0.7730361819267273
126,2385610701,0.8012401,0.2099136,-0.49940914,0.25404954,15.14395523071289,1.993435263633728,4.734110355377197,-0.1895083487033844,2.6729860305786133, 0.859555721282959
127,2385627368,0.8014827,0.20960082,-0.49921018,0.25393385,15.243317604064941,1.9531421661376953,4.691409587860107,-0.9830154776573181,2.664905548095703, 0.33975887298583984
128,2385644035,0.80168825,0.20930293,-0.49905014,0.25384519,15.26340389251709,1.9296269416809082,4.703460693359375,-0.965112030506134,2.3289947509765625, 0.4858536720275879
129,2385660702,0.80185956,0.20917544,-0.4988234,0.25385436,15.32039737701416,1.9481780529022217,4.739552021026611,0.4036497473716736,2.4200737476348877, 0.36850911378860474
130,2385677369,0.80201244,0.20908567,-0.4985887,0.25390655,15.112493515014648,1.7892791032791138,4.6157989501953125,1.0904285907745361,2.4195871353149414, 0.6524130702018738
131,2385694036,0.80215573,0.20894583,-0.49842805,0.25388443,15.152522087097168,2.1080527305603027,4.756732940673828,0.2562614381313324,1.9513225555419922, 0.4377017915248871
132,2385710703,0.80230653,0.20880331,-0.4982597,0.2538557,15.030707359313965,1.7403074502944946,4.543646812438965,0.41945281624794006,2.0305428504943848, 0.497904509305954
133,2385727370,0.80245155,0.20860794,-0.49814934,0.25377476,15.012367248535156,2.0274946689605713,4.654913425445557,-0.28924423456192017,1.7047622203826904, 0.40553227066993713
134,2385744037,0.80256546,0.20850593,-0.49799368,0.25380388,15.085308074951172,1.804004430770874,4.5408935546875,0.690012514591217,1.8453116416931152, 0.6679471135139465
135,2385760704,0.8027094,0.20832543,-0.49789104,0.25369838,15.286811828613281,1.9398088455200195,4.619855880737305,-0.12501558661460876,1.620765209197998, 0.3337014317512512
136,2385777371,0.8028054,0.20823687,-0.4977609,0.25372228,14.885027885437012,1.8392181396484375,4.484022617340088,0.7557602524757385,1.6290892362594604, 0.680202841758728
137,2385794038,0.80292344,0.2080062,-0.49771598,0.25362644,15.0827054977417,2.0093610286712646,4.569487571716309,-0.4437656104564667,1.3288700580596924, 0.6861321926116943
138,2385810705,0.8029987,0.20794518,-0.49759012,0.25368538,15.206461906433105,1.727591633796692,4.4318928718566895,1.0430066585540771,1.5510985851287842, 0.8253756165504456
139,2385827372,0.8030922,0.20773597,-0.4975536,0.25363192,14.767518997192383,1.9767359495162964,4.489760398864746,-0.3006290793418884,1.2319259643554688, 0.8289743065834045
140,2385844039,0.80316305,0.20755032,-0.4975542,0.25355843,15.070608139038086,1.7460713386535645,4.512059688568115,-0.10928938537836075,0.8959385752677917, 0.8253371715545654
141,2385860706,0.80321515,0.20738572,-0.49758044,0.2534766,15.240982055664062,1.7835264205932617,4.581351280212402,-0.08143557608127594,0.6482894420623779, 0.7539162635803223
142,2385877373,0.80320853,0.20727341,-0.49766132,0.25343063,14.845531463623047,1.7713196277618408,4.405635833740234,0.3783571720123291,0.11809374392032623, 0.9880418181419373
143,2385894040,0.8032076,0.20708796,-0.4977773,0.25335786,14.85246467590332,1.7537288665771484,4.387555122375488,-0.38243600726127625,0.030280614271759987, 1.0226318836212158
144,2385910707,0.8031949,0.20688584,-0.49793792,0.25324768,15.208086013793945,1.8794432878494263,4.4908037185668945,-0.5036353468894958,-0.26146724820137024, 1.0482189655303955
145,2385927374,0.8032072,0.20670907,-0.4980184,0.25319412,14.940130233764648,1.6155471801757812,4.322988033294678,-0.18679340183734894,0.3070642352104187, 1.053367018699646
146,2385944041,0.80323607,0.20645554,-0.4981363,0.25307783,14.8123779296875,1.8629775047302246,4.308553218841553,-1.0325120687484741,0.20603497326374054, 0.9268532395362854
147,2385960708,0.80324477,0.20638967,-0.4981361,0.25310403,15.180376052856445,1.6119410991668701,4.334994316101074,0.6280298233032227,0.6705980896949768, 0.8887541890144348
148,2385977375,0.8032806,0.2062671,-0.49817342,0.25301683,14.966019630432129,1.7521592378616333,4.351131916046143,-0.1344282478094101,0.5099679827690125, 0.4854438006877899
149,2385994042,0.8033106,0.2060944,-0.49825045,0.25291103,14.747178077697754,1.805822491645813,4.287808418273926,-0.3117961883544922,0.35494717955589294, 0.7510347366333008
150,2386010709,0.803345,0.2058717,-0.49833575,0.2528145,15.115560531616211,1.6791924238204956,4.318264961242676,-0.6912996172904968,0.42626577615737915, 0.9164671897888184
151,2386027376,0.8033221,0.20574726,-0.49844453,0.2527745,14.745579719543457,1.8126285076141357,4.295865058898926,0.14521759748458862,0.01650097966194153, 1.057964563369751
152,2386044043,0.8032935,0.20550203,-0.4986819,0.25259662,14.800161361694336,1.7325119972229004,4.294526100158691,-1.370932698249817,-0.7079222798347473, 0.8116984367370605
153,2386060710,0.8031395,0.20552027,-0.4989795,0.25248334,15.031513214111328,1.6190358400344849,4.423182010650635,0.48062863945961,-1.8345603942871094, 0.6257757544517517
154,2386077377,0.802957,0.20543349,-0.49951258,0.25208017,14.77085018157959,1.89615797996521,4.391427040100098,-1.6081701517105103,-3.470930814743042, -0.31994107365608215
155,2386094044,0.8027503,0.20526995,-0.50018865,0.2515311,14.925371170043945,1.6661872863769531,4.172636985778809,-2.7266130447387695,-4.420496463775635, -0.6034352779388428
156,2386110711,0.8024725,0.20532751,-0.5008294,0.2510955,14.792679786682129,1.858770489692688,4.164971351623535,-1.1135120391845703,-4.699891567230225, -0.7574059367179871
157,2386127378,0.8022023,0.2052237,-0.50159585,0.25051218,14.546476364135742,1.8797402381896973,4.126495838165283,-2.634829521179199,-5.2917890548706055, -0.7895243167877197
158,2386144045,0.8019482,0.20490783,-0.5025103,0.24975082,14.805167198181152,1.9196510314941406,4.079695224761963,-4.71341609954834,-5.940431594848633, -0.866106390953064
159,2386160712,0.8016504,0.20462154,-0.50342315,0.24910243,14.742766380310059,1.6668592691421509,3.9142677783966064,-4.312192440032959,-5.981897354125977, -0.39215606451034546
160,2386177379,0.8013129,0.20435512,-0.5043537,0.24852434,14.696263313293457,1.8273541927337646,3.9268808364868164,-3.837512493133545,-6.142259120941162, 0.07282330840826035
161,2386194046,0.8010144,0.2040383,-0.5052709,0.24788259,14.783293724060059,1.715956687927246,3.8513498306274414,-4.4530253410339355,-5.936167240142822, -0.23425379395484924
162,2386210713,0.80072546,0.20391278,-0.5059928,0.24744648,14.7583646774292,1.5862834453582764,3.6169886589050293,-2.5070862770080566,-4.8641204833984375, -0.13614429533481598
163,2386227380,0.8005893,0.20380637,-0.50648564,0.2469659,14.708796501159668,1.577520728111267,3.595716714859009,-2.5242466926574707,-3.1608119010925293, -1.1113861799240112
164,2386244047,0.80051666,0.2039907,-0.50671047,0.24658765,14.752313613891602,1.239937424659729,3.6129391193389893,-0.14673514664173126,-1.8031980991363525, -2.01363205909729
165,2386260714,0.800419,0.20451309,-0.5068032,0.24628104,14.135078430175781,1.5423755645751953,3.6948468685150146,2.3109641075134277,-1.6223087310791016, -2.898512840270996
166,2386277381,0.80056876,0.20447789,-0.5070497,0.2453142,14.690681457519531,1.8503589630126953,3.7587077617645264,-3.8688886165618896,-1.5944548845291138, -4.906151294708252
167,2386294048,0.80074185,0.20460117,-0.5070881,0.24456586,14.421577453613281,1.3588061332702637,3.159339427947998,-1.7004400491714478,-0.3118218183517456, -4.458953380584717
168,2386310715,0.8009394,0.20486233,-0.50689435,0.24410157,14.170182228088379,2.02107310295105,3.4306983947753906,0.26143527030944824,1.2310426235198975, -3.8294451236724854
169,2386327382,0.80110544,0.20517233,-0.5066171,0.24387209,13.755797386169434,1.899292230606079,3.537395715713501,1.4688819646835327,1.8370261192321777, -2.7971630096435547
170,2386344049,0.8012166,0.20513992,-0.50659823,0.24357294,13.902836799621582,2.1620655059814453,3.6783573627471924,-1.171614646911621,0.6964797377586365, -1.6124860048294067
171,2386360716,0.8011604,0.20493895,-0.506895,0.24330932,13.715795516967773,2.0884692668914795,3.7615087032318115,-2.2188663482666016,-1.28609037399292, -0.06264865398406982
172,2386377383,0.80093193,0.20446287,-0.5076238,0.24294274,13.71513843536377,1.7915091514587402,3.7019946575164795,-4.532871246337891,-3.9467756748199463, 1.2596516609191895
173,2386394050,0.80053526,0.20378879,-0.5087763,0.24240528,13.462839126586914,2.106060743331909,3.702420949935913,-6.6231770515441895,-6.769002437591553, 1.9290785789489746
174,2386410717,0.8000549,0.20299536,-0.5100784,0.24191977,13.652120590209961,1.5040676593780518,3.2278339862823486,-7.598266124725342,-7.622777938842773, 2.7866437435150146
175,2386427384,0.799408,0.20250838,-0.51137894,0.24172074,13.321383476257324,1.8264408111572266,3.4014830589294434,-4.570869445800781,-8.290231704711914, 3.6200170516967773
176,2386444051,0.79876184,0.20172575,-0.5129357,0.24121225,13.454273223876953,1.9475069046020508,3.4634854793548584,-7.750406265258789,-9.627280235290527, 3.3005754947662354
177,2386460718,0.79806936,0.2008054,-0.5146222,0.24067956,13.371810913085938,1.4458156824111938,3.042443037033081,-8.897997856140137,-10.304430961608887, 3.8377773761749268
178,2386477385,0.79734755,0.19998583,-0.51625097,0.24026562,13.058955192565918,1.7205750942230225,3.0990993976593018,-7.670955657958984,-10.074684143066406, 4.167694568634033
179,2386494052,0.79667467,0.19914424,-0.51781356,0.23983404,13.223156929016113,1.459136962890625,2.924560546875,-8.042149543762207,-9.519412994384766, 3.8630309104919434
180,2386510719,0.79608846,0.19847503,-0.51911145,0.23952901,13.198482513427734,1.196133017539978,2.624035120010376,-6.274588108062744,-7.856940746307373, 3.4694652557373047
181,2386527386,0.79558647,0.19824572,-0.51996756,0.23952994,13.015223503112793,0.998376190662384,2.591592788696289,-2.3590710163116455,-5.435220718383789, 2.723174571990967
182,2386544053,0.7951949,0.1984226,-0.52046293,0.23960848,12.831786155700684,1.1803523302078247,2.6552741527557373,0.6017768383026123,-3.6229166984558105, 1.0221326351165771
183,2386560720,0.7950213,0.1986144,-0.52069724,0.23951624,12.771101951599121,1.0100761651992798,2.5346431732177734,0.2900446355342865,-1.6715360879898071, -0.6397027969360352
184,2386577387,0.79489106,0.19932432,-0.52056193,0.23965275,12.686875343322754,1.1697537899017334,2.730870008468628,4.452748775482178,-0.03648529201745987, -1.8487247228622437
185,2386594054,0.7947932,0.20012416,-0.52031785,0.23984075,12.331461906433105,1.396435260772705,2.615385055541992,5.249905586242676,0.5914677381515503, -2.1025338172912598
186,2386610721,0.7947507,0.20087636,-0.5199427,0.24016632,12.398381233215332,1.3961697816848755,2.4413864612579346,5.699741363525391,1.7693828344345093, -1.409710168838501
187,2386627388,0.79464257,0.20170929,-0.5194583,0.24087264,12.303139686584473,1.7663536071777344,2.6554672718048096,7.716819763183594,2.523895263671875, 0.31153371930122375
188,2386644055,0.7945059,0.20227262,-0.5190762,0.24167371,12.055996894836426,1.6239099502563477,2.439420461654663,6.580831527709961,2.4375030994415283, 2.0575642585754395
189,2386660722,0.79411256,0.2032666,-0.5185671,0.24322088,11.861284255981445,1.527482509613037,2.4843785762786865,12.148399353027344,2.538098096847534, 4.842794418334961
190,2386677389,0.79347634,0.20448591,-0.518175,0.24510314,11.411967277526855,2.0432863235473633,2.7864584922790527,14.673776626586914,1.1228808164596558, 6.4191813468933105
191,2386694056,0.7926542,0.20560576,-0.51816213,0.24684751,11.917521476745605,1.73245370388031,2.8110973834991455,13.421878814697266,-1.6424283981323242, 6.965205669403076
192,2386710723,0.791426,0.20748015,-0.51821035,0.24910812,12.81017017364502,1.9716596603393555,2.863368034362793,19.800987243652344,-3.976301431655884, 7.851220607757568
193,2386727390,0.79008055,0.20905069,-0.51857793,0.25129178,12.462728500366211,2.5011723041534424,2.733055591583252,17.640024185180664,-5.715956687927246, 9.256373405456543
194,2386744057,0.78864485,0.20984694,-0.51943135,0.253367,11.427497863769531,2.643390655517578,2.9731059074401855,12.424253463745117,-7.490262985229492, 12.349900245666504
195,2386760724,0.7874091,0.21159396,-0.51929814,0.2560167,11.923867225646973,2.1938018798828125,3.385270357131958,21.154577255249023,-2.261349678039551, 10.37060832977295
196,2386777391,0.7875166,0.21978429,-0.51359797,0.2602493,11.423738479614258,7.330251693725586,4.28396463394165,69.61474609375,23.6217098236084, -14.47999095916748
197,2386794058,0.7874484,0.22939615,-0.5076623,0.26378325,10.80555534362793,2.769824981689453,0.4399701952934265,76.1836166381836,20.66366958618164, -22.866073608398438
198,2386810725,0.78528726,0.24129641,-0.5036039,0.267364,9.027904510498047,3.6946091651916504,-1.3255369663238525,88.7652587890625,-0.8111656308174133, -23.766298294067383
199,2386827392,0.7820541,0.25319016,-0.50194556,0.26895487,9.299607276916504,3.2925686836242676,-1.073635458946228,79.50100708007812,-20.666730880737305, -28.35997772216797
200,2386844059,0.77777284,0.26496285,-0.50273746,0.26854992,9.020184516906738,3.3699729442596436,-4.617197036743164,69.36461639404297,-40.6168327331543, -32.41559982299805
201,2386860726,0.7724979,0.27502272,-0.5077652,0.2641665,9.654044151306152,4.247058391571045,-5.802309513092041,40.489139556884766,-70.63282012939453, -38.20218276977539
202,2386877393,0.7674248,0.27951357,-0.51824063,0.25368875,9.138176918029785,5.657517433166504,-3.4383366107940674,-20.647024154663086,-100.11260986328125, -41.18703079223633
203,2386894060,0.7624955,0.28114796,-0.53121483,0.23951462,7.731568336486816,3.298661947250366,-3.44347882270813,-53.90447998046875,-114.87953186035156, -46.06690979003906
204,2386910727,0.75617033,0.28493953,-0.5438481,0.22637427,7.673949718475342,1.646752119064331,-2.621800661087036,-36.143497467041016,-119.77728271484375, -47.086830139160156
205,2386927394,0.7487079,0.29042903,-0.5558027,0.21487463,7.133843421936035,1.336581826210022,-1.7389919757843018,-18.321151733398438,-119.97640991210938, -44.61321258544922
206,2386944061,0.7410116,0.2959013,-0.5670919,0.20433062,7.251706600189209,0.8489114046096802,-0.21617230772972107,-13.579723358154297,-115.56898498535156, -40.69050598144531
207,2386960728,0.73373705,0.29957357,-0.5782133,0.19379206,7.347437381744385,1.0075349807739258,0.4876042604446411,-23.817298889160156,-110.67781829833984, -34.676700592041016
208,2386977395,0.72758365,0.29980263,-0.5896891,0.18167923,7.505218505859375,1.1408137083053589,0.5185486078262329,-50.49700164794922,-106.79981994628906, -29.71260643005371
209,2386994062,0.7229589,0.29624996,-0.6010395,0.16827965,8.808059692382812,-0.8013153672218323,1.6821538209915161,-77.81983947753906,-98.03105926513672, -22.964813232421875
210,2387010729,0.718675,0.293116,-0.61057425,0.15744357,9.532414436340332,-0.5248400568962097,1.8158336877822876,-63.87576675415039,-83.00203704833984, -16.06278419494629
211,2387027396,0.71597666,0.28853488,-0.6180371,0.14884645,12.674363136291504,-3.505150079727173,7.095749855041504,-62.532474517822266,-60.12242126464844, -4.824780464172363
212,2387044063,0.7146628,0.286482,-0.620687,0.14809723,14.35313606262207,-3.284857988357544,14.060428619384766,-14.410736083984375,-17.749155044555664, 11.97986125946045
213,2387060730,0.7152328,0.28487143,-0.6206473,0.1486179,14.154810905456543,5.4176435470581055,3.594542980194092,-7.661466598510742,5.203741550445557, 8.985124588012695
214,2387077397,0.7153723,0.2818724,-0.6228223,0.14450896,20.669666290283203,2.1636126041412354,-4.018755912780762,-35.717918395996094,-15.277287483215332, -2.9768776893615723
215,2387094064,0.7130052,0.28333092,-0.62435246,0.14673595,9.843279838562012,-4.632452487945557,2.1560001373291016,18.842931747436523,-14.856231689453125, 10.315865516662598
216,2387110731,0.711786,0.28334275,-0.62556684,0.14745846,5.607301712036133,3.0719382762908936,1.5275002717971802,3.3694872856140137,-9.921469688415527, 7.256216526031494
217,2387127398,0.71204555,0.2819856,-0.62657523,0.14449558,4.252873420715332,3.426623582839966,-1.7939021587371826,-21.84147834777832,-8.392875671386719, -6.690460681915283
218,2387144065,0.71165353,0.2825934,-0.627605,0.14072071,7.627013683319092,1.5998409986495972,-5.296551704406738,-14.475414276123047,-14.795281410217285, -18.3303165435791
219,2387160732,0.7110223,0.28485063,-0.6277434,0.1387282,8.684940338134766,0.5856990814208984,-1.0634578466415405,2.541264057159424,-9.492568016052246, -18.17538833618164
220,2387177399,0.71020573,0.28862914,-0.62697786,0.13856305,9.518028259277344,2.0587711334228516,-0.37700197100639343,19.04384994506836,-3.761528253555298, -17.382984161376953
221,2387194066,0.7096355,0.2919168,-0.62602556,0.13890395,7.552055358886719,2.3833651542663574,-1.6303294897079468,18.51346206665039,-0.332555890083313, -13.360272407531738
222,2387210733,0.7095952,0.2936162,-0.6253265,0.13867606,6.485538482666016,4.571626663208008,-0.9530479907989502,6.915309906005859,1.06731379032135, -9.211522102355957
223,2387227400,0.70980686,0.29417017,-0.62484103,0.13860695,7.558427333831787,2.5058209896087646,-1.2836908102035522,1.2591906785964966,2.5040574073791504, -3.188934564590454
224,2387244067,0.70973945,0.29470012,-0.6244215,0.13971351,6.939388751983643,2.9629013538360596,-1.1642853021621704,6.606624126434326,3.357473373413086, 3.1324656009674072
225,2387260734,0.7100132,0.2931152,-0.62486404,0.13967769,6.889595985412598,2.1791672706604004,-0.7158250212669373,-10.062018394470215,0.37849828600883484, 8.09315013885498
226,2387277401,0.7099814,0.29148108,-0.62570024,0.13951555,6.786859512329102,2.0094637870788574,-0.8501854538917542,-10.620760917663574,-3.073051929473877, 8.82219123840332
227,2387294068,0.7097659,0.29026672,-0.6265525,0.13931894,6.211028099060059,2.200000762939453,-0.5681238770484924,-8.34926986694336,-4.4037604331970215, 7.0874528884887695
228,2387310735,0.7097436,0.28879768,-0.62750727,0.13818347,6.5370330810546875,2.0646679401397705,-0.288921058177948,-14.156599044799805,-5.7292070388793945, 3.6875977516174316
229,2387327402,0.70989823,0.28769746,-0.62807447,0.13710316,6.712766647338867,0.7340424060821533,-1.3834202289581299,-12.126838684082031,-3.3487601280212402, 1.4821245670318604
230,2387344069,0.709807,0.28804103,-0.6279984,0.13720243,6.792466640472412,1.5136374235153198,-1.161399483680725,1.0573753118515015,-0.30748042464256287, -0.013011250644922256
231,2387360736,0.70980304,0.2882535,-0.62784624,0.13747223,6.299389839172363,2.8531816005706787,-1.105104923248291,1.0465668439865112,0.910640299320221, 1.1768842935562134
232,2387377403,0.7093276,0.2885574,-0.628183,0.13775094,5.784781455993652,1.6090075969696045,0.3765849173069,2.0542349815368652,-3.5395348072052, 2.276296854019165
233,2387394070,0.707996,0.28901112,-0.6295666,0.13733333,3.915783405303955,3.2107436656951904,0.5108636617660522,0.44598785042762756,-13.929245948791504, 1.181854009628296
234,2387410737,0.7074345,0.287755,-0.63112205,0.13571534,6.668079853057861,1.5960619449615479,-1.0785341262817383,-14.7960786819458,-12.271136283874512, 2.475656032562256
235,2387427404,0.7067073,0.28907824,-0.63103855,0.13707384,6.127986907958984,2.434904098510742,-1.074271321296692,12.54069709777832,-1.5116881132125854, 2.6828489303588867
236,2387444071,0.7067594,0.28882796,-0.63101435,0.13744381,5.6469573974609375,2.522709369659424,-1.3753390312194824,-1.1003342866897583,1.0560435056686401, 4.203382968902588
237,2387460738,0.70587707,0.28942537,-0.63150895,0.13844544,4.958675384521484,0.9918798804283142,1.0453935861587524,7.122874736785889,-5.038596153259277, 5.56227970123291
238,2387477405,0.70409286,0.29035982,-0.63297427,0.13888231,3.8329267501831055,3.470919370651245,0.47307977080345154,7.223410129547119,-15.146637916564941, 4.144286632537842
239,2387494072,0.70251995,0.2903543,-0.63468724,0.13904001,5.103004455566406,1.2684366703033447,-1.7076112031936646,0.7916315793991089,-15.131956100463867, 7.296647548675537
240,2387510739,0.69995725,0.29218668,-0.6362623,0.14091612,5.918960094451904,1.1777076721191406,-0.6901405453681946,19.14000129699707,-17.151405334472656, 8.373291969299316
241,2387527406,0.69664216,0.2942771,-0.6387557,0.14171183,4.767253398895264,0.4307936429977417,1.243188738822937,16.302677154541016,-27.262474060058594, 4.6302361488342285
242,2387544073,0.69146943,0.29786623,-0.64248633,0.14267866,3.203214406967163,0.7829002737998962,1.8614022731781006,26.803709030151367,-42.525146484375, 3.2065532207489014
243,2387560740,0.6859305,0.30043107,-0.6473761,0.14193286,3.1996874809265137,2.9320218563079834,-0.9657087326049805,13.969353675842285,-52.26828384399414, 2.4159748554229736
244,2387577407,0.6800341,0.30339468,-0.6522267,0.14179534,4.705255508422852,1.1189484596252441,-1.527164101600647,19.345109939575195,-52.791080474853516, 3.912851095199585
245,2387594074,0.6739175,0.3067982,-0.6568436,0.14236143,4.942270278930664,0.3352782428264618,-1.0513348579406738,25.291698455810547,-51.58625411987305, 4.98001766204834
246,2387610741,0.66811603,0.30933127,-0.66172785,0.14160323,2.458204507827759,3.2411746978759766,-0.13724370300769806,14.320463180541992,-53.360557556152344, 3.1098697185516357
247,2387627408,0.6645301,0.30828333,-0.6668039,0.1368715,4.266951560974121,1.7693971395492554,-3.1026148796081543,-25.05219078063965,-49.1369514465332, -0.47714412212371826
248,2387644075,0.6612713,0.30976143,-0.6696011,0.13565624,6.993861675262451,-1.7206491231918335,-3.699960708618164,4.0782551765441895,-32.06581115722656, -1.0739829540252686
249,2387660742,0.65770596,0.31363165,-0.6708558,0.13787937,5.067205905914307,1.209808588027954,-0.22389084100723267,32.839603424072266,-21.290477752685547, 0.4922594726085663
250,2387677409,0.65618676,0.31345502,-0.67274815,0.13629077,2.4922773838043213,5.037694931030273,-1.5118893384933472,-8.080716133117676,-19.178674697875977, 1.4500842094421387
251,2387694076,0.65662616,0.3116312,-0.6733825,0.13521898,5.717803001403809,-0.17256857454776764,-4.674950122833252,-16.13022804260254,-1.7515392303466797, 7.019877910614014
252,2387710743,0.6574231,0.31242448,-0.6714023,0.13930158,6.224386692047119,0.9565590023994446,-3.244514226913452,21.149267196655273,20.436246871948242, 12.234186172485352
253,2387727410,0.65920985,0.31276527,-0.66832536,0.14478132,4.2863874435424805,2.2776761054992676,-0.6906278133392334,24.344757080078125,33.416080474853516, 17.46385383605957
254,2387744077,0.66350186,0.3096366,-0.66483694,0.14792702,4.319012641906738,2.276594877243042,-2.544660806655884,-7.122928142547607,45.211666107177734, 19.528564453125
255,2387760744,0.6704271,0.30357727,-0.65986806,0.1514686,6.896479606628418,-0.9504746198654175,-5.247295379638672,-22.949602127075195,67.80440521240234, 29.09647560119629
256,2387777411,0.6788168,0.29784545,-0.65221745,0.15845656,6.469431400299072,0.33392617106437683,-4.404794692993164,-6.152621269226074,93.84455108642578, 36.238704681396484
257,2387794078,0.68826544,0.29404032,-0.6411268,0.16966878,7.178346633911133,0.3115624487400055,-2.389559268951416,23.21652603149414,121.34004974365234, 39.08882141113281
258,2387810745,0.69669914,0.29619154,-0.6261633,0.1865497,4.681333065032959,0.8457075953483582,-1.1001402139663696,82.80831146240234,139.7964630126953, 32.973419189453125
259,2387827412,0.70327574,0.29776016,-0.6135007,0.20089608,0.7817289233207703,1.3722103834152222,0.5081213116645813,70.3018798828125,116.70305633544922, 29.8362979888916
260,2387844079,0.706986,0.2981247,-0.60614425,0.20947999,-3.407203435897827,3.132606029510498,2.7717056274414062,39.17087173461914,69.0665512084961, 21.346662521362305
261,2387860746,0.7084486,0.29660523,-0.6045101,0.21140836,-6.296080112457275,2.2125768661499023,5.717398643493652,-1.043655514717102,20.970125198364258, 11.614965438842773
262,2387877413,0.7104154,0.2909325,-0.6065906,0.20667942,-7.342925071716309,0.8013172745704651,3.8539106845855713,-55.36403274536133,-2.879244804382324, 3.442711114883423
263,2387894080,0.71036816,0.28949603,-0.6086811,0.2026733,-5.6649489402771,-0.21354122459888458,-0.9858007431030273,-28.138731002807617,-16.397146224975586, -7.194405555725098
264,2387910747,0.7049196,0.29499894,-0.61415535,0.19717379,10.989847183227539,2.4741389751434326,7.753021240234375,5.549605369567871,-68.17692565917969, -29.216476440429688
265,2387927414,0.69545156,0.29903564,-0.6253339,0.18942681,8.399449348449707,-6.900172710418701,12.050361633300781,-10.578237533569336,-115.72754669189453, -16.78685188293457
266,2387944081,0.6856176,0.30050406,-0.63893855,0.177154,0.7506570816040039,5.141791820526123,-1.4232068061828613,-44.93181228637695,-135.65057373046875, -21.770835876464844
267,2387960748,0.679967,0.2964117,-0.65112185,0.16070323,0.49001970887184143,0.6240652203559875,-10.799965858459473,-96.536865234375,-112.53335571289062, -24.55854034423828
268,2387977415,0.67062557,0.3036387,-0.65787166,0.15896577,3.2890350818634033,1.0527591705322266,-2.2412846088409424,35.82698059082031,-85.65499877929688, -13.436760902404785
269,2387994082,0.6602846,0.31222063,-0.6635315,0.1620752,3.4430370330810547,4.710721015930176,1.8044657707214355,67.2220230102539,-76.45240783691406, 1.8380537033081055
270,2388010749,0.6564937,0.30947867,-0.66990405,0.15642121,2.732409715652466,2.5834691524505615,-6.595914363861084,-38.895809173583984,-56.04789733886719, 8.094996452331543
271,2388027416,0.65485686,0.30767342,-0.67279464,0.15442456,8.785246849060059,-3.206974506378174,-6.104231357574463,-18.697246551513672,-23.379573822021484, 10.70852279663086
272,2388044083,0.6535802,0.31077948,-0.6717354,0.15817945,5.719942092895508,-3.6314311027526855,-1.5155478715896606,33.43502426147461,3.268622398376465, 4.890348434448242
273,2388060750,0.6538756,0.3157403,-0.66752213,0.16483161,5.931951999664307,-1.6726315021514893,-2.360926389694214,55.14406204223633,28.86885643005371, 0.7917312383651733
274,2388077417,0.65591675,0.31981966,-0.66197735,0.17109895,3.484863042831421,2.2209744453430176,-4.240158557891846,47.09574890136719,43.099761962890625, -1.8696258068084717
275,2388094084,0.6608688,0.3214459,-0.6556166,0.17347041,4.160380840301514,7.696972370147705,-1.582379937171936,12.885931015014648,54.543212890625, -13.558906555175781
276,2388110751,0.6647951,0.32496682,-0.6490556,0.17655316,7.354299545288086,0.9021127223968506,-5.25214147567749,27.344139099121094,50.251922607421875, -18.09669303894043
277,2388127418,0.66345686,0.33416,-0.643515,0.18452856,4.001012802124023,4.78228759765625,-5.54725456237793,85.90240478515625,26.511089324951172, -12.975399017333984
278,2388144085,0.6601227,0.340655,-0.64308536,0.18610075,1.2281279563903809,3.818706750869751,-5.565681457519531,43.7454833984375,-16.50305938720703, -16.547767639160156
279,2388160752,0.6558968,0.34313676,-0.6470768,0.1826156,-1.7017929553985596,-1.5689228773117065,-2.1575920581817627,-0.30211707949638367,-47.0248908996582, -10.33521842956543
280,2388177419,0.65118057,0.34306622,-0.6529611,0.17863737,-3.6458473205566406,-6.267406463623047,0.49622592329978943,-15.319122314453125,-55.79794692993164, 4.039291858673096
281,2388194086,0.6451167,0.34286648,-0.6596198,0.17654736,-8.106950759887695,-5.23745059967041,-0.11288876831531525,-5.380049228668213,-60.97286605834961, 16.8164005279541
282,2388210753,0.6388501,0.34005383,-0.66870517,0.17049152,-10.212347030639648,-0.9822078347206116,-1.5448875427246094,-37.62352752685547,-79.07328033447266, 17.47231674194336
283,2388227420,0.63330966,0.33381137,-0.67956203,0.1602642,-6.955207347869873,-4.137154579162598,2.408007860183716,-75.81625366210938,-89.44593811035156, 18.839696884155273
284,2388244087,0.62819225,0.32571265,-0.69033426,0.150747,-10.84486198425293,-4.642450332641602,4.2828240394592285,-81.4855728149414,-83.72100067138672, 30.198118209838867
285,2388260754,0.6263891,0.31617057,-0.6979814,0.1431609,-10.63219165802002,-4.505214691162109,9.910784721374512,-82.65250396728516,-48.89036560058594, 34.91790771484375
286,2388277421,0.63043547,0.30442983,-0.70144135,0.13361868,-9.15942668914795,4.9801025390625,5.688162326812744,-109.98823547363281,-5.2381062507629395, 22.02027130126953
287,2388294088,0.6330409,0.29268607,-0.70741624,0.11470127,11.378546714782715,15.188081741333008,-5.420709133148193,-154.3505859375,-42.88530349731445, -12.033146858215332
288,2388310755,0.6339871,0.2909414,-0.70910037,0.10290958,15.146843910217285,5.021655559539795,6.512358665466309,-69.24688720703125,-25.658546447753906, -36.94075393676758
289,2388327422,0.6228169,0.3045796,-0.71215826,0.11027766,49.066741943359375,-20.38382911682129,15.208497047424316,114.58467864990234,-63.61903381347656, -17.012041091918945
290,2388344089,0.6164076,0.30599573,-0.71834266,0.101943485,-7.805346488952637,10.392899513244629,-3.847412109375,-26.99675178527832,-78.25767517089844, -22.092880249023438
291,2388360756,0.6188363,0.3008023,-0.72008014,0.089690365,-10.449965476989746,-4.483936786651611,-16.78360939025879,-89.73393249511719,-19.099754333496094, -21.360376358032227
292,2388377423,0.6191527,0.31430146,-0.71174437,0.1062288,-7.486837387084961,8.358798027038574,-6.4015421867370605,143.44984436035156,63.132728576660156, -13.548800468444824
293,2388394090,0.62271446,0.3238442,-0.7019207,0.12107601,18.822389602661133,-2.24357271194458,0.6051242351531982,111.49378967285156,83.496826171875, -3.314535617828369
294,2388410757,0.63281417,0.318788,-0.6945181,0.124761455,8.335970878601074,2.764925956726074,-1.2189866304397583,-21.645793914794922,91.7043685913086, 19.488039016723633
295,2388427424,0.6469353,0.31079608,-0.6842618,0.12909865,2.2909843921661377,-2.385847806930542,-8.285451889038086,-37.75602722167969,127.26792907714844, 26.536767959594727
296,2388444091,0.6578436,0.3125775,-0.6690612,0.14796752,3.8078200817108154,0.9539250135421753,-2.2685277462005615,85.10161590576172,156.76104736328125, 37.478492736816406
297,2388460758,0.66835177,0.31366017,-0.65414613,0.1643662,6.0632123947143555,3.3283026218414307,5.9808549880981445,71.07804107666016,149.24693298339844, 30.265790939331055
298,2388477425,0.6745781,0.3171514,-0.6413914,0.18159512,1.667434811592102,-3.9539616107940674,4.399555683135986,92.96437072753906,119.27690887451172, 31.94045066833496
299,2388494092,0.6745708,0.321325,-0.6351617,0.195638,-4.319136142730713,4.65844202041626,5.3043317794799805,88.37531280517578,54.19916915893555, 34.20867919921875
300,2388510759,0.67269456,0.32078698,-0.6378499,0.19423077,-6.716358661651611,4.4788055419921875,-3.732090711593628,-8.608433723449707,-23.157976150512695, 5.1183695793151855
301,2388527426,0.66060907,0.3315329,-0.6457664,0.19148843,-5.648540019989014,7.238403797149658,-13.637663841247559,53.155487060546875,-110.04694366455078, -25.02469825744629
302,2388544093,0.6424314,0.34388185,-0.6605045,0.18100038,-4.223363399505615,0.5215212106704712,-12.513245582580566,30.670684814453125,-187.5794677734375, -42.93796157836914
303,2388560760,0.61627954,0.36197758,-0.67749953,0.17368405,-2.6518516540527344,-4.029457092285156,-7.598573684692383,86.47782897949219,-233.09988403320312, -39.559715270996094
304,2388577427,0.58715874,0.37868398,-0.69492584,0.17006242,-5.680224418640137,-3.34773325920105,5.79771614074707,104.6981430053711,-237.71823120117188, -12.759675979614258
305,2388594094,0.5713063,0.37681267,-0.7136519,0.14940721,-13.651839256286621,-0.1902933120727539,16.5073184967041,-87.69071960449219,-202.41415405273438, -4.731541633605957
306,2388610761,0.57302165,0.36032444,-0.72593474,0.12178398,-15.07967472076416,-11.537374496459961,22.180505752563477,-218.27545166015625,-94.89348602294922, 6.8961310386657715
307,2388627428,0.57723874,0.35495886,-0.7261767,0.11604944,-14.245865821838379,-4.542799472808838,-21.716354370117188,-61.2318115234375,9.171833992004395, 5.946191310882568
308,2388644095,0.5754335,0.35363993,-0.7289541,0.111540705,26.91346549987793,18.958301544189453,5.0376386642456055,-26.538827896118164,-30.52040672302246, 1.6720386743545532
309,2388660762,0.5822366,0.34832564,-0.72800887,0.0983524,7.376567840576172,15.428025245666504,6.483052730560303,-103.72832489013672,8.780769348144531, -27.93722152709961
310,2388677429,0.5852882,0.35183978,-0.7231684,0.103314884,25.220335006713867,-10.845011711120605,-2.5410568714141846,34.22028350830078,42.84614562988281, -6.108770847320557
311,2388694096,0.58267826,0.36887905,-0.7137198,0.12255007,15.575364112854004,-3.0508899688720703,-0.5253108739852905,176.4412078857422,58.04377365112305, -23.164731979370117
312,2388710763,0.5911247,0.36424902,-0.70910645,0.12272899,15.11269474029541,-6.8032450675964355,-0.04869161546230316,-36.02943420410156,63.007171630859375, 8.975940704345703
313,2388727430,0.5991303,0.35882232,-0.70432556,0.12733851,13.374104499816895,-6.89386510848999,0.47121351957321167,-16.512401580810547,73.20440673828125, 30.466615676879883
314,2388744097,0.6053144,0.3558798,-0.69789726,0.14100997,6.290688514709473,4.751039981842041,4.698075771331787,43.443626403808594,91.30998229980469, 52.977699279785156
315,2388760764,0.612487,0.3519911,-0.6904385,0.15574634,-0.3484137952327728,8.332958221435547,6.1294169425964355,43.29199981689453,103.99272918701172, 57.76383972167969
316,2388777431,0.61838853,0.3563089,-0.677928,0.17621918,-6.998225688934326,7.215720176696777,3.3106613159179688,113.69113159179688,124.44232940673828, 31.6488094329834
317,2388794098,0.61983603,0.35445133,-0.67617774,0.18152452,-12.410975456237793,10.513235092163086,-4.1776933670043945,15.330885887145996,28.93889045715332, 24.784948348999023
318,2388810765,0.62287843,0.3449469,-0.6811699,0.17041606,-10.079227447509766,2.2315468788146973,-0.9244886040687561,-106.09996795654297,-22.791202545166016, 6.043176651000977
319,2388827432,0.62299085,0.34274405,-0.68330944,0.1658228,-8.776634216308594,-4.546111106872559,-0.2659308612346649,-34.52255630493164,-17.781980514526367, -1.4100251197814941
320,2388844099,0.62601817,0.34174496,-0.6813946,0.16435705,-12.131704330444336,-4.689265727996826,7.057365894317627,-16.969581604003906,19.311466217041016, -6.524709224700928
321,2388860766,0.63366854,0.33794582,-0.677077,0.16069832,-13.32416820526123,-3.614187240600586,7.070014476776123,-47.39455032348633,49.24080276489258, -14.018120765686035
322,2388877433,0.64045715,0.3338694,-0.6734393,0.15756154,-9.983120918273926,-7.709033012390137,3.7633581161499023,-44.84052658081055,43.74118423461914, -8.31479263305664
323,2388894100,0.64214724,0.33223283,-0.6728545,0.15663764,-7.932106971740723,-4.162712097167969,-5.237608432769775,-15.6585111618042,8.876188278198242, 3.2586116790771484
324,2388910767,0.64086914,0.32848623,-0.67711884,0.15130743,-9.551283836364746,-2.467996835708618,-7.49325704574585,-43.81047058105469,-33.82511901855469, 7.656853675842285
325,2388927434,0.63267446,0.33135954,-0.6845776,0.14586788,-7.1840596199035645,3.6487770080566406,-18.516515731811523,-3.0795364379882812,-87.23313903808594, -8.321599960327148
326,2388944101,0.62126386,0.3299994,-0.6992086,0.12743254,11.460892677307129,5.33756685256958,-0.31976044178009033,-82.49687957763672,-158.36160278320312, -25.372236251831055
327,2388960768,0.6148916,0.33300105,-0.706122,0.111404106,2.1741671562194824,1.8404902219772339,5.5175652503967285,-57.014583587646484,-100.08767700195312, -56.57289505004883
328,2388977435,0.6043207,0.34253222,-0.71152234,0.10584983,20.893875122070312,-1.2611141204833984,-0.9970036745071411,32.38536834716797,-95.35745239257812, -44.04288864135742
329,2388994102,0.59689635,0.3509646,-0.71413,0.10274793,14.847990036010742,1.4106435775756836,2.350105047225952,34.57022476196289,-61.829750061035156, -37.66152572631836
330,2389010769,0.59037864,0.35607997,-0.71735054,0.10034099,20.66769790649414,-4.894317626953125,-0.2489956021308899,21.869609832763672,-56.01753616333008, -17.772653579711914
331,2389027436,0.5875638,0.35519508,-0.7202898,0.09893381,10.925018310546875,-2.945355176925659,-2.530588388442993,-6.386845111846924,-30.194900512695312, 12.421917915344238
332,2389044103,0.5913138,0.34734127,-0.7210952,0.09861098,4.496956825256348,-1.3755998611450195,-5.693300247192383,-43.77665710449219,18.287382125854492, 41.50439453125
333,2389060770,0.59881335,0.34023747,-0.71746457,0.104431085,2.8383820056915283,3.1246445178985596,-3.8943731784820557,-16.3341007232666,69.10550689697266, 49.81881332397461
334,2389077437,0.607097,0.33889893,-0.7088601,0.11873494,3.2438571453094482,5.07763671875,0.9149165749549866,50.88212966918945,109.3460922241211, 44.00533676147461
335,2389094104,0.6148833,0.34919372,-0.69192356,0.14568561,0.2407536804676056,5.288575172424316,3.562450408935547,169.00897216796875,161.9558868408203, 20.624977111816406
336,2389110771,0.6179,0.35559583,-0.68223256,0.1622035,-7.231957912445068,10.753592491149902,-1.8084867000579834,107.6546630859375,88.52515411376953, 13.046378135681152
337,2389127438,0.6234634,0.3507772,-0.6806895,0.15783122,-8.561567306518555,4.3606181144714355,-0.19570010900497437,-53.20172882080078,27.53135871887207, -6.265701770782471
338,2389144105,0.6246819,0.352795,-0.6779714,0.16019736,-9.258955955505371,-6.80624532699585,0.37823984026908875,19.31320571899414,21.016237258911133, -6.840224742889404
339,2389160772,0.6257027,0.35735345,-0.67228293,0.16979563,-9.259957313537598,-6.676376819610596,3.786851644515991,67.72294616699219,47.68431091308594, 4.98964786529541
340,2389177439,0.632421,0.35514277,-0.6664264,0.17260672,-11.714805603027344,0.6686223745346069,6.649688243865967,-6.316753387451172,66.14405822753906, -1.3176016807556152
341,2389194106,0.6429399,0.34670064,-0.66266775,0.16522262,-11.18299388885498,-2.699136257171631,2.2772297859191895,-91.81261444091797,56.85477066040039, -16.47411346435547
342,2389210773,0.64779943,0.34344152,-0.66082245,0.16036767,-8.75463581085205,-7.153429985046387,-5.905913829803467,-46.26483154296875,22.535619735717773, -16.872190475463867
343,2389227440,0.64508855,0.34696478,-0.6614137,0.16127144,-9.739192962646484,-4.088501930236816,-7.783962726593018,25.26617431640625,-16.354738235473633, -8.147043228149414
344,2389244107,0.63960737,0.34819406,-0.66662747,0.15896921,-8.341719627380371,-5.655610084533691,-4.9144439697265625,1.8266209363937378,-54.42220687866211, 2.590233087539673
345,2389260774,0.6318146,0.3507181,-0.6736448,0.15495118,-8.930342674255371,1.40949547290802,-3.6767640113830566,3.1110308170318604,-78.3840560913086, -3.8551924228668213
346,2389277441,0.6267849,0.34263718,-0.6871709,0.13242604,5.090043067932129,2.3841090202331543,-7.370691299438477,-142.47154235839844,-127.31106567382812, -21.359304428100586
347,2389294108,0.61987066,0.3411747,-0.69683945,0.11736696,5.199236869812012,2.364658832550049,6.0940656661987305,-71.0413589477539,-108.65633392333984, -25.12641143798828
348,2389310775,0.6135013,0.34522113,-0.70214266,0.106931366,8.150443077087402,10.016988754272461,7.204084873199463,-23.05073356628418,-81.44487762451172, -42.08401107788086
349,2389327442,0.6069678,0.35556662,-0.703188,0.103387706,18.860307693481445,4.626616477966309,5.575270652770996,40.46519470214844,-52.93600845336914, -52.85536575317383
350,2389344109,0.60189587,0.36464363,-0.7025471,0.10575622,15.104082107543945,-4.207042694091797,-5.104682922363281,61.54880905151367,-23.444740295410156, -28.17336654663086
351,2389360776,0.60097975,0.36497387,-0.7031141,0.10605694,9.260334968566895,-5.846206188201904,-7.309839248657227,4.053831577301025,-6.984777450561523, 4.772537708282471
352,2389377443,0.6052303,0.35943666,-0.7024183,0.10540439,7.743721008300781,-4.027111530303955,-4.876913070678711,-36.92378234863281,25.19071388244629, 22.15253448486328
353,2389394110,0.61089766,0.35717162,-0.6975968,0.11221164,8.444332122802734,0.11458877474069595,-1.4372917413711548,12.110856056213379,65.14994049072266, 26.631803512573242
354,2389410777,0.6186917,0.3564464,-0.68881434,0.12530679,5.543400287628174,2.4433140754699707,-1.9829715490341187,46.57371139526367,106.51526641845703, 33.28845977783203
355,2389427444,0.62777185,0.3587734,-0.67517966,0.1460026,4.609940052032471,1.5695719718933105,1.027313232421875,96.66893005371094,149.65188598632812, 36.912479400634766
356,2389444111,0.6355829,0.361366,-0.66114384,0.16833892,-1.8772151470184326,-0.7271680235862732,0.6704495549201965,109.44312286376953,149.96224975585938, 39.942413330078125
357,2389460778,0.6419152,0.3576099,-0.653396,0.18202701,-7.722254753112793,1.340528964996338,-0.18772825598716736,39.07249069213867,101.73880767822266, 47.391693115234375
358,2389477445,0.6468479,0.3515775,-0.6510091,0.18484703,-8.79492473602295,2.645493507385254,-5.573439598083496,-22.963098526000977,47.953609466552734, 24.602092742919922
359,2389494112,0.6455995,0.35267648,-0.6514645,0.1855122,-5.76986026763916,3.4027037620544434,-8.290848731994629,10.359185218811035,-6.489058017730713, -1.7448406219482422
360,2389510779,0.6409947,0.35274023,-0.65806925,0.17789052,-8.63638973236084,0.6641237735748291,-10.210953712463379,-31.149320602416992,-67.32586669921875, -14.562766075134277
361,2389527446,0.6297886,0.3588547,-0.66651165,0.17421784,-9.250161170959473,-6.038357257843018,-6.8441596031188965,26.872554779052734,-102.95716857910156, -11.217687606811523
362,2389544113,0.6132215,0.3688646,-0.6763558,0.1744743,-8.649747848510742,-4.601978302001953,-2.5118861198425293,73.18135070800781,-128.38763427734375, -2.4054994583129883
363,2389560780,0.5954329,0.37581706,-0.6888663,0.17229213,-7.733697891235352,-3.650254011154175,1.8778718709945679,48.678890228271484,-147.897216796875, 10.132542610168457
364,2389577447,0.58005625,0.3772506,-0.70273334,0.1654771,-6.87697172164917,-1.5647127628326416,4.506708145141602,-3.7624268531799316,-147.48057556152344, 17.52692222595215
365,2389594114,0.5705359,0.3725364,-0.7158055,0.15273537,-8.20843505859375,-0.8005657196044922,10.72096061706543,-71.30642700195312,-124.83660125732422, 16.819149017333984
366,2389610781,0.5711967,0.36324918,-0.7235684,0.13503022,-8.36026382446289,1.1337803602218628,12.398987770080566,-134.11476135253906,-62.38176345825195, -2.879396438598633
367,2389627448,0.5727898,0.35344878,-0.7307691,0.113853954,3.736456871032715,2.6394240856170654,-12.014025688171387,-155.04750061035156,-64.56880187988281, -14.11504077911377
368,2389644115,0.5702406,0.35340485,-0.73420656,0.104266256,17.23937225341797,4.674656867980957,6.1802802085876465,-45.317047119140625,-50.12710952758789, -22.233335494995117
369,2389660782,0.566137,0.36003512,-0.73468024,0.10054176,7.619281768798828,11.316900253295898,8.465993881225586,16.511789321899414,-37.3462028503418, -38.80101013183594
370,2389677449,0.5630679,0.3696459,-0.7320577,0.10202035,18.66225814819336,1.0436925888061523,1.6543632745742798,53.79766845703125,-8.389883995056152, -46.07695770263672
371,2389694116,0.5608786,0.38118458,-0.72650343,0.11093503,9.011404037475586,-5.253981590270996,-5.279472351074219,98.54264068603516,24.701784133911133, -35.17570495605469
372,2389710783,0.56186926,0.3848285,-0.7227855,0.117435865,10.686877250671387,-4.3701958656311035,-4.051076889038086,46.23657989501953,33.26352310180664, -2.8194782733917236
373,2389727450,0.56729484,0.3810867,-0.7202632,0.11904069,11.705933570861816,0.05196484550833702,-1.3368288278579712,-19.371118545532227,43.701908111572266, 14.402666091918945
374,2389744117,0.5738551,0.3787588,-0.7151593,0.12561664,11.547801971435547,1.2165133953094482,1.626330018043518,9.903925895690918,71.1916275024414, 19.034696578979492
375,2389760784,0.57932985,0.3805345,-0.70706064,0.14012851,6.355439186096191,1.6504976749420166,1.5992857217788696,70.56307983398438,94.65185546875, 23.277162551879883
376,2389777451,0.5853778,0.38430136,-0.69544035,0.16127013,3.4320108890533447,1.0027110576629639,4.330295085906982,112.65435791015625,126.99565887451172, 29.21239471435547
377,2389794118,0.59042835,0.3869704,-0.6845861,0.18163274,-6.092867374420166,2.5853590965270996,0.9356073141098022,106.47357177734375,118.4853286743164, 31.907062530517578
378,2389810785,0.59770817,0.3788719,-0.6821594,0.18401016,-11.322370529174805,9.214747428894043,-5.78447151184082,-38.195003509521484,60.47047424316406, 28.48837661743164
379,2389827452,0.60708654,0.36567506,-0.68347824,0.17488608,-5.964895725250244,0.06449426710605621,-3.465930223464966,-123.2918701171875,31.7315731048584, 12.931361198425293
380,2389844119,0.60713357,0.367455,-0.68051267,0.18239596,-7.613029479980469,-10.208230018615723,-3.636854648590088,45.8594970703125,29.51081657409668, 14.175207138061523
381,2389860786,0.601339,0.3758047,-0.67759275,0.19501469,-8.93166732788086,1.8063863515853882,-2.0932793617248535,112.0117416381836,6.975244522094727, 10.342299461364746
382,2389877453,0.6004949,0.37175184,-0.6824387,0.18837245,-10.90353012084961,1.0936695337295532,1.1713215112686157,-52.19845962524414,-35.08707046508789, 1.6531883478164673
383,2389894120,0.6008333,0.36276373,-0.6908441,0.17359832,-10.14555549621582,-3.2328951358795166,3.02103328704834,-118.50003051757812,-58.64924240112305, -0.07958357036113739
384,2389910787,0.6011404,0.3533112,-0.69897395,0.15886122,-8.787779808044434,-5.540702819824219,4.181850910186768,-120.04314422607422,-57.38835525512695, 4.210113525390625
385,2389927454,0.60106176,0.34527668,-0.7052108,0.1489526,-10.452672958374023,-5.845284461975098,3.5495247840881348,-88.0690689086914,-41.68346405029297, 15.037738800048828
386,2389944121,0.59830815,0.3452995,-0.70761055,0.14860378,-10.978673934936523,-1.656180500984192,-12.67760181427002,1.8040540218353271,-24.75200653076172, 10.673279762268066
387,2389960788,0.58950627,0.34339523,-0.71869224,0.13432683,3.781736373901367,12.475193977355957,-10.163532257080078,-68.41866302490234,-120.503173828125, -10.649781227111816
388,2389977455,0.59093857,0.3329192,-0.7266602,0.10918694,4.762235164642334,3.45185923576355,10.953901290893555,-178.04515075683594,-75.21871948242188, -27.534534454345703
389,2389994122,0.58735573,0.334712,-0.73015743,0.0992539,6.398958206176758,-2.960221290588379,-1.8070136308670044,-37.167518615722656,-57.23896408081055, -32.78745651245117
390,2390010789,0.57995707,0.34901345,-0.72831553,0.10675247,19.278579711914062,7.2331318855285645,5.573770523071289,113.34074401855469,-23.267414093017578, -34.81863021850586
391,2390027456,0.5790868,0.35183728,-0.7282787,0.10236824,15.710390090942383,-2.5034220218658447,0.08910472691059113,-8.835582733154297,-17.97511100769043, -25.765844345092773
392,2390044123,0.5760829,0.35472873,-0.72912246,0.10332823,17.61043357849121,-4.998363971710205,-2.0442662239074707,22.764619827270508,-19.448461532592773, -1.310926079750061
393,2390060790,0.5761163,0.3519257,-0.7305819,0.102412835,13.845468521118164,-0.8099249005317688,-0.7059040665626526,-17.067628860473633,-7.244941234588623, 18.701932907104492
394,2390077457,0.57870334,0.34904304,-0.72954,0.105085336,9.906349182128906,0.9284127354621887,-0.7371551394462585,-3.766005039215088,23.995882034301758, 25.793428421020508
395,2390094124,0.5821626,0.35152516,-0.7238016,0.11673985,5.871805667877197,0.2725434899330139,0.8291691541671753,63.869747161865234,64.73548126220703, 22.651565551757812
396,2390110791,0.58542144,0.35595778,-0.7159068,0.1343627,2.282986640930176,1.1270760297775269,2.1826066970825195,103.4502944946289,85.62224578857422, 30.279762268066406
397,2390127458,0.5894242,0.36321843,-0.7040437,0.15803245,-3.2247250080108643,0.3804573118686676,2.4869120121002197,146.37364196777344,117.91224670410156, 28.127275466918945
398,2390144125,0.5905647,0.36406887,-0.6995828,0.17108783,-10.632728576660156,7.536247253417969,-2.5830078125,68.16287231445312,54.93938446044922, 34.94804000854492
399,2390160792,0.59584486,0.35461587,-0.70165884,0.1639859,-9.089987754821777,7.3853278160095215,-1.501302719116211,-88.65852355957031,10.19723892211914, 14.266406059265137
400,2390177459,0.60093826,0.3476085,-0.70177895,0.1598376,-8.97476577758789,-6.240226745605469,0.6940500736236572,-61.79014205932617,21.603271484375, 12.187552452087402
401,2390194126,0.60292727,0.3526245,-0.69394433,0.1748605,-10.084614753723145,-7.877369403839111,4.103628158569336,96.56085968017578,72.24872589111328, 17.10516357421875
402,2390210793,0.607365,0.3567527,-0.6837607,0.19054304,-11.105001449584961,-0.7280285358428955,6.409975051879883,93.048828125,96.46892547607422, 13.764433860778809
403,2390227460,0.6168932,0.35139087,-0.6781194,0.1900563,-9.714648246765137,3.6602556705474854,4.477363109588623,-40.788211822509766,74.26417541503906, -6.241486072540283
404,2390244127,0.6242365,0.3428326,-0.67856497,0.17984548,-6.564062595367432,-3.029499053955078,-7.846613883972168,-102.36383819580078,18.8670654296875, -14.228060722351074
405,2390260794,0.622809,0.3409223,-0.68207985,0.17506637,-7.466909408569336,-4.305197238922119,-9.126978874206543,-31.781963348388672,-30.450551986694336, -2.866041898727417
406,2390277461,0.6144556,0.3473516,-0.6862919,0.1754841,-6.407666206359863,2.0050251483917236,-7.86364221572876,43.49320602416992,-63.630897521972656, -8.693760871887207
407,2390294128,0.6072562,0.34919438,-0.69430023,0.16507743,3.989382266998291,8.013283729553223,-0.8079304695129395,-34.28181838989258,-94.11617279052734, -26.06635093688965
408,2390310795,0.604368,0.34479895,-0.70375824,0.143449,7.642663955688477,4.057880878448486,2.2423770427703857,-126.04009246826172,-99.78628540039062, -42.33784484863281
409,2390327462,0.5980223,0.34904554,-0.7086494,0.13547213,11.26398754119873,-3.315274238586426,-2.4864206314086914,-11.366724014282227,-74.1774673461914, -33.0319709777832
410,2390344129,0.59042746,0.3572588,-0.71075857,0.13632293,16.738557815551758,2.3399832248687744,1.4879429340362549,53.56069564819336,-51.379276275634766, -21.586210250854492
411,2390360796,0.58782715,0.357006,-0.7142293,0.12993336,18.619497299194336,-4.6368513107299805,-0.06593255698680878,-29.681440353393555,-42.459320068359375, -11.4037446975708
412,2390377463,0.58617514,0.35695922,-0.71549296,0.13057119,14.79670238494873,-2.766296863555908,-2.4192779064178467,5.321791648864746,-12.06448745727539, 9.889948844909668
413,2390394130,0.589511,0.3532447,-0.71415776,0.13294315,9.901960372924805,-0.539902925491333,-2.6259922981262207,-10.858296394348145,30.441375732421875, 23.888057708740234
414,2390410797,0.59547883,0.35005444,-0.70901793,0.14198725,4.931090354919434,0.6632425785064697,-2.779391288757324,21.07538604736328,74.55738067626953, 36.41909408569336
415,2390427464,0.6025064,0.3479018,-0.70080036,0.15757333,2.1315407752990723,3.4699814319610596,-0.6024131178855896,57.63534164428711,107.20894622802734, 49.228145599365234
416,2390444131,0.61064255,0.3514946,-0.68561435,0.18303077,-0.39986854791641235,4.354641437530518,2.32348370552063,134.01602172851562,159.1448974609375, 42.63056945800781
417,2390460798,0.6148049,0.35648295,-0.6730018,0.20494749,-9.855315208435059,7.858627796173096,-4.029665470123291,129.86758422851562,119.41996765136719, 30.08017349243164
418,2390477465,0.61926186,0.35434863,-0.66879207,0.20897108,-9.451580047607422,9.838166236877441,-3.896038770675659,4.543128967285156,51.602718353271484, 7.202726364135742
419,2390494132,0.62215316,0.35252884,-0.66738534,0.20795618,-9.870594024658203,-1.512114405632019,-3.937211036682129,-17.468942642211914,19.918771743774414, -6.36240291595459
420,2390510799,0.6220301,0.3562381,-0.6637564,0.21354277,-10.603837966918945,-6.074774742126465,1.2600675821304321,46.923431396484375,23.812379837036133, -4.354650020599365
421,2390527466,0.6230805,0.35919386,-0.65914774,0.21971546,-11.581305503845215,-2.438228130340576,5.3116912841796875,45.022117614746094,35.85044860839844, -2.9776649475097656
422,2390544133,0.62718,0.3589398,-0.65580386,0.21846956,-11.00224781036377,0.9501701593399048,3.4576377868652344,-11.72091007232666,30.617313385009766, -21.767032623291016
423,2390560800,0.6306573,0.35720745,-0.6556705,0.21159047,-9.406437873840332,-3.5261518955230713,-3.4261386394500732,-46.732975006103516,2.247391939163208, -30.574731826782227
424,2390577467,0.6273489,0.36081386,-0.65743536,0.20982249,-8.090132713317871,-6.913796424865723,-6.616309642791748,13.301520347595215,-31.63623046875, -17.88370132446289
425,2390594134,0.61746305,0.369914,-0.6612494,0.21131122,-9.023286819458008,-0.4915241301059723,-7.241405010223389,64.9776382446289,-69.8753433227539, -14.227463722229004
426,2390610801,0.60675097,0.37476262,-0.67179143,0.20025659,2.339768171310425,4.183382987976074,3.774142026901245,-17.92102813720703,-127.70304107666016, -29.924943923950195
427,2390627468,0.60251933,0.36862305,-0.68614095,0.17406355,10.19271469116211,2.9049530029296875,8.642943382263184,-155.77586364746094,-137.61891174316406, -41.27097702026367
428,2390644135,0.5966217,0.3696553,-0.6944765,0.15843001,11.847090721130371,-7.3738861083984375,-0.9953979253768921,-64.97460174560547,-102.79460906982422, -42.595272064208984
429,2390660802,0.58588964,0.37933362,-0.6989351,0.1559776,16.31428337097168,5.763311862945557,3.791006088256836,49.86042404174805,-85.99514770507812, -34.24551773071289
430,2390677469,0.5829194,0.380089,-0.70324254,0.1455585,12.492635726928711,-2.6616220474243164,-4.640732765197754,-44.4170036315918,-59.713584899902344, -30.39269256591797
431,2390694136,0.5798394,0.3824218,-0.7044665,0.14583164,9.406670570373535,-1.9386614561080933,-7.443784713745117,16.945362091064453,-21.488842010498047, -3.2208054065704346
432,2390710803,0.5823162,0.37988198,-0.70336545,0.14790054,8.962693214416504,2.6076714992523193,-5.126930236816406,-6.110337734222412,24.440690994262695, 15.787901878356934
433,2390727470,0.5881572,0.37589553,-0.69914246,0.15483434,12.151177406311035,2.6160221099853516,-2.768080949783325,6.001780986785889,67.45822143554688, 30.704753875732422
434,2390744137,0.59386843,0.3757836,-0.6906296,0.17069802,10.736162185668945,1.2962850332260132,1.3409987688064575,69.50918579101562,103.11283874511719, 37.239315032958984
435,2390760804,0.6001039,0.37855896,-0.6781854,0.19139722,7.239107608795166,0.05422581359744072,4.0764079093933105,107.55525970458984,130.63076782226562, 32.479183197021484
436,2390777471,0.6059788,0.3846129,-0.6612241,0.21827857,0.6910967230796814,-2.7486090660095215,5.378881454467773,157.28656005859375,159.28372192382812, 26.865291595458984
437,2390794138,0.6085626,0.38399583,-0.6536924,0.23427595,-8.744457244873047,1.592543125152588,0.12140174210071564,74.72026062011719,85.91327667236328, 41.82292556762695
438,2390810805,0.6134412,0.374315,-0.6559095,0.23100014,-10.744791984558105,4.832884788513184,-8.173029899597168,-71.5321044921875,19.195650100708008, 24.081661224365234
439,2390827472,0.6142945,0.36769944,-0.66151017,0.22325741,-6.175014972686768,-1.750475525856018,-7.9131269454956055,-73.78047180175781,-29.187742233276367, 6.470289707183838
440,2390844139,0.60985774,0.36685765,-0.66739213,0.21926427,-8.849915504455566,-4.725093841552734,-5.378242015838623,-19.500288009643555,-53.48723220825195, 4.930917739868164
441,2390860806,0.6031872,0.36851668,-0.6731218,0.21741167,-11.445520401000977,-4.217665195465088,-0.8378399610519409,6.553590774536133,-61.26930236816406, 5.454188823699951
442,2390877473,0.5963894,0.36951846,-0.67953223,0.21450362,-11.88206672668457,-2.847515821456909,3.3471035957336426,-1.8706016540527344,-66.32061004638672, 6.25389289855957
443,2390894140,0.5919359,0.3660764,-0.6879135,0.20585209,-10.844451904296875,-1.6470413208007812,5.017827033996582,-55.87074661254883,-71.52340698242188, 5.1220293045043945
444,2390910807,0.5888654,0.35971642,-0.69677705,0.19581524,-9.607254981994629,-3.5768625736236572,2.0658528804779053,-78.59347534179688,-66.36907196044922, 13.699411392211914
445,2390927474,0.5867453,0.354126,-0.70346,0.18833165,-10.258441925048828,-2.0541486740112305,-2.079552173614502,-62.79233932495117,-47.74629211425781, 15.543516159057617
446,2390944141,0.5825809,0.35123923,-0.71228373,0.17286557,-5.20081090927124,13.048028945922852,-12.231184005737305,-88.36656951904297,-89.14969635009766, -20.403995513916016
447,2390960808,0.57694054,0.34609836,-0.72471046,0.14883024,13.317286491394043,10.745847702026367,9.33265495300293,-140.0731201171875,-128.61865234375, -30.91117286682129
448,2390977475,0.57758427,0.345636,-0.7276269,0.13225451,2.887880325317383,2.3845951557159424,0.8291371464729309,-89.35086059570312,-47.26054382324219, -52.4802131652832
449,2390994142,0.5677622,0.3630021,-0.72505456,0.14202702,19.351778030395508,-0.9151707291603088,3.2352030277252197,143.22518920898438,-31.516422271728516, -39.97246170043945
450,2391010809,0.5647635,0.36995715,-0.72374475,0.1427145,17.389616012573242,-0.7110278606414795,1.0767489671707153,38.9278678894043,-14.895484924316406, -29.980863571166992
451,2391027476,0.5651951,0.36534682,-0.72684425,0.1370175,17.256868362426758,-9.703160285949707,-4.5090484619140625,-50.74956512451172,-20.10124397277832, 10.940705299377441
452,2391044143,0.56883466,0.35723734,-0.728668,0.13361031,15.203360557556152,-1.7760764360427856,-2.780024528503418,-59.76756286621094,9.769797325134277, 31.633209228515625
453,2391060810,0.5748124,0.3521512,-0.7255909,0.1381963,9.512325286865234,1.3563860654830933,-2.14467191696167,-9.136734008789062,57.31999206542969, 34.252647399902344
454,2391077477,0.58177316,0.35377848,-0.7160373,0.15385567,6.022514820098877,2.7959399223327637,-0.017305076122283936,76.31940460205078,108.32323455810547, 27.380041122436523
455,2391094144,0.5884006,0.35589346,-0.7047795,0.17438611,0.7408589720726013,1.9471079111099243,1.0923032760620117,104.79756164550781,124.99169921875, 39.028263092041016
456,2391110811,0.59557223,0.36143884,-0.68821824,0.20251304,-2.0439493656158447,1.5141723155975342,3.218724012374878,160.62347412109375,163.6766815185547, 36.97886657714844
457,2391127478,0.6004396,0.36325172,-0.6769517,0.22193886,-10.323914527893066,5.978703498840332,-2.198612689971924,102.7892837524414,114.48961639404297, 33.112884521484375
458,2391144145,0.607241,0.35599294,-0.6748284,0.22166237,-10.962026596069336,8.020634651184082,-7.835855484008789,-45.02635955810547,50.48192596435547, 13.690494537353516
459,2391160812,0.61117977,0.3518912,-0.67466027,0.21786587,-8.330768585205078,-1.4708596467971802,-7.002038478851318,-44.19832992553711,15.986438751220703, -5.830098628997803
460,2391177479,0.60870177,0.35785645,-0.6717156,0.2240961,-9.926862716674805,-6.555715560913086,-6.12148380279541,64.28319549560547,7.314885139465332, -7.567359447479248
461,2391194146,0.6036716,0.36547142,-0.6696296,0.23153317,-11.70586109161377,-1.853210687637329,-2.738823890686035,81.7230453491211,-7.505954742431641, -4.509466171264648
462,2391210813,0.6003408,0.36773598,-0.6720242,0.22966252,-12.36987018585205,0.8516298532485962,0.9155579805374146,5.255908489227295,-33.1021728515625, -10.228641510009766
463,2391227480,0.5969739,0.36654174,-0.67917436,0.21906996,-9.795347213745117,-1.9113502502441406,-2.145601272583008,-56.81003952026367,-69.45372772216797, -17.974395751953125
464,2391244147,0.5900167,0.3667355,-0.6884198,0.2084795,-7.024967193603516,-4.716840744018555,-2.4023687839508057,-45.364749908447266,-96.73873901367188, -13.230460166931152
465,2391260814,0.5803604,0.3690143,-0.69768375,0.20061915,-7.160811901092529,-2.2313392162323,-0.07617947459220886,-17.3552303314209,-105.56505584716797, -7.615438938140869
466,2391277481,0.57397556,0.3697913,-0.7052834,0.19074097,-2.3051364421844482,-1.8793318271636963,14.76932144165039,-39.13547134399414,-86.22388458251953, -16.578271865844727
467,2391294148,0.56398356,0.37428516,-0.7138518,0.17958038,9.399887084960938,5.2157769203186035,-1.863647222518921,-22.785572052001953,-116.11839294433594, -31.567564010620117
468,2391310815,0.5603243,0.37360242,-0.720963,0.16331138,14.842278480529785,5.392049312591553,4.739607810974121,-82.42504119873047,-86.15728759765625, -36.71073532104492
469,2391327482,0.5575779,0.3740088,-0.72549593,0.1512625,10.005571365356445,-3.864506959915161,0.1476687788963318,-56.67696762084961,-62.38045883178711, -32.91994094848633
470,2391344149,0.5502941,0.38197312,-0.7265275,0.15307193,19.62343406677246,0.11095654964447021,0.1731678694486618,56.72746276855469,-43.93210983276367, -21.89195442199707
471,2391360816,0.54882026,0.38234994,-0.72794306,0.15067807,13.036927223205566,-2.2569282054901123,-4.6411614418029785,-8.616792678833008,-19.638864517211914, -5.085999011993408
472,2391377483,0.5497433,0.3793043,-0.728567,0.15198956,13.189590454101562,-1.7395602464675903,-3.595968008041382,-8.493278503417969,8.628597259521484, 21.37679672241211
473,2391394150,0.55393195,0.374987,-0.7264016,0.15775065,12.07122802734375,0.9462741017341614,-1.448355793952942,3.3719725608825684,48.42882537841797, 33.80314254760742
474,2391410817,0.5598953,0.37379298,-0.71940905,0.17101678,7.49802827835083,1.0546234846115112,1.1793758869171143,53.421024322509766,91.56075286865234, 32.39804458618164
475,2391427484,0.5660231,0.37321156,-0.71050966,0.18843383,3.365171432495117,-0.023556597530841827,2.7148892879486084,78.14759826660156,109.55543518066406, 40.06896209716797
476,2391444151,0.5717783,0.37718144,-0.69639874,0.21408573,-2.168113946914673,-0.5801922678947449,3.5781683921813965,143.8688201904297,142.99179077148438, 34.67097473144531
477,2391460818,0.57651335,0.37425485,-0.69010764,0.22653306,-10.768047332763672,6.1560211181640625,-3.549995183944702,44.80302047729492,82.98295593261719, 36.36860656738281
478,2391477485,0.58473605,0.36323425,-0.69104743,0.22044982,-9.332795143127441,5.83587121963501,-6.615400791168213,-95.37281036376953,36.01499557495117, 14.448440551757812
479,2391494152,0.5893276,0.35748282,-0.69110966,0.21740909,-7.390857219696045,-6.884748935699463,-2.9402763843536377,-49.400333404541016,22.366085052490234, 6.25429630279541
480,2391510819,0.58864117,0.35963327,-0.6886377,0.22348173,-10.129523277282715,-3.724071502685547,-2.060512065887451,42.632652282714844,18.323728561401367, 7.615323066711426
481,2391527486,0.58768696,0.36050338,-0.6880525,0.22637415,-10.909141540527344,-1.602104902267456,0.17532603442668915,20.18691635131836,3.5800650119781494, 5.335984706878662
482,2391544153,0.58648175,0.36009425,-0.6899289,0.22443146,-10.890191078186035,-1.0853532552719116,1.525757908821106,-11.075575828552246,-17.49536895751953, -1.6586426496505737
483,2391560820,0.5831787,0.3594849,-0.69492626,0.21851997,-9.170149803161621,-1.8315825462341309,-0.8223286867141724,-30.368837356567383,-49.50641632080078, -5.574376106262207
484,2391577487,0.57790554,0.35883287,-0.70179033,0.21155332,-8.541996002197266,-2.1753742694854736,-0.36834511160850525,-33.618099212646484,-68.76862335205078, -1.199902892112732
485,2391594154,0.57216525,0.35769793,-0.7091518,0.20440915,-8.580140113830566,-2.585937023162842,2.672062873840332,-36.048824310302734,-72.55936431884766, 3.4189963340759277
486,2391610821,0.5668476,0.3589621,-0.71561253,0.1942397,-6.2450666427612305,5.321910381317139,-6.083282947540283,-41.162132263183594,-77.73774719238281, -22.357192993164062
487,2391627488,0.55946386,0.3580122,-0.72682214,0.17480561,10.04653263092041,5.7610297203063965,-3.7838869094848633,-96.6104965209961,-125.9877700805664, -31.40859031677246
488,2391644155,0.55883837,0.356783,-0.73143095,0.15941893,4.9540696144104,2.1615781784057617,2.7046444416046143,-86.07320404052734,-56.52809143066406, -37.98582077026367
489,2391660822,0.5534254,0.3632249,-0.7324949,0.15886906,13.893986701965332,-1.5039321184158325,0.4099259376525879,33.57615280151367,-39.25076675415039, -25.21879005432129
490,2391677489,0.55000824,0.36979583,-0.73092145,0.16277617,19.12525177001953,4.265629768371582,3.531644582748413,54.417823791503906,-8.359954833984375, -17.76598358154297
491,2391694156,0.5503034,0.36859328,-0.73168814,0.16105221,16.846101760864258,-5.430859088897705,-1.955446720123291,-15.278870582580566,-4.498809814453125, 1.7861605882644653
492,2391710823,0.5508535,0.36604214,-0.7319594,0.16373539,16.612796783447266,-2.467315196990967,-1.1819700002670288,1.6713542938232422,11.186264991760254, 23.555206298828125
493,2391727490,0.5549513,0.3618659,-0.72979015,0.16878577,11.537542343139648,-0.11593623459339142,0.4317324757575989,1.2446175813674927,45.9260139465332, 30.467636108398438
494,2391744157,0.5604386,0.36063462,-0.72323287,0.1810688,6.810649871826172,0.2742769718170166,1.1103203296661377,50.41952896118164,84.09496307373047, 30.72623062133789
495,2391760824,0.565977,0.36148262,-0.71329236,0.20053503,1.8199055194854736,0.799879789352417,3.4418225288391113,98.26554870605469,112.65299224853516, 40.98011016845703
496,2391777491,0.57013977,0.366222,-0.69998425,0.22548695,-5.982759952545166,3.4362940788269043,1.6821680068969727,148.4037628173828,126.95853424072266, 34.71470642089844
497,2391794158,0.57358414,0.36383632,-0.69539905,0.23461623,-11.303655624389648,9.851295471191406,-5.891932964324951,32.756919860839844,60.062744140625, 27.462547302246094
498,2391810825,0.57909435,0.35661528,-0.69677454,0.22799286,-9.248119354248047,5.664182662963867,-4.937984466552734,-76.4101333618164,15.232421875, 0.8009710907936096
499,2391827492,0.5819202,0.35447937,-0.6960251,0.22641233,-9.256462097167969,-6.3962297439575195,0.17500019073486328,-22.13013458251953,15.603495597839355, -3.680144786834717
500,2391844159,0.58136624,0.35928908,-0.69074464,0.23621336,-10.945283889770508,-5.800512313842773,1.2911806106567383,75.42964935302734,34.48744201660156, 2.5016980171203613
501,2391860826,0.58316344,0.36140144,-0.68621784,0.24169129,-12.187076568603516,1.0517648458480835,3.644792318344116,37.17744827270508,36.15266036987305, -4.957154750823975
502,2391877493,0.5882149,0.35902518,-0.68502134,0.23632652,-10.812055587768555,0.6361610889434814,2.311236619949341,-45.55473327636719,18.628217697143555, -24.359140396118164
503,2391894160,0.5904677,0.356662,-0.6874538,0.22704107,-8.541701316833496,-4.5266852378845215,-5.831046104431152,-62.98918151855469,-18.805715560913086, -26.29050636291504
504,2391910827,0.5857882,0.35930693,-0.6915025,0.22265445,-7.735435962677002,-4.5646748542785645,-5.7534403800964355,-5.091822624206543,-53.66067123413086, -15.286417961120605
505,2391927494,0.57693255,0.36522725,-0.6970164,0.21892023,-8.661072731018066,1.474748969078064,-6.69035530090332,19.133554458618164,-82.46324157714844, -17.47726058959961
506,2391944161,0.5686093,0.3673365,-0.70689607,0.20505066,0.9941393733024597,0.7358012199401855,1.6877665519714355,-52.526588439941406,-116.76768493652344, -29.698875427246094
507,2391960828,0.5590006,0.36896327,-0.71914274,0.18498203,11.30183219909668,8.129029273986816,6.484709739685059,-84.7263412475586,-147.0222625732422, -42.01668930053711
508,2391977495,0.5555301,0.367548,-0.72751874,0.16435216,9.39439868927002,-2.7055091857910156,0.34851527214050293,-109.73802947998047,-99.40974426269531, -44.7235107421875
509,2391994162,0.5457163,0.37530783,-0.7317801,0.16073515,16.86495018005371,-1.2846472263336182,0.40883174538612366,31.19400405883789,-82.77174377441406, -27.613079071044922
510,2392010829,0.5410175,0.37800422,-0.73511493,0.15498045,14.058441162109375,1.096011757850647,-1.4446148872375488,-10.860224723815918,-53.991485595703125, -20.822237014770508
511,2392027496,0.53940713,0.37609756,-0.7381917,0.1505445,11.790884971618652,-4.614138603210449,-5.617093086242676,-29.055959701538086,-29.210878372192383, 3.3515501022338867
512,2392044163,0.54082763,0.3726464,-0.73866206,0.15171877,10.304391860961914,0.8095665574073792,-3.6724536418914795,-11.489823341369629,11.971477508544922, 22.012054443359375
513,2392060830,0.54607797,0.3688411,-0.73547304,0.15759006,9.535252571105957,2.254727363586426,-1.4934256076812744,5.0498785972595215,57.42435073852539, 27.889652252197266
514,2392077497,0.5525,0.36877692,-0.72750443,0.1717116,7.308999538421631,1.6163665056228638,0.5168737173080444,63.04014587402344,98.10436248779297, 26.5692195892334
515,2392094164,0.5584578,0.37036878,-0.71721125,0.19120708,2.569664716720581,0.883834719657898,2.310450553894043,100.18560791015625,116.34672546386719, 34.406219482421875
516,2392110831,0.5650102,0.37652537,-0.70095086,0.21831176,-2.0006091594696045,0.07498884201049805,3.9673335552215576,161.57481384277344,155.2705841064453, 23.721973419189453
517,2392127498,0.5684215,0.3774996,-0.6927136,0.23353583,-10.720759391784668,5.369234561920166,-3.3202106952667236,80.42996215820312,85.1005630493164, 24.68513298034668
518,2392144165,0.57485133,0.36857325,-0.694533,0.22654793,-9.596302032470703,5.529621124267578,-5.499351978302002,-87.99490356445312,18.649810791015625, 6.507316589355469
519,2392160832,0.5781424,0.36322471,-0.6965627,0.2204986,-7.987921237945557,-6.676068305969238,-4.716567039489746,-61.81901168823242,0.21437476575374603, -0.1502717286348343
520,2392177499,0.57719433,0.364936,-0.6952631,0.22422704,-10.015398025512695,-6.920811653137207,-1.2895346879959106,28.60982894897461,7.2710652351379395, 3.839029550552368
521,2392194166,0.5769964,0.36648664,-0.69321275,0.22851475,-12.029682159423828,-2.4007561206817627,2.5443196296691895,29.938194274902344,15.451249122619629, 3.113370895385742
522,2392210833,0.5787878,0.36582252,-0.6922067,0.22809796,-11.66101360321045,-2.91894268989563,4.152751922607422,-7.873413562774658,12.269523620605469, -6.082009315490723
523,2392227500,0.5775038,0.36703476,-0.6927347,0.2278017,-8.727014541625977,-5.4230194091796875,-3.2853333950042725,5.509762763977051,-11.1972017288208, -5.978699207305908
524,2392244167,0.57135856,0.37177077,-0.6938465,0.23219207,-8.400108337402344,-5.877564907073975,-4.037472724914551,53.12483215332031,-30.208683013916016, 4.974301338195801
525,2392260834,0.56159264,0.38055924,-0.6954395,0.23696558,-10.077682495117188,4.598869323730469,-6.272834300994873,79.30387115478516,-54.78593063354492, -6.051263809204102
526,2392277501,0.5597576,0.37440318,-0.7086275,0.21057318,2.669900417327881,12.713652610778809,-0.5920465588569641,-167.13653564453125,-118.81402587890625, -38.382469177246094
527,2392294168,0.5597685,0.36799467,-0.7195541,0.1829781,9.119885444641113,1.831961989402771,6.640275001525879,-175.52247619628906,-102.97796630859375, -46.5003776550293
528,2392310835,0.5504749,0.38004962,-0.7208961,0.18124159,9.174795150756836,0.5116298794746399,0.29903942346572876,59.134246826171875,-70.1887435913086, -50.617523193359375
529,2392327502,0.54374605,0.39148262,-0.71953434,0.18262546,14.247359275817871,6.843294620513916,3.669008493423462,68.92459869384766,-38.43391799926758, -46.0171012878418
530,2392344169,0.5416569,0.3945337,-0.72065425,0.17778803,16.687633514404297,-6.186612606048584,-2.563519239425659,-8.728822708129883,-31.25796890258789, -26.9029483795166
531,2392360836,0.54078525,0.39420563,-0.72162056,0.17724867,14.90463638305664,-2.353849172592163,-3.0862979888916016,-3.155536651611328,-8.973041534423828, 3.792787551879883
532,2392377503,0.54436415,0.3902961,-0.7208732,0.17798486,13.252368927001953,1.2277169227600098,-1.7394012212753296,-20.126955032348633,27.226634979248047, 16.155244827270508
533,2392394170,0.5494303,0.38803688,-0.71605587,0.18659532,9.50444221496582,0.6145691871643066,-0.5076713562011719,26.077960968017578,68.8499984741211, 24.68695831298828
534,2392410837,0.5548828,0.38755843,-0.7078636,0.20207176,4.310853958129883,2.1449692249298096,1.5955666303634644,69.91961669921875,99.4569091796875, 32.34724044799805
535,2392427504,0.5605826,0.38778254,-0.6970157,0.22257827,1.576584815979004,1.6351598501205444,3.9055819511413574,100.13455200195312,123.1414794921875, 40.73422622680664
536,2392444171,0.56574804,0.39062577,-0.6827979,0.24724072,-5.251855850219727,1.4676653146743774,3.3040273189544678,136.75555419921875,140.5260009765625, 36.077388763427734
537,2392460838,0.5682428,0.38897377,-0.6771539,0.25934952,-12.016620635986328,7.116942405700684,-3.130352735519409,52.92384338378906,68.50348663330078, 35.96418380737305
538,2392477505,0.57279825,0.37982592,-0.6809276,0.2529274,-9.445977210998535,6.529206275939941,-6.075033664703369,-84.56239318847656,3.947807550430298, 16.00481414794922
539,2392494172,0.5749566,0.37224847,-0.6865449,0.24395141,-8.863899230957031,-4.521975040435791,-5.554615497589111,-87.32706451416016,-23.50745391845703, 7.914392948150635
540,2392510839,0.5728303,0.3715242,-0.6887824,0.2437505,-9.900635719299316,-6.793802738189697,-1.521578311920166,-2.285693645477295,-18.946640014648438, 9.294471740722656
541,2392527506,0.5720818,0.36964515,-0.69070476,0.24292354,-11.833490371704102,-2.426400899887085,2.8897759914398193,-12.832503318786621,-10.716493606567383, 9.115204811096191
542,2392544173,0.574413,0.36383662,-0.6944893,0.23528104,-11.838104248046875,-1.7506184577941895,4.201317310333252,-71.63729095458984,-14.03288459777832, 0.9617301225662231
543,2392560840,0.5746624,0.3599164,-0.6992194,0.22652966,-8.912941932678223,-4.219644069671631,-1.5598307847976685,-65.89926147460938,-33.18464660644531, -5.40826416015625
544,2392577507,0.5708411,0.35942882,-0.7042098,0.2214499,-7.813426971435547,-4.080121994018555,-3.8448598384857178,-25.089466094970703,-49.756099700927734, 0.1390976905822754
545,2392594174,0.56391317,0.36275142,-0.709714,0.21614642,-9.713200569152832,3.5580697059631348,-8.327937126159668,-4.411385536193848,-72.7095718383789, -12.131111145019531
546,2392610841,0.55573064,0.3631492,-0.72120434,0.1978647,5.321567535400391,7.12150239944458,-2.159766674041748,-84.87112426757812,-129.7694091796875, -31.368993759155273
547,2392627508,0.55064327,0.36266166,-0.7311112,0.17534205,9.874804496765137,6.569618225097656,11.171867370605469,-114.78839111328125,-117.26815795898438, -48.89870834350586
548,2392644175,0.541965,0.37151772,-0.7350166,0.16732992,8.389244079589844,-4.5017900466918945,-1.2560292482376099,9.756525993347168,-88.6904525756836, -53.96172332763672
549,2392660842,0.5323331,0.3824986,-0.7363284,0.16774052,14.278809547424316,2.211843729019165,1.7022637128829956,65.64215850830078,-64.84525299072266, -38.945281982421875
550,2392677509,0.5297598,0.3831826,-0.7397918,0.15885176,11.866656303405762,-5.016120433807373,-4.813747882843018,-40.13437271118164,-49.79389572143555, -23.35580825805664
551,2392694176,0.52893376,0.38306385,-0.74065983,0.15784243,9.27941608428955,-2.2866060733795166,-6.862370491027832,-4.78418493270874,-9.824664115905762, 0.5707343816757202
552,2392710843,0.53223187,0.38092917,-0.7384368,0.16227588,8.291534423828125,3.2705886363983154,-4.767027854919434,8.059351921081543,39.02332305908203, 17.959352493286133
553,2392727510,0.53793305,0.37940893,-0.73245573,0.17373998,9.579407691955566,3.8905861377716064,-2.5915236473083496,43.90771484375,82.74009704589844, 28.071910858154297
554,2392744177,0.543671,0.3813952,-0.7218192,0.19477354,8.601229667663574,1.1743738651275635,0.14559215307235718,110.55914306640625,120.8858642578125, 33.65039825439453
555,2392760844,0.54911757,0.3867711,-0.70658845,0.22273515,6.094967842102051,0.4937672019004822,3.2263166904449463,164.56138610839844,150.15069580078125, 31.064926147460938
556,2392777511,0.5540915,0.39288434,-0.6890669,0.25260952,0.23375612497329712,-1.6123812198638916,3.9348952770233154,181.42967224121094,160.30909729003906, 29.340496063232422
557,2392794178,0.5569302,0.39365977,-0.6792062,0.27118272,-7.543313026428223,2.551591634750366,-0.09587988257408142,99.9920883178711,99.61174774169922, 35.965240478515625
558,2392810845,0.561901,0.38767034,-0.6784772,0.27138126,-10.199515342712402,6.628076076507568,-7.86177921295166,-34.52276611328125,37.54498291015625, 17.984315872192383
559,2392827512,0.56312335,0.38399515,-0.68165946,0.26604554,-5.8486175537109375,-0.7407731413841248,-6.21450138092041,-48.718719482421875,-13.80688190460205, 3.327920436859131
560,2392844179,0.559099,0.38212675,-0.68858415,0.2593056,-8.824247360229492,-1.8075674772262573,-6.749216556549072,-40.96039962768555,-61.383846282958984, 4.526177883148193
561,2392860846,0.5519959,0.38087946,-0.6981058,0.25075835,-9.501808166503906,-6.1989593505859375,-3.8638484477996826,-44.053138732910156,-89.81632232666016, 11.28217601776123
562,2392877513,0.5422043,0.38162997,-0.70749795,0.24458133,-9.368618965148926,-3.830838203430176,0.844280481338501,-17.763042449951172,-100.46044921875, 11.772616386413574
563,2392894180,0.5354427,0.37798148,-0.7188416,0.23172796,-10.915098190307617,0.19182267785072327,6.196012496948242,-77.97767639160156,-102.83135223388672, 8.857579231262207
564,2392910847,0.53376114,0.3674348,-0.7314422,0.21232797,-10.126710891723633,-3.9969658851623535,3.7446770668029785,-150.94281005859375,-87.75457763671875, 16.02326774597168
565,2392927514,0.5327014,0.35997745,-0.7388326,0.20192032,-9.823036193847656,-7.693145751953125,5.896004676818848,-88.18304443359375,-46.24529266357422, 22.95578384399414
566,2392944181,0.5305977,0.35981622,-0.7420347,0.19591634,-9.632915496826172,11.523163795471191,-11.280237197875977,-30.670900344848633,-35.54832458496094, -6.891266822814941
567,2392960848,0.52792436,0.35515076,-0.75184774,0.17288472,10.80994987487793,15.764301300048828,1.656503438949585,-141.34841918945312,-98.04710388183594, -27.763153076171875
568,2392977515,0.52889174,0.35309592,-0.7559998,0.15511645,7.294327259063721,5.834207534790039,7.482939720153809,-106.5843276977539,-49.106590270996094, -39.272037506103516
569,2392994182,0.521366,0.36497247,-0.7540244,0.16254215,11.416434288024902,-8.708856582641602,2.0195353031158447,101.78303527832031,-26.062969207763672, -30.650781631469727
570,2393010849,0.51475966,0.374809,-0.7516616,0.17188913,18.670862197875977,-0.5476816892623901,1.9076261520385742,102.52841186523438,-13.03117847442627, -15.372461318969727
571,2393027516,0.51709193,0.36636668,-0.7565987,0.16108993,14.621970176696777,-9.120171546936035,-2.4672820568084717,-97.9248046875,-23.296546936035156, 15.969204902648926
572,2393044183,0.5196746,0.35768032,-0.76033264,0.15458848,14.800519943237305,-3.2896790504455566,-1.8554037809371948,-75.77899932861328,-6.742636680603027, 29.030155181884766
573,2393060850,0.52281684,0.35452852,-0.75869006,0.15925315,10.732640266418457,0.28749582171440125,-0.6052598357200623,6.693857669830322,36.83296203613281, 26.08488655090332
574,2393077517,0.52573955,0.35743013,-0.75190705,0.17457853,6.254326343536377,3.7039430141448975,0.42194047570228577,90.23881530761719,73.41273498535156, 20.52499771118164
575,2393094184,0.5296674,0.3590303,-0.74421227,0.19156738,2.3422882556915283,2.5714263916015625,1.3085576295852661,92.78173065185547,87.48284149169922, 29.877197265625
576,2393110851,0.5338153,0.36422178,-0.7317823,0.2165147,-0.928483784198761,1.4457632303237915,3.3377861976623535,152.5087890625,121.86813354492188, 32.338226318359375
577,2393127518,0.53609985,0.36829486,-0.72134095,0.23795645,-7.2752556800842285,4.8002777099609375,0.3129943013191223,132.28387451171875,97.15206146240234, 29.93770980834961
578,2393144185,0.54030997,0.3646153,-0.71881944,0.24170162,-11.26167106628418,9.41821002960205,-4.990976333618164,-1.923183798789978,44.823394775390625, 18.383134841918945
579,2393160852,0.5454922,0.35899734,-0.7201379,0.23443781,-8.151355743408203,3.1470839977264404,-4.404683589935303,-72.33023071289062,11.32286548614502, -4.637394905090332
580,2393177519,0.54573995,0.3607491,-0.7186646,0.23568904,-8.425827980041504,-7.074706077575684,-1.5964938402175903,14.140586853027344,7.181482315063477, -6.819695472717285
581,2393194186,0.5418282,0.3681843,-0.7149712,0.24429277,-9.957852363586426,-2.192481756210327,-1.5117812156677246,85.679931640625,3.9401369094848633, -6.691287994384766
582,2393210853,0.5402043,0.37128532,-0.71458,0.24434026,-10.986088752746582,2.3080649375915527,0.9496563076972961,16.133737564086914,-12.167428970336914, -14.790302276611328
583,2393227520,0.54134184,0.3692761,-0.71858376,0.23285562,-10.318476676940918,0.26335811614990234,0.6809977889060974,-73.94112396240234,-35.6882438659668, -25.862573623657227
584,2393244187,0.5399482,0.36860615,-0.7236635,0.22112586,-7.6213154792785645,-4.279053211212158,0.0011058337986469269,-65.47835540771484,-54.30726623535156, -25.132362365722656
585,2393260854,0.53507066,0.3710454,-0.72774017,0.21545072,-6.782141208648682,-4.816693305969238,-1.0844380855560303,-13.46841812133789,-56.92555236816406, -14.603074073791504
586,2393277521,0.5279092,0.3759375,-0.73149,0.21190861,-5.811160087585449,-2.6960930824279785,-3.5369410514831543,12.530763626098633,-65.08826446533203, -16.10253143310547
587,2393294188,0.51446813,0.3858155,-0.73649627,0.2098625,5.234817028045654,1.6811487674713135,-4.899751663208008,52.50030517578125,-104.74327087402344, -24.093469619750977
588,2393310855,0.5047959,0.39212072,-0.7425595,0.20006983,9.204699516296387,5.5172200202941895,8.553411483764648,-10.894978523254395,-104.73248291015625, -36.02387619018555
589,2393327522,0.5013962,0.39250758,-0.74863106,0.18463905,6.3534135818481445,-4.320407867431641,1.882650375366211,-77.07781982421875,-80.19197082519531, -33.91827392578125
590,2393344189,0.4942953,0.3958958,-0.7527909,0.17956771,16.278194427490234,-2.089360237121582,-0.6982520818710327,-1.0011152029037476,-68.6471939086914, -14.186339378356934
591,2393360856,0.4921173,0.39482686,-0.7564379,0.17243628,8.53458023071289,0.4377093017101288,-4.218142986297607,-39.57289123535156,-41.735435485839844, -5.655132293701172
592,2393377523,0.49210578,0.39184675,-0.758781,0.16893777,10.688286781311035,-1.3886938095092773,-5.495771884918213,-31.484498977661133,-13.928567886352539, 10.458459854125977
593,2393394190,0.49324474,0.39085492,-0.7574063,0.17400552,10.212456703186035,1.453269124031067,-2.6017279624938965,21.13431739807129,25.423568725585938, 17.67818832397461
594,2393410857,0.49636337,0.3906904,-0.7530477,0.18413022,11.544212341308594,1.4338109493255615,-0.9266804456710815,48.53596496582031,58.37889862060547, 20.134714126586914
595,2393427524,0.5011143,0.39172778,-0.7456195,0.19870934,9.167558670043945,0.09798450767993927,1.2044484615325928,75.22289276123047,87.61910247802734, 18.805002212524414
596,2393444191,0.5061288,0.39250776,-0.73749405,0.2141817,5.071735382080078,-1.1498664617538452,2.3929994106292725,79.17237091064453,93.98002624511719, 20.961599349975586
597,2393460858,0.5109196,0.3958657,-0.72527176,0.23713382,1.1353219747543335,-2.1777524948120117,5.184497833251953,132.7238311767578,123.3795166015625, 23.189348220825195
598,2393477525,0.5128731,0.39626515,-0.71807134,0.25359195,-8.967025756835938,3.6718039512634277,0.4942570626735687,89.47520446777344,78.58344268798828, 33.41994857788086
599,2393494192,0.52121997,0.3855088,-0.719805,0.24818029,-11.938164710998535,8.156685829162598,-5.202870845794678,-90.8310317993164,38.608585357666016, 24.630640029907227
600,2393510859,0.5287782,0.3763471,-0.7215854,0.24097954,-5.5190815925598145,-2.5158681869506836,-2.5613291263580322,-91.95071411132812,27.357589721679688, 11.90501594543457
601,2393527526,0.5289658,0.3767777,-0.7193056,0.2466442,-9.434832572937012,-1.7446867227554321,-1.828523874282837,32.50735092163086,22.407804489135742, 11.241409301757812
602,2393544193,0.52828014,0.37797293,-0.718667,0.24814194,-10.228811264038086,3.475105047225952,-2.091294765472412,14.145514488220215,0.08693596720695496, -2.168513536453247
603,2393560860,0.52750105,0.37791142,-0.7211785,0.24254334,-10.040863990783691,-0.6821982264518738,-1.2850866317749023,-30.62095832824707,-28.142423629760742, -13.740036964416504
604,2393577527,0.5239009,0.3801673,-0.72464126,0.23642333,-8.940698623657227,-1.7273741960525513,0.7562253475189209,-19.076200485229492,-50.429481506347656, -19.472305297851562
605,2393594194,0.52043676,0.38084567,-0.7295436,0.22774638,-9.774297714233398,-2.729617118835449,-0.5196658968925476,-40.165748596191406,-58.24974060058594, -15.686864852905273
606,2393610861,0.51796967,0.38075,-0.7331488,0.22187799,-9.282241821289062,-6.784889221191406,1.6925206184387207,-29.44741439819336,-39.92750549316406, -6.7424116134643555
607,2393627528,0.51274,0.38760397,-0.732905,0.22295986,-4.362170219421387,-0.24503377079963684,-12.628325462341309,43.405975341796875,-32.50697326660156, -22.971200942993164
608,2393644195,0.5079922,0.38975018,-0.73848474,0.21137458,11.382363319396973,5.288210868835449,2.87801456451416,-47.279701232910156,-76.74732208251953, -29.121807098388672
609,2393660862,0.5129232,0.38467628,-0.7431278,0.19156009,-0.5025315880775452,-1.2357404232025146,0.9496122598648071,-138.82135009765625,-36.15928268432617, -37.699092864990234
610,2393677529,0.50823414,0.38916543,-0.7438352,0.19224337,17.630708694458008,-2.6560771465301514,1.4042150974273682,30.264076232910156,-29.85637664794922, -12.015793800354004
611,2393694196,0.5075539,0.3925626,-0.7422184,0.19337937,13.570636749267578,7.673999786376953,4.491997241973877,21.12212371826172,1.1320650577545166, -16.440027236938477
612,2393710863,0.5076,0.39360186,-0.7415013,0.19389606,15.603182792663574,-3.557368278503418,0.12888875603675842,6.65157413482666,2.83717679977417, -5.024713039398193
613,2393727530,0.5070749,0.3948257,-0.73970723,0.19955163,14.393789291381836,-1.8383830785751343,0.13597339391708374,36.4757080078125,17.14153480529785, 9.73799991607666
614,2393744197,0.50824744,0.39550337,-0.73624384,0.20786206,11.240228652954102,-1.4277379512786865,1.2814055681228638,45.76288604736328,39.37007522583008, 14.86640739440918
615,2393760864,0.5101334,0.39572194,-0.731422,0.21952215,6.956549167633057,-2.221583366394043,1.5490018129348755,61.12556838989258,57.32776641845703, 24.157169342041016
616,2393777531,0.5109888,0.39608404,-0.72548276,0.23597245,2.214785099029541,-0.5206539630889893,2.9477245807647705,90.20951080322266,68.7720718383789, 38.731788635253906
617,2393794198,0.5124926,0.396848,-0.71715844,0.25602174,-1.148091435432434,0.6743096709251404,5.001592636108398,111.68367004394531,89.44622039794922, 41.844947814941406
618,2393810865,0.51410294,0.3981661,-0.7081364,0.27514502,-8.863994598388672,2.822817087173462,0.8379084467887878,110.01560974121094,88.81336975097656, 33.806419372558594
619,2393827532,0.516356,0.39287245,-0.7088837,0.27660775,-13.79302978515625,9.621767044067383,-6.623335838317871,-19.587839126586914,21.657670974731445, 29.153709411621094
620,2393844199,0.5225588,0.38063434,-0.71752155,0.25925404,-9.826233863830566,6.923964977264404,-5.557847499847412,-161.62684631347656,-24.38943862915039, 10.117544174194336
621,2393860866,0.52750176,0.36938235,-0.7241869,0.24668181,-10.189627647399902,-8.545950889587402,-0.1516595035791397,-127.69548034667969,-13.518579483032227, 17.609996795654297
622,2393877533,0.5273797,0.36746854,-0.723618,0.2514255,-10.58386516571045,-7.472092151641846,1.0055357217788696,17.523296356201172,16.910560607910156, 26.236940383911133
623,2393894200,0.529105,0.36546072,-0.7215904,0.25650337,-10.688678741455078,-1.3246135711669922,4.617486476898193,16.657272338867188,32.07246017456055, 20.104393005371094
624,2393910867,0.5336329,0.36134982,-0.72172374,0.25254175,-9.585811614990234,1.8206961154937744,1.3560032844543457,-46.692020416259766,18.89066505432129, -2.243295431137085
625,2393927534,0.5369158,0.35746694,-0.7249026,0.24177514,-7.9915266036987305,-1.8044320344924927,-4.693098068237305,-81.80752563476562,-15.16917610168457, -17.501129150390625
626,2393944201,0.53445524,0.3577604,-0.72910464,0.2340332,-7.207594394683838,-2.044532299041748,-6.569494247436523,-38.90776824951172,-46.308387756347656, -13.934610366821289
627,2393960868,0.5264169,0.36140338,-0.7353062,0.22715163,-1.7959150075912476,0.0015714941546320915,-9.151996612548828,-11.769752502441406,-84.28819274902344, -12.947300910949707
628,2393977535,0.51385075,0.3706704,-0.74191546,0.21936782,8.804638862609863,12.254066467285156,6.11638879776001,14.684414863586426,-119.21263122558594, -36.16558074951172
629,2393994202,0.5124664,0.36946312,-0.75033635,0.19460411,7.582432746887207,3.6169276237487793,3.7248857021331787,-140.06826782226562,-96.5326919555664, -55.02022933959961
630,2394010869,0.5036514,0.37783197,-0.7532931,0.1900747,16.219629287719727,-7.904201030731201,-2.513615369796753,24.12273406982422,-78.24446105957031, -39.236976623535156
631,2394027536,0.49513036,0.38667083,-0.7539701,0.19199221,14.043791770935059,3.125171422958374,1.3526450395584106,61.3221549987793,-52.8397331237793, -25.794265747070312
632,2394044203,0.49459666,0.38330635,-0.7586711,0.1812975,13.81680965423584,-5.113683700561523,-3.4247686862945557,-72.11083984375,-42.797454833984375, -5.293751239776611
633,2394060870,0.49462205,0.38078755,-0.7597776,0.1819007,9.780123710632324,-1.3124278783798218,-4.7125091552734375,-7.321247577667236,0.9757108688354492, 18.448068618774414
634,2394077537,0.4998408,0.3757425,-0.7576761,0.18682551,6.178873538970947,2.957737445831299,-3.828749895095825,-2.935319185256958,53.49302291870117, 31.416404724121094
635,2394094204,0.5076817,0.3721848,-0.7511001,0.19896406,4.688323497772217,3.371708869934082,-1.8745801448822021,38.74019241333008,99.28784942626953, 33.569183349609375
636,2394110871,0.5154847,0.37265682,-0.73891515,0.22227666,3.911029100418091,2.5554563999176025,1.5019540786743164,118.30818176269531,141.75897216796875, 37.51283264160156
637,2394127538,0.5224149,0.37764525,-0.7211735,0.25372317,-2.1917641162872314,3.5970706939697266,1.9227896928787231,186.40985107421875,170.88803100585938, 30.54138946533203
638,2394144205,0.5269964,0.3779936,-0.7112705,0.27109,-8.959662437438965,8.085611343383789,-4.054768085479736,92.33370971679688,101.02306365966797, 24.785837173461914
639,2394160872,0.5313962,0.37577394,-0.7089437,0.2716814,-7.8365702629089355,5.728756427764893,-7.976222515106201,-12.586945533752441,33.683345794677734, -3.8847217559814453
640,2394177539,0.5288799,0.37995967,-0.7084753,0.27199197,-7.603931903839111,-4.939897060394287,-8.27470588684082,23.84975814819336,-18.948549270629883, -17.90941047668457
641,2394194206,0.5190951,0.38920012,-0.70841664,0.2778663,-8.767148971557617,-4.4524922370910645,-2.822943687438965,87.50535583496094,-50.66704559326172, -8.019357681274414
642,2394210873,0.5150265,0.38938445,-0.7138595,0.27116844,-12.584473609924316,-0.13215939700603485,4.282781600952148,-31.92461585998535,-59.2318229675293, -5.926246166229248
643,2394227540,0.5178279,0.38333142,-0.7207427,0.25581557,-12.023324012756348,-4.359951972961426,7.635834217071533,-117.61235046386719,-41.58792495727539, -14.093148231506348
644,2394244207,0.52048063,0.37802082,-0.7253937,0.2449578,-9.539436340332031,-8.573033332824707,1.3882919549942017,-88.37494659423828,-22.889745712280273, -5.782711029052734
645,2394260874,0.5182763,0.378162,-0.7266299,0.24574834,-8.265035629272461,-7.253702640533447,-0.9075039029121399,7.582935810089111,-13.149251937866211, 8.911747932434082
646,2394277541,0.51070035,0.38587925,-0.72450984,0.2556717,-8.851070404052734,-1.492418885231018,-8.597484588623047,99.79302978515625,-17.330127716064453, 3.25557541847229
647,2394294208,0.50175375,0.39439094,-0.7287856,0.24813434,-2.717771291732788,13.81789493560791,-0.8884541392326355,7.988096714019775,-93.37249755859375, -41.60420608520508
648,2394310875,0.4994915,0.39001673,-0.7414444,0.22057974,6.914467811584473,3.4408488273620605,12.053448677062988,-169.1680908203125,-121.12967681884766, -34.535125732421875
649,2394327542,0.49578166,0.3935635,-0.74551696,0.20859739,4.75208044052124,-7.2225117683410645,-0.9087820053100586,-45.598995208740234,-69.76055145263672, -42.179874420166016
650,2394344209,0.48641664,0.4029911,-0.746789,0.20809463,15.726212501525879,7.543474197387695,5.499858379364014,52.56864547729492,-66.61540985107422, -32.76716613769531
651,2394360876,0.48448992,0.40423205,-0.7503291,0.19716069,13.159714698791504,-3.014784336090088,-0.5310742259025574,-52.14138412475586,-53.61421203613281, -29.882034301757812
652,2394377543,0.48000073,0.40747014,-0.7516157,0.1965743,15.593185424804688,-3.1355888843536377,-3.807467222213745,18.067760467529297,-33.44643020629883, -8.564201354980469
653,2394394210,0.479155,0.40640843,-0.7526957,0.19670254,11.155413627624512,0.6617614030838013,-2.9531667232513428,-2.369457721710205,-6.2343010902404785, 10.447356224060059
654,2394410877,0.48247105,0.40193632,-0.75242364,0.19881546,11.661418914794922,1.6014436483383179,-2.671699047088623,-13.127315521240234,29.83863067626953, 25.22334861755371
655,2394427544,0.48600695,0.399808,-0.7481744,0.21020426,9.196606636047363,1.5480166673660278,0.20407059788703918,47.47649002075195,66.50881958007812, 32.58853530883789
656,2394444211,0.490421,0.4002622,-0.73974025,0.22817065,6.236408233642578,1.2596553564071655,3.0283567905426025,93.59844207763672,99.23055267333984, 28.535615921020508
657,2394460878,0.49535555,0.40186366,-0.72808415,0.25104198,2.9220340251922607,-0.35333189368247986,6.368405342102051,126.06017303466797,124.28251647949219, 29.597393035888672
658,2394477545,0.4986418,0.40242046,-0.7179017,0.27208692,-6.057644367218018,0.18060269951820374,2.9216995239257812,115.37510681152344,107.55795288085938, 35.56005096435547
659,2394494212,0.50373477,0.3945332,-0.71876305,0.27198267,-11.768381118774414,8.348925590515137,-4.067352771759033,-43.64162826538086,35.896484375, 31.917617797851562
660,2394510879,0.5115949,0.38124102,-0.7259096,0.25686863,-8.366874694824219,-0.14516086876392365,-4.82202672958374,-155.7941436767578,-2.550286054611206, 18.607213973999023
661,2394527546,0.5147634,0.3743643,-0.72941095,0.25065902,-8.56020736694336,-5.737398624420166,-2.7120859622955322,-70.0593032836914,-0.8734985589981079, 16.605751037597656
662,2394544213,0.515121,0.37316886,-0.7288845,0.25322458,-10.372406959533691,-4.119267463684082,-1.0842552185058594,8.211385726928711,12.62401294708252, 14.114931106567383
663,2394560880,0.5164851,0.37185147,-0.7285033,0.25348124,-11.671409606933594,-0.7216745615005493,0.2611180543899536,-6.659792900085449,11.474337577819824, 4.879382133483887
664,2394577547,0.517715,0.3700297,-0.7302204,0.24865133,-11.413806915283203,-2.2715439796447754,-1.401708960533142,-37.25528335571289,-8.743324279785156, -5.2229814529418945
665,2394594214,0.514512,0.3708828,-0.7337685,0.24353103,-8.742426872253418,-3.074948310852051,-3.6725401878356934,-21.023941040039062,-41.93568420410156, -6.248408317565918
666,2394610881,0.5072348,0.37273082,-0.7397897,0.23768874,-7.611789703369141,-2.124445676803589,-3.6918694972991943,-14.904014587402344,-74.5450668334961, -0.7389927506446838
667,2394627548,0.4984459,0.37366012,-0.7476638,0.23006283,-7.468957424163818,-0.39269259572029114,-1.460995078086853,-26.42630386352539,-92.40220642089844, 3.4924118518829346
668,2394644215,0.49171367,0.37224832,-0.75757354,0.2138484,-3.5005030632019043,2.6960763931274414,1.8279893398284912,-87.11919403076172,-107.05628204345703, -11.915499687194824
669,2394660882,0.4820771,0.37357566,-0.76822484,0.1946119,7.421502590179443,6.426365852355957,-3.4765121936798096,-87.24787139892578,-136.50230407714844, -30.164464950561523
670,2394677549,0.47832522,0.37487203,-0.77380484,0.17861141,4.619808197021484,3.460819959640503,3.8295581340789795,-78.55307006835938,-80.29627227783203, -40.06719207763672
671,2394694216,0.4712077,0.38421407,-0.7740119,0.17677255,12.359376907348633,3.5143444538116455,1.4295417070388794,38.56013870239258,-54.12881088256836, -45.97017288208008
672,2394710883,0.46697024,0.39303657,-0.77153546,0.17942761,14.12938117980957,1.4019986391067505,0.5006202459335327,56.486026763916016,-17.86886215209961, -39.21397018432617
673,2394727550,0.46568772,0.39473823,-0.7713721,0.17972705,13.849674224853516,-6.395387172698975,-5.997406959533691,10.318614959716797,-7.4600114822387695, -6.403820037841797
674,2394744217,0.46739995,0.39125067,-0.7716741,0.18160187,13.441536903381348,-1.8475984334945679,-3.7649972438812256,-6.689891815185547,17.573806762695312, 23.613262176513672
675,2394760884,0.47371146,0.38529637,-0.76991403,0.18540908,12.59574031829834,0.0010356009006500244,-1.8797357082366943,-14.168845176696777,56.77132034301758, 31.577177047729492
676,2394777551,0.48033506,0.3831,-0.763423,0.19924326,8.983871459960938,-0.37728747725486755,-0.1817280650138855,56.36417770385742,95.46158599853516, 31.399906158447266
677,2394794218,0.4864133,0.3845029,-0.7523679,0.22249086,5.792924404144287,-0.5545388460159302,2.9747610092163086,125.36707305908203,127.42058563232422, 32.32203674316406
678,2394810885,0.49110717,0.38827664,-0.73813015,0.25143346,-1.5655531883239746,-1.413408875465393,2.263943910598755,171.30755615234375,142.18136596679688, 32.82813262939453
679,2394827552,0.4950745,0.38547602,-0.7310551,0.26808217,-8.786606788635254,3.871950626373291,-0.8984967470169067,76.24114990234375,92.81033325195312, 45.059844970703125
680,2394844219,0.50241464,0.3770275,-0.73081887,0.2670838,-10.556106567382812,7.216010093688965,-7.557286739349365,-53.22589874267578,50.26825714111328, 25.338172912597656
681,2394860886,0.50686663,0.3722918,-0.73123705,0.26415423,-5.835451602935791,-1.007854700088501,-4.889809608459473,-43.805179595947266,22.02492904663086, 7.091789722442627
682,2394877553,0.5068143,0.37151104,-0.73147404,0.26469737,-10.294550895690918,-2.095698595046997,-3.194782257080078,-0.7189229130744934,1.94212806224823, 6.995450019836426
683,2394894220,0.50593513,0.37119615,-0.73317575,0.26210016,-11.689363479614258,0.7582126259803772,-1.6278427839279175,-15.460209846496582,-15.970044136047363, -1.090667486190796
684,2394910887,0.50440687,0.3706309,-0.7364199,0.25669527,-11.25451946258545,-1.745248556137085,1.2659103870391846,-31.589935302734375,-30.84821128845215, -4.018852710723877
685,2394927554,0.5005844,0.37115815,-0.74070084,0.25103658,-9.478509902954102,-3.4971578121185303,-1.9108957052230835,-25.044790267944336,-48.200469970703125, -3.2028112411499023
686,2394944221,0.4931365,0.37538582,-0.74370915,0.25059697,-8.048690795898438,-4.9611711502075195,-2.1620190143585205,25.759580612182617,-54.72265625, -0.4118703007698059
687,2394960888,0.48461914,0.38064462,-0.7465633,0.2507933,-8.598176002502441,0.15436920523643494,1.7478657960891724,35.497840881347656,-59.842594146728516, -2.5010714530944824
688,2394977555,0.4812321,0.38290933,-0.75058687,0.24169396,-6.419594764709473,4.907215118408203,4.875571250915527,-37.77079772949219,-57.47746276855469, -25.308027267456055
689,2394994222,0.47905606,0.38209343,-0.7585277,0.2216885,4.785182476043701,1.958770990371704,-4.577850818634033,-113.92866516113281,-87.89163208007812, -37.096214294433594
690,2395010889,0.47494227,0.38457775,-0.76353765,0.20866384,12.078940391540527,2.9186513423919678,5.903120040893555,-57.090328216552734,-74.99417877197266, -36.00973129272461
691,2395027556,0.4702288,0.3911244,-0.7642056,0.20468636,7.8773884773254395,1.6661890745162964,1.56959867477417,11.52786922454834,-46.26631164550781, -38.3640251159668
692,2395044223,0.46482226,0.3985788,-0.7632196,0.206328,18.357738494873047,1.0546241998672485,3.166083335876465,48.200889587402344,-30.918251037597656, -28.421117782592773
693,2395060890,0.46271697,0.40107414,-0.7635345,0.20505583,14.756372451782227,-3.8445308208465576,-1.3173730373382568,6.212225437164307,-19.10242462158203, -12.820359230041504
694,2395077557,0.46276584,0.39878482,-0.76480633,0.20467032,12.81062126159668,-2.684314012527466,-3.96919846534729,-11.654651641845703,-1.8336414098739624, 14.654704093933105
695,2395094224,0.46697474,0.39367366,-0.7640965,0.20763478,10.376081466674805,-0.08569654077291489,-2.152761697769165,-11.65070629119873,39.427433013916016, 28.816537857055664
