PacketCounter,SampleTimeFine,Quat_W,Quat_X,Quat_Y,Quat_Z,Acc_X,Acc_Y,Acc_Z,Gyr_X,Gyr_Y,Gyr_Z 
1,1041547958,0.69358194,0.29713163,-0.52528656,0.39335862,-0.1373768150806427,-0.023457422852516174,-0.10908940434455872,-0.14076848328113556,0.5928160548210144, -0.17030073702335358
2,1041564625,0.69363284,0.29698423,-0.52521324,0.39347833,16.199207305908203,-0.047784190624952316,4.646611213684082,0.9579086303710938,4.004373073577881, 1.683964729309082
3,1041581292,0.69399446,0.29627392,-0.5247903,0.39393985,15.698655128479004,0.014146354049444199,4.357242107391357,0.02312186360359192,3.661648988723755, 2.0856740474700928
4,1041597959,0.69394976,0.29641992,-0.52442014,0.39440185,16.485397338867188,0.06971368193626404,4.663559436798096,2.121737003326416,4.263560771942139, 1.7306824922561646
5,1041614626,0.6941902,0.29633266,-0.52422214,0.3943075,15.744165420532227,-0.10710236430168152,4.4721760749816895,-0.9280250668525696,3.471705913543701, 1.8533161878585815
6,1041631293,0.69417876,0.29633296,-0.5238517,0.39481968,15.926998138427734,0.08674420416355133,4.429524898529053,3.0920488834381104,3.9238979816436768, 2.008349657058716
7,1041647960,0.69431484,0.29622343,-0.5236638,0.39491144,16.057043075561523,-0.025587985292077065,4.595088481903076,-0.1173958107829094,4.074116230010986, 1.773237705230713
8,1041664627,0.6943727,0.29613873,-0.5234055,0.3952152,15.976568222045898,0.013622265309095383,4.594017028808594,1.4978758096694946,3.6878256797790527, 2.271878719329834
9,1041681294,0.69457966,0.29586583,-0.52314806,0.39539686,16.029285430908203,-0.06970512121915817,4.504297256469727,-0.17990361154079437,3.958731174468994, 1.9489665031433105
10,1041697961,0.6945572,0.2958552,-0.5228864,0.3957902,15.991865158081055,-0.10254072397947311,4.5241923332214355,1.8834362030029297,3.2826709747314453, 1.9436900615692139
11,1041714628,0.69453114,0.29580706,-0.5226632,0.39616644,15.944258689880371,0.01388564519584179,4.534909725189209,1.8006947040557861,3.2421905994415283, 1.6829147338867188
12,1041731295,0.694678,0.29557425,-0.52246374,0.39634585,16.111465454101562,-0.10539933294057846,4.597635746002197,1.0533287525177002,3.799945116043091, 1.609470009803772
13,1041747962,0.69476813,0.29531422,-0.5222764,0.39662856,15.900250434875488,0.0006192887667566538,4.49196195602417,0.716227114200592,3.7510502338409424, 1.9106111526489258
14,1041764629,0.6947951,0.2952858,-0.52195245,0.39702895,16.09140396118164,-0.022284843027591705,4.61692476272583,2.4498353004455566,3.880484104156494, 1.6283848285675049
15,1041781296,0.69482636,0.29519716,-0.5216981,0.39737403,16.057632446289062,-0.2113453596830368,4.487897872924805,1.4498772621154785,3.5106749534606934, 1.6824405193328857
16,1041797963,0.6948039,0.29522774,-0.52143353,0.39773783,15.97609806060791,0.20473580062389374,4.573363304138184,2.982400894165039,3.273041009902954, 1.2876595258712769
17,1041814630,0.6949008,0.29513445,-0.5211515,0.39800718,16.286123275756836,-0.12835784256458282,4.579189777374268,1.481150507926941,3.8574585914611816, 1.409947156906128
18,1041831297,0.6949119,0.2950554,-0.520976,0.39827618,15.724228858947754,0.14178113639354706,4.518404960632324,2.175997257232666,3.0919458866119385, 1.834336757659912
19,1041847964,0.69509375,0.29484382,-0.52070534,0.39846957,16.378864288330078,0.07891971617937088,4.614738941192627,0.8911107778549194,4.2778401374816895, 1.5036641359329224
20,1041864631,0.6951253,0.29472035,-0.5204969,0.3987778,15.811338424682617,0.0054023172706365585,4.5119194984436035,1.4583295583724976,3.501774787902832, 2.2888855934143066
21,1041881298,0.6952439,0.2946268,-0.5201687,0.3990683,16.427644729614258,0.10144957900047302,4.6514506340026855,1.3021305799484253,4.242724895477295, 1.4953911304473877
22,1041897965,0.69527113,0.29449496,-0.5199914,0.39934918,15.796433448791504,-0.01381245069205761,4.499216079711914,1.0014116764068604,3.3093461990356445, 2.299898624420166
23,1041914632,0.69534826,0.29445046,-0.5196387,0.39970693,16.34614372253418,0.092472143471241,4.561395168304443,2.2376346588134766,4.229176044464111, 1.8660452365875244
24,1041931299,0.69542867,0.29431406,-0.5194238,0.39994648,16.083999633789062,-0.01606745459139347,4.700267791748047,1.296610951423645,3.679539442062378, 2.0630195140838623
25,1041947966,0.69546753,0.2942878,-0.5190859,0.40033686,16.00435447692871,0.11577176302671432,4.499006271362305,2.5853779315948486,4.0100202560424805, 2.1499109268188477
26,1041964633,0.695591,0.29410014,-0.5188435,0.40057456,16.259000778198242,0.07070190459489822,4.635163307189941,0.8944915533065796,4.039218902587891, 2.0455522537231445
27,1041981300,0.69561833,0.29407653,-0.5185479,0.4009271,16.256927490234375,0.04137258976697922,4.604297161102295,1.8131169080734253,3.7332756519317627, 2.002330780029297
28,1041997967,0.6956484,0.2940614,-0.51833606,0.40115967,16.052412033081055,0.13176843523979187,4.630640506744385,1.5799387693405151,3.0947508811950684, 1.6722341775894165
29,1042014634,0.6957167,0.29412,-0.5179948,0.40143886,16.368549346923828,0.013997027650475502,4.527416706085205,2.2047476768493652,3.7057034969329834, 1.2641596794128418
30,1042031301,0.69573087,0.29414862,-0.5176598,0.40182534,16.340126037597656,0.10139530897140503,4.840052604675293,2.8631479740142822,3.2884724140167236, 1.7522865533828735
31,1042047968,0.6959117,0.2938101,-0.5173521,0.40215626,15.820703506469727,0.03442901372909546,4.369292736053467,0.4686420261859894,4.0227885246276855, 2.014061212539673
32,1042064635,0.6960856,0.2935298,-0.51694876,0.40257818,16.76160430908203,0.10899165272712708,4.823127269744873,1.2852773666381836,4.302158832550049, 1.907102346420288
33,1042081302,0.69611233,0.2933505,-0.51664805,0.40304834,15.894545555114746,-0.029363546520471573,4.629485607147217,1.9802778959274292,3.036379098892212, 2.365825891494751
34,1042097969,0.6963395,0.29298478,-0.51628816,0.4033833,16.540172576904297,0.24768324196338654,4.593928813934326,0.5295106172561646,4.24908971786499, 1.738084316253662
35,1042114636,0.69638896,0.2928593,-0.51595885,0.40381,16.55587387084961,0.042291104793548584,4.851167678833008,2.3661458492279053,2.9875102043151855, 1.9083062410354614
36,1042131303,0.6964969,0.29265034,-0.51560915,0.4042216,16.345064163208008,0.10722974687814713,4.634365558624268,1.6893433332443237,3.488302707672119, 1.8736268281936646
37,1042147970,0.69667876,0.29222018,-0.5153727,0.40452084,16.319746017456055,0.13156263530254364,4.587700843811035,-0.18142755329608917,3.5965676307678223, 2.1582353115081787
38,1042164637,0.69681776,0.29198298,-0.5149568,0.40498197,16.608295440673828,0.09253212809562683,4.759544372558594,2.119649648666382,4.092045307159424, 2.078195333480835
39,1042181304,0.6970388,0.29139176,-0.5147435,0.40529853,16.18675994873047,-0.1395256072282791,4.526130676269531,-1.159166932106018,4.110115051269531, 2.7102274894714355
40,1042197971,0.69706064,0.29125455,-0.5143516,0.4058571,16.43018913269043,0.20357197523117065,4.812401294708252,2.770750045776367,3.4826033115386963, 2.4573144912719727
41,1042214638,0.69725215,0.29078913,-0.51408386,0.40620068,16.339828491210938,0.05827125906944275,4.638581275939941,-0.04391298070549965,3.9685025215148926, 2.432713508605957
42,1042231305,0.6973494,0.29037473,-0.5138278,0.40665388,16.35110855102539,0.004866296425461769,4.658112525939941,0.673492431640625,3.6588964462280273, 3.0423600673675537
43,1042247972,0.69746965,0.29000992,-0.5135377,0.4070744,16.53510856628418,0.1852002590894699,4.806889533996582,0.5483999252319336,3.7041409015655518, 2.4839260578155518
44,1042264639,0.6976145,0.2895872,-0.51323014,0.40751475,16.47699737548828,-0.20129160583019257,4.597126483917236,0.5982294082641602,4.072707176208496, 2.7661397457122803
45,1042281306,0.6977086,0.28929034,-0.51293445,0.40793663,16.563501358032227,0.2493973821401596,4.803488254547119,0.9604185223579407,3.454634428024292, 2.3160600662231445
46,1042297973,0.6978574,0.28888884,-0.51263714,0.40834033,16.496809005737305,-0.290213018655777,4.609537124633789,0.303760290145874,3.911757707595825, 2.452025890350342
47,1042314640,0.6980632,0.28855887,-0.51226324,0.40869093,16.677148818969727,0.3496006429195404,4.851526737213135,0.9786165952682495,4.170663833618164, 1.7625830173492432
48,1042331307,0.6982567,0.28819206,-0.5119477,0.40901425,16.689273834228516,-0.0019211708568036556,4.6962504386901855,0.532532811164856,3.8966968059539795, 1.9104703664779663
49,1042347974,0.6983174,0.28803682,-0.511578,0.4094826,16.532297134399414,0.26388272643089294,4.808063507080078,2.2669994831085205,3.3881442546844482, 2.0600743293762207
50,1042364641,0.69844484,0.28775188,-0.5112391,0.40988803,16.6208553314209,-0.025615159422159195,4.688331604003906,1.3006832599639893,3.714590311050415, 2.123990535736084
51,1042381308,0.698512,0.28745335,-0.510915,0.41038698,16.67413330078125,0.10524026304483414,4.753819465637207,1.6274118423461914,3.657845973968506, 2.8137667179107666
52,1042397975,0.6986478,0.28698695,-0.5107064,0.41074196,16.425214767456055,0.09875509142875671,4.777243137359619,-0.15344567596912384,3.534430742263794, 2.747096300125122
53,1042414642,0.6987882,0.28658438,-0.51039046,0.41117635,16.58966064453125,0.017063666135072708,4.7204365730285645,0.7489985823631287,4.043201923370361, 2.6888532638549805
54,1042431309,0.69894224,0.2861253,-0.5101291,0.4115585,16.727230072021484,0.13742932677268982,4.802206993103027,0.18986056745052338,3.8854150772094727, 2.731562852859497
55,1042447976,0.6990994,0.28577495,-0.5098108,0.4119298,16.307170867919922,0.31858542561531067,4.6685471534729,0.8860137462615967,3.841770648956299, 2.1999197006225586
56,1042464643,0.6992334,0.28543693,-0.5094329,0.41240346,16.748239517211914,-0.087059386074543,4.781250953674316,1.3499878644943237,4.218764781951904, 2.546844244003296
57,1042481310,0.69933236,0.2851461,-0.5091074,0.41283855,16.875024795532227,0.2088540643453598,4.928037643432617,1.3842319250106812,3.6372790336608887, 2.4031693935394287
58,1042497977,0.69952893,0.28468657,-0.5088124,0.413186,16.190622329711914,0.17813348770141602,4.562397003173828,-0.08188381791114807,4.1416707038879395, 2.335833787918091
59,1042514644,0.6996154,0.2844764,-0.50836015,0.4137408,16.993661880493164,0.07247387617826462,4.873387336730957,2.6225550174713135,4.21128511428833, 2.5088729858398438
60,1042531311,0.699744,0.2839893,-0.5081951,0.41406062,16.396018981933594,0.17357699573040009,4.809826374053955,-0.2764507234096527,3.300612688064575, 2.8411977291107178
61,1042547978,0.6999115,0.2835953,-0.50783724,0.41448662,16.719614028930664,0.11232234537601471,4.635839462280273,0.8932492733001709,4.30519437789917, 2.4975903034210205
62,1042564645,0.69999415,0.28334677,-0.5075126,0.41491434,16.722034454345703,0.17856931686401367,4.985622406005859,1.5550943613052368,3.442315101623535, 2.262939929962158
63,1042581312,0.7001513,0.28293663,-0.5072119,0.4152964,16.439228057861328,-0.0059773800894618034,4.621460437774658,0.4484976530075073,3.953749895095825, 2.4568793773651123
64,1042597979,0.70023423,0.28269854,-0.5068572,0.41575164,16.880714416503906,0.2953391671180725,4.8917083740234375,2.065056324005127,3.599475145339966, 2.397035598754883
65,1042614646,0.70036143,0.28231907,-0.5065742,0.41614023,16.446369171142578,0.02710859663784504,4.7294230461120605,0.7456690073013306,3.6864426136016846, 2.5452558994293213
66,1042631313,0.7004556,0.2820693,-0.5061838,0.41662592,16.53289794921875,0.26356983184814453,4.690728187561035,2.090092420578003,3.9062633514404297, 2.449566602706909
67,1042647980,0.7005089,0.281808,-0.50583756,0.41713282,16.661457061767578,0.07037906348705292,4.907015800476074,2.2925221920013428,3.6201436519622803, 2.8806025981903076
68,1042664647,0.7006633,0.2813211,-0.50557446,0.417521,16.50614356994629,0.043356992304325104,4.718571662902832,0.19714733958244324,3.9924886226654053, 2.906829833984375
69,1042681314,0.7007235,0.28096846,-0.50531423,0.41797262,16.524484634399414,0.16314810514450073,4.749235153198242,1.0446972846984863,3.3972365856170654, 2.952894926071167
70,1042697981,0.7007947,0.28064537,-0.50498694,0.4184655,16.677757263183594,0.01615111343562603,4.752930641174316,1.594038486480713,3.7512171268463135, 2.9238498210906982
71,1042714648,0.7008777,0.28024897,-0.50478196,0.41883907,16.710756301879883,0.27892985939979553,4.877315998077393,0.587177574634552,3.1821537017822266, 2.8549647331237793
72,1042731315,0.7010544,0.27968317,-0.5045604,0.4191886,16.17201042175293,-0.06472771614789963,4.442923069000244,-0.6682224869728088,4.037387371063232, 2.9493467807769775
73,1042747982,0.70114297,0.27956074,-0.5040643,0.41971874,16.99608039855957,0.3033626079559326,4.970139503479004,3.370086908340454,4.117465496063232, 2.122133731842041
74,1042764649,0.70119387,0.2792246,-0.5038601,0.420102,16.432912826538086,-0.16626951098442078,4.769524097442627,1.1393872499465942,2.9122085571289062, 2.859344005584717
75,1042781316,0.7013377,0.27884647,-0.5035375,0.42049974,16.642480850219727,0.34274470806121826,4.762458801269531,0.829486608505249,3.968143939971924, 2.457660675048828
76,1042797983,0.7014414,0.2784543,-0.50327706,0.42089844,16.419776916503906,0.03686915710568428,4.721904754638672,0.8323295712471008,3.5678300857543945, 2.816725015640259
77,1042814650,0.7015479,0.27810615,-0.50293905,0.42135498,16.918752670288086,0.151456817984581,4.871913433074951,1.4592516422271729,3.9377799034118652, 2.7855284214019775
78,1042831317,0.7016627,0.27745432,-0.5029335,0.42159998,15.789053916931152,0.09391724318265915,4.5814924240112305,-1.594365119934082,2.8351917266845703, 3.476879358291626
79,1042847984,0.70178324,0.2771545,-0.50246304,0.42215717,17.154632568359375,0.19182197749614716,4.869655132293701,2.389594554901123,4.679908275604248, 2.815521240234375
80,1042864651,0.7018895,0.276537,-0.50236917,0.42249703,16.50830841064453,0.014877662993967533,4.732132911682129,-0.6833723783493042,3.3144946098327637, 3.7328648567199707
81,1042881318,0.7019732,0.27610427,-0.5021043,0.42295554,16.488975524902344,0.27254992723464966,4.777128219604492,0.7579118609428406,3.772219657897949, 3.2563281059265137
82,1042897985,0.70216435,0.27557167,-0.50183284,0.42330796,16.79139518737793,-0.008156494237482548,4.680649280548096,-0.3040996193885803,4.267056941986084, 2.75951886177063
83,1042914652,0.7021691,0.27531564,-0.5015423,0.42381042,16.26651382446289,0.2819633185863495,4.7953948974609375,2.0561554431915283,3.1968936920166016, 3.074862003326416
84,1042931319,0.70234215,0.27482063,-0.5012278,0.42421663,16.806062698364258,0.0011880440870299935,4.691420078277588,0.3951975703239441,4.404840469360352, 2.9333395957946777
85,1042947986,0.7023817,0.2744673,-0.5009633,0.42469266,16.584383010864258,0.19431188702583313,4.9161224365234375,1.3049349784851074,3.4342081546783447, 3.220303535461426
86,1042964653,0.7025655,0.27386072,-0.5007703,0.42500764,16.13602066040039,0.135540172457695,4.578898906707764,-0.7449581027030945,4.011672496795654, 3.1154839992523193
87,1042981320,0.7026731,0.2735049,-0.50038,0.42551804,17.122568130493164,0.23144030570983887,4.857387542724609,1.72079598903656,4.349081516265869, 2.996551752090454
88,1042997987,0.70273167,0.272956,-0.50032526,0.42583817,16.175207138061523,0.05277112498879433,4.790566444396973,-0.7749379277229309,2.7737720012664795, 3.5153496265411377
89,1043014654,0.7029332,0.2724159,-0.49998182,0.4262544,16.441638946533203,0.22170507907867432,4.535103797912598,0.23643727600574493,4.813094139099121, 3.015838146209717
90,1043031321,0.70307827,0.27200508,-0.4996452,0.42667222,16.908130645751953,0.07002447545528412,4.872391223907471,0.9196239113807678,4.216861724853516, 2.747896671295166
91,1043047988,0.70305645,0.27176592,-0.49936628,0.4271869,16.275901794433594,0.09625479578971863,4.842985153198242,2.1992790699005127,3.042257070541382, 3.21291446685791
92,1043064655,0.7032905,0.27125984,-0.4990385,0.4275059,16.598777770996094,0.28441092371940613,4.646701812744141,-0.061483290046453476,4.567622184753418, 2.3530967235565186
93,1043081322,0.70338875,0.27085146,-0.49873844,0.42795336,16.769975662231445,-0.0900457575917244,4.786611080169678,0.9416829943656921,3.9246020317077637, 3.0592260360717773
94,1043097989,0.70335424,0.27062714,-0.49843186,0.42850846,16.427841186523438,0.197313129901886,4.839903354644775,2.4303574562072754,3.1616127490997314, 3.3071954250335693
95,1043114656,0.7035154,0.27002844,-0.49822956,0.4288569,16.527523040771484,0.09670628607273102,4.45405387878418,-0.6802734136581421,4.038015842437744, 3.2432661056518555
96,1043131323,0.7035889,0.2695038,-0.49803314,0.42929405,16.32218360900879,0.15859355032444,4.6787824630737305,0.2132449448108673,3.6542985439300537, 3.7234528064727783
97,1043147990,0.7036711,0.26906613,-0.49771267,0.4298052,16.430179595947266,0.06315740942955017,4.547992706298828,1.0738956928253174,4.175299167633057, 3.462791919708252
98,1043164657,0.7037683,0.26851228,-0.4975625,0.43016613,16.618244171142578,-0.013242099434137344,4.767354965209961,-0.4971297085285187,3.4694387912750244, 3.4199936389923096
99,1043181324,0.7038835,0.2681003,-0.49729532,0.43054327,16.224409103393555,0.22511613368988037,4.5831756591796875,0.6833788752555847,3.6996970176696777, 2.7973742485046387
100,1043197991,0.70395595,0.26779658,-0.4969652,0.43099508,17.139957427978516,-0.03362925350666046,4.782896518707275,1.6805965900421143,3.681114673614502, 2.7841711044311523
101,1043214658,0.70403624,0.2672534,-0.4968469,0.43133733,16.085386276245117,-0.05868967995047569,4.611619472503662,-0.2778337895870209,3.1795802116394043, 3.5328691005706787
102,1043231325,0.70429206,0.26675496,-0.49641708,0.43172273,16.28087615966797,0.2832965552806854,4.4518961906433105,0.5983703136444092,5.242029666900635, 2.4587743282318115
103,1043247992,0.7043669,0.26646045,-0.49602333,0.43223473,16.7697696685791,-0.1544787585735321,4.800192832946777,2.135836601257324,4.09067440032959, 2.9402804374694824
104,1043264659,0.7044423,0.26608336,-0.49573565,0.43267405,16.213165283203125,0.09979298710823059,4.660605430603027,1.2468197345733643,3.6883888244628906, 3.095454692840576
105,1043281326,0.704574,0.26555082,-0.49552837,0.4330241,16.376787185668945,0.17249508202075958,4.5806779861450195,-0.020771900191903114,3.782093048095703, 3.234262704849243
106,1043297993,0.7046792,0.26509446,-0.49529326,0.43340135,16.9706974029541,0.02599404752254486,4.83828592300415,0.350567489862442,3.6725223064422607, 3.0435638427734375
107,1043314660,0.7047382,0.26450348,-0.49527103,0.43369183,15.736385345458984,0.27576541900634766,4.463350296020508,-1.0529125928878784,2.7244553565979004, 3.653209924697876
108,1043331327,0.70485514,0.26396868,-0.49502748,0.4341055,16.324453353881836,0.06540989875793457,4.327324390411377,0.23105858266353607,4.050527095794678, 3.5078585147857666
109,1043347994,0.7049122,0.2635229,-0.49478528,0.43455988,16.563610076904297,0.17474500834941864,4.836621284484863,0.879431426525116,3.659754514694214, 3.5758471488952637
110,1043364661,0.7049646,0.26301068,-0.4945684,0.43503153,16.35059356689453,-0.09541129320859909,4.479773998260498,0.3317549526691437,3.7735514640808105, 3.8540780544281006
111,1043381328,0.70505,0.26243177,-0.49442655,0.4354039,16.552413940429688,0.028986936435103416,4.732717990875244,-0.4294354021549225,3.533189296722412, 3.7209556102752686
112,1043397995,0.70514715,0.26190323,-0.49420476,0.4358166,15.981873512268066,0.0746397152543068,4.405491352081299,-0.020925579592585564,3.9054954051971436, 3.4838080406188965
113,1043414662,0.70529884,0.26132,-0.4939826,0.43617257,16.489946365356445,0.04654809460043907,4.5233659744262695,-0.35745084285736084,4.140478610992432, 3.335740804672241
114,1043431329,0.7053159,0.261029,-0.4937016,0.43663752,16.164918899536133,0.22285984456539154,4.63242244720459,1.9782418012619019,3.2834904193878174, 3.2358505725860596
115,1043447996,0.7054575,0.26045182,-0.49350688,0.43697327,16.344772338867188,-0.13019053637981415,4.54465913772583,-0.6566712260246277,3.9522125720977783, 3.2196125984191895
116,1043464663,0.705496,0.2601019,-0.49324787,0.437412,16.119802474975586,0.35095125436782837,4.538644313812256,1.2677069902420044,3.4142560958862305, 3.189056873321533
117,1043481330,0.7056511,0.25955397,-0.49303928,0.43772194,16.581951141357422,-0.09947449713945389,4.614799499511719,-0.47305378317832947,3.9352571964263916, 2.9951555728912354
118,1043497997,0.70574343,0.2590618,-0.49289447,0.4380278,15.985057830810547,0.19218195974826813,4.4607253074646,-0.21171459555625916,3.2378742694854736, 3.132132053375244
119,1043514664,0.7058443,0.25860113,-0.4926599,0.4384013,16.242786407470703,0.057166460901498795,4.3554863929748535,0.3861178457736969,3.7398064136505127, 3.1582188606262207
120,1043531331,0.7058137,0.2583772,-0.49235046,0.43892992,16.527803421020508,0.04367133229970932,4.609594345092773,2.545550584793091,3.225081205368042, 3.3888232707977295
121,1043547998,0.70581686,0.25807372,-0.49205387,0.4394355,16.011091232299805,0.1338353157043457,4.476650714874268,1.8855241537094116,3.4876115322113037, 3.421799421310425
122,1043564665,0.7059474,0.25749832,-0.49186134,0.43977895,16.432037353515625,0.11926978081464767,4.433712005615234,-0.6971136927604675,3.9643659591674805, 3.2702488899230957
123,1043581332,0.70595866,0.25709668,-0.49164873,0.44023302,16.490509033203125,-0.010112520307302475,4.684823989868164,1.0040115118026733,3.3044543266296387, 3.6490089893341064
124,1043597999,0.70609945,0.25641903,-0.49158964,0.44046837,16.201234817504883,0.042476531118154526,4.342572212219238,-1.8552430868148804,3.452303886413574, 3.354950189590454
125,1043614666,0.706131,0.25603354,-0.49131545,0.44094786,16.204666137695312,-0.00208135019056499,4.387047290802002,1.3818756341934204,3.6549904346466064, 3.578536033630371
126,1043631333,0.7062201,0.25554666,-0.49113718,0.44128653,15.776752471923828,0.15663273632526398,4.3548994064331055,0.04827354475855827,3.4408037662506104, 3.244879722595215
127,1043648000,0.7062464,0.25527406,-0.49068883,0.4419001,16.872276306152344,-0.3342165946960449,4.5073041915893555,2.864992141723633,4.381904602050781, 3.5342133045196533
128,1043664667,0.70633787,0.25467107,-0.49071017,0.44207817,15.859296798706055,0.33561062812805176,4.507236480712891,-1.4876753091812134,2.532026767730713, 3.2891764640808105
129,1043681334,0.7064349,0.25423014,-0.49043348,0.44248384,16.22735595703125,-0.20872104167938232,4.188615322113037,0.5997022390365601,3.9499969482421875, 3.1325550079345703
130,1043698001,0.7064763,0.25381395,-0.49022025,0.4428927,16.819684982299805,0.09617026150226593,4.70953893661499,0.8013765811920166,3.369920492172241, 3.4291372299194336
131,1043714668,0.7065005,0.2533005,-0.4901223,0.44325662,15.57642936706543,-0.13343778252601624,4.146480083465576,-0.20611822605133057,2.9813249111175537, 3.766021728515625
132,1043731335,0.7066123,0.25289527,-0.48977154,0.443697,16.391813278198242,0.2715270519256592,4.3170270919799805,1.1917527914047241,4.312596797943115, 3.064131021499634
133,1043748002,0.70670027,0.2523942,-0.4895973,0.44403452,16.30987548828125,-0.23115535080432892,4.464356422424316,-0.22130657732486725,3.5107781887054443, 3.2227249145507812
134,1043764669,0.7067874,0.25202468,-0.4892632,0.4444736,16.164323806762695,0.22573402523994446,4.400035381317139,1.459917664527893,4.03472375869751, 3.1107075214385986
135,1043781336,0.7070281,0.25121102,-0.48923996,0.444577,16.16591453552246,-0.1392790824174881,4.3371262550354,-3.0562617778778076,3.823432445526123, 3.046420097351074
136,1043798003,0.7069633,0.25107574,-0.48880917,0.44522986,16.131996154785156,-0.02751593105494976,4.336719989776611,3.5762693881988525,3.703756809234619, 3.513044834136963
137,1043814670,0.70705485,0.25039205,-0.48879027,0.44549015,15.86489200592041,0.04689977318048477,4.1493754386901855,-1.8571128845214844,3.2231216430664062, 3.730342388153076
138,1043831337,0.70700824,0.25017616,-0.48846015,0.4460471,16.175098419189453,-0.1062837764620781,4.346770763397217,2.7752835750579834,3.3324620723724365, 3.587218761444092
139,1043848004,0.70714474,0.24962023,-0.4882874,0.44633126,15.651933670043945,0.32944193482398987,4.215705871582031,-0.6369238495826721,3.7720658779144287, 3.092740058898926
140,1043864671,0.70726705,0.2490864,-0.48806554,0.44667837,16.20276641845703,-0.33074626326560974,4.154560089111328,-0.04441243037581444,3.993961811065674, 3.3525431156158447
141,1043881338,0.70731616,0.24867857,-0.48786116,0.44705102,16.164011001586914,0.2312881350517273,4.559787750244141,0.5153980255126953,3.3681023120880127, 3.191246747970581
142,1043898005,0.7075652,0.24781148,-0.48783067,0.4471713,15.811433792114258,-0.3397824466228485,4.009716987609863,-3.2448089122772217,4.145242691040039, 3.3109731674194336
143,1043914672,0.7075614,0.24763258,-0.48744315,0.44769868,16.349660873413086,0.15741683542728424,4.451755046844482,2.9439427852630615,3.6346147060394287, 3.122565746307373
144,1043931339,0.70767385,0.24717286,-0.4872414,0.44799492,15.618525505065918,-0.16605928540229797,4.207063674926758,-0.0006275111809372902,3.6069154739379883, 2.8915653228759766
145,1043948006,0.707718,0.24691758,-0.4868757,0.448463,16.110210418701172,-0.05605046823620796,4.191411972045898,2.0506362915039062,3.872544765472412, 2.8979430198669434
146,1043964673,0.7078532,0.24639283,-0.48673654,0.44868955,15.349126815795898,0.01282147690653801,4.121426105499268,-0.7279002070426941,3.474062442779541, 2.849957227706909
147,1043981340,0.7078819,0.24622196,-0.48630166,0.4492092,16.941097259521484,-0.2607538402080536,4.407009124755859,2.910928249359131,4.000057220458984, 2.8365235328674316
148,1043998007,0.70793617,0.24566711,-0.48639002,0.44933158,15.811779975891113,0.11923681199550629,4.365039348602295,-1.8505942821502686,2.052185535430908, 3.0553834438323975
149,1044014674,0.70809746,0.2451905,-0.48625186,0.44948724,16.099563598632812,-0.17462554574012756,4.047672748565674,-0.8239989876747131,3.3326668739318848, 2.265641689300537
150,1044031341,0.7082007,0.24490009,-0.4860226,0.44973093,16.481000900268555,0.19027777016162872,4.225605010986328,0.8236469030380249,3.1560420989990234, 2.1421890258789062
151,1044048008,0.7083575,0.24438706,-0.48591354,0.44988084,16.18006706237793,-0.1705944538116455,4.122481822967529,-1.2087785005569458,3.32099986076355, 2.3718318939208984
152,1044064675,0.7084271,0.24407516,-0.48563743,0.4502387,16.499446868896484,-0.026540018618106842,4.280398368835449,1.1682145595550537,3.5656144618988037, 2.7241733074188232
153,1044081342,0.7085508,0.24365819,-0.48543346,0.4504895,16.47924041748047,0.15067718923091888,4.193990230560303,-0.10722757130861282,3.5598769187927246, 2.451871871948242
154,1044098009,0.70852345,0.24341866,-0.48516423,0.4509518,16.73009490966797,-0.17776274681091309,4.361339569091797,1.8778655529022217,3.188326597213745, 3.227731704711914
155,1044114676,0.7086218,0.24284768,-0.4850286,0.45125076,16.44698143005371,0.10707510262727737,4.176477432250977,-0.8347436189651489,3.6965599060058594, 3.4141156673431396
156,1044131343,0.7086266,0.24233389,-0.48489478,0.45166343,16.854703903198242,-0.3064875900745392,4.325335502624512,0.14352717995643616,3.3526320457458496, 4.182931900024414
157,1044148010,0.708587,0.24195334,-0.48482835,0.45200056,16.608015060424805,0.08495743572711945,4.32362174987793,0.2837822735309601,2.3660175800323486, 3.5401804447174072
158,1044164677,0.7087,0.24138948,-0.4848158,0.4521383,16.23210334777832,-0.15357321500778198,4.130023002624512,-1.7106980085372925,2.855386972427368, 2.791368246078491
159,1044181344,0.70865214,0.24136825,-0.48451167,0.4525505,17.17432403564453,-0.21779517829418182,4.518622398376465,3.0800750255584717,2.4982309341430664, 2.3745858669281006
160,1044198011,0.7087219,0.24091764,-0.48464984,0.45253348,16.101543426513672,-0.10543399304151535,4.224177360534668,-2.09907603263855,1.383540391921997, 2.0277254581451416
161,1044214678,0.7087293,0.24095714,-0.48432943,0.45284384,17.75045394897461,-0.2595508098602295,4.418488502502441,2.893768072128296,2.434199333190918, 1.4160430431365967
162,1044231345,0.70876694,0.24042134,-0.4846635,0.4527124,15.524877548217773,0.14838019013404846,4.0777459144592285,-3.509669780731201,0.4286220967769623, 2.1453516483306885
163,1044248012,0.70877516,0.24044026,-0.48439726,0.45297447,16.700599670410156,-0.13801385462284088,3.9947798252105713,2.589271068572998,2.139345645904541, 1.4353420734405518
164,1044264679,0.70859426,0.24069841,-0.48419,0.4533418,16.565101623535156,-0.08865498751401901,4.3348493576049805,4.090828895568848,0.7014358639717102, 1.7447563409805298
165,1044281346,0.7084908,0.24079572,-0.4841348,0.45351076,15.978084564208984,0.15539753437042236,4.02650260925293,2.075160264968872,0.38963961601257324, 1.3514477014541626
166,1044298013,0.7084145,0.24090548,-0.48400098,0.4537143,16.839275360107422,-0.15909527242183685,4.145481586456299,2.5248937606811523,0.8710687756538391, 1.3245288133621216
167,1044314680,0.7083526,0.24079855,-0.48410365,0.45375818,15.676909446716309,0.245402529835701,3.963212251663208,0.017884064465761185,0.23379908502101898, 1.5101439952850342
168,1044331347,0.70829463,0.2407964,-0.48397195,0.45399013,16.389925003051758,-0.15814219415187836,4.04088830947876,1.9904974699020386,1.35017991065979, 1.7676541805267334
169,1044348014,0.708293,0.24076778,-0.48385498,0.4541326,16.372785568237305,0.11532607674598694,3.9287819862365723,1.429131031036377,1.4127389192581177, 1.2759029865264893
170,1044364681,0.7083074,0.24079254,-0.4837297,0.4542304,15.75634479522705,0.19728708267211914,3.8580172061920166,1.3391406536102295,1.3347352743148804, 0.6869133710861206
171,1044381348,0.70829177,0.24093166,-0.48344284,0.4544866,15.739919662475586,0.09918149560689926,3.881645679473877,3.1862523555755615,1.8813875913619995, 1.0651363134384155
172,1044398015,0.7082441,0.2410652,-0.48308808,0.45486692,16.295862197875977,-0.15340934693813324,4.100142002105713,3.780005693435669,2.3557732105255127, 1.64431631565094
173,1044414682,0.70814496,0.2411288,-0.48291552,0.45517066,15.407479286193848,0.10779661685228348,4.065668106079102,2.6252694129943848,1.4242132902145386, 1.9166561365127563
174,1044431349,0.70816815,0.24091914,-0.48281154,0.45535606,15.554251670837402,-0.1920011192560196,3.9183571338653564,0.7223486304283142,2.094024181365967, 2.1625123023986816
175,1044448016,0.70803475,0.2409276,-0.4827187,0.45565718,16.078655242919922,-0.02619534730911255,4.2209672927856445,2.3415322303771973,1.0554418563842773, 2.4766135215759277
176,1044464683,0.707906,0.24105376,-0.48280114,0.45570314,15.203634262084961,0.09244102239608765,3.9053702354431152,1.4394272565841675,-0.542246401309967, 1.0769435167312622
177,1044481350,0.70767283,0.2416959,-0.48263264,0.45590365,15.23117446899414,-0.10214131325483322,3.463721752166748,5.370734214782715,-1.002045750617981, -0.0007811874384060502
178,1044498017,0.70732117,0.24275787,-0.4823648,0.45616844,15.369939804077148,-0.07721062749624252,3.912335157394409,8.276073455810547,-2.141772747039795, -0.7646417617797852
179,1044514684,0.70693976,0.24406458,-0.4820453,0.45640013,15.160470962524414,-0.13774225115776062,3.7569713592529297,9.287185668945312,-2.7151005268096924, -1.9360004663467407
180,1044531351,0.706502,0.24574271,-0.4816261,0.45662004,15.178766250610352,-0.21905234456062317,3.6679890155792236,11.72427749633789,-3.669764280319214, -3.013873815536499
181,1044548018,0.7060906,0.24752621,-0.4810715,0.4568776,14.906688690185547,-0.17247775197029114,3.6062536239624023,12.813728332519531,-3.2059690952301025, -3.442246437072754
182,1044564685,0.7056322,0.24953641,-0.48030844,0.4572949,14.634592056274414,-0.15275491774082184,3.5308539867401123,14.849967002868652,-2.692908525466919, -3.880903720855713
183,1044581352,0.7051646,0.25160867,-0.47947383,0.4577566,14.517534255981445,-0.08742476999759674,3.476200819015503,15.539563179016113,-2.498213529586792, -3.973160743713379
184,1044598019,0.70460796,0.2536961,-0.47863752,0.45833623,14.75856876373291,-0.06066519021987915,3.6904518604278564,16.162813186645508,-2.6311821937561035, -3.1822657585144043
185,1044614686,0.7039789,0.25594002,-0.4779196,0.45880425,14.578633308410645,0.4917871057987213,3.564373016357422,16.30744743347168,-4.137659072875977, -3.810302495956421
186,1044631353,0.70349085,0.25798413,-0.4774201,0.45892802,14.654664039611816,0.4967360496520996,3.3528363704681396,13.268918991088867,-4.7116265296936035, -4.87675142288208
187,1044648020,0.7030095,0.2598466,-0.47724345,0.45879883,14.294628143310547,0.48108696937561035,3.465789318084717,10.526589393615723,-6.126920223236084, -4.94878625869751
188,1044664687,0.7025976,0.26150113,-0.47722197,0.45851174,14.270601272583008,0.5029245615005493,3.3781394958496094,8.388028144836426,-6.2799296379089355, -4.969557285308838
189,1044681354,0.70214295,0.26317528,-0.47733766,0.45812988,14.434858322143555,0.4317973852157593,3.309709072113037,7.814367294311523,-7.317706108093262, -5.108532428741455
190,1044698021,0.7015466,0.26505312,-0.47751692,0.45777398,13.79272747039795,0.4121721088886261,3.2493362426757812,8.9378080368042,-8.683441162109375, -5.0896315574646
191,1044714688,0.7010223,0.2668032,-0.47763795,0.45743385,13.766044616699219,0.534736156463623,2.903848648071289,8.424820899963379,-7.737651824951172, -4.927680492401123
192,1044731355,0.70048684,0.2684794,-0.4778769,0.45702377,14.130215644836426,0.7928480505943298,3.085251808166504,7.488048553466797,-8.233756065368652, -4.768523693084717
193,1044748022,0.6999961,0.26971704,-0.47847494,0.45642087,13.363983154296875,0.6512435078620911,3.0855276584625244,3.527836799621582,-8.789705276489258, -3.7271997928619385
194,1044764689,0.699388,0.27112693,-0.478859,0.45611486,13.550885200500488,0.6587573289871216,2.8060853481292725,6.2209882736206055,-8.137643814086914, -2.8895490169525146
195,1044781356,0.69860214,0.27291393,-0.4791564,0.455941,13.774682998657227,1.0657663345336914,2.904470443725586,9.072003364562988,-9.236213684082031, -3.096282482147217
196,1044798023,0.69774157,0.2746408,-0.4796739,0.45567775,13.069202423095703,0.7870641946792603,2.8136324882507324,7.934084415435791,-10.511857986450195, -2.66916561126709
197,1044814690,0.6966822,0.2764304,-0.48024502,0.45561495,12.947009086608887,0.48067569732666016,2.8606479167938232,9.101691246032715,-11.239782333374023, -1.1860610246658325
198,1044831357,0.6953944,0.27833346,-0.4807319,0.45591027,13.185317993164062,0.6337832808494568,2.8295516967773438,11.52685832977295,-11.264079093933105, 0.7081853747367859
199,1044848024,0.69406164,0.28004068,-0.48132083,0.45627427,13.025988578796387,0.9750269651412964,2.475813388824463,10.58420467376709,-11.150932312011719, 2.021362066268921
200,1044864691,0.6927712,0.2814909,-0.4820343,0.45658943,12.813493728637695,0.8646172881126404,2.4279863834381104,8.721816062927246,-10.882550239562988, 2.755422830581665
201,1044881358,0.69158393,0.28259537,-0.48275387,0.4569466,12.589397430419922,0.7939053773880005,2.292452812194824,6.993865013122559,-9.393360137939453, 3.7958362102508545
202,1044898025,0.69029003,0.28373358,-0.48352242,0.45738512,12.785820960998535,0.7793647646903992,2.276252508163452,7.477036476135254,-9.918254852294922, 4.505807876586914
203,1044914692,0.6888689,0.28503922,-0.4844138,0.45777228,12.12711238861084,0.8338624238967896,2.2130796909332275,7.962655067443848,-11.538580894470215, 4.351236343383789
204,1044931359,0.68755335,0.28617293,-0.4853749,0.45802504,12.081232070922852,0.6862154603004456,2.2754247188568115,6.2737531661987305,-11.231971740722656, 4.098169326782227
205,1044948026,0.686041,0.2878048,-0.48623434,0.45835847,12.374135971069336,0.4524986445903778,1.9645520448684692,9.604187965393066,-12.812379837036133, 3.2399134635925293
206,1044964693,0.6845043,0.2897963,-0.48697093,0.4586192,11.640693664550781,0.3556005656719208,1.9046547412872314,11.4961519241333,-13.576539039611816, 1.5286507606506348
207,1044981360,0.6830858,0.29208046,-0.48745942,0.45876604,11.969772338867188,0.3516227900981903,1.8364278078079224,13.040905952453613,-13.152749061584473, -0.8580648303031921
208,1044998027,0.6815778,0.2948175,-0.4878545,0.45883822,11.468217849731445,0.3097539246082306,1.920221209526062,15.393749237060547,-14.578372955322266, -2.634666919708252
209,1045014694,0.6801136,0.29775044,-0.48809654,0.4588594,11.552260398864746,0.40910473465919495,1.8202146291732788,16.536500930786133,-14.428079605102539, -3.9830756187438965
210,1045031361,0.6787314,0.300516,-0.4883969,0.4587836,11.35381031036377,0.6435756087303162,1.7997727394104004,15.077046394348145,-14.089361190795898, -4.018587112426758
211,1045048028,0.6776565,0.30271372,-0.48885158,0.4584433,11.3490629196167,0.8149948716163635,1.4453200101852417,10.416753768920898,-12.533793449401855, -3.996392011642456
212,1045064695,0.67648214,0.30488265,-0.48927712,0.45828652,11.139012336730957,0.7879188656806946,1.5793468952178955,11.197285652160645,-12.257198333740234, -2.7892253398895264
213,1045081362,0.67536646,0.30686605,-0.48966122,0.45819813,11.065954208374023,0.8879549503326416,1.4033894538879395,10.57265567779541,-11.144683837890625, -2.118466377258301
214,1045098029,0.6743187,0.30869597,-0.48998094,0.4581702,11.029244422912598,0.755976140499115,1.404903531074524,10.12314510345459,-10.009309768676758, -1.6697059869766235
215,1045114696,0.6735506,0.31020007,-0.4901735,0.4580779,10.850570678710938,0.566541314125061,1.1615855693817139,8.20165729522705,-7.592401504516602, -2.0246078968048096
216,1045131363,0.6730249,0.31164742,-0.4901298,0.4579152,10.939275741577148,0.25049564242362976,1.3298885822296143,7.930572032928467,-5.654606819152832, -3.4338319301605225
217,1045148030,0.6727317,0.3130418,-0.48996675,0.45756933,10.4048490524292,0.5674939155578613,1.2753709554672241,6.9502458572387695,-4.549482822418213, -5.1033711433410645
218,1045164697,0.6727008,0.31447127,-0.48943517,0.4572033,10.460417747497559,0.31767958402633667,1.0595035552978516,7.639150142669678,-2.121833324432373, -6.939621925354004
219,1045181364,0.6727701,0.31609175,-0.48849335,0.45699134,10.504979133605957,0.3772135078907013,1.0623066425323486,10.115941047668457,-0.15521305799484253, -8.082464218139648
220,1045198031,0.672931,0.31782183,-0.48733148,0.45679444,10.211029052734375,0.40583258867263794,1.2212588787078857,11.166997909545898,0.8591082692146301, -9.156700134277344
221,1045214698,0.67310303,0.31972814,-0.48600814,0.45662075,9.93825626373291,0.33302929997444153,1.4675872325897217,12.54324722290039,1.136826992034912, -10.036473274230957
222,1045231365,0.67312956,0.322119,-0.48428494,0.456732,9.660740852355957,0.5594973564147949,1.1933754682540894,17.313983917236328,1.596012830734253, -10.768989562988281
223,1045248032,0.67324126,0.3244744,-0.48246703,0.45682403,9.45585823059082,0.5473533272743225,1.4248569011688232,17.193506240844727,2.382631301879883, -11.22315502166748
224,1045264699,0.6735998,0.3266988,-0.48042223,0.45686525,9.517898559570312,0.8103327751159668,1.2067598104476929,16.58001708984375,4.540978908538818, -12.311250686645508
225,1045281366,0.67397076,0.32897627,-0.47820142,0.4570136,9.165851593017578,1.1978974342346191,0.5846668481826782,17.701190948486328,5.469671249389648, -12.42394733428955
226,1045298033,0.6750006,0.32975072,-0.47667992,0.45652473,9.242932319641113,1.2223528623580933,1.4052232503890991,4.947755813598633,7.6885085105896, -10.915282249450684
227,1045314700,0.6764744,0.3296545,-0.47553256,0.4556087,9.366825103759766,1.7489908933639526,0.8615142107009888,-2.678706169128418,9.164505004882812, -10.57956314086914
228,1045331367,0.67820156,0.3285723,-0.47503772,0.45433697,8.788941383361816,1.229914665222168,1.3768411874771118,-11.054937362670898,9.248939514160156, -8.302363395690918
229,1045348034,0.6796544,0.32749218,-0.47458193,0.45342132,8.536493301391602,1.4824084043502808,0.8820922374725342,-9.388557434082031,8.962112426757812, -5.695204257965088
230,1045364701,0.6814169,0.32542297,-0.47475547,0.45208234,8.374781608581543,1.6786969900131226,1.171858787536621,-18.05696678161621,9.166229248046875, -3.9791057109832764
231,1045381368,0.68390185,0.3217974,-0.47579005,0.44983187,8.300376892089844,1.1251329183578491,1.5851503610610962,-32.62363052368164,10.285199165344238, -3.467064380645752
232,1045398035,0.68648297,0.31745544,-0.47760487,0.44705346,8.137829780578613,0.08690015226602554,1.5783666372299194,-40.346893310546875,7.966384410858154, -2.1684482097625732
233,1045414702,0.68821144,0.31459692,-0.47909206,0.4448199,7.951505184173584,0.1179974377155304,1.5662646293640137,-28.681669235229492,3.332151174545288, -2.5773749351501465
234,1045431369,0.68948954,0.31281158,-0.48046955,0.4426084,8.052346229553223,0.6955916881561279,1.7457213401794434,-22.215421676635742,-0.8759815692901611, -4.882212162017822
235,1045448036,0.69059056,0.31132326,-0.48251763,0.4397039,8.570304870605469,0.8403666615486145,2.3839921951293945,-24.75615882873535,-7.044137954711914, -7.165619850158691
236,1045464703,0.691654,0.30979568,-0.48571748,0.43556857,9.966039657592773,0.7175936698913574,2.8676705360412598,-32.42826843261719,-15.173548698425293, -10.294676780700684
237,1045481370,0.69136184,0.3113383,-0.48965675,0.4304922,12.221806526184082,-0.03019356168806553,3.9870762825012207,-20.297460556030273,-34.433773040771484, -19.385412216186523
238,1045498037,0.6900399,0.31776953,-0.49380812,0.42310888,12.797306060791016,1.5138578414916992,6.027926921844482,-3.243255615234375,-58.342445373535156, -43.32513427734375
239,1045514704,0.6890785,0.32335326,-0.49684107,0.41684836,12.885372161865234,-3.3091232776641846,7.4530134201049805,1.815969705581665,-47.038150787353516, -37.240325927734375
240,1045531371,0.68666035,0.32854927,-0.500382,0.4125177,8.29427433013916,-3.5139191150665283,5.725537300109863,8.33117389678955,-49.09002685546875, -21.666606903076172
241,1045548038,0.6844662,0.3311893,-0.5058811,0.4073134,5.718587875366211,-4.595887184143066,3.540371894836426,-12.958656311035156,-52.36075210571289, -13.464499473571777
242,1045564705,0.68118674,0.33314854,-0.51253307,0.40287307,5.112529754638672,-5.869174957275391,2.900409698486328,-14.46990966796875,-57.96174240112305, -2.128519058227539
243,1045581372,0.67633665,0.33392456,-0.52025664,0.40049505,4.045438766479492,-6.057949066162109,0.9711217284202576,-12.434775352478027,-60.55831527709961, 18.15073585510254
244,1045598039,0.66506755,0.33914956,-0.52481216,0.4089439,4.327944755554199,-12.612290382385254,5.294119358062744,69.75949096679688,-56.197235107421875, 62.52750778198242
245,1045614706,0.65102553,0.346496,-0.5236443,0.42650098,3.0592446327209473,-4.391521453857422,9.029533386230469,135.7359619140625,-24.917448043823242, 90.89031982421875
246,1045631373,0.6436834,0.3445825,-0.52059716,0.4426209,3.3476650714874268,2.0415761470794678,12.193511009216309,78.7283935546875,31.068378448486328, 93.60279083251953
247,1045648040,0.6446162,0.33265397,-0.51625794,0.45529023,3.69840145111084,4.274325847625732,12.381011009216309,4.374479293823242,88.44595336914062, 85.40876007080078
248,1045664707,0.6529498,0.31253225,-0.5100243,0.46460232,3.630317211151123,4.126547813415527,11.060881614685059,-54.90605926513672,140.8079376220703, 72.2698974609375
249,1045681374,0.6643045,0.28844616,-0.5005535,0.4742833,4.591873645782471,1.8673404455184937,8.430068969726562,-67.62437438964844,179.18106079101562, 71.35308074951172
250,1045698041,0.6745896,0.26585445,-0.4866165,0.48729345,6.6111063957214355,1.2535117864608765,4.479546070098877,-32.69874572753906,197.51121520996094, 76.11044311523438
251,1045714708,0.6818552,0.24827366,-0.46882838,0.50362086,7.9820380210876465,0.7281017899513245,-0.31852710247039795,20.03200912475586,194.56298828125, 77.87434387207031
252,1045731375,0.68472654,0.2406126,-0.44488546,0.5247211,7.89218807220459,1.7185649871826172,-4.262980937957764,110.73220825195312,183.22726440429688, 73.06503295898438
253,1045748042,0.6859689,0.23730151,-0.41922665,0.545329,7.365040302276611,3.2973361015319824,-5.798952579498291,138.5804901123047,170.0924835205078, 60.58981704711914
254,1045764709,0.68851775,0.23153624,-0.3974217,0.56070536,7.82795524597168,5.412245750427246,-8.920003890991211,95.29901123046875,156.6486358642578, 44.50428771972656
255,1045781376,0.6934321,0.22085613,-0.38303804,0.56890833,8.01814079284668,4.596414089202881,-11.388781547546387,19.9849910736084,135.8888702392578, 26.828306198120117
256,1045798043,0.69864845,0.20909405,-0.37535888,0.5720802,6.7384934425354,3.1553256511688232,-12.620233535766602,-25.149307250976562,101.74378204345703, 14.819690704345703
257,1045814710,0.7024527,0.19905546,-0.3720991,0.5731313,7.079609394073486,1.6523138284683228,-12.59031867980957,-37.70281982421875,67.460205078125, 12.184087753295898
258,1045831377,0.70368147,0.19326077,-0.3719232,0.57372105,7.466563701629639,0.5514962673187256,-12.662130355834961,-26.98347282409668,29.0286808013916, 13.529664993286133
259,1045848044,0.7022606,0.19198652,-0.3742989,0.5743445,7.617620468139648,0.7431222796440125,-12.6255521774292,-11.50931453704834,-7.475142478942871, 16.01348876953125
260,1045864711,0.6989401,0.19331753,-0.38027358,0.5740237,7.902674674987793,0.8953979015350342,-11.731748580932617,-12.99964427947998,-40.88232421875, 17.044885635375977
261,1045881378,0.6941916,0.19568942,-0.39009044,0.5723926,7.856184005737305,-0.11884082853794098,-10.418452262878418,-24.623886108398438,-68.56617736816406, 18.824974060058594
262,1045898045,0.6880239,0.19799034,-0.40372157,0.5695894,7.985921859741211,-1.6632493734359741,-9.61684513092041,-41.12001419067383,-91.56005859375, 24.179019927978516
263,1045914712,0.6797906,0.20186135,-0.42023462,0.56616217,7.080712795257568,-1.1109468936920166,-9.395050048828125,-43.774715423583984,-117.63909149169922, 28.892417907714844
264,1045931379,0.6695582,0.2072843,-0.43971235,0.5615854,6.185013294219971,0.3255201280117035,-8.664530754089355,-48.48763656616211,-144.65736389160156, 30.954418182373047
265,1045948046,0.65760535,0.2146236,-0.461622,0.55533504,6.857602119445801,-0.13866008818149567,-7.7216339111328125,-51.56791687011719,-170.635498046875, 27.623435974121094
266,1045964713,0.64256185,0.22702661,-0.4828736,0.54991484,7.231352806091309,-1.9224168062210083,-6.4772539138793945,-18.855228424072266,-195.391845703125, 26.166776657104492
267,1045981380,0.62396723,0.24509881,-0.50119853,0.54716694,6.139504432678223,-1.520758032798767,-3.436175584793091,31.804636001586914,-211.357421875, 27.938966751098633
268,1045998047,0.603288,0.26502317,-0.51718795,0.54618955,3.3636934757232666,-0.5826644897460938,0.07965502142906189,58.24463653564453,-212.45660400390625, 32.946556091308594
269,1046014714,0.58306265,0.28223702,-0.53320456,0.5441262,-0.5666056871414185,-0.17938295006752014,-7.6341753005981445,42.245765686035156,-202.85470581054688, 36.31656265258789
270,1046031381,0.56312853,0.29468375,-0.55599654,0.53564537,4.366522312164307,-0.31844866275787354,-14.218077659606934,-26.22342300415039,-223.49554443359375, 40.03705978393555
271,1046048048,0.54139537,0.30566922,-0.57943183,0.5269882,13.59617805480957,-1.1142634153366089,5.854286193847656,-31.127248764038086,-227.53695678710938, 52.8571891784668
272,1046064715,0.52089465,0.31523576,-0.6026662,0.51583797,0.5725334286689758,-1.4329718351364136,1.136549711227417,-48.24717712402344,-222.35067749023438, 44.39196014404297
273,1046081382,0.49722335,0.33066717,-0.6198852,0.50908804,6.092621803283691,-2.897141218185425,-1.6707558631896973,15.787248611450195,-223.9264678955078, 32.896488189697266
274,1046098049,0.47289592,0.3459142,-0.63224125,0.50693583,9.902806282043457,-1.6254737377166748,0.05262637138366699,53.102272033691406,-199.03036499023438, 40.71513748168945
275,1046114716,0.45177838,0.35779977,-0.64319044,0.5041644,6.365592002868652,1.1397830247879028,-0.8922420740127563,36.93966293334961,-170.52700805664062, 39.000579833984375
276,1046131383,0.43418404,0.36654967,-0.65431726,0.4989935,5.945518970489502,-1.2970508337020874,-2.4755301475524902,7.294310092926025,-150.65267944335938, 33.882415771484375
277,1046148050,0.4183304,0.37408113,-0.6631294,0.49530044,6.391634941101074,-0.30392205715179443,-1.62142014503479,14.003686904907227,-128.1464080810547, 32.140323638916016
278,1046164717,0.40633085,0.37739724,-0.6728293,0.48966056,8.240382194519043,-0.801709771156311,-2.67752742767334,-19.998003005981445,-103.82219696044922, 35.12008285522461
279,1046181384,0.39642286,0.3781407,-0.68322664,0.48276287,10.80251693725586,0.6668121218681335,-1.0247173309326172,-40.75242614746094,-90.74917602539062, 38.509090423583984
280,1046198051,0.38993013,0.37511063,-0.6969638,0.47062522,10.991077423095703,2.2047407627105713,0.11081170290708542,-95.63330078125,-84.9983139038086, 39.651275634765625
281,1046214718,0.38598126,0.37093243,-0.712719,0.45327607,11.592370986938477,0.7794036269187927,2.908824920654297,-136.79376220703125,-88.07861328125, 28.603740692138672
282,1046231385,0.38286838,0.3681611,-0.7281435,0.43321627,11.258008003234863,-0.5361929535865784,6.38666296005249,-147.4893798828125,-94.6465072631836, 11.498568534851074
283,1046248052,0.3809,0.3675523,-0.74087286,0.41343448,10.036966323852539,-0.7432165741920471,4.169419765472412,-132.488525390625,-90.34473419189453, -9.77237606048584
284,1046264719,0.37838027,0.36951375,-0.7515707,0.3942456,8.018749237060547,-1.398881435394287,2.091588020324707,-115.65106201171875,-93.95425415039062, -24.850412368774414
285,1046281386,0.37531668,0.37292233,-0.75861,0.38023326,7.007686138153076,-2.881743907928467,9.122291564941406,-73.89618682861328,-78.2224349975586, -26.703767776489258
286,1046298053,0.37651318,0.3707082,-0.76557946,0.3670168,5.676614761352539,-4.3699727058410645,10.340229988098145,-95.13953399658203,-39.450870513916016, -6.718745231628418
287,1046314720,0.37798354,0.36780703,-0.7743971,0.34950796,4.563849925994873,-2.601195812225342,6.538263320922852,-125.03856658935547,-52.360801696777344, -10.33159351348877
288,1046331387,0.37863243,0.3666199,-0.7851517,0.32521403,4.2525715827941895,-7.08451509475708,6.099011421203613,-159.3838653564453,-83.27021026611328, -30.321063995361328
289,1046348054,0.3735544,0.3692962,-0.7936127,0.30701175,4.108946800231934,-8.840341567993164,8.030056953430176,-97.00144958496094,-101.67522430419922, -28.50583839416504
290,1046364721,0.3761363,0.36839405,-0.80249476,0.28073078,5.185487270355225,3.4286015033721924,19.082788467407227,-170.79025268554688,-74.13101959228516, -45.08115768432617
291,1046381388,0.3775679,0.3707426,-0.8086293,0.25712088,4.2899909019470215,-0.3856334686279297,14.853135108947754,-139.4282989501953,-73.37471008300781, -60.802459716796875
292,1046398055,0.37673205,0.37382066,-0.8124709,0.24129342,6.289195537567139,-6.733120918273926,11.441815376281738,-84.44705200195312,-61.814613342285156, -46.539310455322266
293,1046414722,0.37120488,0.3798435,-0.8129068,0.23897389,4.276494026184082,-9.641803741455078,12.666606903076172,16.236677169799805,-49.632877349853516, -29.125259399414062
294,1046431389,0.35893103,0.39294237,-0.8070842,0.25569507,4.092580795288086,-7.802079677581787,10.836118698120117,168.47532653808594,-33.52938461303711, -25.477624893188477
295,1046448056,0.34626448,0.40788373,-0.79690886,0.28047863,5.599292755126953,-1.169635534286499,11.430170059204102,226.3842315673828,-6.633459091186523, -26.877504348754883
296,1046464723,0.34098345,0.4191731,-0.7862951,0.29960686,7.5090718269348145,2.0786890983581543,9.405145645141602,166.821044921875,25.828128814697266, -35.628326416015625
297,1046481390,0.34489125,0.4260374,-0.7760327,0.31195405,8.404563903808594,1.533002257347107,7.794173717498779,92.64112854003906,64.05523681640625, -45.31732940673828
298,1046498057,0.3574387,0.42861333,-0.7657812,0.31954274,7.363626956939697,0.7118307948112488,6.631549835205078,31.816329956054688,105.22456359863281, -52.09691619873047
299,1046514724,0.37682313,0.4264125,-0.75500035,0.3258091,7.214756011962891,-2.933016538619995,4.719738960266113,-5.819450378417969,149.01649475097656, -46.73900604248047
300,1046531391,0.39815554,0.421137,-0.74194545,0.3370947,7.364846229553223,-4.80275821685791,4.124782085418701,11.651834487915039,186.5887908935547, -28.876937866210938
301,1046548058,0.4203195,0.41225561,-0.7268916,0.3535615,6.79549503326416,-5.8562541007995605,3.1027867794036865,30.408626556396484,219.66893005371094, -4.120927333831787
302,1046564725,0.44109046,0.40114772,-0.70845497,0.37763935,5.694394588470459,-5.939861297607422,2.5640177726745605,74.15357208251953,249.5387725830078, 22.690914154052734
303,1046581392,0.46024698,0.38853347,-0.6856283,0.4088135,4.807492256164551,-4.11424446105957,1.5355658531188965,119.98485565185547,278.5926818847656, 43.558860778808594
304,1046598059,0.48008004,0.37318957,-0.65888387,0.44286,4.274837970733643,-0.8344036340713501,0.5201817750930786,134.09315490722656,309.69635009765625, 53.14065933227539
305,1046614726,0.5040193,0.35326055,-0.6306163,0.47275227,3.9842965602874756,2.9556474685668945,-1.0360039472579956,91.76763916015625,339.2398376464844, 46.5355110168457
306,1046631393,0.5317551,0.33066645,-0.6018391,0.49566722,3.4590821266174316,4.668374061584473,-3.743436813354492,44.10811996459961,349.8563232421875, 20.49978256225586
307,1046648060,0.56167245,0.30644706,-0.5731617,0.51195705,4.133177757263184,3.310037851333618,-5.593632698059082,5.366304874420166,349.1982116699219, -4.535307884216309
308,1046664727,0.5912627,0.27897465,-0.54711354,0.5227317,5.084493637084961,1.118823766708374,-9.685188293457031,-37.4324951171875,337.6961975097656, -6.733937740325928
309,1046681394,0.61673033,0.25340837,-0.5217305,0.53218925,4.325127601623535,-0.8852802515029907,-16.22895622253418,-29.16480827331543,310.4773864746094, -3.4726459980010986
310,1046698061,0.6353653,0.2347765,-0.4971551,0.54224336,2.0998857021331787,-4.631606578826904,-22.05257225036621,14.676726341247559,256.268310546875, -0.9619930982589722
311,1046714728,0.6459257,0.22256675,-0.47755432,0.5524365,1.0540508031845093,-5.3022613525390625,-23.63374137878418,37.91184616088867,183.86404418945312, 15.706275939941406
312,1046731395,0.65075433,0.21391955,-0.4663589,0.55970234,-0.6703341007232666,-2.2272868156433105,-26.431568145751953,21.199832916259766,110.33407592773438, 25.51312255859375
313,1046748062,0.652275,0.20744924,-0.46563202,0.56097156,-3.352952718734741,-1.024203896522522,-25.814550399780273,-23.503833770751953,36.322391510009766, 19.7762393951416
314,1046764729,0.6492939,0.20518255,-0.47497377,0.5574205,-2.322632074356079,-2.05995512008667,-26.341827392578125,-52.3248291015625,-45.80250549316406, 16.39621925354004
315,1046781396,0.6420172,0.20587733,-0.4941305,0.5488747,-0.999853253364563,-0.27602875232696533,-23.73371696472168,-86.79640197753906,-121.52239990234375, 14.699851036071777
316,1046798063,0.6291848,0.21304359,-0.5179586,0.5389418,1.0795295238494873,-0.46550700068473816,-20.957839965820312,-72.58148193359375,-186.96298217773438, 14.181933403015137
317,1046814730,0.6089998,0.22146128,-0.5504613,0.5263711,1.995388150215149,-11.387970924377441,-48.291847229003906,-97.83387756347656,-258.8258056640625, 38.28694534301758
318,1046831397,0.5780214,0.25247496,-0.5735324,0.5226932,25.9163875579834,8.121309280395508,2.0279765129089355,78.33340454101562,-324.4027099609375, 15.900583267211914
319,1046848064,0.5488851,0.2754609,-0.59968317,0.5130562,14.729170799255371,7.171024322509766,17.183120727539062,8.516175270080566,-310.80548095703125, 23.20795249938965
320,1046864731,0.51740694,0.29888088,-0.62511116,0.5021915,5.490192890167236,-2.730652332305908,-10.42210578918457,11.840633392333984,-321.99554443359375, 24.3380069732666
321,1046881398,0.48835072,0.3237602,-0.6351114,0.50331545,2.5463528633117676,6.7703962326049805,-3.0763778686523438,117.05931854248047,-236.74798583984375, 20.74290657043457
322,1046898065,0.46786803,0.3378711,-0.65067434,0.49352357,1.6826937198638916,0.8049144148826599,-1.883816123008728,-4.8833537101745605,-205.1497344970703, 13.986613273620605
323,1046914732,0.45393583,0.34489453,-0.66254824,0.48581883,4.500987529754639,-4.0685248374938965,-1.7484971284866333,-20.958251953125,-135.1045684814453, 21.84673309326172
324,1046931399,0.44436544,0.3490403,-0.669475,0.4821966,7.074761867523193,-3.1713430881500244,-1.6549575328826904,-5.088164329528809,-80.56782531738281, 21.480609893798828
325,1046948066,0.43945098,0.34992483,-0.67535055,0.47784653,7.643960952758789,-2.4096572399139404,-2.0974130630493164,-25.99924087524414,-47.030277252197266, 16.36300277709961
326,1046964733,0.4376783,0.34981367,-0.67990774,0.4730686,8.82251262664795,-0.5830783247947693,-1.786757469177246,-34.1977653503418,-26.317466735839844, 6.355712413787842
327,1046981400,0.43870017,0.34752345,-0.68639076,0.46436763,8.666900634765625,1.1484909057617188,0.3603212237358093,-72.05305480957031,-21.57076644897461, 0.4986059069633484
328,1046998067,0.4410686,0.34493396,-0.69539756,0.45044604,9.309404373168945,1.6873818635940552,1.0861114263534546,-108.91990661621094,-34.52029037475586, -11.683699607849121
329,1047014734,0.4461932,0.34216505,-0.7034439,0.43474302,10.888818740844727,1.963084101676941,6.003507137298584,-119.63427734375,-25.946081161499023, -30.40223503112793
330,1047031401,0.4535813,0.33870587,-0.71253765,0.4145267,7.948669910430908,2.2152538299560547,7.5970940589904785,-152.14308166503906,-27.13416290283203, -45.00794982910156
331,1047048068,0.46036127,0.33503848,-0.72541964,0.38675967,6.287266254425049,-2.022832155227661,2.435692548751831,-199.28121948242188,-59.32112121582031, -56.81949234008789
332,1047064735,0.46073034,0.33581996,-0.73519653,0.3666587,6.5400824546813965,-9.516938209533691,16.787273406982422,-123.98440551757812,-75.85205841064453, -44.843387603759766
333,1047081402,0.45177627,0.3479772,-0.73822045,0.3603341,-4.297916889190674,-6.268531799316406,15.324112892150879,20.046510696411133,-99.06205749511719, -51.038028717041016
334,1047098069,0.435992,0.365248,-0.7426475,0.35352445,-2.49452543258667,-6.125510215759277,13.579228401184082,46.189170837402344,-152.34646606445312, -58.44429016113281
335,1047114736,0.41157088,0.3841843,-0.7477935,0.35187623,0.18813714385032654,-8.295089721679688,8.528162002563477,97.35997772216797,-190.06117248535156, -28.8519287109375
336,1047131403,0.3779195,0.4058252,-0.74979407,0.36095977,4.335048198699951,-8.631681442260742,13.90829849243164,192.08563232421875,-207.0645294189453, 1.4599181413650513
337,1047148070,0.35025942,0.4185664,-0.75388676,0.36575297,3.363313674926758,-2.5067059993743896,20.970104217529297,124.72025299072266,-171.87680053710938, 27.051189422607422
338,1047164737,0.33409062,0.42278552,-0.7629025,0.3572335,3.429781913757324,-0.520268440246582,21.257299423217773,-10.432802200317383,-141.56903076171875, 24.467201232910156
339,1047181404,0.3244207,0.42472464,-0.77127165,0.34568876,4.5864458084106445,0.0002092123031616211,21.25540542602539,-48.96946334838867,-109.6753158569336, 11.675002098083496
340,1047198071,0.32051027,0.42295045,-0.78026956,0.33100703,4.032774925231934,1.483342170715332,20.052005767822266,-92.30809783935547,-81.33790588378906, 12.538442611694336
341,1047214738,0.32402194,0.41811228,-0.7888026,0.31302145,3.364122152328491,2.3494985103607178,18.495485305786133,-137.37472534179688,-43.52427673339844, 3.4488937854766846
342,1047231405,0.33147854,0.413644,-0.7932776,0.29955214,3.227060079574585,0.4458729028701782,15.233475685119629,-114.67366027832031,-1.2196948528289795, -8.672606468200684
343,1047248072,0.34092736,0.40896034,-0.7928949,0.29637444,4.423640727996826,0.5580491423606873,12.828017234802246,-54.698421478271484,50.207271575927734, -2.007126808166504
344,1047264739,0.35331073,0.40266454,-0.7893568,0.29991505,3.943683385848999,2.0403940677642822,9.669843673706055,-23.666818618774414,95.59913635253906, 7.673833847045898
345,1047281406,0.3675671,0.39516553,-0.782503,0.31052873,4.575573921203613,-0.32359597086906433,5.222019672393799,13.48509693145752,135.79698181152344, 18.398080825805664
346,1047298073,0.38048452,0.38927132,-0.7697733,0.33338943,5.007487773895264,-1.1661263704299927,2.4854612350463867,99.63540649414062,173.3156280517578, 27.66615104675293
347,1047314740,0.39401639,0.38491222,-0.7511084,0.36390918,5.688914775848389,0.9499820470809937,0.2316492348909378,156.1764373779297,209.16964721679688, 22.383737564086914
348,1047331407,0.41128725,0.37942165,-0.7283974,0.3953723,6.171370983123779,2.166088104248047,-1.4852126836776733,158.2601318359375,244.9122314453125, 10.888978004455566
349,1047348074,0.4342049,0.37002772,-0.7038466,0.42325634,6.26377534866333,3.435163736343384,-2.890746831893921,119.61243438720703,279.8560791015625, 0.33468157052993774
350,1047364741,0.46498963,0.3528524,-0.6807985,0.4424853,6.001620292663574,3.171294689178467,-4.646829605102539,30.132184982299805,314.29315185546875, -6.788355827331543
351,1047381408,0.50011504,0.32897556,-0.65987307,0.45412305,6.076481342315674,0.9133202433586121,-7.6021199226379395,-43.79946517944336,330.0695495605469, -7.699422836303711
352,1047398075,0.5327115,0.30377224,-0.6396735,0.4634208,5.552273273468018,-1.727972149848938,-11.721209526062012,-58.519962310791016,319.60467529296875, 6.035439968109131
353,1047414742,0.55796033,0.28179282,-0.6183128,0.4764059,4.247945308685303,-2.2112746238708496,-15.88556957244873,-11.588349342346191,289.0118103027344, 25.506175994873047
354,1047431409,0.57369816,0.26879153,-0.59399366,0.49577546,3.3536059856414795,-0.23961813747882843,-19.00558090209961,77.92561340332031,243.4856719970703, 36.79224395751953
355,1047448076,0.5835441,0.26567635,-0.56689507,0.51722586,1.6288952827453613,0.9009903073310852,-21.18508529663086,145.67457580566406,201.36265563964844, 19.157428741455078
356,1047464743,0.5914536,0.2642784,-0.54412764,0.5331649,-0.705125093460083,0.18293994665145874,-21.505599975585938,119.29141235351562,160.9651641845703, 4.597816467285156
357,1047481410,0.5995072,0.2591462,-0.5295595,0.5412959,-1.6600189208984375,0.3616880476474762,-20.947702407836914,48.588504791259766,124.12814331054688, -2.9837589263916016
358,1047498077,0.6073642,0.24968633,-0.5257268,0.54071903,-2.2079458236694336,-1.5729897022247314,-21.706209182739258,-40.41545486450195,80.31402587890625, -3.290710926055908
359,1047514744,0.6121484,0.24100156,-0.5293174,0.5357384,-3.132389545440674,-2.680101156234741,-21.111129760742188,-75.24932098388672,28.31888198852539, -0.36893370747566223
360,1047531411,0.61228496,0.2355228,-0.53736657,0.529975,-3.2001850605010986,-3.199740171432495,-20.233470916748047,-73.14875793457031,-19.96942710876465, 9.104598999023438
361,1047548078,0.6068562,0.23572525,-0.5479807,0.52523947,-2.725802183151245,-1.6403398513793945,-18.802335739135742,-45.59112548828125,-69.92345428466797, 16.78136444091797
362,1047564745,0.5957888,0.24398683,-0.5590331,0.52248275,-2.2348079681396484,-0.4755491018295288,-16.29201316833496,3.1895499229431152,-118.51738739013672, 15.662165641784668
363,1047581412,0.579554,0.25881192,-0.5702733,0.5214615,-2.3218166828155518,-0.6029722690582275,-12.993342399597168,41.00278091430664,-155.1795654296875, 20.494258880615234
364,1047598079,0.5595324,0.27666914,-0.58180386,0.52142316,-1.7033019065856934,0.6322689056396484,-10.200000762939453,63.08817672729492,-180.2238006591797, 26.4013729095459
365,1047614746,0.53855574,0.29476786,-0.5938916,0.51996386,-1.7463066577911377,3.5493927001953125,-7.113994598388672,58.46040344238281,-189.61988830566406, 24.38897132873535
366,1047631413,0.52089983,0.3079106,-0.6089752,0.51283896,-2.1186270713806152,5.224063873291016,-11.662415504455566,0.0635717436671257,-181.35020446777344, 17.505695343017578
367,1047648080,0.5035885,0.3182385,-0.62805563,0.50066864,1.1631340980529785,-4.0527024269104,-10.642363548278809,-45.70137405395508,-194.91403198242188, 18.673954010009766
368,1047664747,0.478028,0.33447078,-0.6421181,0.49729562,11.364081382751465,-2.0772721767425537,2.3346991539001465,48.1688232421875,-213.7147979736328, 41.448280334472656
369,1047681414,0.4564213,0.34930295,-0.6505018,0.4965025,3.698984384536743,4.842015266418457,1.200390338897705,65.87779998779297,-167.98992919921875, 28.613088607788086
370,1047698081,0.43571454,0.36325932,-0.65757847,0.49576828,8.02144718170166,1.5701870918273926,-1.6700276136398315,65.97525024414062,-157.3477325439453, 26.17802619934082
371,1047714748,0.4199154,0.37220526,-0.66411203,0.49405432,6.3151140213012695,2.1861634254455566,2.8860788345336914,36.640071868896484,-120.36189270019531, 26.561542510986328
372,1047731415,0.40795222,0.37714347,-0.668831,0.4939668,10.214082717895508,-1.379718542098999,0.7933879494667053,28.825502395629883,-80.00753784179688, 32.08548355102539
373,1047748082,0.39824238,0.38127875,-0.67485595,0.49050885,6.2993292808532715,0.37807661294937134,0.4172833263874054,0.906692385673523,-80.017333984375, 21.673423767089844
374,1047764749,0.3934788,0.38203183,-0.68402666,0.4809717,7.0137200355529785,0.8711972832679749,0.5597614049911499,-60.14473342895508,-70.376220703125, 12.443371772766113
375,1047781416,0.39161152,0.38082632,-0.69411767,0.4688417,6.672206878662109,0.2097167670726776,0.4120861291885376,-88.3525161743164,-59.401084899902344, 8.076578140258789
376,1047798083,0.39123535,0.3806815,-0.7022677,0.45698664,6.025542259216309,1.6656033992767334,1.789846420288086,-81.88613891601562,-49.57368850708008, -5.513491630554199
377,1047814750,0.39306527,0.38151598,-0.7092531,0.44374013,6.701922416687012,1.3443597555160522,4.256837368011475,-88.09178161621094,-42.84189987182617, -23.835533142089844
378,1047831417,0.3964906,0.38310978,-0.71538377,0.42924127,6.9614458084106445,0.08752746880054474,6.988486289978027,-93.7818603515625,-38.616886138916016, -37.736873626708984
379,1047848084,0.3995246,0.38624787,-0.7210073,0.413934,6.133171558380127,-2.156953811645508,6.158529758453369,-90.91548919677734,-48.29881286621094, -50.2396125793457
380,1047864751,0.399097,0.39148945,-0.7269811,0.39869326,5.911459922790527,-5.289053440093994,5.832247257232666,-76.7006607055664,-72.51763153076172, -49.69736862182617
381,1047881418,0.39540386,0.3965722,-0.73068047,0.3905029,2.130561351776123,-3.9379384517669678,15.263957023620605,-26.968311309814453,-63.44011688232422, -26.815311431884766
382,1047898085,0.39019758,0.4009224,-0.7348338,0.38344046,-1.5140328407287598,-2.8075947761535645,11.64415168762207,-20.524538040161133,-67.69812774658203, -14.840385437011719
383,1047914752,0.3824625,0.40463787,-0.74288505,0.37163514,-1.6550908088684082,-1.3140143156051636,9.029623985290527,-49.593021392822266,-102.63136291503906, -7.022529602050781
384,1047931419,0.36993,0.41078135,-0.753514,0.35584718,-0.14506815373897552,-2.80564022064209,9.436357498168945,-56.85252380371094,-151.41244506835938, -10.510479927062988
385,1047948086,0.3527755,0.41958138,-0.7637184,0.34093273,3.594808578491211,-2.692396640777588,10.146809577941895,-31.551950454711914,-178.53915405273438, -12.004378318786621
386,1047964753,0.33759493,0.42565572,-0.77412903,0.32491714,4.497371196746826,-1.3029723167419434,17.601043701171875,-50.19913864135742,-165.74468994140625, -4.420912265777588
387,1047981420,0.3253285,0.42845193,-0.78625566,0.3039613,4.321932315826416,-3.4312219619750977,15.753292083740234,-96.5628662109375,-161.83729553222656, 0.07749451696872711
388,1047998087,0.31212565,0.43196926,-0.79519457,0.28921628,5.292232036590576,-3.6040773391723633,15.90483283996582,-52.05684280395508,-143.3729705810547, 2.58272123336792
389,1048014754,0.3023203,0.43348068,-0.80317825,0.27495772,4.429264068603516,-1.3293943405151367,15.911120414733887,-62.0005989074707,-117.71101379394531, 4.9527997970581055
390,1048031421,0.29725608,0.4324339,-0.81084114,0.25918382,4.450079441070557,-2.283348798751831,13.574621200561523,-89.27606964111328,-90.90058898925781, 5.985422611236572
391,1048048088,0.29416224,0.43167964,-0.8160049,0.24750265,4.96640682220459,-2.8559763431549072,12.494731903076172,-67.3265609741211,-63.434051513671875, 1.7175050973892212
392,1048064755,0.29201415,0.43261912,-0.81774265,0.24262233,5.568558216094971,-0.7701212763786316,10.030753135681152,-22.77545738220215,-34.13865280151367, -5.856378555297852
393,1048081422,0.2929161,0.43350643,-0.8170927,0.24214038,6.17832612991333,-0.13412828743457794,9.361614227294922,-3.2357559204101562,0.7830381393432617, -8.901530265808105
394,1048098089,0.2965428,0.43411863,-0.81375766,0.24779423,5.6929426193237305,0.27326634526252747,9.131399154663086,27.05322265625,40.06581497192383, -7.4868597984313965
395,1048114756,0.30460328,0.43388036,-0.80771786,0.25798613,5.8657989501953125,0.3432126045227051,7.292006492614746,42.11623001098633,85.23233795166016, -9.030956268310547
396,1048131423,0.31747052,0.43162256,-0.798879,0.2733254,6.473601818084717,-0.27849525213241577,5.8755106925964355,57.1347770690918,136.63043212890625, -3.831699848175049
397,1048148090,0.33475348,0.4272017,-0.7874059,0.29228562,5.920405864715576,-0.5571375489234924,4.68729829788208,64.16851806640625,181.38490295410156, -0.09041181951761246
398,1048164757,0.35531774,0.4199364,-0.7732905,0.31531695,5.318219184875488,-1.3680652379989624,2.6497647762298584,75.34274291992188,222.90142822265625, 10.388921737670898
399,1048181424,0.37784955,0.41064882,-0.7562216,0.34165227,4.6792120933532715,-0.1553163379430771,1.215733528137207,88.68392181396484,254.57398986816406, 16.463909149169922
400,1048198091,0.4025966,0.3991115,-0.7367897,0.3684657,4.128946304321289,1.171294927597046,-0.8644285202026367,84.62030029296875,278.9879455566406, 17.591936111450195
401,1048214758,0.4284211,0.385528,-0.71564734,0.3945537,2.280409336090088,1.7149497270584106,-3.824646234512329,76.66796875,292.55755615234375, 18.60175323486328
402,1048231425,0.45271936,0.37344307,-0.6912229,0.42165908,0.46305859088897705,2.7920241355895996,-5.8741326332092285,99.07244110107422,293.63348388671875, 9.732158660888672
403,1048248092,0.4747769,0.3647335,-0.6627509,0.4497974,-0.0658315122127533,2.9787752628326416,-8.164118766784668,132.0330352783203,288.8065185546875, -6.900350570678711
404,1048264759,0.49614486,0.35666332,-0.6337297,0.47436112,-0.4384395480155945,1.5697758197784424,-10.105185508728027,121.30816650390625,276.91424560546875, -20.645177841186523
405,1048281426,0.5156518,0.34817424,-0.6069053,0.49451387,-1.006422996520996,-1.327634334564209,-14.40017032623291,97.58489990234375,253.28147888183594, -20.838186264038086
406,1048298093,0.5317686,0.3386758,-0.5832319,0.5122122,-1.6977829933166504,-4.335150718688965,-18.814315795898438,81.84901428222656,224.94337463378906, -8.080493927001953
407,1048314760,0.5411815,0.33437213,-0.56044966,0.5302962,-2.656909227371216,-4.189532279968262,-22.908056259155273,115.63632202148438,177.1262969970703, -3.2113664150238037
408,1048331427,0.5482657,0.33012685,-0.5434867,0.5431789,-2.1984734535217285,-1.2556321620941162,-21.273048400878906,79.41303253173828,136.10470581054688, 0.25852519273757935
409,1048348094,0.55535376,0.32212842,-0.53803414,0.5462003,-2.0522053241729736,-1.7212347984313965,-23.146099090576172,-14.434850692749023,84.9842300415039, 3.1064085960388184
410,1048364761,0.5597346,0.31504473,-0.54047257,0.54344606,-3.1739583015441895,-2.3205337524414062,-21.853866577148438,-55.78180694580078,29.264177322387695, 5.206213474273682
411,1048381428,0.55919886,0.31176558,-0.5483427,0.5379771,-2.8801615238189697,-3.2464699745178223,-20.568906784057617,-60.71689987182617,-29.424707412719727, 10.65323257446289
412,1048398095,0.55341685,0.31385326,-0.55870795,0.5320446,-2.069502115249634,-0.9910517334938049,-17.395639419555664,-39.66408920288086,-79.11964416503906, 13.269603729248047
413,1048414762,0.5440967,0.31928742,-0.5718036,0.5244569,-1.397385597229004,0.6309934854507446,-14.52412223815918,-35.54327392578125,-118.51083374023438, 12.89225959777832
414,1048431429,0.53295445,0.3263822,-0.5872444,0.5143718,-1.2226691246032715,1.9493846893310547,-10.470901489257812,-43.54866027832031,-145.6142120361328, 8.733497619628906
415,1048448096,0.5202978,0.33473825,-0.6034261,0.503108,-2.193662166595459,1.5923964977264404,-10.869622230529785,-43.329437255859375,-160.6611785888672, 7.367298126220703
416,1048464763,0.50283283,0.34236637,-0.6234825,0.49113533,2.4109559059143066,-15.075115203857422,-38.19114685058594,-51.288795471191406,-193.117431640625, 33.898292541503906
417,1048481430,0.47035658,0.36651495,-0.6292692,0.49844968,21.848268508911133,1.055707573890686,7.356630325317383,172.31517028808594,-217.12652587890625, 46.754966735839844
418,1048498097,0.449768,0.3745592,-0.64507645,0.49121347,-2.710423707962036,1.4160737991333008,4.795888423919678,-5.956902503967285,-183.4725341796875, 49.280426025390625
419,1048514764,0.42783016,0.3833177,-0.6615745,0.48202515,10.543631553649902,-4.535360336303711,-2.467229127883911,-12.06697940826416,-196.88246154785156, 49.7887077331543
420,1048531431,0.41354945,0.38468358,-0.6772455,0.47152323,0.20354275405406952,1.953696370124817,0.559980034828186,-57.183128356933594,-138.98898315429688, 51.5978889465332
421,1048548098,0.4041253,0.38193163,-0.69416237,0.45711014,8.700577735900879,1.1877951622009277,-2.873511552810669,-104.08560943603516,-115.86571502685547, 49.148826599121094
422,1048564765,0.39889315,0.37744692,-0.7060189,0.44716382,7.454578399658203,0.15507681667804718,0.6984941363334656,-82.61549377441406,-63.218017578125, 46.095211029052734
423,1048581432,0.3930162,0.37682185,-0.71368456,0.44067937,9.320718765258789,-0.31399720907211304,-2.6437368392944336,-40.57841873168945,-58.00154495239258, 28.25250244140625
424,1048598099,0.38911638,0.37935755,-0.7183064,0.4344105,8.62668514251709,0.5783838033676147,0.5033056139945984,-26.82255744934082,-49.442535400390625, -0.648635983467102
425,1048614766,0.39005587,0.38090837,-0.72332734,0.42374855,9.992424011230469,0.7576799988746643,3.518916606903076,-65.24269104003906,-38.08556365966797, -25.324560165405273
426,1048631433,0.39675808,0.3793893,-0.73127025,0.40483457,7.951332092285156,0.22706139087677002,5.22137975692749,-138.2191619873047,-30.263229370117188, -41.133182525634766
427,1048648100,0.40608257,0.3783575,-0.7392671,0.3813487,5.873902320861816,-1.011142373085022,3.8409721851348877,-166.97793579101562,-30.857805252075195, -63.04988098144531
428,1048664767,0.41218936,0.37881732,-0.74621075,0.36023214,5.132172584533691,-6.639776706695557,8.156583786010742,-139.71913146972656,-42.29090118408203, -58.23012161254883
429,1048681434,0.41472295,0.38035023,-0.7499862,0.3476488,2.3701722621917725,-4.276766777038574,11.239912033081055,-75.87380981445312,-32.43840789794922, -39.02992630004883
430,1048698101,0.41633397,0.38304514,-0.75203264,0.33821502,-0.3510868549346924,-0.530987024307251,10.905708312988281,-49.889488220214844,-27.21070671081543, -38.413028717041016
431,1048714768,0.41905278,0.38356984,-0.75581646,0.3255926,-3.129784345626831,0.4804585576057434,12.607495307922363,-79.61460876464844,-30.15219497680664, -34.31192398071289
432,1048731435,0.41941673,0.38376084,-0.76136875,0.31166482,-4.759833812713623,-3.2284839153289795,12.067265510559082,-85.16085052490234,-50.52040481567383, -26.39211082458496
433,1048748102,0.40956518,0.38776878,-0.7673523,0.30506152,-4.407937049865723,-10.627839088439941,7.798357963562012,-9.853120803833008,-94.36383819580078, -2.3085970878601074
434,1048764769,0.38339156,0.40315557,-0.7680224,0.31720385,-1.9745004177093506,-13.395959854125977,5.25369930267334,175.64610290527344,-139.5506134033203, 10.279709815979004
435,1048781436,0.35697365,0.41759485,-0.7681885,0.32874158,-0.08353540301322937,-3.3384346961975098,14.10153579711914,171.56527709960938,-139.21083068847656, 12.572684288024902
436,1048798103,0.33749133,0.42300054,-0.77456284,0.32744914,1.0532989501953125,-0.5621417164802551,13.971806526184082,47.55955123901367,-134.5827178955078, 30.96225929260254
437,1048814770,0.3188907,0.42824832,-0.7813862,0.323029,2.8094656467437744,1.800349473953247,9.50186538696289,26.887954711914062,-140.013671875, 23.942020416259766
438,1048831437,0.3077075,0.4324099,-0.78989315,0.3072567,5.511829853057861,4.9947123527526855,9.58272933959961,-62.07769775390625,-135.10743713378906, -6.524652481079102
439,1048848104,0.3070943,0.4311662,-0.8027785,0.27447367,5.325178623199463,0.4772704243659973,10.20109748840332,-206.55609130859375,-126.42575073242188, -22.350881576538086
440,1048864771,0.30861738,0.42951465,-0.81436926,0.23890455,4.88977575302124,-3.523531913757324,8.941451072692871,-226.69264221191406,-119.67034149169922, -33.89768981933594
441,1048881438,0.3087719,0.43097985,-0.8213689,0.2104038,6.796875476837158,-2.0052542686462402,8.150151252746582,-168.9271240234375,-102.03926849365234, -47.79604721069336
442,1048898105,0.30883703,0.43385944,-0.82531327,0.18773367,9.152909278869629,-3.2011301517486572,7.453296184539795,-128.2926788330078,-81.05763244628906, -52.41049575805664
443,1048914772,0.30610552,0.4395321,-0.8257343,0.17684503,10.186300277709961,-3.904672861099243,6.495855331420898,-42.60588836669922,-58.17474365234375, -50.21120834350586
444,1048931439,0.29930907,0.4486792,-0.8222325,0.1817551,10.016246795654297,-1.1924666166305542,6.987929821014404,71.45647430419922,-29.758150100708008, -43.61101150512695
445,1048948106,0.29499906,0.456001,-0.8171107,0.19331026,8.560619354248047,-1.4449644088745117,6.24009370803833,99.66698455810547,10.125285148620605, -27.62156867980957
446,1048964773,0.29267165,0.4620443,-0.8089445,0.21556303,6.1151862144470215,-1.6304056644439697,5.267340660095215,155.0406036376953,62.45987319946289, -10.787381172180176
447,1048981440,0.29477778,0.4654607,-0.7981582,0.24371281,3.823713779449463,-1.1104698181152344,4.595205307006836,172.36526489257812,114.90226745605469, 0.9568493366241455
448,1048998107,0.30224904,0.46571028,-0.7846866,0.27572906,1.703985333442688,-2.555262804031372,3.2898707389831543,174.49574279785156,167.4417724609375, 8.756400108337402
449,1049014774,0.31534067,0.46314558,-0.76720446,0.3121765,0.9975142478942871,-1.3271658420562744,3.719571352005005,182.13426208496094,225.70098876953125, 9.7684907913208
450,1049031441,0.33583754,0.45608285,-0.7475276,0.34699327,0.04428382217884064,-0.13170918822288513,3.3114173412323,144.86810302734375,274.06170654296875, 7.18255090713501
451,1049048108,0.36238092,0.44456884,-0.725756,0.3798907,0.03825904801487923,1.4281539916992188,1.2014175653457642,110.72834014892578,314.6861267089844, 4.706380844116211
452,1049064775,0.3970568,0.4244574,-0.7058904,0.4048467,-0.5392392873764038,2.328542947769165,-1.0829086303710938,19.791807174682617,348.8508605957031, 12.439024925231934
453,1049081442,0.4346815,0.39828902,-0.68797255,0.42321607,-0.7915725708007812,2.3864476680755615,-5.596291542053223,-42.776737213134766,355.6770324707031, 21.297876358032227
454,1049098109,0.4702013,0.37146676,-0.6687271,0.4401445,-0.6768808960914612,0.3721238672733307,-8.638697624206543,-41.905582427978516,347.9464111328125, 22.50334930419922
455,1049114776,0.5007707,0.34778044,-0.64527285,0.46032667,0.08897659182548523,-0.5672913789749146,-10.930363655090332,8.631227493286133,338.0014343261719, 22.73534393310547
456,1049131443,0.5258013,0.329308,-0.6170611,0.48407122,1.2828912734985352,-0.43047308921813965,-14.091448783874512,70.78196716308594,322.274658203125, 17.941450119018555
457,1049148110,0.54499924,0.31733632,-0.5870108,0.50763375,2.110352039337158,-0.3234250843524933,-17.54656982421875,110.51338958740234,285.6722717285156, 11.197874069213867
458,1049164777,0.5581924,0.3096607,-0.5586967,0.52951825,2.8581490516662598,-0.7553445100784302,-22.961170196533203,128.38397216796875,235.03143310546875, 8.1729097366333
459,1049181444,0.5688959,0.3031869,-0.53775114,0.54337734,1.4329566955566406,0.9357596039772034,-23.060314178466797,82.2553939819336,174.83995056152344, -5.443428039550781
460,1049198111,0.5788565,0.2941613,-0.5297857,0.5456385,0.8071016073226929,-0.24310603737831116,-24.717748641967773,-17.776073455810547,107.7749252319336, -10.924741744995117
461,1049214778,0.58506644,0.28509653,-0.53341216,0.5402672,-1.8381378650665283,-2.768528461456299,-24.852373123168945,-81.45272064208984,33.40131378173828, -3.707244873046875
462,1049231445,0.58320415,0.28371525,-0.5422388,0.534187,-2.8608222007751465,-3.5626204013824463,-25.102067947387695,-56.435096740722656,-46.37531280517578, 5.325383186340332
463,1049248112,0.57378197,0.29168382,-0.552902,0.5291448,-1.5515137910842896,-2.090827465057373,-20.760133743286133,-6.872086048126221,-113.5947036743164, 5.815225601196289
464,1049264779,0.55890465,0.30453578,-0.5668917,0.52298903,-0.18958264589309692,-1.5294411182403564,-16.901569366455078,7.129864692687988,-166.97109985351562, 9.230928421020508
465,1049281446,0.5407361,0.31893557,-0.58376664,0.5148799,-0.21832634508609772,-1.408079981803894,-12.184703826904297,1.7419418096542358,-199.8172607421875, 14.089264869689941
466,1049298113,0.52136743,0.33157536,-0.6026246,0.5050519,-0.6925406455993652,-2.5603156089782715,-14.280390739440918,-15.952343940734863,-209.43553161621094, 23.110614776611328
467,1049314780,0.50205564,0.34384367,-0.61572385,0.5005956,5.00243616104126,-4.484950542449951,-13.368335723876953,24.5782470703125,-174.16603088378906, 31.46859359741211
468,1049331447,0.48596832,0.34666812,-0.6398281,0.4840209,8.573283195495605,-3.398202657699585,-1.2778934240341187,-104.39678955078125,-195.02491760253906, 43.377532958984375
469,1049348114,0.4648135,0.35637915,-0.65850705,0.4725581,1.7497105598449707,1.1618388891220093,1.3380264043807983,-29.260957717895508,-208.85194396972656, 36.53615188598633
470,1049364781,0.43882722,0.37032324,-0.6765047,0.4611213,20.3142147064209,2.0120139122009277,4.735235691070557,-1.498517632484436,-242.28115844726562, 31.99666976928711
471,1049381448,0.4173304,0.3849008,-0.682519,0.46027672,4.891517639160156,3.9599356651306152,-5.617496490478516,76.39724731445312,-161.16636657714844, 15.469955444335938
472,1049398115,0.40290865,0.3930743,-0.69635797,0.44524458,0.06178510561585426,3.2749245166778564,-1.9893654584884644,-51.92534637451172,-168.94525146484375, 0.8824225664138794
473,1049414782,0.39346787,0.39832258,-0.7068934,0.43223128,5.539357662200928,-2.926212787628174,-3.6785995960235596,-53.70180892944336,-120.8895263671875, -2.1481800079345703
474,1049431449,0.38729894,0.40126306,-0.71558666,0.4206226,7.723937511444092,-2.5524232387542725,0.07091891765594482,-56.6272087097168,-89.55899047851562, -2.220978021621704
475,1049448116,0.38275895,0.40405294,-0.7216145,0.41171563,12.985270500183105,-1.009385347366333,-1.3360278606414795,-40.59571838378906,-66.95136260986328, -6.649175643920898
476,1049464783,0.3809621,0.40547603,-0.72783244,0.40089512,12.154675483703613,1.110317349433899,0.5451890230178833,-61.84920120239258,-55.394073486328125, -11.6852388381958
477,1049481450,0.38148034,0.40574503,-0.7334127,0.38980755,13.492929458618164,3.0844712257385254,2.1007015705108643,-70.95172119140625,-40.06324005126953, -14.706015586853027
478,1049498117,0.38609833,0.4050475,-0.73711103,0.3788564,11.399792671203613,4.864537239074707,7.02750825881958,-79.35498809814453,-12.260621070861816, -26.47545051574707
479,1049514784,0.3964993,0.40142605,-0.73729044,0.37154856,10.101584434509277,5.950042724609375,8.237156867980957,-75.63986206054688,43.69069290161133, -26.592130661010742
480,1049531451,0.41218904,0.3945426,-0.74328774,0.3492272,6.110596179962158,2.274329662322998,11.919294357299805,-190.1653594970703,21.059030532836914, -48.177371978759766
481,1049548118,0.42242166,0.38767812,-0.75171256,0.32587388,-0.37613388895988464,-10.91148567199707,-3.723360776901245,-186.47877502441406,-17.077144622802734, -31.3674259185791
482,1049564785,0.41218778,0.3965962,-0.7563853,0.3173231,-1.0122222900390625,-15.593761444091797,0.6200739741325378,-1.2347477674484253,-107.7516098022461, -34.33427047729492
483,1049581452,0.38993427,0.41524038,-0.7592725,0.3146935,-2.3885257244110107,-5.8690924644470215,-1.046187400817871,93.663818359375,-170.28311157226562, -47.131473541259766
484,1049598119,0.36156,0.43343824,-0.76630825,0.3068839,5.197463512420654,-3.9607014656066895,5.274621963500977,73.85997009277344,-227.15032958984375, -33.75825119018555
485,1049614786,0.33504748,0.44458258,-0.77985734,0.2862032,5.415567874908447,-4.999625205993652,9.578386306762695,-30.87049102783203,-257.2828063964844, -13.137707710266113
486,1049631453,0.3091962,0.4535166,-0.7942069,0.26068333,7.321576118469238,-5.150181770324707,11.456852912902832,-65.60540008544922,-266.3973388671875, -11.312215805053711
487,1049648120,0.28469616,0.46122932,-0.8069781,0.23452498,6.955028533935547,-3.0797736644744873,16.237106323242188,-73.16497039794922,-255.8892364501953, -13.356256484985352
488,1049664787,0.26503935,0.46551389,-0.8191368,0.20509969,6.443937301635742,-2.418346643447876,17.61724853515625,-112.44290161132812,-233.1565704345703, -10.465072631835938
489,1049681454,0.24974254,0.46725675,-0.8299421,0.17463149,6.9159698486328125,-3.971397876739502,18.346668243408203,-135.0393829345703,-206.37168884277344, -8.535611152648926
490,1049698121,0.23481159,0.46834418,-0.8387225,0.14853384,6.496845722198486,-6.680442810058594,17.7149600982666,-110.0166015625,-186.4408416748047, -4.2864556312561035
491,1049714788,0.21705693,0.47137713,-0.84428173,0.1337108,6.401358127593994,-5.65330696105957,16.8891658782959,-29.558746337890625,-163.5984649658203, -4.865529537200928
492,1049731455,0.20077513,0.4748684,-0.84760636,0.12551147,6.514252662658691,-3.8918662071228027,16.492450714111328,6.788207054138184,-131.02284240722656, -6.2618021965026855
493,1049748122,0.1876695,0.47830653,-0.84912145,0.12245803,6.166386127471924,-2.2028415203094482,15.777618408203125,27.863256454467773,-93.49787902832031, -7.479966640472412
494,1049764789,0.17925559,0.4810088,-0.8492369,0.1236728,6.130481243133545,-1.4947882890701294,13.39006519317627,37.58198928833008,-49.934326171875, -6.183708190917969
495,1049781456,0.17776158,0.48416945,-0.8465342,0.13176008,7.459145545959473,-2.609035015106201,10.9299955368042,57.805381774902344,16.0446720123291, -15.533402442932129
496,1049798123,0.17712301,0.48803464,-0.84004945,0.15737456,6.3012189865112305,0.5128108859062195,10.340062141418457,161.27996826171875,83.13198852539062, -11.471010208129883
497,1049814790,0.18803841,0.48864982,-0.8324597,0.18131159,5.116270065307617,2.674692153930664,10.013264656066895,110.1033935546875,148.9235382080078, -10.784703254699707
498,1049831457,0.2106298,0.485349,-0.82421553,0.20184292,5.02697229385376,-0.5925084948539734,5.797798156738281,47.195831298828125,209.90953063964844, -9.40280532836914
499,1049848124,0.23793615,0.4789286,-0.8135335,0.22842322,3.7503883838653564,-2.1939697265625,2.3989548683166504,64.60902404785156,264.6415710449219, 2.4081146717071533
500,1049864791,0.26936537,0.46949077,-0.8000517,0.25872427,3.226768732070923,0.5791280269622803,1.0704820156097412,71.26834869384766,309.34912109375, 9.700787544250488
501,1049881458,0.3057285,0.45543787,-0.78573006,0.28589332,2.246105194091797,0.805447518825531,-1.1733258962631226,31.031478881835938,336.2346496582031, 17.833877563476562
502,1049898125,0.34227756,0.43866605,-0.7691412,0.31438887,1.6933503150939941,0.020329013466835022,-3.00771164894104,36.33753204345703,351.6608581542969, 27.851125717163086
503,1049914792,0.37542439,0.42205915,-0.7479124,0.34864,1.7298182249069214,0.6163049340248108,-5.146529674530029,87.44720458984375,361.81402587890625, 33.888092041015625
504,1049931459,0.40474176,0.4072595,-0.720888,0.3881292,2.778320550918579,2.048996686935425,-6.028005599975586,144.0701446533203,368.2390441894531, 30.523698806762695
505,1049948126,0.43294093,0.39307538,-0.68990725,0.42671058,4.068351745605469,3.916374921798706,-7.518763542175293,154.97669982910156,369.80120849609375, 16.942333221435547
506,1049964793,0.46287024,0.37537068,-0.65992075,0.45755067,3.8552873134613037,2.996408700942993,-9.562288284301758,100.15503692626953,364.72979736328125, 8.3101167678833
507,1049981460,0.49245912,0.35572997,-0.63187444,0.48132637,3.1568148136138916,0.6423378586769104,-12.392390251159668,56.27595901489258,345.9942321777344, 2.976813316345215
508,1049998127,0.5192004,0.33737162,-0.6037378,0.5021078,3.6195507049560547,-0.31736645102500916,-15.0324068069458,54.649986267089844,322.8996276855469, -3.4880785942077637
509,1050014794,0.5416536,0.32278228,-0.575983,0.52025634,5.101121425628662,0.3452516794204712,-17.513336181640625,66.06871795654297,284.7663269042969, -13.976358413696289
510,1050031461,0.56023705,0.31039935,-0.5534779,0.5323995,5.009249687194824,-0.286960244178772,-20.199098587036133,41.507423400878906,228.18142700195312, -22.089712142944336
511,1050048128,0.57411253,0.29966658,-0.5402157,0.5373656,2.263000965118408,-4.09285831451416,-22.761903762817383,-3.6344192028045654,154.439697265625, -18.046157836914062
512,1050064795,0.5793256,0.29529643,-0.5324244,0.54194665,0.6269204616546631,-5.824136734008789,-24.502193450927734,17.90142250061035,77.08055114746094, -0.11079016327857971
513,1050081462,0.5765323,0.29839674,-0.5300557,0.5455373,-0.8456137776374817,-3.6510491371154785,-23.582050323486328,40.329444885253906,-2.9359371662139893, 9.20012378692627
514,1050098129,0.56734604,0.3079287,-0.5327567,0.54723734,-0.8621479272842407,-2.5484743118286133,-21.72197914123535,53.245582580566406,-73.68435668945312, 12.433381080627441
515,1050114796,0.5541454,0.32014254,-0.5417839,0.54488695,-0.20753319561481476,-1.6231783628463745,-17.593584060668945,33.73138427734375,-131.18243408203125, 15.10995101928711
516,1050131463,0.5376271,0.33407012,-0.554795,0.5399599,0.07304564118385315,-1.58580482006073,-13.671502113342285,23.14348793029785,-170.4117431640625, 19.949785232543945
517,1050148130,0.51936656,0.34835625,-0.56938314,0.53358155,-0.43060389161109924,0.044620122760534286,-9.870869636535645,17.13351058959961,-187.28199768066406, 23.17059898376465
518,1050164797,0.503314,0.3584547,-0.58891505,0.5209267,4.1235127449035645,-6.282169818878174,-15.459580421447754,-45.82094192504883,-195.81556701660156, 20.841615676879883
519,1050181464,0.47054577,0.3841172,-0.59829664,0.52257246,28.530004501342773,0.8163871765136719,4.305183410644531,143.60528564453125,-248.5928497314453, 41.897727966308594
520,1050198131,0.4470383,0.3942293,-0.62412786,0.5051777,-7.005535125732422,-2.7661921977996826,-5.7030463218688965,-68.7774658203125,-258.46575927734375, 54.600521087646484
521,1050214798,0.41961646,0.4118816,-0.63188505,0.50497234,0.36198100447654724,0.5846814513206482,-12.126983642578125,101.5694580078125,-199.23635864257812, 39.51185607910156
522,1050231465,0.40661713,0.41490892,-0.6439046,0.49789566,3.4809858798980713,2.353571891784668,-2.8777551651000977,-25.342504501342773,-121.51486206054688, 37.83623123168945
523,1050248132,0.39697525,0.416224,-0.65396243,0.4914282,6.837749481201172,0.17620022594928741,-1.6403464078903198,-30.684972763061523,-92.75089263916016, 31.67053985595703
524,1050264799,0.3899733,0.41681272,-0.6622968,0.48533595,4.311402320861816,1.2758023738861084,-2.3657209873199463,-32.907554626464844,-72.7358169555664, 22.230241775512695
525,1050281466,0.3887209,0.4127437,-0.6712847,0.47740525,5.31290864944458,2.6981468200683594,-5.218096733093262,-72.57624816894531,-37.17722702026367, 22.951719284057617
526,1050298133,0.39240912,0.4059122,-0.67955613,0.46845925,8.931705474853516,0.2003186047077179,-2.425363063812256,-96.34016418457031,-5.731163024902344, 15.833747863769531
527,1050314800,0.39732853,0.40006146,-0.6879719,0.45691964,16.228694915771484,0.618715763092041,2.648792266845703,-109.74311065673828,-10.234671592712402, 2.0557312965393066
528,1050331467,0.4006197,0.39310342,-0.7000572,0.44146767,13.787925720214844,-0.6584937572479248,7.568610191345215,-138.39361572265625,-34.93728256225586, 13.435296058654785
529,1050348134,0.40318152,0.3884917,-0.7128846,0.422273,13.48127555847168,2.6472907066345215,5.848756790161133,-150.28147888183594,-57.37138366699219, -1.6516318321228027
530,1050364801,0.40772384,0.3870453,-0.7242998,0.39918315,7.0605340003967285,3.562636375427246,8.388476371765137,-161.79962158203125,-63.44123077392578, -36.050472259521484
531,1050381468,0.4169947,0.38362986,-0.7367234,0.36902884,3.5816304683685303,1.0474343299865723,11.487811088562012,-218.08090209960938,-57.402740478515625, -58.71732711791992
532,1050398135,0.42483968,0.37529248,-0.75305396,0.3340311,1.4858224391937256,-9.9135103225708,5.916776180267334,-262.9923400878906,-76.5908432006836, -33.6192626953125
533,1050414802,0.41476643,0.3807262,-0.76304907,0.31744692,-1.5055201053619385,-11.171780586242676,5.767735004425049,-66.67678833007812,-135.1825714111328, -26.467994689941406
534,1050431469,0.39801046,0.39434332,-0.77041185,0.30421478,-4.331613540649414,-4.133599281311035,6.965307235717773,-2.6134462356567383,-171.97994995117188, -52.35253143310547
535,1050448136,0.37390798,0.41351265,-0.77590907,0.29523808,1.0796027183532715,-6.066596031188965,4.420644283294678,58.89250183105469,-206.0175323486328, -59.903770446777344
536,1050464803,0.3448715,0.43147263,-0.78303903,0.2859112,4.0256876945495605,-4.992399215698242,10.24402141571045,64.56236267089844,-235.2332763671875, -39.79049301147461
537,1050481470,0.31596732,0.4458033,-0.7920173,0.27227336,4.138372898101807,-5.425358772277832,14.731668472290039,28.637733459472656,-244.90643310546875, -25.28126335144043
538,1050498137,0.28858957,0.45769218,-0.8005877,0.25747538,5.884852409362793,-4.830431938171387,15.99046516418457,13.007119178771973,-235.1259002685547, -18.62692642211914
539,1050514804,0.26460347,0.4674233,-0.8083109,0.24111,6.9123711585998535,-2.6056106090545654,16.627330780029297,-9.158872604370117,-216.35743713378906, -18.51961898803711
540,1050531471,0.24672785,0.47327423,-0.8170581,0.21806647,7.514362812042236,-3.3629274368286133,16.840152740478516,-74.72187805175781,-199.779296875, -15.91164779663086
541,1050548138,0.23139559,0.47791177,-0.8243214,0.19634381,6.945385932922363,-4.3321213722229,16.507089614868164,-75.45526885986328,-177.324462890625, -15.501119613647461
542,1050564805,0.21698733,0.48296082,-0.82881063,0.18093796,6.0116167068481445,-3.626688003540039,15.799098014831543,-38.33591079711914,-147.88211059570312, -18.169513702392578
543,1050581472,0.20517808,0.48747385,-0.83132595,0.17078818,5.936205863952637,-3.1676859855651855,15.10843276977539,-15.389195442199707,-112.35149383544922, -17.068939208984375
544,1050598139,0.19693321,0.49154174,-0.8317571,0.16668558,6.189520835876465,-2.8115580081939697,14.522418022155762,9.0279541015625,-68.55558776855469, -17.155193328857422
545,1050614806,0.19119893,0.49624762,-0.8291754,0.17218968,5.8915252685546875,-1.9050410985946655,12.047103881835938,59.7896614074707,-18.670623779296875, -20.81204605102539
546,1050631473,0.1909033,0.4997067,-0.8241155,0.18623327,5.8514909744262695,-1.4241082668304443,10.700826644897461,91.2208480834961,45.984344482421875, -17.28534698486328
547,1050648140,0.19633225,0.5027411,-0.8151255,0.21041764,4.485171318054199,0.1583959013223648,10.320487976074219,133.50900268554688,118.78942108154297, -22.276439666748047
548,1050664807,0.21230346,0.5021603,-0.8046008,0.23533,3.8009462356567383,1.4633021354675293,9.195802688598633,98.51029968261719,187.5719451904297, -21.44887924194336
549,1050681474,0.23728862,0.4971061,-0.79264593,0.2613279,3.7769718170166016,-1.1498161554336548,5.152527809143066,69.19485473632812,250.4386749267578, -14.525227546691895
550,1050698141,0.26514563,0.48969474,-0.77668935,0.29436496,3.312039613723755,-0.7837973833084106,1.9896612167358398,101.06925964355469,300.9432067871094, -8.96651840209961
551,1050714808,0.29619405,0.47886905,-0.7578682,0.3295289,4.083341121673584,0.8506361842155457,-1.3321720361709595,101.2183609008789,337.3817138671875, -2.8894667625427246
552,1050731475,0.3309527,0.46355858,-0.73728675,0.36330712,3.2392733097076416,2.045633554458618,-4.484149932861328,76.59232330322266,366.0470275878906, 3.5235025882720947
553,1050748142,0.36429214,0.4467566,-0.71302235,0.399123,2.800480842590332,2.3083717823028564,-7.083850860595703,97.23228454589844,377.68865966796875, 7.582525253295898
554,1050764809,0.3938469,0.43169373,-0.68331784,0.43772402,3.344959259033203,3.368025541305542,-9.660591125488281,141.64097595214844,376.2132568359375, -2.1037065982818604
555,1050781476,0.4223025,0.41647243,-0.65232974,0.47188702,4.636753082275391,2.3991219997406006,-12.454182624816895,127.7169418334961,361.4183044433594, -15.538990020751953
556,1050798143,0.44896582,0.40052998,-0.62314606,0.49969465,5.553919315338135,-0.8726630806922913,-18.39256477355957,96.80186462402344,332.4122314453125, -20.019533157348633
557,1050814810,0.4726004,0.3834786,-0.5980548,0.52146286,5.179565906524658,-1.7931797504425049,-21.752614974975586,62.21250534057617,294.4056396484375, -12.35240650177002
558,1050831477,0.4951282,0.36552212,-0.5786706,0.5351468,4.262084484100342,1.470604419708252,-21.58710479736328,8.962705612182617,253.7628631591797, -16.15132713317871
559,1050848144,0.51843995,0.34456998,-0.5713411,0.53484666,3.9801740646362305,-0.6629137992858887,-25.487831115722656,-104.34162139892578,194.27407836914062, -20.66039276123047
560,1050864811,0.5378061,0.32343933,-0.5748049,0.5251201,1.0196576118469238,-3.040703773498535,-26.006521224975586,-172.17140197753906,119.36229705810547, -13.635169982910156
561,1050881478,0.54880905,0.30801,-0.5839287,0.51280195,-0.569154679775238,-2.988492965698242,-26.47333526611328,-162.94163513183594,39.78655242919922, -3.11747670173645
562,1050898145,0.5508241,0.30221796,-0.5960384,0.49999556,-1.4870710372924805,-1.5931873321533203,-24.104795455932617,-122.00536346435547,-40.092533111572266, -0.9703550338745117
563,1050914812,0.5455994,0.30419093,-0.61061805,0.48675942,-1.0851333141326904,0.9575314521789551,-20.125904083251953,-87.64607238769531,-106.06912994384766, -4.083846092224121
564,1050931479,0.53697485,0.30937308,-0.62875646,0.46969327,-0.7110044956207275,2.469485282897949,-15.386466979980469,-96.44943237304688,-151.84268188476562, -12.279572486877441
565,1050948146,0.5251925,0.31794125,-0.64751434,0.45145506,-1.1879632472991943,2.0714640617370605,-10.556857109069824,-84.03621673583984,-180.93113708496094, -19.280805587768555
566,1050964813,0.5102395,0.32973415,-0.66376936,0.4362815,-2.8582286834716797,1.1444889307022095,-6.762467861175537,-43.70240783691406,-189.2058563232422, -17.9720516204834
567,1050981480,0.49494317,0.33668566,-0.6820647,0.4200737,-4.2283549308776855,-7.219372272491455,-26.780122756958008,-68.96951293945312,-187.2639923095703, -0.5094952583312988
568,1050998147,0.46434304,0.35731444,-0.6891173,0.42641476,16.061058044433594,-6.388734817504883,-7.500644683837891,151.4187774658203,-207.36056518554688, 29.918804168701172
569,1051014814,0.43790373,0.37373507,-0.69611955,0.42892897,3.63075590133667,6.1783552169799805,9.621560096740723,109.754150390625,-184.56881713867188, 25.053932189941406
570,1051031481,0.42148283,0.3782185,-0.71154493,0.41594118,5.725967884063721,-6.6503005027771,-0.36521297693252563,-51.083641052246094,-167.1013946533203, 27.730743408203125
571,1051048148,0.4042802,0.38604468,-0.7202539,0.41080597,5.4395432472229,-1.5013362169265747,1.921684980392456,18.20867156982422,-140.75428771972656, 18.826099395751953
572,1051064815,0.39375296,0.38794953,-0.73290217,0.39662126,7.328226566314697,-0.34017643332481384,-0.8284298777580261,-71.97991180419922,-126.18527221679688, 14.63869857788086
573,1051081482,0.38510925,0.38935703,-0.74431604,0.38221157,4.065587520599365,0.6990288496017456,0.18638713657855988,-76.16070556640625,-112.77925109863281, 8.216227531433105
574,1051098149,0.3784826,0.38975564,-0.75419104,0.36883256,4.072165012359619,-0.7457237243652344,-3.64910626411438,-74.95015716552734,-93.14570617675781, 6.794758319854736
575,1051114816,0.3723784,0.39211145,-0.7602855,0.35992908,4.906686305999756,0.3812061548233032,-1.85627281665802,-38.48155975341797,-73.63325500488281, -3.113389015197754
576,1051131483,0.36844498,0.39460763,-0.76448625,0.35227007,6.558523654937744,-0.17769718170166016,-0.723503828048706,-32.81410217285156,-54.564903259277344, -11.074068069458008
577,1051148150,0.3681481,0.3960074,-0.7679799,0.3432963,10.133927345275879,0.17253530025482178,2.224233627319336,-50.701805114746094,-34.76002883911133, -19.2933406829834
578,1051164817,0.3711856,0.3952785,-0.77319556,0.32885394,11.81617259979248,-0.029195010662078857,6.6822943687438965,-98.1734848022461,-31.702211380004883, -24.94948959350586
579,1051181484,0.37487027,0.395897,-0.77826947,0.31150395,10.941092491149902,-0.32736271619796753,5.95006799697876,-111.71871948242188,-39.31523895263672, -41.23627471923828
580,1051198151,0.3800803,0.39553413,-0.7851959,0.28733128,8.442745208740234,-4.13250207901001,5.926746845245361,-158.96107482910156,-52.82149124145508, -51.67946243286133
581,1051214818,0.3773007,0.39921522,-0.7904055,0.2711653,2.4319868087768555,-7.3586225509643555,11.333563804626465,-80.12281036376953,-78.04183197021484, -41.45553207397461
582,1051231485,0.36767814,0.40813684,-0.79339015,0.2622393,-0.7390695810317993,-5.915843486785889,5.684320449829102,-4.359541416168213,-99.73257446289062, -44.58462142944336
583,1051248152,0.35152608,0.42128244,-0.79538083,0.25752634,0.9682967662811279,-2.5189123153686523,7.01846170425415,49.34340286254883,-128.7885284423828, -48.08348846435547
584,1051264819,0.3277448,0.4362124,-0.79973656,0.25044635,1.7031790018081665,-6.591122627258301,0.7247714400291443,58.58151626586914,-186.47109985351562, -43.234336853027344
585,1051281486,0.2923582,0.45417583,-0.803098,0.25156397,4.87331485748291,-6.264187335968018,4.217510223388672,146.96868896484375,-228.77052307128906, -24.53182601928711
586,1051298153,0.25867972,0.46849954,-0.80778664,0.2471313,5.601185321807861,-2.880589485168457,10.758784294128418,101.28286743164062,-233.2417755126953, -14.44520092010498
587,1051314820,0.22879042,0.47952804,-0.81309634,0.23787083,5.399530410766602,-1.3065314292907715,12.507708549499512,55.28375244140625,-223.60105895996094, -9.130152702331543
588,1051331487,0.2080022,0.48709002,-0.8197901,0.21776742,5.608060359954834,0.847970724105835,13.39609146118164,-43.10286331176758,-205.3334503173828, -17.07219886779785
589,1051348154,0.19597298,0.49213773,-0.8273648,0.18671556,6.614271640777588,-1.1229867935180664,13.571667671203613,-139.07518005371094,-190.49673461914062, -28.67484474182129
590,1051364821,0.18782425,0.49609554,-0.83390373,0.15236859,7.242617607116699,-3.3215208053588867,13.987987518310547,-171.10260009765625,-177.14431762695312, -35.41682434082031
591,1051381488,0.17700715,0.5005199,-0.8378528,0.1270872,7.7449951171875,-4.729475975036621,13.411895751953125,-106.70793151855469,-159.00640869140625, -32.47311782836914
592,1051398155,0.16378269,0.5055073,-0.83951277,0.1133844,8.353601455688477,-4.01296329498291,13.052606582641602,-29.059490203857422,-131.06007385253906, -27.442760467529297
593,1051414822,0.15241271,0.51043016,-0.8395003,0.107102394,9.315046310424805,-4.153700351715088,12.718713760375977,8.54606819152832,-92.95564270019531, -25.979816436767578
594,1051431489,0.14169152,0.51690584,-0.8368518,0.11140598,9.029037475585938,-4.31826639175415,11.470596313476562,70.93096923828125,-50.777931213378906, -33.55277633666992
595,1051448156,0.13312565,0.52270526,-0.83291596,0.12372617,6.186470985412598,-2.069511651992798,11.722641944885254,109.7198486328125,-8.409069061279297, -28.007246017456055
596,1051464823,0.1333802,0.52686507,-0.8281831,0.13687974,5.556813716888428,-3.021299123764038,11.111807823181152,81.98637390136719,47.01935958862305, -28.129379272460938
597,1051481490,0.1395143,0.52929354,-0.821904,0.15766567,6.772678852081299,-3.8764355182647705,11.37973690032959,98.55084991455078,110.117431640625, -27.40985870361328
598,1051498157,0.1524826,0.5290119,-0.8138537,0.18584394,5.420490741729736,-1.4002399444580078,12.27920150756836,114.96272277832031,179.91281127929688, -19.00077247619629
599,1051514824,0.1778119,0.52340364,-0.8054902,0.21358198,3.74987530708313,1.5428614616394043,10.647628784179688,62.232669830322266,254.20358276367188, -7.322083950042725
600,1051531491,0.21684864,0.5112284,-0.79727846,0.23657882,4.26770544052124,1.7548803091049194,6.577371120452881,-19.87468910217285,322.7578125, 4.929886817932129
601,1051548158,0.2599175,0.49412522,-0.7869745,0.2625918,4.159387111663818,0.6426470875740051,0.6583214998245239,-19.264053344726562,367.15325927734375, 25.073699951171875
602,1051564825,0.3017001,0.47355154,-0.77339226,0.29426235,2.574179172515869,1.156856894493103,-2.975470781326294,16.805391311645508,392.0533752441406, 47.55108642578125
603,1051581492,0.33830073,0.45294902,-0.75467116,0.33295882,3.3391265869140625,0.12007798254489899,-6.517969131469727,81.33385467529297,398.2711486816406, 56.048675537109375
604,1051598159,0.36844808,0.43585172,-0.7292702,0.37741828,4.771975517272949,-0.7554595470428467,-9.071684837341309,154.75424194335938,390.5098876953125, 45.27799606323242
605,1051614826,0.3937492,0.4216636,-0.6992352,0.42217493,5.382269382476807,-1.7160296440124512,-11.408544540405273,190.13375854492188,371.5985412597656, 30.184125900268555
606,1051631493,0.41694978,0.40795717,-0.6680148,0.46203935,5.351418972015381,-0.9057997465133667,-14.614575386047363,177.41513061523438,349.4875183105469, 17.294389724731445
607,1051648160,0.4404582,0.3927999,-0.6389706,0.4933778,5.020993232727051,0.8474788665771484,-16.570642471313477,126.34320068359375,325.72271728515625, 4.387800216674805
608,1051664827,0.46747482,0.37364817,-0.61658233,0.5115473,4.219097137451172,2.0697107315063477,-17.587018966674805,24.498809814453125,299.26092529296875, -12.41775131225586
609,1051681494,0.49689472,0.34911093,-0.6054765,0.5144079,3.055006980895996,-0.5958954095840454,-19.74565887451172,-103.96539306640625,253.98785400390625, -16.601030349731445
610,1051698161,0.52023786,0.32675478,-0.60018295,0.5122154,0.0013527870178222656,-2.4009172916412354,-21.053739547729492,-124.47804260253906,190.5352783203125, -4.8747429847717285
611,1051714828,0.53387463,0.31349307,-0.59493935,0.5125888,-1.4113421440124512,-2.2038843631744385,-23.219219207763672,-60.111000061035156,124.90819549560547, 1.8279930353164673
612,1051731495,0.5381356,0.3112915,-0.5881483,0.5172905,-2.043593168258667,0.13753058016300201,-21.317121505737305,24.35077667236328,62.971866607666016, 1.079893708229065
613,1051748162,0.53551817,0.315902,-0.58440405,0.52143854,-1.936440348625183,-0.7400124669075012,-20.614187240600586,51.7717399597168,-1.1902717351913452, 1.416274070739746
614,1051764829,0.52687,0.32567057,-0.5841812,0.52447987,-1.8028944730758667,-1.3991398811340332,-18.6275634765625,67.5717544555664,-59.152217864990234, 4.454207420349121
615,1051781496,0.5141862,0.33797285,-0.5880533,0.52495766,-1.6801400184631348,-1.02897047996521,-15.542145729064941,61.505062103271484,-105.12847900390625, 7.158017158508301
616,1051798163,0.49950755,0.35134798,-0.5951524,0.5223415,-1.1243884563446045,0.2612462639808655,-12.051003456115723,45.97552490234375,-135.40750122070312, 6.170769691467285
617,1051814830,0.48551455,0.36335182,-0.60548824,0.515398,-0.4888121485710144,1.9835443496704102,-8.48647689819336,10.313324928283691,-149.00399780273438, 2.172966957092285
618,1051831497,0.47401494,0.37139395,-0.6202823,0.5026193,-1.0866634845733643,0.6004142165184021,-8.674118041992188,-48.70379638671875,-154.6800079345703, -0.316960871219635
619,1051848164,0.45590279,0.3781075,-0.64194167,0.48692763,25.34785270690918,-15.418951034545898,-30.660696029663086,-72.70133209228516,-207.4314727783203, 37.47568893432617
620,1051864831,0.41703162,0.40578324,-0.65452135,0.4827282,6.575825214385986,9.511724472045898,18.370521545410156,128.4646453857422,-310.7994079589844, 25.14002227783203
621,1051881498,0.3948996,0.41360408,-0.6749927,0.4662308,2.1076767444610596,-3.5447964668273926,-11.592131614685059,-57.1308708190918,-227.287109375, 45.84656524658203
622,1051898165,0.37227783,0.4246796,-0.6845807,0.46087515,-4.744109153747559,2.7472331523895264,-10.452619552612305,39.60145950317383,-178.49363708496094, 31.56156349182129
623,1051914832,0.3645367,0.42560813,-0.69781625,0.44612026,3.6615560054779053,0.23211944103240967,-3.0358455181121826,-85.67758178710938,-112.78539276123047, 18.89413833618164
624,1051931499,0.35751033,0.4278496,-0.70627683,0.43623862,8.076526641845703,-0.07357683032751083,-1.0886151790618896,-46.495887756347656,-86.98638916015625, 9.232537269592285
625,1051948166,0.35322568,0.42767859,-0.71521235,0.42519906,3.740352153778076,-1.4619457721710205,-2.4515202045440674,-67.61859130859375,-71.18602752685547, 11.363201141357422
626,1051964833,0.35277227,0.42548656,-0.7225647,0.4152271,7.7382917404174805,1.054040789604187,-5.145827770233154,-73.85535430908203,-39.169979095458984, 9.010407447814941
627,1051981500,0.35482326,0.42296326,-0.7292325,0.40425557,12.566814422607422,-0.5545998811721802,0.2774620056152344,-84.97515869140625,-27.02817726135254, -0.557809054851532
628,1051998167,0.35849708,0.41900507,-0.7383793,0.3882148,14.298542022705078,0.9847630858421326,3.9027016162872314,-125.45000457763672,-35.71907424926758, -2.0550684928894043
629,1052014834,0.35973984,0.41718557,-0.74867624,0.3688187,15.970123291015625,2.0454134941101074,3.375507116317749,-133.2303009033203,-66.51026153564453, -10.430143356323242
630,1052031501,0.35927328,0.4178786,-0.7574391,0.35012335,14.466578483581543,2.7647268772125244,9.351142883300781,-114.59370422363281,-76.27995300292969, -21.156755447387695
631,1052048168,0.36322513,0.41721678,-0.7649622,0.32989496,6.461803913116455,3.177053928375244,12.042074203491211,-136.0063934326172,-52.317970275878906, -33.490272521972656
632,1052064835,0.37114686,0.41562712,-0.77326787,0.30259043,1.175186276435852,-0.6411121487617493,7.529393196105957,-188.78396606445312,-52.104217529296875, -52.88855743408203
633,1052081502,0.37443164,0.41096362,-0.78440523,0.27498797,2.3035507202148438,-12.167572975158691,7.075371265411377,-190.90103149414062,-78.72012329101562, -19.521808624267578
634,1052098169,0.36185527,0.41853234,-0.7905741,0.26245818,-2.969029664993286,-8.189738273620605,6.319298267364502,-23.99992561340332,-132.25250244140625, -30.870342254638672
635,1052114836,0.3429075,0.43275648,-0.79488397,0.25158653,-2.0139315128326416,-4.905116558074951,6.094086647033691,23.184974670410156,-169.62257385253906, -56.88795852661133
636,1052131503,0.3185413,0.44934487,-0.79942364,0.2398801,3.0573322772979736,-4.3515143394470215,5.32777214050293,39.871185302734375,-206.48463439941406, -61.7882080078125
637,1052148170,0.291189,0.46380088,-0.8053759,0.22686404,5.501964569091797,-5.2279510498046875,10.404837608337402,34.85207748413086,-226.7276611328125, -43.679443359375
638,1052164837,0.26528373,0.4750544,-0.8121144,0.2107568,4.937826633453369,-4.226659297943115,14.887231826782227,5.421836853027344,-225.5120391845703, -31.899641036987305
639,1052181504,0.24174473,0.48338506,-0.81902885,0.19258873,4.632863521575928,-5.890351295471191,14.378360748291016,-19.448307037353516,-215.53831481933594, -22.188949584960938
640,1052198171,0.21855016,0.49105215,-0.8241152,0.17871182,4.572888374328613,-5.163938999176025,14.80937671661377,4.833448886871338,-195.78054809570312, -17.86497688293457
641,1052214838,0.19794033,0.49694896,-0.8284658,0.1658493,5.413811206817627,-4.305245876312256,15.46056842803955,0.04877825826406479,-174.7678680419922, -11.970263481140137
642,1052231505,0.17992614,0.5017172,-0.83179694,0.1549846,5.874972343444824,-4.172679424285889,14.481405258178711,2.149014472961426,-150.82798767089844, -9.255521774291992
643,1052248172,0.1646716,0.5058734,-0.8336612,0.1482716,6.3832106590271,-2.8403303623199463,14.407325744628906,17.146162033081055,-118.57182312011719, -8.60276985168457
644,1052264839,0.15502514,0.50896126,-0.83464724,0.14244238,7.003580093383789,-2.775613307952881,14.05732536315918,2.3774209022521973,-81.57921600341797, -10.223551750183105
645,1052281506,0.14991389,0.5116795,-0.8342838,0.14028752,6.6505961418151855,-1.7504608631134033,12.866963386535645,8.51126766204834,-41.19956588745117, -13.325648307800293
646,1052298173,0.14952417,0.5135808,-0.8327389,0.14291045,6.259713649749756,-0.9221127033233643,10.21405029296875,19.880943298339844,4.450119495391846, -12.13288688659668
647,1052314840,0.1554976,0.51431924,-0.8297585,0.15098794,6.1371378898620605,-2.377323627471924,7.52378511428833,28.414094924926758,62.521366119384766, -11.590764045715332
648,1052331507,0.16417028,0.5140989,-0.82458013,0.16975927,4.293402671813965,-0.5062265396118164,6.688694477081299,81.49185943603516,118.9580307006836, -4.842756271362305
649,1052348174,0.18248627,0.5098177,-0.8195633,0.18735214,2.9231324195861816,-0.3944268822669983,6.368687629699707,35.69568634033203,173.91688537597656, 5.965137481689453
650,1052364841,0.20570609,0.5021279,-0.8137366,0.2082923,1.7809810638427734,-2.173605442047119,3.926034688949585,34.1748161315918,218.66357421875, 20.320907592773438
651,1052381508,0.22928868,0.49297592,-0.8051246,0.2370149,0.84128737449646,-1.6356512308120728,1.9789464473724365,79.33690643310547,253.77415466308594, 30.850292205810547
652,1052398175,0.25340173,0.48243943,-0.7936337,0.27052832,-0.2433452159166336,-0.6134495735168457,0.3973223865032196,106.74933624267578,279.9400939941406, 36.16238784790039
653,1052414842,0.27809846,0.47075218,-0.77841616,0.30841872,-1.2578465938568115,1.0330160856246948,-1.018344759941101,132.3599853515625,306.2347412109375, 34.58526611328125
654,1052431509,0.30549693,0.45734885,-0.7599364,0.34641114,-0.6706622838973999,3.50791072845459,-1.6093471050262451,127.75884246826172,331.11260986328125, 27.73053550720215
655,1052448176,0.33491,0.44240266,-0.7384373,0.38317853,0.6447893381118774,4.798948764801025,-2.9940459728240967,118.95014953613281,347.99090576171875, 18.991451263427734
656,1052464843,0.36644584,0.42616892,-0.7146441,0.416391,1.8136894702911377,5.23781681060791,-4.47303581237793,97.50116729736328,356.801513671875, 4.83131742477417
657,1052481510,0.40038267,0.40889007,-0.68899715,0.44473115,2.998729944229126,4.227088451385498,-6.440169811248779,69.3226089477539,362.8673400878906, -11.67407512664795
658,1052498177,0.4356107,0.3891647,-0.6638209,0.4670503,3.801501512527466,0.903850793838501,-10.0214262008667,28.675086975097656,358.48223876953125, -19.388996124267578
659,1052514844,0.46797317,0.36875093,-0.6392232,0.48622814,5.21826171875,-2.1287357807159424,-15.157368659973145,17.784780502319336,337.8817443847656, -14.792806625366211
660,1052531511,0.49303815,0.35306418,-0.613442,0.5059132,6.935856819152832,-1.167084813117981,-19.81290054321289,57.58858871459961,295.52764892578125, -13.062712669372559
661,1052548178,0.51185614,0.34124598,-0.5919718,0.52069575,6.3052754402160645,-1.0806145668029785,-23.550434112548828,50.47016525268555,229.55953979492188, -14.951569557189941
662,1052564845,0.5254643,0.33142677,-0.57939446,0.52758485,2.8737730979919434,-1.897719383239746,-25.0664119720459,6.528986930847168,151.59547424316406, -13.096858024597168
663,1052581512,0.53339446,0.32420465,-0.5760792,0.52774477,0.5690658092498779,-2.9350385665893555,-25.129989624023438,-31.323074340820312,71.54756164550781, -6.224174499511719
664,1052598179,0.53276,0.3247113,-0.57746893,0.526554,-0.28975123167037964,-2.9412593841552734,-25.227298736572266,-6.076167106628418,-9.909058570861816, -0.40647369623184204
665,1052614846,0.5237608,0.33437586,-0.5813834,0.52522457,-0.31913164258003235,-1.0237195491790771,-22.355363845825195,36.67290496826172,-85.08728790283203, -1.5604112148284912
666,1052631513,0.5102587,0.3467403,-0.5914454,0.5192299,0.8264516592025757,-2.133084535598755,-17.865196228027344,16.059389114379883,-145.09365844726562, 1.0570451021194458
667,1052648180,0.4911118,0.35425395,-0.6175392,0.5019549,16.290433883666992,-17.922988891601562,-34.14645004272461,-90.51644134521484,-233.4443359375, 39.45492935180664
668,1052664847,0.45374063,0.38757536,-0.63088477,0.49587232,32.04457092285156,16.042545318603516,20.222047805786133,132.7328338623047,-328.51220703125, -0.6187692284584045
669,1052681514,0.43964034,0.38932264,-0.6688597,0.45581916,-22.02854347229004,0.4660217761993408,0.35078227519989014,-259.2621765136719,-288.9453125, 15.345697402954102
670,1052698181,0.4135965,0.40316564,-0.68172616,0.44904903,1.4738852977752686,-9.923420906066895,-21.404695510864258,40.58864974975586,-215.18728637695312, 35.05781936645508
671,1052714848,0.3967854,0.41033506,-0.69602036,0.43559423,-2.0926167964935303,0.08788330107927322,-9.541643142700195,-39.37785720825195,-174.21588134765625, 19.615123748779297
672,1052731515,0.38201252,0.4164125,-0.7042242,0.42980865,8.300318717956543,2.727609634399414,-0.4378547668457031,6.879685878753662,-122.35136413574219, 23.76896095275879
673,1052748182,0.37235853,0.41815153,-0.71372354,0.42082947,7.825663089752197,3.8431169986724854,-2.6856417655944824,-38.4724006652832,-97.68375396728516, 24.66077995300293
674,1052764849,0.36682156,0.41768113,-0.72293204,0.4103095,3.6570115089416504,0.1466757208108902,-1.7836605310440063,-62.63705825805664,-74.8593521118164, 19.337656021118164
675,1052781516,0.36588922,0.4135211,-0.73090917,0.40112036,7.199007987976074,2.303079843521118,-3.292015314102173,-75.04721069335938,-34.74309539794922, 24.78098487854004
676,1052798183,0.3712443,0.40478283,-0.7395552,0.38908476,7.417294025421143,0.26435697078704834,-2.061014413833618,-120.4862289428711,-0.2898615896701813, 26.148103713989258
677,1052814850,0.3776485,0.3956123,-0.7484615,0.37507078,11.496963500976562,-0.6873262524604797,0.3159155547618866,-135.14382934570312,0.004066285211592913, 22.494810104370117
678,1052831517,0.3817478,0.38998696,-0.7561657,0.36109877,11.589667320251465,-0.16360461711883545,2.6926980018615723,-116.80400848388672,-18.801725387573242, 3.7142488956451416
679,1052848184,0.38343138,0.38890368,-0.7630241,0.34572938,10.61764907836914,-0.0902404710650444,3.5340330600738525,-103.64268493652344,-44.5286865234375, -19.681900024414062
680,1052864851,0.3844534,0.39182654,-0.7686611,0.32837164,9.177251815795898,0.02358531951904297,6.883668422698975,-98.92584991455078,-59.982906341552734, -47.51229476928711
681,1052881518,0.3871184,0.39386016,-0.7761226,0.30438033,5.811250686645508,-0.4577065706253052,9.976906776428223,-144.98519897460938,-72.422119140625, -59.03227996826172
682,1052898185,0.38988587,0.3954376,-0.78506845,0.2743828,2.4690897464752197,-2.944355010986328,6.6192169189453125,-181.7388916015625,-91.6033706665039, -68.69873809814453
683,1052914852,0.38666478,0.3996252,-0.79237217,0.25087136,2.49790358543396,-6.248978137969971,10.522292137145996,-120.40489959716797,-107.0985336303711, -58.55796432495117
684,1052931519,0.37870914,0.40650597,-0.79771763,0.23447576,-1.8188610076904297,-4.233456611633301,10.305330276489258,-58.17195510864258,-113.1604232788086, -51.58412551879883
685,1052948186,0.36607072,0.41760242,-0.80133617,0.2223981,-2.3401501178741455,-4.337183952331543,12.428459167480469,-7.694214344024658,-129.3470916748047, -60.79825973510742
686,1052964853,0.34587595,0.43256834,-0.8049181,0.2129819,-1.8721284866333008,-9.002256393432617,8.783915519714355,38.413875579833984,-169.46946716308594, -64.0295639038086
687,1052981520,0.30857563,0.45368162,-0.8077667,0.21556279,0.7620901465415955,-9.2093505859375,0.005504384636878967,171.341796875,-235.9464874267578, -46.75691223144531
688,1052998187,0.25902697,0.477535,-0.8075623,0.22958347,6.676512718200684,-5.008785247802734,5.462687969207764,283.435546875,-265.9459228515625, -29.15567970275879
689,1053014854,0.21677555,0.49283987,-0.8096031,0.23379487,7.7574687004089355,-1.230975866317749,15.138402938842773,186.10589599609375,-248.36485290527344, -3.2698798179626465
690,1053031521,0.18745075,0.5015755,-0.81566316,0.21903855,7.444411277770996,0.6325310468673706,15.064250946044922,20.390586853027344,-236.57931518554688, -2.028608798980713
691,1053048188,0.1674173,0.5091349,-0.8214943,0.19468008,9.041971206665039,0.09503377974033356,15.110589981079102,-66.67963409423828,-215.97589111328125, -22.50872039794922
692,1053064855,0.15465216,0.514682,-0.826842,0.1658847,7.462444305419922,-0.07498902082443237,16.01171875,-118.84037780761719,-187.6788330078125, -27.63874053955078
693,1053081522,0.1498921,0.5173908,-0.83198625,0.13280837,6.548092842102051,-2.119091510772705,15.222808837890625,-174.27691650390625,-154.27723693847656, -25.94498062133789
694,1053098189,0.14702037,0.5199248,-0.83461004,0.107188344,6.941534042358398,-4.954994201660156,13.950345039367676,-136.19667053222656,-114.51061248779297, -28.047115325927734
