PacketCounter,SampleTimeFine,Quat_W,Quat_X,Quat_Y,Quat_Z,Acc_X,Acc_Y,Acc_Z,Gyr_X,Gyr_Y,Gyr_Z 
1,1937625807,0.4022442,0.5506191,-0.28849363,0.6721528,0.20893362164497375,0.0392162948846817,0.11289779841899872,-0.19985222816467285,0.5618860721588135, 0.04481153562664986
2,1937642474,0.40583912,0.55012965,-0.28444275,0.67211926,16.891489028930664,1.149427890777588,4.106836318969727,0.5752420425415039,3.1923348903656006, 1.8293037414550781
3,1937659141,0.40840667,0.5488487,-0.28402,0.6717899,16.635032653808594,1.1215964555740356,3.9285573959350586,1.0832699537277222,3.181013822555542, 2.353288412094116
4,1937675808,0.40946025,0.5484023,-0.28456593,0.6712821,16.710269927978516,1.4222060441970825,4.276670455932617,-0.06026668846607208,3.122028350830078, 2.120584487915039
5,1937692475,0.41052854,0.5479987,-0.28338164,0.6714602,17.190351486206055,1.0463985204696655,4.117751598358154,1.8862923383712769,2.263183116912842, 2.5716497898101807
6,1937709142,0.41115215,0.5473245,-0.28387955,0.6714182,16.486928939819336,1.3348146677017212,4.167943000793457,-0.22622419893741608,2.9860119819641113, 2.22147274017334
7,1937725809,0.41159382,0.54694134,-0.28369504,0.6715378,16.87152099609375,0.9034767150878906,3.8302454948425293,1.936800241470337,2.2078208923339844, 2.2114450931549072
8,1937742476,0.41116154,0.546841,-0.28409496,0.6717152,17.197250366210938,1.267951488494873,4.2720184326171875,1.0104787349700928,2.706500768661499, 2.2259678840637207
9,1937759143,0.41137567,0.5464131,-0.28456363,0.6717339,16.649105072021484,1.3907444477081299,4.170536041259766,0.1338711977005005,3.4808881282806396, 1.9049128293991089
10,1937775810,0.4118145,0.5460103,-0.2848011,0.67169183,16.38515281677246,0.9238505959510803,3.7728676795959473,-0.6932333707809448,3.1762375831604004, 1.6478508710861206
11,1937792477,0.41185716,0.54580796,-0.28515062,0.671682,16.765626907348633,1.0687894821166992,4.026793956756592,1.6005311012268066,2.809027910232544, 1.9909710884094238
12,1937809144,0.41185775,0.5456003,-0.2856182,0.6716515,16.750438690185547,1.1148148775100708,4.176919937133789,0.7068400382995605,2.2663841247558594, 2.1706056594848633
13,1937825811,0.4122325,0.54519624,-0.28619924,0.67150253,16.54763412475586,1.3490999937057495,4.214834213256836,1.6639738082885742,2.6613833904266357, 1.9364032745361328
14,1937842478,0.4121942,0.5450421,-0.2863807,0.6715736,16.84052276611328,0.8085392117500305,3.645266056060791,0.6414765119552612,1.5112582445144653, 2.11948299407959
15,1937859145,0.41233012,0.54473096,-0.28687498,0.67153186,16.61423110961914,1.3995871543884277,4.451589584350586,0.2866381108760834,2.819208860397339, 2.01381778717041
16,1937875812,0.4128763,0.5442146,-0.28741232,0.67138505,16.52492904663086,1.1025478839874268,3.926633834838867,-0.03838062658905983,2.8805642127990723, 1.899111032485962
17,1937892479,0.41302335,0.5439494,-0.28767696,0.6713962,16.548656463623047,0.9564597606658936,3.7803144454956055,0.44484779238700867,2.3011155128479004, 1.8405864238739014
18,1937909146,0.41305748,0.54370326,-0.28779355,0.6715245,16.714282989501953,1.418950080871582,4.413659572601318,1.9128907918930054,3.2919042110443115, 1.8283048868179321
19,1937925813,0.41322368,0.5434393,-0.28796586,0.6715622,16.790693283081055,1.025622844696045,3.868743896484375,0.3144150674343109,2.387007236480713, 1.6666885614395142
20,1937942480,0.41336647,0.5431631,-0.28807485,0.671651,16.611248016357422,1.3580799102783203,4.326575756072998,0.83614581823349,3.118711471557617, 1.5387918949127197
21,1937959147,0.41330373,0.5429458,-0.2879599,0.6719144,16.496105194091797,1.1624501943588257,3.8687286376953125,0.8702107071876526,3.149113655090332, 1.8112983703613281
22,1937975814,0.4135305,0.54266024,-0.28825197,0.67188054,16.70755386352539,1.0731518268585205,4.0190229415893555,-0.14345672726631165,2.1529717445373535, 1.9986294507980347
23,1937992481,0.41359073,0.542352,-0.28828865,0.67207634,16.29183006286621,1.5531045198440552,4.307548522949219,1.1873729228973389,3.5012753009796143, 2.1916470527648926
24,1938009148,0.41377333,0.5420961,-0.2884453,0.6721033,16.48280906677246,1.090933084487915,3.591125249862671,-0.37970829010009766,2.1513965129852295, 1.8567734956741333
25,1938025815,0.4136728,0.5419292,-0.2883933,0.672322,16.640369415283203,1.2205030918121338,4.3848652839660645,1.6219562292099,2.873302936553955, 2.490905284881592
26,1938042482,0.41377288,0.54162353,-0.28848252,0.67246854,16.299169540405273,1.396926999092102,4.019979953765869,0.28936588764190674,2.976240634918213, 2.331056833267212
27,1938059149,0.41399932,0.54131925,-0.28871042,0.6724764,16.158226013183594,0.9273511171340942,3.679352283477783,-0.7797914147377014,2.308414936065674, 2.126551866531372
28,1938075816,0.41396806,0.54117304,-0.28867006,0.6726307,16.794052124023438,1.3440194129943848,4.384634494781494,3.0775773525238037,2.630366802215576, 2.4520511627197266
29,1938092483,0.41420633,0.5407999,-0.28891307,0.6726797,16.29485511779785,1.2786202430725098,3.983921527862549,-0.9974609613418579,2.762195110321045, 2.272364854812622
30,1938109150,0.41429326,0.54057974,-0.28891033,0.67280436,16.301265716552734,1.147178053855896,4.057922840118408,1.5010260343551636,2.757111072540283, 2.080449342727661
31,1938125817,0.4144288,0.54027265,-0.28907484,0.6728967,16.5649356842041,1.2108991146087646,3.941439151763916,0.785919189453125,2.3068137168884277, 2.2439730167388916
32,1938142484,0.41447613,0.53989047,-0.28923705,0.6731047,16.37419319152832,1.0285427570343018,4.173740386962891,0.7091451287269592,2.54626727104187, 2.5764517784118652
33,1938159151,0.41442454,0.53961855,-0.2892992,0.67332774,16.550024032592773,1.2735925912857056,3.9967195987701416,1.0129504203796387,1.9651923179626465, 2.0903613567352295
34,1938175818,0.41446063,0.5392393,-0.28943634,0.67355037,16.143999099731445,1.1182140111923218,3.9771175384521484,1.4026987552642822,2.471388816833496, 2.5000877380371094
35,1938192485,0.4146044,0.5388101,-0.28965193,0.6737127,16.084978103637695,1.215524673461914,3.9514966011047363,0.2816564440727234,2.4477994441986084, 2.1792757511138916
36,1938209152,0.41459963,0.53845596,-0.28984252,0.67391676,16.23676300048828,0.912031352519989,3.8841073513031006,0.9100896120071411,2.0037903785705566, 2.655172348022461
37,1938225819,0.4146342,0.5381165,-0.28998002,0.67410743,16.22014617919922,1.3087126016616821,3.9683947563171387,1.1821092367172241,2.123708724975586, 2.242577075958252
38,1938242486,0.41468984,0.537792,-0.2902328,0.6742233,16.149621963500977,0.8732887506484985,3.8530640602111816,0.6793320775032043,1.5004239082336426, 2.392130136489868
39,1938259153,0.41465124,0.53748596,-0.29030386,0.67446053,16.091093063354492,1.2590245008468628,4.075706481933594,1.766347885131836,2.1709518432617188, 2.3565285205841064
40,1938275820,0.41467932,0.5371588,-0.29046845,0.6746332,16.272539138793945,1.1984014511108398,3.809856653213501,1.1835308074951172,1.9077811241149902, 2.33272123336792
41,1938292487,0.41465002,0.5368253,-0.29063553,0.6748446,16.40283203125,0.8471483588218689,4.053001880645752,1.6230446100234985,1.9714285135269165, 2.7811994552612305
42,1938309154,0.4147167,0.5364357,-0.2908941,0.6750019,16.080718994140625,1.0528777837753296,3.7504725456237793,-0.1803390383720398,1.9185128211975098, 2.4272453784942627
43,1938325821,0.4147172,0.5361187,-0.29105675,0.6751833,16.257747650146484,1.0115265846252441,3.873324155807495,1.3227102756500244,1.843813419342041, 2.454650640487671
44,1938342488,0.414716,0.5357465,-0.2911384,0.67544425,16.100666046142578,1.2132362127304077,3.9158194065093994,1.478153944015503,2.6081736087799072, 2.4423696994781494
45,1938359155,0.41480052,0.53534937,-0.29127586,0.67564785,16.033401489257812,1.1431618928909302,3.8559842109680176,0.16778238117694855,2.495220899581909, 1.9959911108016968
46,1938375822,0.41497758,0.5348834,-0.2914426,0.6758363,15.653191566467285,1.0807454586029053,3.9732484817504883,0.11458481848239899,2.8941259384155273, 1.9450987577438354
47,1938392489,0.41499656,0.5345999,-0.2915743,0.67599225,15.724841117858887,0.7952548861503601,3.5050432682037354,1.2539784908294678,1.703404426574707, 2.078950881958008
48,1938409156,0.41486466,0.5344216,-0.29158428,0.67620975,16.30620765686035,1.1007155179977417,4.181626796722412,2.3556067943573,1.4681007862091064, 2.174921751022339
49,1938425823,0.41492113,0.5341163,-0.29179052,0.67632717,15.958879470825195,1.2877075672149658,4.034493923187256,0.5069457292556763,1.5201456546783447, 2.078259229660034
50,1938442490,0.41500795,0.5338744,-0.2919773,0.67638445,16.14007568359375,1.1219456195831299,3.618361711502075,0.848183810710907,1.1331250667572021, 1.654599666595459
51,1938459157,0.41505626,0.5335554,-0.29206422,0.67656904,16.03629493713379,1.3059678077697754,4.146538257598877,1.3061132431030273,2.164266586303711, 1.9381067752838135
52,1938475824,0.41532767,0.5330794,-0.29236117,0.6766494,15.378296852111816,1.093589186668396,3.463789463043213,-1.085991382598877,2.3585007190704346, 1.7106915712356567
53,1938492491,0.41524783,0.5329166,-0.2923578,0.676828,16.192907333374023,1.0058772563934326,3.748772382736206,2.761401653289795,1.4216136932373047, 1.915452480316162
54,1938509158,0.41516653,0.53265244,-0.29244587,0.67704785,16.110891342163086,1.3194160461425781,4.0092058181762695,1.9327151775360107,1.772930383682251, 2.5225627422332764
55,1938525825,0.41531608,0.5323187,-0.29263976,0.6771346,15.792263984680176,1.4314998388290405,3.7842037677764893,0.34978625178337097,1.7785139083862305, 1.662027359008789
56,1938542492,0.41534445,0.5320318,-0.29274362,0.67729807,15.813063621520996,0.9474169611930847,3.6430723667144775,1.3988696336746216,1.8508058786392212, 2.002138614654541
57,1938559159,0.41540614,0.5316618,-0.29288608,0.677489,15.637147903442383,1.296679973602295,3.715029239654541,0.9412473440170288,2.298604965209961, 2.2373266220092773
58,1938575826,0.41555735,0.5312466,-0.293159,0.677604,15.60628890991211,1.1377055644989014,3.7228312492370605,0.0792008712887764,2.055694580078125, 2.274837017059326
59,1938592493,0.41544142,0.53103966,-0.2932036,0.677818,16.29732322692871,1.0440363883972168,3.737581968307495,2.6408426761627197,1.5479358434677124, 2.474961996078491
60,1938609160,0.4156118,0.5305818,-0.2934093,0.6779832,15.61569595336914,1.4240134954452515,4.040855884552002,-0.17214293777942657,2.650850534439087, 2.039654493331909
61,1938625827,0.41568062,0.5303294,-0.29350635,0.6780963,15.960739135742188,1.0062803030014038,3.3705925941467285,1.732385516166687,1.6241077184677124, 1.7111908197402954
62,1938642494,0.4157585,0.5299568,-0.29366556,0.6782708,15.856189727783203,1.0870541334152222,3.966484546661377,0.7628678679466248,2.235598087310791, 2.191019058227539
63,1938659161,0.41587013,0.52956796,-0.29384613,0.6784279,15.6181640625,1.2399623394012451,3.6824350357055664,0.34151336550712585,2.243051528930664, 2.0612781047821045
64,1938675828,0.4159058,0.5292693,-0.29406586,0.67854375,15.776269912719727,0.9143040776252747,3.487097978591919,0.9258542656898499,1.4182456731796265, 2.348127603530884
65,1938692495,0.4159801,0.52893096,-0.29423648,0.6786883,15.766042709350586,1.3414889574050903,3.90144419670105,1.0052152872085571,1.9296543598175049, 2.1614112854003906
66,1938709162,0.41607425,0.52856266,-0.2944603,0.67882043,15.415400505065918,1.0435705184936523,3.4061827659606934,0.5439561605453491,1.9065390825271606, 2.2846851348876953
67,1938725829,0.41602147,0.52829003,-0.29459754,0.6790053,15.892255783081055,0.8657604455947876,3.5833404064178467,1.9945311546325684,1.6102895736694336, 2.650139570236206
68,1938742496,0.41600412,0.5279076,-0.2947499,0.67924714,15.685361862182617,1.358728051185608,3.8197519779205322,1.2354224920272827,2.3440299034118652, 2.8209640979766846
69,1938759163,0.41619518,0.52745456,-0.29507884,0.67933947,15.395011901855469,1.060243010520935,3.4487504959106445,-0.7817764282226562,2.0478312969207764, 2.2310006618499756
70,1938775830,0.41615093,0.52715343,-0.2951578,0.67956597,15.758628845214844,0.9005337953567505,3.6004083156585693,2.307006597518921,2.0776705741882324, 2.602576971054077
71,1938792497,0.4164091,0.526639,-0.29544953,0.6796798,15.125274658203125,1.319016695022583,3.697483539581299,-0.7656660079956055,2.6662371158599854, 2.0296719074249268
72,1938809164,0.4164612,0.5263942,-0.2955744,0.679783,15.653940200805664,0.8954164385795593,3.4148662090301514,1.4398114681243896,1.4207810163497925, 1.7973644733428955
73,1938825831,0.41643023,0.5261509,-0.29565808,0.679954,15.782130241394043,1.0772610902786255,3.7867019176483154,2.2431795597076416,1.6187162399291992, 2.274183750152588
74,1938842498,0.4165896,0.52582103,-0.2958377,0.6800334,15.456721305847168,1.362902045249939,3.578624963760376,0.6349579691886902,1.8010914325714111, 1.6370165348052979
75,1938859165,0.416787,0.52544177,-0.29611185,0.68008626,15.185041427612305,0.8994024395942688,3.309004545211792,-0.3225279748439789,1.736944556236267, 1.7806910276412964
76,1938875832,0.4169306,0.52507323,-0.29626513,0.6802163,15.345080375671387,1.1716817617416382,3.5659217834472656,0.8023626804351807,2.2124059200286865, 1.8447867631912231
77,1938892499,0.41712576,0.5246178,-0.2965917,0.68030584,15.130401611328125,1.0041853189468384,3.4943668842315674,-0.30269089341163635,2.0876972675323486, 2.3585901260375977
78,1938909166,0.41717634,0.52429587,-0.29670623,0.6804729,15.178954124450684,1.0985687971115112,3.4642720222473145,1.4826613664627075,2.0476133823394775, 2.1449801921844482
79,1938925833,0.41722918,0.5240345,-0.29686677,0.6805718,15.517058372497559,1.184450626373291,3.50166916847229,1.6064988374710083,1.401456356048584, 2.073648691177368
80,1938942500,0.41731676,0.52371323,-0.29703107,0.68069375,15.294316291809082,1.3050968647003174,3.656229257583618,1.0671595335006714,1.8189690113067627, 2.0397121906280518
81,1938959167,0.4175512,0.5233243,-0.29731438,0.6807252,14.74356746673584,1.0566489696502686,3.2614479064941406,-0.3260752558708191,1.7686400413513184, 1.6863337755203247
82,1938975834,0.41761312,0.52307653,-0.29744714,0.68081963,15.294403076171875,1.053566575050354,3.3847458362579346,1.7185161113739014,1.4224718809127808, 1.8998796939849854
83,1938992501,0.4176996,0.5227321,-0.29764393,0.68094534,15.208303451538086,1.2135035991668701,3.620126962661743,1.0525859594345093,1.8556593656539917, 2.2861063480377197
84,1939009168,0.41788906,0.522405,-0.29792008,0.68095917,15.189929008483887,1.106509804725647,3.44008469581604,0.20225709676742554,1.3548671007156372, 1.757127285003662
85,1939025835,0.41794828,0.5221209,-0.29811525,0.6810555,15.170188903808594,0.956267237663269,3.3817827701568604,1.4534246921539307,1.421396017074585, 2.261389970779419
86,1939042502,0.41811937,0.5217611,-0.2983781,0.6811109,14.997420310974121,1.2014864683151245,3.3299036026000977,0.2574140131473541,1.661758303642273, 1.966536521911621
87,1939059169,0.4182125,0.5214416,-0.29859358,0.6812041,15.208407402038574,1.0623408555984497,3.4825146198272705,1.0660325288772583,1.5905420780181885, 2.2263646125793457
88,1939075836,0.4182606,0.5211062,-0.2987826,0.68134815,14.995063781738281,1.0838416814804077,3.4120006561279297,1.319085955619812,1.8291116952896118, 2.4968857765197754
89,1939092503,0.4184042,0.52074933,-0.29907215,0.68140584,14.904327392578125,1.0432345867156982,3.255479335784912,0.31404373049736023,1.5293664932250977, 2.222907066345215
90,1939109170,0.41845277,0.52047205,-0.29927847,0.6814974,15.18064022064209,1.0257936716079712,3.4626858234405518,1.432370901107788,1.3279865980148315, 2.333284854888916
91,1939125837,0.41851395,0.5201749,-0.29949948,0.68158954,15.09142017364502,1.096145749092102,3.3542709350585938,1.3592212200164795,1.4076420068740845, 2.3983285427093506
92,1939142504,0.41856506,0.5199006,-0.29980212,0.6816343,15.046649932861328,0.868330717086792,3.265657663345337,0.7263057231903076,0.8681104779243469, 2.47943115234375
93,1939159171,0.41856307,0.5196022,-0.30008143,0.68174016,14.962920188903809,1.0211074352264404,3.3715288639068604,1.1435493230819702,1.1567015647888184, 2.884406089782715
94,1939175838,0.41863647,0.5192727,-0.3004296,0.68179303,14.796578407287598,1.096909523010254,3.1803791522979736,0.7409306764602661,1.0742543935775757, 2.8044052124023438
95,1939192505,0.41859284,0.5190123,-0.3006989,0.68189913,14.918791770935059,0.8813502788543701,3.218681573867798,1.5329904556274414,0.9177989959716797, 2.9928629398345947
96,1939209172,0.418604,0.5187296,-0.30102974,0.6819615,15.014694213867188,0.9104312062263489,3.2873504161834717,1.1273621320724487,0.8050263524055481, 2.942777395248413
97,1939225839,0.41862786,0.5184235,-0.30133897,0.6820431,14.89306926727295,0.8589749932289124,3.233084201812744,1.350640892982483,1.0738060474395752, 2.9673144817352295
98,1939242506,0.4186378,0.51814306,-0.3015747,0.68214583,14.876280784606934,0.9338157773017883,3.2874510288238525,1.5481019020080566,1.2051607370376587, 2.683973789215088
99,1939259173,0.41872975,0.51781374,-0.3019494,0.6821737,14.776390075683594,0.7314779162406921,3.1205010414123535,0.265193909406662,0.9357856512069702, 2.6690738201141357
100,1939275840,0.41882914,0.51753044,-0.30222383,0.6822063,14.856915473937988,1.0290818214416504,3.300534963607788,1.1782163381576538,1.046374797821045, 2.291203498840332
101,1939292507,0.41897163,0.51723236,-0.30255517,0.68219787,14.590958595275879,0.8726456761360168,3.191795825958252,0.6304373741149902,0.8947476744651794, 2.2086024284362793
102,1939309174,0.41905323,0.517043,-0.30278593,0.68218887,14.699700355529785,0.9240908622741699,3.1856319904327393,1.3122986555099487,0.5413563847541809, 1.8140898942947388
103,1939325841,0.41915867,0.5168671,-0.30301818,0.6821543,14.643045425415039,0.8228634595870972,3.1111793518066406,1.6900604963302612,0.4405960440635681, 1.7542457580566406
104,1939342508,0.41927627,0.51671666,-0.30322587,0.6821037,14.866536140441895,0.8978649973869324,3.1390280723571777,1.6788678169250488,0.3609534204006195, 1.4735819101333618
105,1939359175,0.4193888,0.51654583,-0.3034749,0.6820531,14.767909049987793,0.860490620136261,3.1710126399993896,1.3058314323425293,0.3279898464679718, 1.6468517780303955
106,1939375842,0.41962397,0.5162723,-0.30379808,0.68197185,14.543229103088379,1.019075632095337,3.1553359031677246,0.33905452489852905,0.7467190623283386, 1.5161631107330322
107,1939392509,0.41988719,0.51600754,-0.3041474,0.6818543,14.514870643615723,0.7896894216537476,2.88303279876709,0.3068593442440033,0.5633705854415894, 1.4315259456634521
108,1939409176,0.4199655,0.51582247,-0.30426064,0.6818956,14.560172080993652,0.9441269636154175,3.161322832107544,2.2239956855773926,1.0499351024627686, 1.630216360092163
109,1939425843,0.42016426,0.5155877,-0.3044268,0.68187666,14.543840408325195,1.1265186071395874,3.163708209991455,1.2368820905685425,1.168931484222412, 1.173797845840454
110,1939442510,0.42032093,0.515443,-0.30463114,0.68179816,14.552005767822266,0.6778194308280945,2.930255889892578,1.643560528755188,0.34096264839172363, 1.243835687637329
111,1939459177,0.42050356,0.5152586,-0.30479464,0.68175197,14.272319793701172,1.0483555793762207,3.186249017715454,1.535385251045227,0.8180375695228577, 1.1029404401779175
112,1939475844,0.4206238,0.51521343,-0.30497155,0.6816328,14.527281761169434,0.8166835904121399,2.8691680431365967,1.9649487733840942,-0.26212039589881897, 0.9521073698997498
113,1939492511,0.420883,0.51505816,-0.3052432,0.6814685,14.501389503479004,0.9723724126815796,3.2521135807037354,0.6646302938461304,0.11829864978790283, 0.7519311904907227
114,1939509178,0.4211391,0.51488286,-0.30551186,0.68132216,14.12971019744873,0.8392917513847351,2.7822928428649902,0.8176918625831604,0.2790183126926422, 0.8992938995361328
115,1939525845,0.42128,0.51477724,-0.3056863,0.6812367,14.264219284057617,0.8614051938056946,2.9278197288513184,1.891952633857727,0.205381840467453, 1.1049766540527344
116,1939542512,0.42146772,0.5146096,-0.30594826,0.6811296,14.281328201293945,1.050338864326477,3.052772045135498,1.2103089094161987,0.26856833696365356, 1.3010162115097046
117,1939559179,0.42153272,0.5145422,-0.30621284,0.6810215,14.389632225036621,0.7473554015159607,2.8171305656433105,1.5112452507019043,-0.47035157680511475, 1.5516109466552734
118,1939575846,0.42152733,0.514513,-0.30639228,0.6809662,14.384246826171875,0.9506322741508484,3.033043146133423,2.815047025680542,-0.35481271147727966, 1.7841359376907349
119,1939592513,0.4215672,0.51445,-0.30671057,0.68084586,14.325111389160156,0.885351836681366,2.817326784133911,1.5758789777755737,-0.7321518659591675, 1.8898138999938965
120,1939609180,0.42152485,0.514481,-0.30696905,0.68073213,14.400586128234863,0.9087728261947632,2.8930485248565674,2.5383400917053223,-1.1416219472885132, 1.9189739227294922
121,1939625847,0.42159507,0.51440257,-0.30731788,0.6805905,14.268089294433594,0.9570255875587463,3.0150818824768066,1.3445580005645752,-0.7499271035194397, 1.863304615020752
122,1939642514,0.42161983,0.5143818,-0.30770788,0.68041444,14.186211585998535,0.7176626920700073,2.67728853225708,1.6281161308288574,-1.3603416681289673, 2.0673227310180664
123,1939659181,0.42144045,0.51457345,-0.30798498,0.68025553,14.630698204040527,0.8421200513839722,2.9201953411102295,3.110797166824341,-2.3977458477020264, 2.089900493621826
124,1939675848,0.4213292,0.51466864,-0.30838558,0.68007094,14.390396118164062,0.8940061330795288,2.9205374717712402,2.2685108184814453,-2.2537641525268555, 2.4286413192749023
125,1939692515,0.42119786,0.5148468,-0.30879492,0.6798316,14.334757804870605,0.7991890907287598,2.7413268089294434,2.1850388050079346,-2.906759738922119, 2.145172595977783
126,1939709182,0.42111507,0.5149799,-0.30918854,0.67960304,14.299870491027832,0.8978572487831116,2.8073995113372803,1.8728069067001343,-2.510620594024658, 1.9529489278793335
127,1939725849,0.42106417,0.5151108,-0.30968252,0.6793104,14.400142669677734,0.7294949889183044,2.6082491874694824,1.575674295425415,-2.952542781829834, 2.106010913848877
128,1939742516,0.42115358,0.5151637,-0.31021392,0.6789724,14.143255233764648,0.8502019047737122,2.8002707958221436,0.5263217687606812,-2.556057929992676, 1.597291350364685
129,1939759183,0.42113033,0.5154118,-0.31054243,0.6786483,14.33884048461914,0.7201617956161499,2.549525260925293,2.170682907104492,-3.072307586669922, 0.9373289346694946
130,1939775850,0.42131498,0.5155733,-0.31091267,0.6782414,14.320137977600098,0.9441461563110352,2.825702428817749,1.0633049011230469,-2.6351754665374756, 0.13197584450244904
131,1939792517,0.4214972,0.51586235,-0.31122452,0.67776513,14.297013282775879,0.7688736319541931,2.6551997661590576,1.7799738645553589,-3.3126184940338135, -0.47168347239494324
132,1939809184,0.4216005,0.5162455,-0.3114749,0.67729396,14.35673999786377,0.8496243953704834,2.631868839263916,2.0521600246429443,-3.718900203704834, -0.6838078498840332
133,1939825851,0.4218745,0.51657414,-0.3118064,0.6767199,14.030009269714355,1.023263692855835,2.6888797283172607,1.127759337425232,-3.697885274887085, -1.2437913417816162
134,1939842518,0.42193928,0.5171293,-0.31198037,0.6761753,14.478095054626465,0.670031726360321,2.3876793384552,2.7681760787963867,-4.634503364562988, -1.3919862508773804
135,1939859185,0.422079,0.51754725,-0.31204674,0.67573744,14.320396423339844,1.0867267847061157,2.8220767974853516,2.9150900840759277,-3.135481357574463, -1.4995083808898926
136,1939875852,0.42240486,0.51767915,-0.31234372,0.6752954,14.136321067810059,0.892631471157074,2.559413194656372,0.6463941931724548,-2.0916357040405273, -0.8490866422653198
137,1939892519,0.42247817,0.5175635,-0.31204388,0.67547685,13.5117826461792,0.23396888375282288,2.6185953617095947,4.470114231109619,2.473040819168091, 0.40660804510116577
138,1939909186,0.42066967,0.5184596,-0.30962068,0.6770315,13.924260139465332,-0.11644474416971207,1.7635174989700317,26.697769165039062,4.792898178100586, 3.3362998962402344
139,1939925853,0.418999,0.51925033,-0.3072435,0.67854285,14.950220108032227,2.8227531909942627,3.0435614585876465,26.16797637939453,5.307431697845459, 3.111393451690674
140,1939942520,0.41879082,0.5186653,-0.3074105,0.6790431,13.885324478149414,2.843129873275757,2.5813138484954834,2.998971700668335,3.8763864040374756, 5.414800643920898
141,1939959187,0.41853368,0.5182459,-0.30826974,0.6791323,13.707340240478516,1.2863125801086426,2.1492128372192383,-0.45048898458480835,-0.45945343375205994, 6.61663818359375
142,1939975854,0.41776568,0.5181549,-0.3090239,0.6793319,13.49789810180664,0.7813963890075684,2.5358245372772217,3.2708640098571777,-2.3751301765441895, 8.321062088012695
143,1939992521,0.41668978,0.5183342,-0.30977392,0.6795142,14.107674598693848,1.2980005741119385,2.8455498218536377,5.19904088973999,-4.344722747802734, 9.13446044921875
144,1940009188,0.4165742,0.5177047,-0.3116177,0.67922187,13.964028358459473,1.340549349784851,3.795358180999756,-6.704472541809082,-3.3515639305114746, 8.900012969970703
145,1940025855,0.41741812,0.51507944,-0.3140933,0.6795593,13.119296073913574,-0.09242469072341919,2.8049535751342773,-17.255205154418945,8.4256010055542, 12.811079025268555
146,1940042522,0.41695747,0.5145178,-0.3149361,0.67987746,13.848408699035645,-1.0059815645217896,2.24403977394104,0.6996815204620361,0.5766764283180237, 8.543713569641113
147,1940059189,0.41640326,0.5150473,-0.3147852,0.679886,13.981250762939453,0.4197567105293274,2.1664459705352783,8.332088470458984,-2.966245412826538, 2.2378268241882324
148,1940075856,0.4168551,0.5158641,-0.3152324,0.67878187,13.092947959899902,0.12128468602895737,1.4533339738845825,0.4670156240463257,-7.768934726715088, -4.136003017425537
149,1940092523,0.41722825,0.51785725,-0.3144517,0.6773955,13.055249214172363,-0.47570040822029114,1.9458857774734497,9.03810977935791,-10.879019737243652, -11.554388999938965
150,1940109190,0.41782558,0.520316,-0.31340426,0.6756264,12.638638496398926,0.15205316245555878,2.9450771808624268,10.05467414855957,-13.14046573638916, -15.662117004394531
151,1940125857,0.4184775,0.52280253,-0.31280917,0.67357606,12.614788055419922,0.7865840196609497,1.6595500707626343,6.933928489685059,-15.457626342773438, -15.264890670776367
152,1940142524,0.419267,0.52495384,-0.31290528,0.6713635,13.06207275390625,1.6085741519927979,1.976824164390564,1.4324758052825928,-16.161333084106445, -13.302003860473633
153,1940159191,0.42006424,0.5268831,-0.313496,0.66907436,12.92983341217041,2.148291826248169,2.1478235721588135,-2.6682705879211426,-16.813735961914062, -11.546552658081055
154,1940175858,0.42043465,0.5288972,-0.31437036,0.66683865,13.232287406921387,1.7551394701004028,1.8463987112045288,-1.9936187267303467,-18.7542724609375, -8.538670539855957
155,1940192525,0.42014948,0.53126734,-0.31524917,0.6647161,12.853333473205566,1.5543071031570435,2.1841979026794434,0.7810798287391663,-21.40587615966797, -6.16776704788208
156,1940209192,0.41903472,0.5341861,-0.3156619,0.66288215,12.64660358428955,1.3874287605285645,2.0318477153778076,7.870165824890137,-23.32133674621582, -4.493322372436523
157,1940225859,0.41712442,0.5377277,-0.31546697,0.6613144,12.720752716064453,0.27151012420654297,2.0921082496643066,15.987078666687012,-25.166526794433594, -3.662883758544922
158,1940242526,0.41431415,0.5421069,-0.314182,0.66011643,12.337601661682129,-0.10460202395915985,1.1579041481018066,27.457664489746094,-26.44426155090332, -4.375478267669678
159,1940259193,0.41158757,0.5465214,-0.31292704,0.65877694,12.444897651672363,0.18273155391216278,0.7104089856147766,26.185298919677734,-27.039684295654297, -5.278522968292236
160,1940275860,0.410212,0.55019814,-0.3131794,0.65645033,11.96013069152832,0.9007440209388733,1.6295596361160278,9.916701316833496,-28.758750915527344, -6.974874019622803
161,1940292527,0.40977213,0.55320144,-0.31498644,0.65332896,12.300832748413086,0.37094345688819885,2.4066576957702637,-4.341765403747559,-31.110719680786133, -6.111327648162842
162,1940309194,0.40888777,0.55636287,-0.31688556,0.6502729,12.075702667236328,0.5059503316879272,2.0715506076812744,-3.0984699726104736,-32.83222961425781, -4.03087854385376
163,1940325861,0.40724024,0.5598749,-0.31824836,0.6476216,12.20682144165039,1.1066291332244873,0.549561083316803,6.211596965789795,-32.9787712097168, -1.9102795124053955
164,1940342528,0.40554175,0.56348246,-0.31944883,0.64496195,12.182355880737305,1.6712788343429565,0.8356430530548096,7.378364086151123,-33.078697204589844, -2.5348610877990723
165,1940359195,0.40360096,0.56738603,-0.32005206,0.64245325,11.605825424194336,0.6634138226509094,1.0134930610656738,12.11985969543457,-32.66879653930664, -3.9879016876220703
166,1940375862,0.40117905,0.571673,-0.31937245,0.64050514,11.962573051452637,1.0369577407836914,-0.37129515409469604,21.96195411682129,-29.677223205566406, -6.160383701324463
167,1940392529,0.3990664,0.57577187,-0.31859252,0.6385388,11.794769287109375,1.8757991790771484,-0.3003901243209839,20.627925872802734,-27.940364837646484, -7.552565574645996
168,1940409196,0.3983497,0.5792591,-0.31856108,0.6358423,11.584582328796387,2.445838689804077,0.287964403629303,8.534262657165527,-27.122745513916016, -11.363778114318848
169,1940425863,0.39825028,0.5823628,-0.3190199,0.6328322,11.203194618225098,1.2744725942611694,-0.12452827394008636,2.1915509700775146,-26.682954788208008, -12.101192474365234
170,1940442530,0.39793715,0.58513683,-0.3200355,0.629951,10.800254821777344,0.49165529012680054,-0.6023780107498169,0.004206897225230932,-26.717382431030273, -7.8644514083862305
171,1940459197,0.3974755,0.587971,-0.32077178,0.62722313,10.36142635345459,1.7978020906448364,1.361983299255371,2.314094066619873,-25.908233642578125, -8.072183609008789
172,1940475864,0.39689878,0.59128404,-0.32072264,0.6244931,11.412670135498047,1.992940068244934,0.4677009582519531,7.470932483673096,-26.117755889892578, -11.79898452758789
173,1940492531,0.3953712,0.5953419,-0.3197951,0.6220779,11.034120559692383,1.4968690872192383,-0.7064732909202576,17.833667755126953,-27.741477966308594, -12.057051658630371
174,1940509198,0.39403677,0.5990364,-0.31935868,0.61959714,10.390825271606445,2.160330295562744,0.052949339151382446,13.809001922607422,-27.34796905517578, -10.249598503112793
175,1940525865,0.39341158,0.60218775,-0.31984958,0.6166797,10.292298316955566,2.373018980026245,1.108299970626831,4.506356716156006,-27.78964614868164, -9.424247741699219
176,1940542532,0.39247087,0.60540605,-0.31993756,0.6140765,10.775660514831543,1.5713037252426147,0.7103118896484375,8.394169807434082,-26.40314483642578, -9.032102584838867
177,1940559199,0.39055216,0.60897255,-0.31884682,0.6123384,10.182632446289062,0.4186060428619385,0.3919680714607239,20.285388946533203,-23.258577346801758, -8.24073600769043
178,1940575866,0.3881408,0.61232895,-0.31544572,0.612286,11.382712364196777,1.7012711763381958,0.47255009412765503,35.20949935913086,-10.20121955871582, -10.877742767333984
179,1940592533,0.38580975,0.6156169,-0.3093886,0.61355144,12.069622039794922,2.078909158706665,-1.5998657941818237,48.72782897949219,2.8880579471588135, -18.73004150390625
180,1940609200,0.38490734,0.617969,-0.3038013,0.6145452,11.691615104675293,2.5601766109466553,-2.4033782482147217,37.63276672363281,7.517494201660156, -21.490266799926758
181,1940625867,0.3870278,0.6186729,-0.30114716,0.613811,10.199315071105957,3.004154920578003,0.8539904952049255,4.416975975036621,5.743358135223389, -22.913175582885742
182,1940642534,0.39034334,0.61907214,-0.29959524,0.6120658,10.586118698120117,2.074831247329712,0.007091896142810583,-8.22291374206543,2.2434024810791016, -25.297266006469727
183,1940659201,0.3925632,0.62017286,-0.29685706,0.6108649,11.765357971191406,0.6300644278526306,-1.7245689630508423,4.434548854827881,2.5308163166046143, -25.714454650878906
184,1940675868,0.39991105,0.61540794,-0.29789877,0.61041015,15.412880897521973,1.993101716041565,-0.8087202310562134,-47.619544982910156,30.649566650390625, -17.181941986083984
185,1940692535,0.40977472,0.6078319,-0.3021407,0.6093737,12.001051902770996,-2.7774126529693604,-3.9406025409698486,-80.62234497070312,36.35910415649414, -10.048948287963867
186,1940709202,0.41215113,0.605158,-0.30326447,0.60987383,6.481230735778809,-7.4451003074646,-5.0500383377075195,-19.26542854309082,15.566337585449219, 2.326387405395508
187,1940725869,0.41089123,0.6046925,-0.30731097,0.60915965,7.522518157958984,-3.963920831680298,-6.121018409729004,-12.656988143920898,-14.502605438232422, 21.491479873657227
188,1940742536,0.408418,0.60446,-0.3254032,0.60161084,9.234671592712402,-16.2120361328125,-20.978530883789062,-80.22895050048828,-86.00888061523438, 65.0749282836914
189,1940759203,0.38713276,0.61482483,-0.33729288,0.59862536,8.413567543029785,-10.666793823242188,-13.697388648986816,63.57463073730469,-135.06829833984375, 105.8276596069336
190,1940775870,0.35832477,0.62744915,-0.34913906,0.59666806,1.7826502323150635,-7.078291416168213,-7.129321098327637,103.9636459350586,-157.1142120361328, 133.852294921875
191,1940792537,0.33075625,0.6365555,-0.36003682,0.5964654,-2.089017868041992,1.464561104774475,4.64716911315918,98.0579605102539,-129.73507690429688, 137.2895965576172
192,1940809204,0.3100998,0.6389785,-0.3692471,0.5993339,-5.789139747619629,3.9355804920196533,10.698142051696777,67.14408874511719,-68.15648651123047, 125.16352844238281
193,1940825871,0.29610044,0.6353262,-0.3733761,0.60768056,-5.618757724761963,9.351198196411133,6.563213348388672,59.80769729614258,8.32789134979248, 102.6573486328125
194,1940842538,0.28509995,0.63552517,-0.37816742,0.60976666,6.943553924560547,19.258440017700195,-53.296207427978516,35.726531982421875,-28.97650146484375, 70.66895294189453
195,1940859205,0.28520307,0.64171773,-0.38899386,0.59627295,21.54460906982422,20.727975845336914,7.715681076049805,-66.68045806884766,-103.79505920410156, 4.931778907775879
196,1940875872,0.26701844,0.65597564,-0.3802566,0.5948127,28.93525505065918,-4.481931686401367,7.333754062652588,142.253662109375,-94.705322265625, -3.804248809814453
197,1940892539,0.23911132,0.6725651,-0.36104852,0.6001051,6.9748454093933105,12.986555099487305,-5.134688377380371,250.86341857910156,-80.36433410644531, -5.115878105163574
198,1940909206,0.23706722,0.6749413,-0.37523216,0.58945256,0.006086044013500214,-0.48766911029815674,-6.264876365661621,-69.44190216064453,-86.07646179199219, 51.9620361328125
199,1940925873,0.22906356,0.6769223,-0.38107136,0.58659256,9.081422805786133,-3.182382583618164,-3.4737279415130615,11.5247163772583,-49.99662780761719, 51.05785369873047
200,1940942540,0.22264712,0.67870456,-0.38476506,0.5845891,8.834962844848633,-1.120976448059082,-1.7800624370574951,14.718984603881836,-37.705108642578125, 36.436222076416016
201,1940959207,0.21938828,0.6799712,-0.38939685,0.5812728,7.975302696228027,-3.550469398498535,-2.950299024581909,-8.05307388305664,-34.92120361328125, 27.443199157714844
202,1940975874,0.21898687,0.68115073,-0.39524657,0.5760717,7.178049564361572,-1.4317646026611328,-1.9521373510360718,-31.472217559814453,-37.6113166809082, 19.015159606933594
203,1940992541,0.2183069,0.68311894,-0.40026397,0.5705081,4.994673252105713,-0.9583204984664917,-3.650923013687134,-26.678037643432617,-41.997657775878906, 13.503839492797852
204,1941009208,0.21610779,0.6853962,-0.4027927,0.5668225,5.180078983306885,-0.3603758215904236,-3.758254051208496,-4.149866104125977,-34.828582763671875, 9.716511726379395
205,1941025875,0.21448945,0.6864686,-0.40629494,0.5636308,6.918923854827881,-0.6255096197128296,-3.4138097763061523,-11.099102020263672,-27.633649826049805, 16.104860305786133
206,1941042542,0.21472465,0.686048,-0.41250473,0.5595277,7.795236587524414,0.06961455196142197,-2.897705078125,-35.08542251586914,-24.982547760009766, 24.52752685546875
207,1941059209,0.21538305,0.68576926,-0.4188441,0.55488783,7.457171440124512,0.03260410204529762,-1.629296898841858,-38.88772201538086,-27.093400955200195, 22.345571517944336
208,1941075876,0.21565567,0.6864504,-0.42348918,0.5503958,6.79380989074707,-1.2772289514541626,-2.7251296043395996,-28.75931739807129,-28.733766555786133, 13.308476448059082
209,1941092543,0.21674539,0.68771774,-0.42686388,0.5457593,7.444433212280273,-2.040120840072632,-2.747858762741089,-27.368759155273438,-27.402414321899414, 2.280803680419922
210,1941109210,0.2171014,0.69025564,-0.42905605,0.540671,10.930676460266113,-2.588256597518921,0.7058007121086121,-18.911691665649414,-34.731781005859375, -4.997872829437256
211,1941125877,0.21755426,0.69336325,-0.4336032,0.53282845,14.599215507507324,0.7911657691001892,0.7456434369087219,-35.438045501708984,-53.3248405456543, -0.010168390348553658
212,1941142544,0.21742891,0.69826716,-0.44236732,0.51909435,18.19404411315918,0.2602466940879822,7.047544956207275,-63.010311126708984,-96.24296569824219, 8.129948616027832
213,1941159211,0.21523102,0.7057229,-0.45390514,0.49960086,23.021587371826172,-0.48406773805618286,9.778630256652832,-76.69252014160156,-143.91717529296875, 12.545136451721191
214,1941175878,0.21477701,0.7142681,-0.46897867,0.47302347,22.618906021118164,0.5495903491973877,17.39657211303711,-117.8438491821289,-182.44985961914062, 9.880047798156738
215,1941192545,0.21434496,0.7240445,-0.48012894,0.44642156,19.32183074951172,-0.9325486421585083,12.889507293701172,-103.494384765625,-181.55859375, -13.424397468566895
216,1941209212,0.21646035,0.73418146,-0.4842947,0.4237703,18.853538513183594,0.863939642906189,11.443512916564941,-81.18155670166016,-144.94094848632812, -51.415950775146484
217,1941225879,0.2164696,0.74802995,-0.4818942,0.4017089,10.25813102722168,-3.9053306579589844,4.100481986999512,-43.872886657714844,-150.6215057373047, -89.89640808105469
218,1941242546,0.20709269,0.7661648,-0.47135982,0.38460928,5.993118762969971,-10.358898162841797,-4.66563081741333,49.71837615966797,-156.14627075195312, -112.7407455444336
219,1941259213,0.1878658,0.7814076,-0.4531425,0.38570803,9.437996864318848,-10.828271865844727,17.552425384521484,176.69566345214844,-73.47981262207031, -92.0963134765625
220,1941275880,0.17182307,0.78987515,-0.43084508,0.40118164,2.186244249343872,3.82993483543396,31.58644676208496,206.29971313476562,36.3251953125, -82.90831756591797
221,1941292547,0.18656273,0.7866985,-0.42118922,0.41097412,0.7136821150779724,2.832484722137451,23.664417266845703,-26.245765686035156,113.02752685546875, -71.1628189086914
222,1941309214,0.21382205,0.77345514,-0.41591817,0.42785442,1.2408087253570557,1.5604925155639648,21.153215408325195,-98.67708587646484,209.91172790527344, -44.602787017822266
223,1941325881,0.25010514,0.74951243,-0.41523772,0.45083985,3.770430088043213,-1.5012861490249634,17.37660789489746,-158.45004272460938,292.4641418457031, -7.315907955169678
224,1941342548,0.28187597,0.71904016,-0.41054958,0.48474357,7.315483093261719,-4.977675437927246,7.589796543121338,-102.85481262207031,362.59063720703125, 23.184404373168945
225,1941359215,0.3062717,0.68413264,-0.39990675,0.5274797,12.764572143554688,-3.9374639987945557,3.119446277618408,-30.254459381103516,411.6474609375, 47.69560241699219
226,1941375882,0.32086158,0.6479556,-0.38037902,0.5766396,17.990493774414062,-5.064939975738525,-4.109485149383545,63.09381103515625,438.1936340332031, 58.38520050048828
227,1941392549,0.32035634,0.6146571,-0.34573513,0.6324837,19.510160446166992,-4.783127307891846,-10.290361404418945,214.2140655517578,450.7126159667969, 58.16981887817383
228,1941409216,0.31873235,0.5830191,-0.30774826,0.6810211,14.868451118469238,6.319957733154297,-11.373868942260742,219.75865173339844,417.7563781738281, 29.000856399536133
229,1941425883,0.33404738,0.5477334,-0.291444,0.7095499,12.406890869140625,2.3224399089813232,-20.691181182861328,-0.22718940675258636,343.4222106933594, 0.8496766686439514
230,1941442550,0.36082157,0.50941306,-0.3032663,0.71995544,4.444864273071289,-1.164731740951538,-27.378599166870117,-223.99473571777344,249.34048461914062, 15.300100326538086
231,1941459217,0.37753782,0.47963202,-0.3146862,0.7269052,-1.277182936668396,-3.361886978149414,-29.802597045898438,-172.6967315673828,176.17239379882812, 37.119468688964844
232,1941475884,0.38232222,0.4634616,-0.31842694,0.7332377,-2.788832187652588,-3.7127978801727295,-30.481201171875,-60.80024719238281,101.43018341064453, 40.20547103881836
233,1941492551,0.3786682,0.45900574,-0.31644648,0.73877317,-3.184124231338501,0.3524094223976135,-26.854707717895508,24.176206588745117,37.58087158203125, 36.62791442871094
234,1941509218,0.37213838,0.46440032,-0.31799403,0.73805505,-1.9161747694015503,-2.380585193634033,-33.8408203125,27.49008560180664,-46.629703521728516, 24.64752769470215
235,1941525885,0.36376095,0.4843124,-0.32678014,0.725489,16.665008544921875,8.361687660217285,-20.653671264648438,8.0829496383667,-179.41592407226562, -5.047825336456299
236,1941542552,0.34864354,0.5077864,-0.33205056,0.7143831,21.902647018432617,5.906729698181152,11.892046928405762,60.184425354003906,-197.64608764648438, 12.864969253540039
237,1941559219,0.32923332,0.53694916,-0.33062527,0.70283586,13.835482597351074,14.315545082092285,-3.941213846206665,120.5441665649414,-221.20359802246094, -3.2249374389648438
238,1941575886,0.31131554,0.5614857,-0.32821468,0.69288653,0.5439742803573608,-0.7617498636245728,-3.6246140003204346,112.7979507446289,-187.04791259765625, 0.5874428153038025
239,1941592553,0.29767329,0.57748485,-0.3280824,0.68575794,-3.6427605152130127,-8.655939102172852,-5.9070940017700195,73.56289672851562,-130.59451293945312, 14.172784805297852
240,1941609220,0.2883544,0.5875172,-0.32826215,0.6811164,2.4551286697387695,-7.158581256866455,-3.9684529304504395,48.43006134033203,-83.2954330444336, 13.101357460021973
241,1941625887,0.28172433,0.5955475,-0.32558852,0.67819375,6.929345607757568,1.8293546438217163,-2.2634894847869873,50.894161224365234,-55.17217254638672, -3.449228525161743
242,1941642554,0.27667463,0.60173994,-0.32258165,0.6762406,9.233427047729492,7.4256205558776855,-1.2751352787017822,44.5498046875,-38.502662658691406, -6.1123151779174805
243,1941659221,0.2726916,0.6057906,-0.32299197,0.6740426,6.7738447189331055,8.715022087097168,0.02554968371987343,19.563518524169922,-33.83555221557617, 7.700507164001465
244,1941675888,0.2726725,0.60700315,-0.33106944,0.6690218,2.751042604446411,2.1507880687713623,-0.32752108573913574,-44.12321472167969,-38.261112213134766, 22.688535690307617
245,1941692555,0.2732233,0.6078335,-0.336645,0.6652503,0.024772604927420616,-5.8074750900268555,-5.604499816894531,-32.87556457519531,-25.559043884277344, 12.940435409545898
246,1941709222,0.27408177,0.60872924,-0.3382359,0.6632681,-0.8138612508773804,-6.348780155181885,-3.440976858139038,-11.639932632446289,-10.212509155273438, -2.1717026233673096
247,1941725889,0.27553573,0.6097718,-0.33979392,0.6609075,0.905125081539154,-1.7281968593597412,-1.5424808263778687,-14.57492733001709,-11.15384578704834, -6.347142696380615
248,1941742556,0.27629462,0.6121693,-0.3418918,0.6572825,2.861250638961792,0.41492074728012085,2.1159374713897705,-14.520536422729492,-25.470653533935547, -6.536572456359863
249,1941759223,0.27402666,0.61736727,-0.34248328,0.65304846,2.8254663944244385,0.25143635272979736,2.0892274379730225,8.878013610839844,-45.28590393066406, -6.90273904800415
250,1941775890,0.270336,0.6242198,-0.3434294,0.64755267,1.8146127462387085,-0.201259583234787,2.466230869293213,13.439901351928711,-62.398197174072266, -5.267212867736816
251,1941792557,0.26668918,0.6319523,-0.3459681,0.6401714,2.1227662563323975,-0.5998587608337402,1.9981300830841064,3.318253755569458,-77.55747985839844, -4.214673042297363
252,1941809224,0.26331905,0.6405359,-0.34993348,0.63081175,2.552337646484375,-1.5227447748184204,2.040266990661621,-7.33029317855835,-92.10196685791016, -4.897577285766602
253,1941825891,0.25833535,0.6508785,-0.35304964,0.6204645,3.036496877670288,-2.5719306468963623,2.767479181289673,4.248466968536377,-106.64588165283203, -7.700999736785889
254,1941842558,0.2511835,0.6628036,-0.35601756,0.6089746,3.4443936347961426,0.7805196046829224,3.028824806213379,14.598284721374512,-123.73607635498047, -5.059207916259766
255,1941859225,0.24409123,0.674606,-0.36272165,0.59477663,4.5693511962890625,4.374519348144531,3.3005435466766357,-8.173162460327148,-142.08424377441406, 7.390170097351074
256,1941875892,0.2355942,0.6874144,-0.37081948,0.57831633,6.217326641082764,3.301255226135254,3.239070415496826,-11.307766914367676,-162.74607849121094, 13.456356048583984
257,1941892559,0.22634265,0.70029515,-0.37950018,0.5606564,6.401577472686768,2.981785535812378,2.2051284313201904,-12.990097045898438,-171.7727813720703, 17.19853401184082
258,1941909226,0.21956025,0.7120699,-0.3917623,0.5396965,7.5781354904174805,2.615222930908203,5.039172649383545,-49.0013542175293,-182.6910400390625, 22.768217086791992
259,1941925893,0.21569082,0.72299904,-0.40691936,0.5149434,10.788753509521484,1.2321763038635254,7.190847396850586,-85.48616790771484,-194.9064483642578, 22.753520965576172
260,1941942560,0.21235344,0.7341545,-0.42148685,0.4881313,15.456594467163086,0.905288577079773,9.805562019348145,-91.46798706054688,-203.9184112548828, 14.27546215057373
261,1941959227,0.20851181,0.74488336,-0.43525133,0.4606819,19.82476043701172,1.7409485578536987,14.666406631469727,-88.69622039794922,-206.44189453125, 12.228500366210938
262,1941975894,0.20958786,0.7529267,-0.44911137,0.43298194,21.1939754486084,3.406916379928589,15.823301315307617,-118.78461456298828,-185.25515747070312, 4.834895133972168
263,1941992561,0.2129789,0.7609977,-0.4611661,0.40354484,13.044421195983887,1.9712625741958618,8.994404792785645,-130.68307495117188,-185.2224578857422, -13.977137565612793
264,1942009228,0.22036311,0.7666944,-0.47328648,0.37365735,5.446793556213379,-4.523955821990967,1.336479663848877,-156.6310272216797,-168.71852111816406, -17.91583824157715
265,1942025895,0.22415198,0.7689003,-0.4833832,0.35339674,3.195268154144287,-12.952373504638672,5.806108474731445,-106.4946517944336,-117.56688690185547, 6.379044532775879
266,1942042562,0.21715903,0.7693361,-0.4840922,0.35583523,-0.780899703502655,-9.596447944641113,21.504138946533203,45.809749603271484,-14.635950088500977, 23.47812271118164
267,1942059229,0.21238337,0.76659673,-0.4791957,0.37093705,-3.313910484313965,-1.0774561166763306,19.707271575927734,85.05500030517578,75.56549072265625, 17.714553833007812
268,1942075896,0.2157575,0.7594242,-0.47136897,0.39310962,-3.416889190673828,-1.1286503076553345,17.956295013427734,66.400634765625,155.07884216308594, 6.465121269226074
269,1942092563,0.2254456,0.747766,-0.4599773,0.42242306,-4.004356861114502,2.768190383911133,15.810785293579102,59.57292556762695,230.10498046875, -4.057104587554932
270,1942109230,0.24388134,0.72994775,-0.4475498,0.45540908,-2.402116298675537,4.566277980804443,11.328862190246582,19.731149673461914,296.079345703125, -9.51479721069336
271,1942125897,0.2699672,0.7042419,-0.43559045,0.49134734,1.28439462184906,3.9148130416870117,6.659045219421387,-24.215665817260742,358.3814697265625, -1.7879393100738525
272,1942142564,0.3018428,0.67082375,-0.42623308,0.52650917,5.5237956047058105,3.5153489112854004,3.8191678524017334,-77.67491149902344,393.2832336425781, 12.970075607299805
273,1942159231,0.33279982,0.633281,-0.41690502,0.5607049,7.535578727722168,0.5102028846740723,-2.9622135162353516,-84.93762969970703,401.098388671875, 26.548124313354492
274,1942175898,0.35523158,0.5959434,-0.40206856,0.5974973,9.18532943725586,0.5632705688476562,-10.807326316833496,-18.644479751586914,400.0451354980469, 40.765869140625
275,1942192565,0.3672295,0.56368965,-0.37984,0.63491595,10.958710670471191,5.287407875061035,-16.801410675048828,68.66497039794922,371.3981018066406, 40.84950637817383
276,1942209232,0.37812817,0.5363479,-0.35845786,0.6639715,7.874875068664551,5.249598026275635,-23.270458221435547,59.75749588012695,313.1245422363281, 15.14548397064209
277,1942225899,0.38958094,0.51428443,-0.3465482,0.68091315,1.967543601989746,-0.6962140202522278,-25.10170555114746,-1.6996078491210938,221.828369140625, 3.168142795562744
278,1942242566,0.39873198,0.49812424,-0.34253365,0.6896056,-0.2996167242527008,-2.4960174560546875,-22.917495727539062,-34.32610321044922,139.12094116210938, 5.6508331298828125
279,1942259233,0.4035216,0.48928747,-0.34058812,0.6940953,-1.9701412916183472,1.3075592517852783,-22.855131149291992,-18.95535659790039,74.66326141357422, 4.563503742218018
280,1942275900,0.40539637,0.4861651,-0.3441882,0.6934203,-1.4085443019866943,0.3963301181793213,-21.50469970703125,-23.21122932434082,7.125892162322998, 8.920027732849121
281,1942292567,0.40023106,0.4940297,-0.35239252,0.68670917,1.5238686800003052,-3.921349287033081,-28.677196502685547,-4.968844890594482,-94.53868865966797, 14.92536735534668
282,1942309234,0.3869375,0.5102862,-0.35455528,0.6813062,13.127054214477539,0.042396944016218185,1.719507098197937,76.75399780273438,-132.08987426757812, 15.723836898803711
283,1942325901,0.37295672,0.5266757,-0.35611728,0.6757933,7.5962419509887695,5.3390212059021,1.4098988771438599,74.05989074707031,-132.0924530029297, 17.008563995361328
284,1942342568,0.35938367,0.5437429,-0.35910562,0.6680048,6.897451400756836,4.138200283050537,-8.45700740814209,62.07854461669922,-146.30003356933594, 12.886053085327148
285,1942359235,0.3498447,0.5556892,-0.36307558,0.66105556,3.117500066757202,1.608346700668335,-3.95003080368042,31.89786148071289,-111.98792266845703, 12.817412376403809
286,1942375902,0.34468842,0.5616633,-0.36934283,0.6552177,1.3027973175048828,0.40267953276634216,-4.118757247924805,-6.874992370605469,-75.2165298461914, 19.27815055847168
287,1942392569,0.34050876,0.56485337,-0.37455085,0.65169483,2.2226860523223877,-1.4574580192565918,-0.8969996571540833,-6.580432415008545,-48.77829360961914, 23.342947006225586
288,1942409236,0.3362968,0.5677265,-0.37717822,0.64986765,1.6932169198989868,0.8427987098693848,-0.8681552410125732,8.74544906616211,-34.929542541503906, 18.20258140563965
289,1942425903,0.33237535,0.57037276,-0.38009435,0.64786565,1.6647603511810303,-0.2919871509075165,0.5381521582603455,5.342907905578613,-34.61851501464844, 18.22524070739746
290,1942442570,0.32902136,0.57337785,-0.38366574,0.6448128,1.281428337097168,0.22522036731243134,0.029413990676403046,-1.7286250591278076,-40.48751449584961, 14.911701202392578
291,1942459237,0.32712352,0.5761653,-0.38972706,0.639638,0.131228506565094,-0.9618215560913086,0.4586997330188751,-24.599960327148438,-49.791046142578125, 14.049232482910156
292,1942475904,0.32547507,0.5795711,-0.39626995,0.6333511,-0.130539670586586,-1.4684267044067383,1.6225991249084473,-29.294530868530273,-57.44620132446289, 10.676807403564453
293,1942492571,0.32465047,0.5830892,-0.40413296,0.62552845,0.4268574118614197,-1.51812744140625,0.5656865239143372,-42.26266860961914,-64.90283203125, 8.572145462036133
294,1942509238,0.3240068,0.58700496,-0.41155082,0.6173091,0.25836536288261414,-0.6563653349876404,0.05753343552350998,-41.291873931884766,-66.80528259277344, 3.9869790077209473
295,1942525905,0.32376033,0.59154236,-0.41852286,0.608355,0.10227397084236145,-1.3426389694213867,0.09378506988286972,-41.70198059082031,-70.36666870117188, -2.9036264419555664
296,1942542572,0.32232723,0.59717375,-0.4242045,0.59961605,0.4905064105987549,-1.595765471458435,1.557355523109436,-28.42974853515625,-74.68006896972656, -5.887890338897705
297,1942559239,0.3207795,0.60365826,-0.43031985,0.58951,0.5301506519317627,-0.5293285846710205,2.592841863632202,-31.85698890686035,-85.21231079101562, -9.188852310180664
298,1942575906,0.31881443,0.61089253,-0.4373577,0.5778288,0.6121262311935425,0.14523757994174957,1.8947261571884155,-36.886131286621094,-98.18828582763672, -9.36755657196045
299,1942592573,0.31644398,0.61826146,-0.44519705,0.56516874,1.554675579071045,2.6493663787841797,1.0130374431610107,-41.0286865234375,-105.91150665283203, -6.928678512573242
300,1942609240,0.31511608,0.62503326,-0.4540925,0.5512127,1.989260196685791,4.359821796417236,1.0943800210952759,-54.83292007446289,-108.28074645996094, -7.400509357452393
301,1942625907,0.3141714,0.6315216,-0.463502,0.5363233,1.8895541429519653,2.025503158569336,1.1456986665725708,-61.9505729675293,-111.21471405029297, -7.65718936920166
302,1942642574,0.31208742,0.6383122,-0.4720766,0.5218264,1.924974799156189,0.6124816536903381,1.1635611057281494,-52.01352310180664,-112.53241729736328, -7.146279811859131
303,1942659241,0.30878484,0.6459541,-0.4791671,0.5077346,2.181279420852661,-0.32562288641929626,0.8464423418045044,-38.197303771972656,-114.65646362304688, -11.174529075622559
304,1942675908,0.30421585,0.65456915,-0.48466173,0.49405983,3.081562042236328,-1.3188492059707642,2.2599639892578125,-23.564327239990234,-117.05310821533203, -16.182790756225586
305,1942692575,0.29891515,0.6636345,-0.48938686,0.48035374,4.473494529724121,-1.264110803604126,2.3599536418914795,-16.831655502319336,-119.66270446777344, -18.77190589904785
306,1942709242,0.2926966,0.6731385,-0.49358752,0.46646005,5.713442802429199,-1.1234946250915527,3.2346413135528564,-10.65263557434082,-124.10011291503906, -20.034887313842773
307,1942725909,0.28426936,0.68379545,-0.4967479,0.4526105,7.160691738128662,-0.9718672633171082,5.522632122039795,5.363676071166992,-133.14862060546875, -21.620161056518555
308,1942742576,0.2760334,0.6949264,-0.50170416,0.4349436,8.799095153808594,-0.34137260913848877,11.283784866333008,-13.249549865722656,-155.6542205810547, -22.87503433227539
309,1942759243,0.26803586,0.7060636,-0.5093372,0.41256133,10.788113594055176,-1.5905030965805054,14.452142715454102,-38.659446716308594,-182.84840393066406, -19.77984619140625
310,1942775910,0.26432836,0.71458596,-0.5201655,0.3859083,13.938920974731445,-1.807541847229004,12.970272064208984,-88.35511779785156,-187.49740600585938, -15.203707695007324
311,1942792577,0.2573208,0.72526485,-0.5268259,0.36087596,15.950480461120605,-2.226013422012329,12.247114181518555,-51.38131332397461,-189.9282684326172, -31.756332397460938
312,1942809244,0.25035453,0.73663884,-0.5304347,0.33663768,12.514735221862793,-1.0203919410705566,12.347413063049316,-39.916893005371094,-182.580322265625, -48.259456634521484
313,1942825911,0.25306386,0.7445032,-0.5373885,0.30477437,7.662524700164795,-5.342216491699219,1.1566598415374756,-130.50997924804688,-183.91331481933594, -54.118465423583984
314,1942842578,0.25097206,0.7495266,-0.5429658,0.28356823,8.964057922363281,-10.102682113647461,6.7277445793151855,-68.6659164428711,-138.7334747314453, -22.227617263793945
315,1942859245,0.24603637,0.7523399,-0.5443711,0.27768877,-0.6933032870292664,-6.011413097381592,18.75954818725586,7.382102012634277,-59.00188446044922, -3.7039756774902344
316,1942875912,0.24414833,0.75351644,-0.5413462,0.28204426,-2.2378339767456055,-7.541575908660889,16.280841827392578,35.565975189208984,15.770447731018066, -9.065139770507812
317,1942892579,0.24340314,0.7537446,-0.53442574,0.29498014,0.03537006676197052,-7.983482837677002,14.204540252685547,67.48499298095703,72.7464370727539, -13.600171089172363
318,1942909246,0.24382846,0.7529349,-0.52360886,0.3153898,0.43242156505584717,-4.594442367553711,12.125621795654297,95.00401306152344,124.28622436523438, -19.909997940063477
319,1942925913,0.25041345,0.7494398,-0.51177937,0.3372168,1.236491322517395,-0.8168696165084839,8.786059379577637,65.93360137939453,161.22933959960938, -26.46147918701172
320,1942942580,0.26363182,0.742501,-0.5002594,0.35906968,2.476393938064575,-0.4860241711139679,6.530470371246338,25.276958465576172,192.1257781982422, -28.033939361572266
321,1942959247,0.27991983,0.7324114,-0.48871607,0.38258994,3.3975090980529785,-1.0649991035461426,5.254759311676025,9.767633438110352,219.01649475097656, -21.841201782226562
322,1942975914,0.29640782,0.7202208,-0.47563544,0.40889543,3.801478624343872,-1.5842018127441406,4.627694129943848,18.18864631652832,242.20944213867188, -17.672945022583008
323,1942992581,0.3113755,0.7061542,-0.46106374,0.43796328,3.077514410018921,-3.375128984451294,3.1816422939300537,35.18425750732422,259.2419738769531, -9.009061813354492
324,1943009248,0.32280934,0.69061154,-0.4441762,0.47069883,1.9669749736785889,-4.423666954040527,1.1962848901748657,67.82746124267578,275.3055725097656, 2.9110488891601562
325,1943025915,0.33209243,0.6715262,-0.42635185,0.50694317,1.542235255241394,-4.1003499031066895,-0.2888992428779602,83.95924377441406,299.06646728515625, 24.015186309814453
326,1943042582,0.3417894,0.64590496,-0.4103129,0.545555,2.2199859619140625,-2.8873064517974854,-2.7515246868133545,67.85539245605469,330.0855712890625, 55.381126403808594
327,1943059249,0.35331622,0.61305046,-0.39835557,0.5836521,2.1007068157196045,-1.276651382446289,-5.337231159210205,25.96613311767578,350.7328186035156, 85.8490982055664
328,1943075916,0.3651963,0.57568616,-0.38824382,0.6200679,2.119969367980957,0.695141613483429,-8.948347091674805,1.5120609998703003,358.5223388671875, 100.49818420410156
329,1943092583,0.38385892,0.5344223,-0.3829274,0.6483918,4.980368137359619,2.1530234813690186,-11.05449104309082,-77.18732452392578,349.56146240234375, 80.68218994140625
330,1943109250,0.40358075,0.49172226,-0.38221866,0.6702543,8.341511726379395,-0.25617513060569763,-13.83581256866455,-122.41316223144531,323.2818908691406, 79.67656707763672
331,1943125917,0.4227225,0.451328,-0.38356206,0.68592197,9.322559356689453,0.5479604601860046,-15.837498664855957,-139.72183227539062,285.0013427734375, 66.04934692382812
332,1943142584,0.4360595,0.4189109,-0.3831434,0.69826007,5.671247482299805,2.6681056022644043,-21.45880126953125,-84.345703125,224.98291015625, 56.5881233215332
333,1943159251,0.44170764,0.39811683,-0.38329196,0.70674235,2.199003219604492,3.8763039112091064,-23.100265502929688,-41.72395706176758,136.8002471923828, 53.82118606567383
334,1943175918,0.43822,0.3926588,-0.38178226,0.7127587,-0.8856381177902222,3.2013514041900635,-23.542943954467773,18.627899169921875,39.4822998046875, 45.878082275390625
335,1943192585,0.4275606,0.4023988,-0.37865892,0.7154614,-2.4131240844726562,4.2224907875061035,-24.003292083740234,83.08141326904297,-57.35084533691406, 26.851320266723633
336,1943209252,0.4130854,0.42207223,-0.3762138,0.7139179,-0.6597018241882324,8.028277397155762,-18.62779426574707,108.52179718017578,-129.3844451904297, 9.176092147827148
337,1943225919,0.40022674,0.44338378,-0.37821817,0.70723426,2.109902858734131,6.756224632263184,-8.260872840881348,73.3154525756836,-160.43032836914062, -4.579681396484375
338,1943242586,0.3918839,0.4583801,-0.37908548,0.7018612,4.524394512176514,7.407931804656982,13.383543968200684,51.03113555908203,-110.74456024169922, -9.868477821350098
339,1943259253,0.39251763,0.46745208,-0.3924405,0.6880473,11.032832145690918,7.532868385314941,-2.5531861782073975,-75.6683349609375,-119.50797271728516, -20.935779571533203
340,1943275920,0.38528395,0.4800754,-0.40669957,0.67504036,12.303410530090332,-10.600918769836426,-5.681449890136719,-42.96354293823242,-157.36256408691406, 12.031183242797852
341,1943292587,0.36707336,0.5043069,-0.40073538,0.6710761,7.7658610343933105,9.860282897949219,0.7771894931793213,143.3104248046875,-158.41131591796875, -12.572652816772461
342,1943309254,0.35719797,0.5215097,-0.4088235,0.65825564,5.780776023864746,7.637407302856445,2.569819450378418,7.323687553405762,-169.2809600830078, -5.075439929962158
343,1943325921,0.35070693,0.53319675,-0.42022675,0.6450702,1.4535059928894043,4.579930305480957,-3.8348655700683594,-34.438350677490234,-144.4305419921875, 6.298915386199951
344,1943342588,0.34851363,0.5391427,-0.43239632,0.63316435,-0.1059713214635849,-3.150797128677368,-7.1053547859191895,-63.727447509765625,-103.71324920654297, 9.826592445373535
345,1943359255,0.34627306,0.54261476,-0.43837237,0.627291,-0.7175192832946777,-0.9936582446098328,-6.828433036804199,-24.52387046813965,-55.797019958496094, 8.771666526794434
346,1943375922,0.3461426,0.54334867,-0.443547,0.6230761,-0.0921577513217926,-1.3204200267791748,-3.4053492546081543,-30.426485061645508,-29.457544326782227, 8.825737953186035
347,1943392589,0.34656686,0.5434774,-0.446773,0.6204176,0.6417730450630188,0.2911885678768158,-2.0405735969543457,-20.832420349121094,-14.748889923095703, 4.66000509262085
348,1943409256,0.34840325,0.5431144,-0.45048335,0.6170144,0.7512229681015015,0.45023733377456665,-0.8400857448577881,-31.639469146728516,-12.313150405883789, 0.17510834336280823
349,1943425923,0.3507853,0.54280114,-0.45523942,0.61243266,0.35474464297294617,1.048426866531372,-0.2647319734096527,-41.65699005126953,-17.833995819091797, -1.2092610597610474
350,1943442590,0.35225725,0.54380983,-0.46001297,0.60710275,-0.1460607349872589,-0.36635473370552063,0.5229580402374268,-37.50223159790039,-29.18699073791504, -3.2365357875823975
351,1943459257,0.35257325,0.5464106,-0.46381587,0.60166645,-0.18703711032867432,-1.802382469177246,1.4065499305725098,-25.622468948364258,-37.65397262573242, -7.362758636474609
352,1943475924,0.35112494,0.5507098,-0.46590978,0.5969576,-0.4162321090698242,-2.82610821723938,-0.053393661975860596,-5.501954078674316,-43.56467819213867, -10.211560249328613
353,1943492591,0.3484184,0.5556712,-0.46736643,0.59279233,-0.4405900835990906,-2.458491563796997,0.10833340138196945,5.213449478149414,-46.79776382446289, -8.37580394744873
354,1943509258,0.34480008,0.5612841,-0.46834645,0.58883345,0.11359001696109772,-0.36449307203292847,0.41177237033843994,12.855697631835938,-50.531253814697266, -8.173144340515137
355,1943525925,0.3405431,0.5675857,-0.46936667,0.58444154,0.4407206177711487,0.5012168288230896,1.2329086065292358,15.385005950927734,-57.22298812866211, -8.707365036010742
356,1943542592,0.33618858,0.5744843,-0.4710632,0.5788304,0.7954248785972595,0.8571085929870605,1.1847341060638428,10.495660781860352,-66.37860870361328, -10.460831642150879
357,1943559259,0.33210996,0.5816843,-0.47425115,0.57134265,1.1684609651565552,0.9209767580032349,1.9121614694595337,-1.9253227710723877,-77.63983154296875, -10.969440460205078
358,1943575926,0.32797155,0.5896673,-0.47845003,0.5619723,1.490450143814087,1.1774215698242188,1.6691339015960693,-10.021936416625977,-90.86222076416016, -13.526308059692383
359,1943592593,0.32171762,0.59937936,-0.48161927,0.55252624,1.5602654218673706,-0.06415959447622299,2.5797932147979736,6.173990249633789,-102.58937072753906, -15.361581802368164
360,1943609260,0.31372604,0.61063266,-0.48381802,0.54279304,1.6891363859176636,-0.22625359892845154,2.379574775695801,19.466150283813477,-113.36104583740234, -18.51214027404785
361,1943625927,0.30571625,0.6222862,-0.4867991,0.5313418,1.9715075492858887,-0.27693331241607666,2.0404422283172607,11.760902404785156,-123.93293762207031, -20.215686798095703
362,1943642594,0.29842064,0.6338811,-0.49145192,0.51731515,2.7407801151275635,-0.2969319820404053,2.230611562728882,-6.154617786407471,-135.96835327148438, -20.90607452392578
363,1943659261,0.29138875,0.64561474,-0.49721903,0.50104636,3.2431037425994873,0.5100954174995422,4.146012783050537,-18.56975555419922,-147.7467803955078, -22.06844711303711
364,1943675928,0.28484344,0.6576855,-0.50539994,0.48050478,4.456686973571777,1.2386337518692017,6.469614505767822,-42.985694885253906,-171.2298126220703, -22.731401443481445
365,1943692595,0.27625686,0.6713898,-0.5130309,0.457949,6.5041022300720215,2.491199493408203,6.852070331573486,-35.741844177246094,-192.00575256347656, -28.064550399780273
366,1943709262,0.26745918,0.6846149,-0.5209306,0.43405008,8.250493049621582,4.660708904266357,6.251091957092285,-41.24512481689453,-198.2303924560547, -26.956193923950195
367,1943725929,0.26028055,0.6957511,-0.5306388,0.40817553,9.496253967285156,3.0545132160186768,7.685218334197998,-65.13086700439453,-199.0977783203125, -19.314823150634766
368,1943742596,0.25362036,0.7064175,-0.5392804,0.38187405,12.308506965637207,-1.3477731943130493,10.960055351257324,-66.97453308105469,-196.34683227539062, -24.87358856201172
369,1943759263,0.24458276,0.7184332,-0.54345024,0.35874063,12.543170928955078,-3.9752650260925293,11.679862022399902,-29.595855712890625,-185.9597930908203, -39.89478302001953
370,1943775930,0.23572674,0.7306753,-0.5433692,0.33955333,9.98378849029541,-1.6544935703277588,9.776562690734863,-4.916648864746094,-159.63697814941406, -55.67806625366211
371,1943792597,0.23025283,0.7425823,-0.5417111,0.3195376,6.765218257904053,-1.703260898590088,7.404792785644531,-21.856836318969727,-148.14772033691406, -71.64741516113281
372,1943809264,0.22757164,0.75236744,-0.5416252,0.29798785,4.524960041046143,-8.784078598022461,0.7391307950019836,-48.629207611083984,-143.59133911132812, -64.36013793945312
373,1943825931,0.22467959,0.75805116,-0.54382414,0.2813057,8.375727653503418,-9.972484588623047,3.9503862857818604,-40.637752532958984,-114.34304809570312, -29.453893661499023
374,1943842598,0.22367407,0.76089114,-0.543404,0.27518544,0.09066656976938248,-5.403533935546875,17.185020446777344,-10.466177940368652,-42.83170700073242, -20.041181564331055
375,1943859265,0.23647386,0.7589951,-0.54375327,0.26895958,-2.1064867973327637,1.0568406581878662,15.532302856445312,-91.87841796875,15.757223129272461, -24.740795135498047
376,1943875932,0.258609,0.75273246,-0.5448299,0.26396185,-1.0697580575942993,-2.0044851303100586,11.980766296386719,-144.37857055664062,63.857425689697266, -19.932275772094727
377,1943892599,0.27945617,0.7454224,-0.5425987,0.26802307,-0.22066740691661835,-3.216364860534668,9.19848346710205,-99.60589599609375,113.64840698242188, -14.796802520751953
378,1943909266,0.29301763,0.7388917,-0.5357151,0.28493732,0.2044302076101303,-4.931736469268799,5.188533782958984,-4.225093364715576,159.8197784423828, -3.5055291652679443
379,1943925933,0.30037573,0.7325858,-0.524674,0.3127455,-0.4357462525367737,-6.199961185455322,3.9437499046325684,76.00482177734375,200.29119873046875, 8.597392082214355
380,1943942600,0.30570742,0.7248085,-0.5116142,0.34561086,-0.8654621243476868,-5.642754554748535,3.4098799228668213,105.7341537475586,225.8466033935547, 18.500560760498047
381,1943959267,0.3114071,0.7144166,-0.4977559,0.3806229,-0.3560238480567932,-3.1924335956573486,2.796998977661133,107.83891296386719,245.7927703857422, 27.338077545166016
382,1943975934,0.32169142,0.6993444,-0.4857349,0.4141181,-0.10716008394956589,-1.410719871520996,1.766686201095581,65.29932403564453,262.40460205078125, 37.15943145751953
383,1943992601,0.33586192,0.6797788,-0.47553214,0.446057,0.704374372959137,-0.12763981521129608,0.20056332647800446,26.324901580810547,276.7585144042969, 46.424232482910156
384,1944009268,0.35226518,0.6561709,-0.46665573,0.47705516,2.1814587116241455,0.16848224401474,-1.2761272192001343,-0.5676230788230896,289.11822509765625, 56.86157989501953
385,1944025935,0.36782348,0.6301582,-0.45707884,0.5086117,3.57289981842041,0.05872520059347153,-2.0135109424591064,1.5325157642364502,298.6555480957031, 65.5813217163086
386,1944042602,0.38293803,0.60173965,-0.4470995,0.53978705,5.256620407104492,0.08539029955863953,-1.3828396797180176,-2.4007420539855957,305.1923828125, 72.01963806152344
387,1944059269,0.39703253,0.5713661,-0.43539515,0.5712593,7.083581447601318,1.9451518058776855,-2.5892698764801025,4.010122299194336,315.2105712890625, 75.49523162841797
388,1944075936,0.4142406,0.5364756,-0.42981407,0.59653884,6.4319634437561035,2.2842986583709717,-5.941520690917969,-63.16508483886719,301.3867492675781, 84.01871490478516
389,1944092603,0.42803606,0.5025346,-0.42311817,0.6206571,6.536411285400391,3.081871509552002,-11.986510276794434,-46.721923828125,286.5705261230469, 87.86287689208984
390,1944109270,0.43860278,0.47420532,-0.41163263,0.6428963,6.554230690002441,5.132274150848389,-11.396561622619629,-4.052180290222168,261.2860107421875, 63.342689514160156
391,1944125937,0.4440187,0.45499468,-0.3929854,0.66437155,5.26168966293335,3.326626777648926,-13.506749153137207,69.7430648803711,225.9364013671875, 34.82349395751953
392,1944142604,0.4440915,0.44359347,-0.37352133,0.6830004,3.037950277328491,4.829797744750977,-16.94931411743164,106.35223388671875,169.88905334472656, 27.002822875976562
393,1944159271,0.44343293,0.4357698,-0.36363155,0.6937176,-0.020247846841812134,5.012401580810547,-18.338184356689453,76.64627075195312,95.2522201538086, 25.902528762817383
394,1944175938,0.43972987,0.43721503,-0.35682338,0.6986829,-0.9442335367202759,2.5215320587158203,-19.514080047607422,62.58460235595703,20.46775245666504, 9.557097434997559
395,1944192605,0.43488422,0.44537914,-0.35702163,0.69645435,-1.2416924238204956,0.1368660032749176,-19.571657180786133,35.060325622558594,-56.89348602294922, -2.0978922843933105
396,1944209272,0.42758024,0.4600448,-0.36337835,0.68810624,1.3996155261993408,-1.3924747705459595,-16.03538703918457,17.58197593688965,-130.7258758544922, -5.757883071899414
397,1944225939,0.41832498,0.47421062,-0.3708949,0.68012184,4.92952823638916,-5.402446269989014,7.784029960632324,36.4576530456543,-137.88844299316406, 8.183903694152832
398,1944242606,0.40868825,0.48837835,-0.37609264,0.6730639,4.478788375854492,5.116811275482178,2.7813923358917236,51.133148193359375,-129.60244750976562, 4.216811180114746
399,1944259273,0.39979875,0.50398505,-0.38724437,0.6604558,7.6610517501831055,3.3425378799438477,-7.386081218719482,-8.076544761657715,-166.98855590820312, 3.467104196548462
400,1944275940,0.3858892,0.5225043,-0.39618784,0.6489332,7.215130805969238,0.4334036707878113,-4.702881336212158,30.24428367614746,-183.5727081298828, 13.931450843811035
401,1944292607,0.36948904,0.5426151,-0.39813232,0.6407321,2.8560805320739746,2.789907455444336,-1.0666084289550781,83.7120590209961,-166.87620544433594, 4.355955600738525
402,1944309274,0.35799274,0.558114,-0.40303084,0.6308062,1.2436071634292603,0.7848894000053406,-1.326050877571106,35.947879791259766,-147.1333465576172, 2.049738645553589
403,1944325941,0.35077333,0.56860137,-0.40965492,0.621155,0.22919560968875885,-2.426553249359131,-3.443983793258667,0.4764895737171173,-116.79914855957031, 4.683603286743164
404,1944342608,0.3483735,0.5742003,-0.41827062,0.6115387,1.070221185684204,-2.1496810913085938,-2.3539528846740723,-38.544288635253906,-87.01042175292969, 5.6668314933776855
405,1944359275,0.3482291,0.5772044,-0.42644733,0.60308725,2.5261685848236084,-0.0931466668844223,-1.7324895858764648,-48.4589958190918,-63.99492645263672, 4.659420967102051
406,1944375942,0.3487689,0.5788263,-0.43442246,0.5954811,1.73789381980896,0.5888406038284302,-1.5174779891967773,-51.168758392333984,-52.471588134765625, 7.12436580657959
407,1944392609,0.34909496,0.5799179,-0.44198447,0.58862346,0.38746362924575806,0.10762567818164825,-0.6652539968490601,-47.663143157958984,-47.0240478515625, 9.774136543273926
408,1944409276,0.3474702,0.5823341,-0.4470234,0.5833709,0.2374826967716217,-1.4750943183898926,0.2944839894771576,-21.61766242980957,-45.932525634765625, 7.448042869567871
409,1944425943,0.34382293,0.5867389,-0.44963315,0.5790972,0.03565600886940956,-2.0183541774749756,0.5115467309951782,3.977335214614868,-50.50287628173828, 2.013925313949585
410,1944442610,0.33803844,0.59319854,-0.44925994,0.5762042,-0.12832970917224884,-1.2036510705947876,-1.1824026107788086,33.593414306640625,-52.76972198486328, -4.672730922698975
411,1944459277,0.33144653,0.6011089,-0.44642857,0.5740321,0.44938308000564575,1.027848482131958,-1.631876826286316,52.21583557128906,-52.396461486816406, -14.363364219665527
412,1944475944,0.32620803,0.6086903,-0.44414812,0.5708039,1.4599196910858154,1.499225378036499,-0.34795862436294556,40.44598388671875,-52.587059020996094, -18.816762924194336
413,1944492611,0.32233152,0.6152345,-0.44309634,0.56679344,1.2940077781677246,0.034001365303993225,0.1717543601989746,25.196502685546875,-50.44985580444336, -17.574050903320312
414,1944509278,0.3192097,0.6214526,-0.44277605,0.56200653,1.2361900806427002,-0.48796695470809937,1.3468427658081055,16.05136489868164,-51.86280822753906, -18.15378761291504
415,1944525945,0.31673554,0.6276583,-0.4437106,0.5557379,1.0503485202789307,-0.4517304301261902,1.3134914636611938,3.881112813949585,-59.04000473022461, -18.52505874633789
416,1944542612,0.31475738,0.63401735,-0.4460635,0.54770195,1.2579480409622192,-0.0050773611292243,1.298359751701355,-8.75094223022461,-68.93161010742188, -18.626585006713867
417,1944559279,0.3126263,0.6411322,-0.44876736,0.5383514,2.1662981510162354,1.018997311592102,2.143174648284912,-11.815166473388672,-78.83670806884766, -21.678136825561523
418,1944575946,0.30908632,0.6494541,-0.4513414,0.5281726,2.255845785140991,0.5847737193107605,2.215057373046875,-5.093871593475342,-91.15231323242188, -22.505287170410156
419,1944592613,0.30204183,0.6602916,-0.4518523,0.51828116,1.8763223886489868,-0.1825222373008728,2.951918601989746,24.276168823242188,-105.62352752685547, -26.169279098510742
420,1944609280,0.29223096,0.67307025,-0.45144817,0.50771266,1.9081907272338867,0.22923344373703003,3.0002119541168213,42.01584243774414,-122.4526596069336, -27.914499282836914
421,1944625947,0.28255475,0.6856597,-0.45310012,0.49470603,2.706052780151367,0.8057846426963806,3.191101312637329,26.25836753845215,-136.92869567871094, -23.17630958557129
422,1944642614,0.27342382,0.6979822,-0.4564505,0.4792843,3.1466803550720215,0.3735833764076233,3.4472999572753906,9.874072074890137,-149.1595916748047, -20.864601135253906
423,1944659281,0.26395434,0.7106124,-0.46075624,0.46158636,3.3520407676696777,-0.2676345705986023,4.240409851074219,1.7821563482284546,-164.1180419921875, -20.393648147583008
424,1944675948,0.25450867,0.7232292,-0.46676272,0.44079208,4.426205158233643,-0.5929895639419556,6.40755558013916,-13.56765079498291,-182.40109252929688, -17.746156692504883
425,1944692615,0.24558549,0.7350819,-0.47518057,0.41658857,5.968156814575195,0.0816352367401123,7.801997661590576,-35.7600212097168,-199.84225463867188, -10.87011432647705
426,1944709282,0.23860548,0.74550444,-0.48551366,0.38931644,9.605286598205566,0.7382442355155945,10.853452682495117,-63.51203918457031,-208.45484924316406, -7.264799118041992
427,1944725949,0.23431611,0.7541443,-0.49653652,0.36029705,14.020008087158203,0.3728851079940796,12.040135383605957,-87.88997650146484,-205.2360382080078, -7.854592800140381
428,1944742616,0.2350831,0.75996566,-0.50822026,0.33000088,15.614959716796875,-0.07076382637023926,12.780233383178711,-124.63603973388672,-189.2196502685547, -9.42770767211914
429,1944759283,0.23427889,0.7678019,-0.51613253,0.29866564,11.935702323913574,-1.0385770797729492,12.446680068969727,-108.21981811523438,-199.1885223388672, -34.37895584106445
430,1944775950,0.23362929,0.77543306,-0.5208789,0.26982662,8.572809219360352,-4.415958404541016,1.5927400588989258,-93.98065185546875,-180.3838348388672, -46.77811050415039
431,1944792617,0.23149365,0.7811544,-0.5247256,0.24672168,6.3225531578063965,-4.175966262817383,0.14520348608493805,-66.9759292602539,-150.23353576660156, -32.9445686340332
432,1944809284,0.22250743,0.78548425,-0.52474433,0.24114025,3.843001365661621,-7.991400718688965,16.43593406677246,37.243412017822266,-72.38922882080078, -9.070221900939941
433,1944825951,0.21720329,0.78732157,-0.5229947,0.24377042,-0.9112297892570496,-1.674938678741455,17.00600814819336,45.9950065612793,-8.219832420349121, -3.2930757999420166
434,1944842618,0.21699184,0.7859775,-0.5212557,0.25188583,-0.45709896087646484,-5.770848751068115,13.151737213134766,33.40440368652344,44.92840576171875, 7.891291618347168
435,1944859285,0.22138363,0.78201044,-0.5182469,0.26621264,-0.35600876808166504,-1.8116484880447388,12.548242568969727,29.004669189453125,101.3319091796875, 11.657665252685547
436,1944875952,0.2337407,0.7740026,-0.5164085,0.28214782,-0.30357450246810913,-1.1848955154418945,10.046048164367676,-16.3754825592041,143.89158630371094, 20.208742141723633
437,1944892619,0.2513465,0.7625347,-0.5147166,0.30072016,0.18963198363780975,-0.6537737250328064,7.82639217376709,-40.77566146850586,183.01004028320312, 27.298046112060547
438,1944909286,0.2729113,0.7474477,-0.5130515,0.32189995,0.6322252750396729,0.47432464361190796,6.446242332458496,-58.59689712524414,218.1350860595703, 36.52942657470703
439,1944925953,0.29747933,0.7285611,-0.5120931,0.34418848,1.4377104043960571,0.9765827655792236,5.222322940826416,-78.78850555419922,241.5330810546875, 48.973411560058594
440,1944942620,0.32260206,0.70653117,-0.51096606,0.36831433,2.722674608230591,0.731301486492157,3.239525556564331,-81.09803771972656,260.50189208984375, 61.61311721801758
441,1944959287,0.34742668,0.6816656,-0.5089614,0.39444304,3.543937921524048,0.8114304542541504,1.0816515684127808,-76.66802215576172,278.3625793457031, 72.48558044433594
442,1944975954,0.3716098,0.65372574,-0.5066783,0.42169437,4.279495716094971,0.1238011047244072,-0.6748120784759521,-76.31864929199219,290.47808837890625, 86.34071350097656
443,1944992621,0.3927268,0.6239902,-0.5029439,0.45105383,4.552288055419922,-0.3272978365421295,-2.035492181777954,-55.57623291015625,298.31866455078125, 100.32461547851562
444,1945009288,0.40836266,0.5946597,-0.4951297,0.4842173,4.6779584884643555,0.244684100151062,-3.214348793029785,-5.152279853820801,305.6117858886719, 108.6835708618164
445,1945025955,0.4195292,0.5668702,-0.48274642,0.5192393,4.122838020324707,3.1032261848449707,-3.3512401580810547,38.99523162841797,305.88641357421875, 104.90341186523438
446,1945042622,0.4296615,0.54003924,-0.46570182,0.5539591,4.846396446228027,6.010467052459717,-5.159407138824463,61.43790054321289,311.5033874511719, 86.52595520019531
447,1945059289,0.44102058,0.5135985,-0.44502193,0.58623654,5.843215465545654,6.0189032554626465,-8.581254959106445,64.05220794677734,315.88323974609375, 60.12571334838867
448,1945075956,0.45345843,0.48666936,-0.42425057,0.6144429,7.804041862487793,3.965609550476074,-11.033411979675293,46.646427154541016,307.4295654296875, 44.8244743347168
449,1945092623,0.46213672,0.46245912,-0.4034689,0.6401361,7.336461544036865,1.3247363567352295,-14.764612197875977,60.40924072265625,277.0484619140625, 45.057804107666016
450,1945109290,0.46537745,0.4442292,-0.38463864,0.6619196,3.4201061725616455,4.861977577209473,-18.399234771728516,77.28018951416016,217.56222534179688, 46.24999237060547
451,1945125957,0.46514234,0.43491542,-0.3706257,0.6761124,0.179562509059906,7.002211570739746,-22.816442489624023,69.99800872802734,130.2420654296875, 29.17371940612793
452,1945142624,0.4626555,0.43541145,-0.36380228,0.6811865,-3.45216965675354,5.423656463623047,-25.766801834106445,65.00894927978516,28.025943756103516, 7.014419078826904
453,1945159291,0.45450962,0.44909677,-0.36053672,0.6795193,-2.308981418609619,2.563236951828003,-23.841794967651367,81.25712585449219,-77.73133087158203, -10.166328430175781
454,1945175958,0.4441187,0.47041154,-0.3622662,0.6709954,1.0851664543151855,1.65342116355896,-19.625808715820312,86.09400177001953,-156.4639129638672, -25.070934295654297
455,1945192625,0.43587205,0.4858466,-0.37045324,0.66085786,7.513067245483398,-6.284668922424316,11.215116500854492,22.68409538269043,-147.89756774902344, -4.601863861083984
456,1945209292,0.43072006,0.49406278,-0.38189366,0.6515671,4.242353439331055,-1.1632120609283447,4.4895219802856445,-34.999027252197266,-113.2995376586914, 14.058703422546387
457,1945225959,0.42591134,0.5031671,-0.39620999,0.6390931,8.691155433654785,-1.246087908744812,-10.768136024475098,-51.17360305786133,-136.27638244628906, 10.122788429260254
458,1945242626,0.41676015,0.51560515,-0.4040536,0.6302404,8.169039726257324,4.891908168792725,-1.9135900735855103,11.967683792114258,-130.95706176757812, 8.31456470489502
459,1945259293,0.40688714,0.52676696,-0.4132819,0.6214158,5.790596008300781,4.530625343322754,-2.906454086303711,4.937891483306885,-131.29879760742188, 20.110815048217773
460,1945275960,0.39750564,0.5371241,-0.4218379,0.61281306,4.4152140617370605,4.199000358581543,-0.8290467262268066,4.416890621185303,-123.76636505126953, 18.597810745239258
461,1945292627,0.389543,0.54506487,-0.4297753,0.60535437,1.5987452268600464,-1.996104121208191,-3.607401132583618,-1.49212646484375,-103.61900329589844, 20.571269989013672
462,1945309294,0.3857081,0.5492636,-0.43864912,0.59760004,-0.16163109242916107,-1.8626368045806885,-4.030829429626465,-31.71914291381836,-79.44995880126953, 17.092344284057617
463,1945325961,0.38548884,0.5505881,-0.44756985,0.5898581,0.7638962864875793,-2.110732316970825,-3.421901226043701,-53.1245231628418,-56.79222106933594, 11.061694145202637
464,1945342628,0.38616145,0.55089515,-0.45451733,0.58378756,0.34251734614372253,-1.4544121026992798,-3.064199209213257,-46.0343132019043,-38.36400604248047, 7.486451625823975
465,1945359295,0.3854156,0.5521523,-0.45811906,0.580267,0.08677738159894943,-1.3981398344039917,-2.2148497104644775,-16.73242950439453,-28.075593948364258, 4.2680206298828125
466,1945375962,0.3840035,0.55449224,-0.45919597,0.5781167,0.4455627202987671,0.8873239159584045,-0.7220883965492249,3.056504011154175,-22.633270263671875, -2.4913008213043213
467,1945392629,0.3848232,0.5557518,-0.46261534,0.5736186,0.2499798834323883,0.7632395625114441,0.1351161152124405,-25.037595748901367,-26.50535011291504, -5.20186185836792
468,1945409296,0.38613287,0.5569685,-0.4673755,0.56766874,-0.31963303685188293,-0.4110916554927826,-0.5028089880943298,-36.93964385986328,-33.97429275512695, -5.692396640777588
469,1945425963,0.38645905,0.5592725,-0.47120404,0.5619881,-0.5194574594497681,-0.6581282019615173,-0.3540351688861847,-25.793289184570312,-37.94947814941406, -8.214095115661621
470,1945442630,0.38627225,0.56244814,-0.47443283,0.556201,0.14924933016300201,-0.1131218671798706,0.6074658632278442,-19.541187286376953,-41.869529724121094, -11.670367240905762
471,1945459297,0.38521117,0.56638634,-0.47777575,0.5500448,0.2293815165758133,-1.4846233129501343,0.5278868079185486,-15.787827491760254,-49.46997833251953, -11.364251136779785
472,1945475964,0.3822175,0.57178754,-0.4799258,0.54464686,-0.008941189385950565,-0.6378048658370972,0.9657580256462097,2.6032207012176514,-55.33283996582031, -11.551894187927246
473,1945492631,0.37748414,0.57851064,-0.48111057,0.53978133,0.5947083830833435,0.5707730054855347,0.9938750863075256,18.276065826416016,-61.49372482299805, -11.831053733825684
474,1945509298,0.37192088,0.58578724,-0.48272815,0.5343237,0.5264538526535034,1.1857250928878784,1.3731569051742554,19.43965721130371,-69.8688735961914, -10.399311065673828
475,1945525965,0.36556175,0.5936931,-0.48537773,0.5275432,0.4485780596733093,-0.21473819017410278,1.6378746032714844,16.067401885986328,-82.89414978027344, -8.774826049804688
476,1945542632,0.35755184,0.6031338,-0.48787054,0.51997,0.11143481731414795,-0.7465402483940125,2.0663065910339355,24.57940673828125,-96.92095184326172, -10.565936088562012
477,1945559299,0.34752345,0.6142655,-0.48956499,0.5120856,0.18929623067378998,-1.1575050354003906,2.1223692893981934,38.906471252441406,-109.18133544921875, -13.140738487243652
478,1945575966,0.33708858,0.6258027,-0.49185273,0.5028155,0.9051293134689331,-0.14895033836364746,1.5222188234329224,34.82356262207031,-119.36141967773438, -13.931977272033691
479,1945592633,0.3276118,0.6368162,-0.49561235,0.49143082,1.9809130430221558,0.2841031551361084,0.7167577743530273,17.240385055541992,-126.91559600830078, -14.05756950378418
480,1945609300,0.3190429,0.64734995,-0.5004829,0.47819096,2.5364174842834473,0.5636686682701111,2.2118923664093018,2.1064634323120117,-132.9010772705078, -14.801345825195312
481,1945625967,0.310761,0.6579576,-0.50585407,0.4632831,2.3041293621063232,0.6411187648773193,2.6766088008880615,-6.397123336791992,-140.8081817626953, -17.4166316986084
482,1945642634,0.30246103,0.6688508,-0.5115925,0.44657502,3.004392147064209,0.5120353698730469,2.9232897758483887,-13.138309478759766,-150.8490753173828, -20.52126693725586
483,1945659301,0.29350471,0.68032736,-0.5174256,0.42811286,3.6385278701782227,0.8226693272590637,3.5504872798919678,-15.367816925048828,-163.36756896972656, -23.75813102722168
484,1945675968,0.2851978,0.6919652,-0.52370787,0.40691108,5.053835868835449,1.7546236515045166,4.61027717590332,-29.140972137451172,-175.43365478515625, -29.657215118408203
485,1945692635,0.2793907,0.7023417,-0.53205657,0.38154027,7.003544807434082,2.8133537769317627,7.5938334465026855,-64.28443908691406,-187.02267456054688, -30.412302017211914
486,1945709302,0.273297,0.71270967,-0.54085153,0.3533178,8.429410934448242,1.054142713546753,8.701337814331055,-74.4773941040039,-203.02566528320312, -32.90284729003906
487,1945725969,0.26267603,0.7247457,-0.5452998,0.3292316,8.66754150390625,1.229933738708496,8.176508903503418,-23.17794418334961,-195.8549041748047, -41.643646240234375
488,1945742636,0.2524338,0.736546,-0.5467441,0.30797452,9.272650718688965,0.43131062388420105,6.676259994506836,-8.041563034057617,-174.72903442382812, -51.47478103637695
489,1945759303,0.24304575,0.7479125,-0.5455694,0.28967124,10.924545288085938,-2.7217183113098145,8.23731803894043,3.567394495010376,-151.40699768066406, -59.81329345703125
490,1945775970,0.233429,0.7599371,-0.5400731,0.27627435,11.645478248596191,-2.788194179534912,11.363462448120117,32.846885681152344,-121.50028228759766, -75.9391860961914
491,1945792637,0.23001802,0.76976293,-0.53657615,0.2581531,6.802797317504883,-4.04419469833374,12.540878295898438,-24.445240020751953,-122.62789154052734, -76.78870391845703
492,1945809304,0.2260252,0.77765465,-0.53598803,0.23850152,4.0288214683532715,-10.328958511352539,1.9179587364196777,-35.25170135498047,-134.37953186035156, -55.777923583984375
493,1945825971,0.22120436,0.78307176,-0.5380626,0.21990034,9.687825202941895,-8.371539115905762,-2.8465774059295654,-35.361968994140625,-131.91578674316406, -29.66900062561035
494,1945842638,0.21870913,0.78472376,-0.54117817,0.20856954,5.620907783508301,-8.452507972717285,11.899673461914062,-28.47248077392578,-80.1310806274414, -2.7899343967437744
495,1945859305,0.22511016,0.7831057,-0.5442363,0.19969432,-1.1308715343475342,2.2032954692840576,16.782079696655273,-72.31298065185547,-29.251392364501953, -0.188154935836792
496,1945875972,0.24621598,0.77510184,-0.5512887,0.18621433,-0.19950789213180542,-2.481626033782959,10.920409202575684,-183.99261474609375,3.4405009746551514, 17.85743522644043
497,1945892639,0.2639303,0.76673543,-0.55543685,0.1842482,-0.20778782665729523,-5.14862585067749,9.439680099487305,-119.16925048828125,57.304420471191406, 27.43947982788086
498,1945909306,0.27535415,0.7594968,-0.55589885,0.1957586,-0.4268309772014618,-4.351380825042725,9.705381393432617,-27.876310348510742,109.57177734375, 35.99949264526367
499,1945925973,0.28253558,0.75240016,-0.5534788,0.21846971,-0.9449921250343323,-4.9782280921936035,8.9478178024292,41.218040466308594,157.07632446289062, 47.28524398803711
500,1945942640,0.28871372,0.7442088,-0.54870844,0.24842843,-1.5460652112960815,-3.909505844116211,7.849119663238525,75.36958312988281,196.93492126464844, 54.87472152709961
501,1945959307,0.29629844,0.7340282,-0.5418568,0.2824905,-1.1104650497436523,-2.491166114807129,6.3515753746032715,83.25679016113281,230.7623748779297, 57.50111770629883
502,1945975974,0.30706885,0.7207597,-0.53364617,0.3184905,-0.7780758738517761,-0.5608561038970947,4.792911052703857,70.7610855102539,261.185302734375, 59.95556640625
503,1945992641,0.3237029,0.7033888,-0.52524716,0.3529533,-0.01556774228811264,1.302820086479187,3.2621326446533203,27.844594955444336,284.4945983886719, 58.044185638427734
504,1946009308,0.34569916,0.6814757,-0.51711637,0.3855823,1.0047465562820435,1.9270398616790771,1.2977780103683472,-15.421158790588379,305.4793395996094, 58.7093505859375
505,1946025975,0.3711118,0.654917,-0.5092626,0.417147,2.898724317550659,1.7768808603286743,-0.8269525170326233,-46.95004653930664,324.402099609375, 64.98950958251953
506,1946042642,0.39760676,0.624416,-0.50112426,0.4482055,4.277095794677734,1.2449252605438232,-1.9317150115966797,-62.80064010620117,338.0859375, 73.13570404052734
507,1946059309,0.42278492,0.59096414,-0.4922339,0.47929135,5.989340782165527,0.2100319266319275,-3.0858771800994873,-62.77875518798828,344.96990966796875, 84.21949005126953
508,1946075976,0.44359067,0.55635244,-0.48123756,0.5119667,7.998862266540527,-1.7169287204742432,-5.215333461761475,-36.0358772277832,346.7491760253906, 98.61406707763672
509,1946092643,0.4580204,0.5241432,-0.4651533,0.54692227,9.279145240783691,-1.0376098155975342,-10.317924499511719,21.1820068359375,341.6623229980469, 100.57353973388672
510,1946109310,0.46730793,0.4956928,-0.44362506,0.5823306,10.406877517700195,1.758481502532959,-12.459219932556152,73.53617095947266,330.2539978027344, 89.73065185546875
511,1946125977,0.4755767,0.47051018,-0.42255417,0.61146975,8.960010528564453,4.328403949737549,-13.13900375366211,66.59292602539062,291.6771545410156, 65.37779998779297
512,1946142644,0.4832415,0.44847664,-0.40799725,0.63157326,6.29086971282959,1.2280305624008179,-17.53404426574707,25.20691680908203,226.63372802734375, 50.47686767578125
513,1946159311,0.48689488,0.43344375,-0.40099275,0.643634,-1.3293604850769043,4.255549430847168,-23.019269943237305,5.528713226318359,135.70645141601562, 44.904876708984375
514,1946175978,0.4868232,0.42893037,-0.40428576,0.6446513,-4.163586616516113,4.854693412780762,-23.282360076904297,-41.41804504394531,12.97243595123291, 27.498939514160156
515,1946192645,0.4813114,0.43768176,-0.41175544,0.63814694,-0.6975671648979187,2.5091938972473145,-21.604713439941406,-18.13393211364746,-96.4418716430664, 2.018432378768921
516,1946209312,0.46826592,0.45719096,-0.4191506,0.6292983,1.3128042221069336,1.5023115873336792,-16.413015365600586,35.57065200805664,-171.21774291992188, -2.9540138244628906
517,1946225979,0.44784337,0.48326975,-0.4167797,0.626244,6.8009490966796875,3.0197601318359375,5.860071659088135,152.15887451171875,-171.468017578125, -3.6042463779449463
518,1946242646,0.4289522,0.5073149,-0.40995136,0.6249574,6.343643665313721,12.443109512329102,5.252381801605225,165.00328063964844,-138.9546661376953, -13.740569114685059
519,1946259313,0.42066288,0.5223247,-0.4195787,0.6116971,8.545684814453125,9.161584854125977,-7.111670970916748,-3.2081174850463867,-160.74444580078125, -11.429969787597656
520,1946275980,0.40853655,0.5368658,-0.43379107,0.5972424,9.484794616699219,-5.81899881362915,-10.434930801391602,-13.523690223693848,-187.20497131347656, 19.338409423828125
521,1946292647,0.3925636,0.5558743,-0.43617052,0.5887725,3.739088296890259,4.676572799682617,2.8549489974975586,79.73786163330078,-161.40924072265625, -5.250114917755127
522,1946309314,0.38318548,0.5693609,-0.4436508,0.57634294,1.749933123588562,0.5609497427940369,-1.6035387516021729,7.084620475769043,-148.35491943359375, -6.484692573547363
523,1946325981,0.37545425,0.5799416,-0.44992265,0.56592554,-0.015320844948291779,-1.3928146362304688,-3.1454951763153076,3.916121006011963,-120.78875732421875, -3.5808656215667725
524,1946342648,0.37041962,0.5875058,-0.45595267,0.55653703,0.2958458662033081,-3.644066095352173,-4.529032230377197,-10.489910125732422,-95.966552734375, -3.1076905727386475
525,1946359315,0.3647828,0.5949733,-0.4570635,0.55139244,0.5861265063285828,-0.5970966815948486,-4.690434455871582,23.824676513671875,-67.75367736816406, -9.684046745300293
526,1946375982,0.3599179,0.6014666,-0.45654097,0.5479667,0.6690086722373962,2.862025022506714,-2.3819243907928467,29.815258026123047,-50.443111419677734, -11.961974143981934
527,1946392649,0.3569736,0.606266,-0.45754963,0.54374605,1.0659080743789673,1.864940881729126,-1.7159792184829712,9.417305946350098,-45.12294006347656, -9.45530891418457
528,1946409316,0.35331535,0.6115825,-0.45752093,0.5401943,0.6371030807495117,0.6092372536659241,-1.0823543071746826,19.64224624633789,-44.00454330444336, -11.06033706665039
529,1946425983,0.34956983,0.61716044,-0.45729694,0.53646386,0.004994546994566917,-0.16125743091106415,-0.5548485517501831,20.80068588256836,-45.58013916015625, -12.818585395812988
530,1946442650,0.34726632,0.621769,-0.45854476,0.53155065,-0.16037780046463013,-0.06700315326452255,-0.0022511526476591825,3.1941661834716797,-46.09281921386719, -11.709465026855469
531,1946459317,0.34672377,0.6250438,-0.46146578,0.5255021,-0.6623170375823975,-0.6232107877731323,-0.21807324886322021,-17.222097396850586,-44.594913482666016, -9.505438804626465
532,1946475984,0.34546685,0.629122,-0.46356258,0.5195846,-0.5761517882347107,-0.7075480818748474,-0.1797759234905243,-8.853926658630371,-47.301753997802734, -12.723617553710938
533,1946492651,0.3438047,0.63386875,-0.46507028,0.51353544,0.2618485391139984,-0.2201700657606125,0.12126795202493668,-3.840226411819458,-50.215179443359375, -16.293590545654297
534,1946509318,0.34175506,0.6388426,-0.4661109,0.5077641,0.815517246723175,0.4381960332393646,-0.05394602566957474,0.9105469584465027,-50.01569747924805, -17.042028427124023
535,1946525985,0.3398338,0.64359695,-0.46735546,0.5018714,0.8062456846237183,0.7700024843215942,0.4584871828556061,-1.2779450416564941,-49.92059326171875, -16.169145584106445
536,1946542652,0.33853772,0.6479909,-0.46938947,0.49515027,1.2554126977920532,0.3360863924026489,1.252461314201355,-10.276029586791992,-52.26151657104492, -15.593168258666992
537,1946559319,0.33698383,0.65286475,-0.47197944,0.48728338,0.9775865077972412,-0.8252384662628174,2.1049838066101074,-13.606629371643066,-61.23576736450195, -16.446197509765625
538,1946575986,0.3335578,0.6593641,-0.47465616,0.47820482,0.9701170325279236,-0.41054001450538635,3.34485125541687,-5.6731390953063965,-78.52716064453125, -17.89226722717285
539,1946592653,0.32796404,0.66744065,-0.4779232,0.46749556,1.0845476388931274,0.329744428396225,3.288883686065674,0.5008679628372192,-99.69788360595703, -16.992229461669922
540,1946609320,0.32028472,0.6768377,-0.48151112,0.45547307,1.0867791175842285,0.39142298698425293,2.9487335681915283,7.701514720916748,-117.70259094238281, -16.114742279052734
541,1946625987,0.31112465,0.68708897,-0.48572877,0.44178942,1.5176420211791992,0.45575350522994995,2.8166141510009766,9.00497817993164,-134.5390625, -15.03122329711914
542,1946642654,0.30223992,0.69712996,-0.49104977,0.42606464,2.457221269607544,0.38613784313201904,2.8595409393310547,-2.908129930496216,-145.12257385253906, -14.315919876098633
543,1946659321,0.29348192,0.706914,-0.49797177,0.4076335,3.1657752990722656,0.7229827642440796,4.002504825592041,-17.872028350830078,-160.3925018310547, -11.766292572021484
544,1946675988,0.28403145,0.71690273,-0.50605243,0.3863776,3.9039907455444336,1.020167589187622,6.145646572113037,-26.998933792114258,-179.6001434326172, -10.584671020507812
545,1946692655,0.27332383,0.7273225,-0.514922,0.3621485,5.665864944458008,1.5720105171203613,7.0927228927612305,-32.380184173583984,-201.58059692382812, -10.649460792541504
546,1946709322,0.2628721,0.7369056,-0.5249379,0.33512506,8.439862251281738,2.77899432182312,8.831443786621094,-47.94700622558594,-215.03184509277344, -7.8247270584106445
547,1946725989,0.25527593,0.74442875,-0.5361832,0.30523407,10.624551773071289,3.0314009189605713,9.707870483398438,-79.26609802246094,-217.13134765625, -5.893671035766602
548,1946742656,0.25370955,0.7491239,-0.5475197,0.27325305,13.5410737991333,1.4848291873931885,13.248329162597656,-122.92022705078125,-200.2770538330078, -11.334023475646973
549,1946759323,0.25497684,0.7519152,-0.5583243,0.24059182,11.5463285446167,-2.4008708000183105,11.592629432678223,-142.34710693359375,-189.19351196289062, -13.502363204956055
550,1946775990,0.24889421,0.75873953,-0.5625172,0.21433792,7.865940093994141,-1.51458740234375,6.931561470031738,-61.74046325683594,-179.8170623779297, -39.949371337890625
551,1946792657,0.24528474,0.7654549,-0.5646331,0.1873601,4.808073997497559,-4.332086563110352,-0.19941142201423645,-74.56338500976562,-170.56080627441406, -55.371131896972656
552,1946809324,0.24185225,0.77056,-0.566104,0.1651409,6.891899585723877,-7.719083786010742,3.499398946762085,-58.986019134521484,-141.67625427246094, -44.86485290527344
553,1946825991,0.24032095,0.7740364,-0.56520903,0.15379402,2.142732620239258,-5.563436985015869,16.08225440979004,-26.90437126159668,-71.0279541015625, -35.32942199707031
554,1946842658,0.24389407,0.7755256,-0.56298095,0.14875576,-1.6852781772613525,-0.72197026014328,15.755857467651367,-31.451946258544922,-13.538893699645996, -29.78235626220703
555,1946859325,0.25362766,0.7742484,-0.56049675,0.14851244,-1.6855418682098389,-4.076545715332031,12.280827522277832,-50.02822494506836,39.03700256347656, -18.709726333618164
556,1946875992,0.26339695,0.77234817,-0.55612236,0.15756999,-0.9013357162475586,-3.7915196418762207,9.906729698181152,-13.5319185256958,92.5805892944336, -10.24018669128418
557,1946892659,0.27374122,0.76948273,-0.5503195,0.17352495,-0.1360778957605362,-3.2271759510040283,7.887963771820068,9.588495254516602,135.0132598876953, -2.291959285736084
558,1946909326,0.2844013,0.76542956,-0.54307234,0.19571878,0.30165359377861023,-3.4602015018463135,6.260635852813721,31.018983840942383,173.33181762695312, 5.923040866851807
559,1946925993,0.29682747,0.7592568,-0.5349558,0.22191228,0.43949687480926514,-2.3705551624298096,5.632258415222168,33.677955627441406,205.51837158203125, 14.70788860321045
560,1946942660,0.31304425,0.7496297,-0.52738845,0.24883765,0.8877217173576355,-1.2730385065078735,5.137289047241211,8.700302124023438,227.42359924316406, 25.996593475341797
561,1946959327,0.33390242,0.7354899,-0.52158093,0.27480412,1.5762526988983154,-0.7950034141540527,3.285837411880493,-31.412487030029297,243.23367309570312, 41.430450439453125
562,1946975994,0.35777166,0.7173655,-0.51680106,0.300505,1.7658021450042725,0.12842418253421783,1.595435380935669,-58.67842102050781,257.8804016113281, 54.59479904174805
563,1946992661,0.38407916,0.6948902,-0.51387,0.32488212,1.5292086601257324,0.35060304403305054,0.18994466960430145,-89.93650817871094,264.5161437988281, 70.8588638305664
564,1947009328,0.40996918,0.6693059,-0.51168984,0.34946916,1.693996787071228,0.19298940896987915,-1.5841636657714844,-97.09667205810547,269.10687255859375, 86.88875579833984
565,1947025995,0.4333064,0.6420234,-0.5093594,0.37497276,1.50372314453125,0.1388302445411682,-2.373255968093872,-86.57164001464844,268.98638916015625, 100.86512756347656
566,1947042662,0.45239452,0.6144476,-0.505685,0.40258706,1.9454123973846436,-0.10394008457660675,-3.24075984954834,-57.85385513305664,268.3407287597656, 113.1941146850586
567,1947059329,0.46638623,0.5878567,-0.4985228,0.4340318,2.6833343505859375,0.5329396724700928,-4.437027454376221,-10.302844047546387,275.10247802734375, 121.0660171508789
568,1947075996,0.47458142,0.5640603,-0.48518217,0.4703263,3.2298049926757812,1.7459498643875122,-5.882746696472168,57.1466064453125,286.514404296875, 119.42749786376953
569,1947092663,0.48005822,0.5436357,-0.46499774,0.5077221,3.7013168334960938,4.093119144439697,-7.387109279632568,104.5008544921875,293.3823547363281, 94.1392822265625
570,1947109330,0.4842345,0.526267,-0.43986332,0.54321307,5.882059574127197,3.2016704082489014,-10.192811965942383,130.64208984375,288.0557861328125, 64.30538177490234
571,1947125997,0.48632285,0.5128472,-0.4117054,0.5753055,8.005033493041992,1.1797754764556885,-11.281989097595215,152.35000610351562,265.1236572265625, 38.057655334472656
572,1947142664,0.48530415,0.5022229,-0.38774806,0.6015842,5.224846363067627,2.0449538230895996,-16.320369720458984,139.55638122558594,211.11183166503906, 37.88499450683594
573,1947159331,0.48402485,0.49304742,-0.37509328,0.6180044,0.0531577467918396,7.455516815185547,-18.883363723754883,72.21817779541016,133.213134765625, 41.30558395385742
574,1947175998,0.48309928,0.48992124,-0.37249273,0.62276936,-1.5069780349731445,6.087024211883545,-22.487367630004883,18.301218032836914,36.05940628051758, 19.700820922851562
575,1947192665,0.47805044,0.49872935,-0.37340578,0.61911637,-2.107239007949829,3.575357675552368,-23.286174774169922,35.17532730102539,-64.934814453125, -9.173955917358398
576,1947209332,0.46670353,0.51726764,-0.37657166,0.6105866,1.2951719760894775,1.3979263305664062,-18.772052764892578,66.62125396728516,-145.97457885742188, -15.579812049865723
577,1947225999,0.45363808,0.53561085,-0.37946564,0.60277665,7.50278902053833,-2.195589542388916,8.772407531738281,75.10760498046875,-145.62930297851562, -6.530333518981934
578,1947242666,0.44400448,0.54826975,-0.38372904,0.5958291,3.3809518814086914,6.141808986663818,7.536291599273682,41.341270446777344,-114.53751373291016, 1.70451819896698
579,1947259333,0.44183823,0.5560284,-0.39960846,0.57959,5.876603126525879,2.648012399673462,-9.529226303100586,-73.88922119140625,-145.56488037109375, -0.36651375889778137
580,1947276000,0.43558976,0.56580776,-0.4135567,0.5648843,6.931172847747803,-1.2929902076721191,-5.135837078094482,-40.22658157348633,-152.8538818359375, 7.716949462890625
581,1947292667,0.42458418,0.5780887,-0.4226225,0.5540143,3.83502459526062,-0.4523138403892517,-3.496319532394409,15.675865173339844,-146.45297241210938, 11.527863502502441
582,1947309334,0.41346985,0.59052557,-0.4291976,0.5441616,2.674542188644409,3.1140222549438477,-0.11136908829212189,29.028470993041992,-136.01217651367188, 4.518983364105225
583,1947326001,0.4053404,0.59988815,-0.43677837,0.5339085,0.8003665804862976,-0.706567645072937,-2.8724780082702637,3.2402937412261963,-120.26258087158203, 5.43093204498291
584,1947342668,0.39960304,0.6063952,-0.44340232,0.525354,-0.30298909544944763,-1.347882866859436,-4.093167304992676,-5.953765869140625,-92.90963745117188, 5.97802734375
585,1947359335,0.39777902,0.60925037,-0.45076305,0.51710594,0.16328559815883636,-1.6085363626480103,-3.34936261177063,-34.021968841552734,-68.48347473144531, 6.850661754608154
586,1947376002,0.39712742,0.6109446,-0.45646936,0.51056075,0.9256533980369568,0.2952786386013031,-2.182050943374634,-30.94387435913086,-49.040679931640625, 3.9711360931396484
587,1947392669,0.3964158,0.6125867,-0.4608445,0.50518787,0.5698837041854858,0.7248116135597229,-1.1251481771469116,-22.474700927734375,-40.5037841796875, 1.9667179584503174
588,1947409336,0.39423501,0.6156538,-0.46318942,0.50100386,-0.012602338567376137,-0.29864656925201416,-1.7319371700286865,-1.581119179725647,-39.6145133972168, -2.7409584522247314
589,1947426003,0.3900191,0.62065846,-0.4628996,0.49838972,-0.18455418944358826,-0.12057867646217346,-0.5638213157653809,26.358657836914062,-39.002655029296875, -8.825272560119629
590,1947442670,0.3853287,0.6264633,-0.4621037,0.49550566,-0.584126353263855,0.13875281810760498,-0.7122753858566284,31.40061378479004,-43.10243225097656, -12.660285949707031
591,1947459337,0.38014057,0.63272434,-0.46123862,0.49235365,-0.6498989462852478,0.03554018586874008,-0.44511157274246216,34.13302230834961,-47.251285552978516, -13.444825172424316
592,1947476004,0.37459248,0.63956153,-0.4603196,0.48861825,-0.06445449590682983,-0.1009143814444542,0.1188383474946022,35.532440185546875,-52.78837966918945, -15.838288307189941
593,1947492671,0.36853087,0.6467292,-0.4590709,0.48495385,0.17534036934375763,-0.196290522813797,0.7809656262397766,39.968544006347656,-54.429466247558594, -16.456193923950195
594,1947509338,0.36317027,0.65331984,-0.45874146,0.48045498,0.44890767335891724,0.150201678276062,0.9206580519676208,29.685379028320312,-56.419769287109375, -15.027324676513672
595,1947526005,0.35918525,0.6592026,-0.4596241,0.4745353,0.5236823558807373,0.31834521889686584,1.2765940427780151,13.251699447631836,-59.24141311645508, -15.453059196472168
596,1947542672,0.3554482,0.6650844,-0.46103597,0.46772343,0.3009142577648163,-0.45343661308288574,1.6131949424743652,7.579087734222412,-63.90398025512695, -16.06626319885254
597,1947559339,0.35037154,0.67197907,-0.46264303,0.4600497,-0.054513972252607346,-0.7124117612838745,2.1238763332366943,12.815089225769043,-75.92817687988281, -16.20358657836914
598,1947576006,0.34432662,0.67965084,-0.4649294,0.4509488,0.22066740691661835,-0.06421282887458801,2.5657401084899902,12.467463493347168,-89.80859375, -15.937966346740723
599,1947592673,0.3376334,0.6877148,-0.46839648,0.44006473,0.7316486835479736,-0.2456507831811905,2.909226894378662,7.0660719871521,-104.34745025634766, -13.894859313964844
600,1947609340,0.32981426,0.6964704,-0.47255674,0.42760023,1.596169352531433,0.5560907125473022,2.300147771835327,6.812499046325684,-119.28264617919922, -13.120747566223145
601,1947626007,0.32244894,0.70522845,-0.4776485,0.4129546,1.9315032958984375,1.0789780616760254,2.8371193408966064,-5.175207614898682,-130.4965362548828, -14.93502140045166
602,1947642674,0.31505874,0.714055,-0.48377463,0.39601222,2.1224637031555176,0.46829548478126526,2.9017279148101807,-15.364278793334961,-144.3434600830078, -15.145285606384277
603,1947659341,0.3070862,0.72324485,-0.4906335,0.37668812,2.8097925186157227,-0.11633655428886414,3.9232358932495117,-21.622356414794922,-160.69436645507812, -16.324153900146484
604,1947676008,0.2986762,0.73262113,-0.49840397,0.3544747,4.131960868835449,0.26966723799705505,4.910128116607666,-31.154401779174805,-179.12921142578125, -17.396833419799805
605,1947692675,0.2890209,0.7421995,-0.50689507,0.32964292,5.044944763183594,0.12512825429439545,5.847646713256836,-35.17929458618164,-198.78652954101562, -16.808242797851562
606,1947709342,0.27781767,0.751668,-0.5156684,0.30314833,6.6185102462768555,0.7163299918174744,7.839943885803223,-33.91063690185547,-213.23977661132812, -14.8047513961792
607,1947726009,0.26613674,0.7603946,-0.524534,0.2753831,8.331202507019043,1.857926368713379,9.507307052612305,-37.522579193115234,-220.46311950683594, -13.142316818237305
608,1947742676,0.2565271,0.76736945,-0.53369737,0.24597794,9.257818222045898,2.3726232051849365,9.435258865356445,-57.973609924316406,-219.1885986328125, -12.199457168579102
609,1947759343,0.25048733,0.7729334,-0.54132664,0.21632308,10.898916244506836,0.7936482429504395,11.155011177062988,-77.54068756103516,-202.7030029296875, -21.625904083251953
610,1947776010,0.25025874,0.7757942,-0.54827124,0.1868491,9.690226554870605,-1.5766710042953491,11.6149320602417,-111.33313751220703,-175.35885620117188, -23.625476837158203
611,1947792677,0.2495335,0.77970344,-0.5520451,0.15824664,6.942821979522705,-2.688542604446411,5.044239521026611,-99.49845123291016,-168.87001037597656, -42.5118522644043
612,1947809344,0.24720159,0.78479445,-0.5525334,0.13302657,5.433923721313477,-5.02318811416626,-1.9929782152175903,-72.4657211303711,-152.66278076171875, -57.20912551879883
613,1947826011,0.24026394,0.7901461,-0.5511478,0.11907379,6.466902256011963,-6.6536545753479,6.690287113189697,-2.764124870300293,-106.42811584472656, -45.083770751953125
614,1947842678,0.23284993,0.79464793,-0.5476864,0.11981457,0.8425833582878113,-3.8254809379577637,18.6900634765625,55.7021369934082,-24.480880737304688, -28.590402603149414
615,1947859345,0.23665708,0.7951704,-0.54472214,0.12237343,-1.3351138830184937,0.23143401741981506,15.914719581604004,-5.489887714385986,29.978544235229492, -17.238367080688477
616,1947876012,0.24724133,0.79234636,-0.5426487,0.128809,-0.6002413034439087,-5.616392135620117,10.110285758972168,-34.100093841552734,77.82844543457031, 0.8006925582885742
617,1947892679,0.25815085,0.78880584,-0.53927034,0.14258806,0.3057100474834442,-3.904658317565918,7.835336685180664,-8.589404106140137,121.87321472167969, 8.492781639099121
618,1947909346,0.27053282,0.7839895,-0.5352823,0.16014199,0.7267000079154968,-3.725959539413452,6.419790744781494,-4.267942905426025,150.11279296875, 15.137248039245605
619,1947926013,0.2819666,0.7787514,-0.52988946,0.18236881,0.8868419528007507,-2.6578052043914795,5.0648040771484375,18.78445053100586,174.8664093017578, 18.826021194458008
620,1947942680,0.29398605,0.772396,-0.5235327,0.20709962,1.22728431224823,-0.403395414352417,5.0813164710998535,23.81100082397461,193.66458129882812, 21.85247802734375
621,1947959347,0.3079411,0.76403624,-0.5175427,0.23145342,1.7492996454238892,0.3927202522754669,3.819697618484497,7.638923168182373,200.71099853515625, 27.530488967895508
622,1947976014,0.32275212,0.7540489,-0.51154256,0.2560581,1.5428293943405151,-0.14788563549518585,1.5257591009140015,0.6412689685821533,207.6643829345703, 32.479854583740234
623,1947992681,0.33686447,0.7431547,-0.50486547,0.28169912,0.8019567728042603,-0.21615898609161377,0.6143956780433655,7.099011421203613,213.7113037109375, 35.716861724853516
624,1948009348,0.35162702,0.73068994,-0.4979768,0.30735978,0.1757471114397049,0.03312905505299568,0.5034598708152771,0.614972710609436,219.66790771484375, 38.90500259399414
625,1948026015,0.368719,0.71556413,-0.4918533,0.3318053,-0.37896090745925903,0.1413438618183136,0.19710668921470642,-23.302732467651367,225.39524841308594, 44.0269775390625
626,1948042682,0.3888964,0.69686717,-0.48721635,0.35462093,-0.640223503112793,0.1553800404071808,-0.14365148544311523,-56.45161056518555,232.29295349121094, 52.260250091552734
627,1948059349,0.4110464,0.6747803,-0.48365474,0.37655097,-0.35882246494293213,0.038025207817554474,-0.9185464382171631,-80.57503509521484,240.16412353515625, 61.59077453613281
628,1948076016,0.4331804,0.6502357,-0.4797804,0.3991979,0.45827382802963257,0.12122850120067596,-1.7016695737838745,-84.26892852783203,250.81954956054688, 70.36155700683594
629,1948092683,0.45396096,0.6233083,-0.47528866,0.4236826,1.8377256393432617,-0.007959939539432526,-3.8141374588012695,-77.58021545410156,263.0933532714844, 84.64185333251953
630,1948109350,0.47152448,0.59507567,-0.46934786,0.45084634,3.151479482650757,0.28994229435920715,-5.8609466552734375,-54.912330627441406,272.5779113769531, 100.42162322998047
631,1948126017,0.48680708,0.56682247,-0.4605513,0.47919074,4.116023540496826,2.797075033187866,-5.981232166290283,-33.005619049072266,279.61297607421875, 99.71147918701172
632,1948142684,0.49947557,0.54039353,-0.44810423,0.5076435,5.607800483703613,2.4197731018066406,-8.411378860473633,-4.350869655609131,278.20501708984375, 88.77217864990234
633,1948159351,0.5076394,0.5204298,-0.42984056,0.53543675,6.61787223815918,2.3645176887512207,-10.921849250793457,52.85834884643555,259.5931091308594, 60.785274505615234
634,1948176018,0.5106102,0.50707567,-0.409953,0.5604375,5.70673942565918,0.5914912819862366,-14.010072708129883,92.22080993652344,215.973876953125, 44.911285400390625
635,1948192685,0.5092624,0.49857688,-0.39470312,0.57989883,0.17713220417499542,6.244711399078369,-18.091808319091797,90.8235855102539,149.97750854492188, 44.62936019897461
636,1948209352,0.5081736,0.49346796,-0.39307627,0.5862937,-3.3879809379577637,6.381952285766602,-21.45076560974121,11.960272789001465,45.269264221191406, 35.538970947265625
637,1948226019,0.5039545,0.4986666,-0.398474,0.5818763,-2.0463733673095703,5.461029529571533,-21.426395416259766,0.9930898547172546,-65.2935791015625, 6.557827949523926
638,1948242686,0.49419975,0.51369315,-0.40831318,0.5702337,2.685987710952759,3.0807836055755615,-15.331448554992676,16.41771125793457,-159.2953338623047, -7.860418319702148
639,1948259353,0.4773493,0.5341144,-0.41026786,0.5643932,9.1217622756958,2.007431745529175,10.451678276062012,107.00932312011719,-152.6216278076172, -3.2645723819732666
640,1948276020,0.45974404,0.5561335,-0.40738413,0.55981183,7.928022861480713,12.909402847290039,0.8355230689048767,137.3638153076172,-140.82598876953125, -18.51238441467285
641,1948292687,0.4494387,0.569733,-0.41901705,0.5457417,6.387081623077393,1.4950447082519531,-6.11000919342041,0.3343246877193451,-170.1916961669922, 2.8059332370758057
642,1948309354,0.43093413,0.5875068,-0.42703724,0.5355099,8.392824172973633,-4.324152946472168,-13.087150573730469,70.00755310058594,-183.13058471679688, 19.25712776184082
643,1948326021,0.4159029,0.60446167,-0.43333447,0.5233282,4.696892261505127,6.378332614898682,4.1610331535339355,54.19839096069336,-172.31924438476562, -4.057224273681641
644,1948342688,0.40607864,0.6156193,-0.4426989,0.51003003,-0.016760624945163727,-0.6204736828804016,-2.758960485458374,1.643895149230957,-149.5751495361328, 4.181533336639404
645,1948359355,0.39871815,0.62372214,-0.45133886,0.498285,-0.3176196813583374,-2.5426573753356934,-5.494463920593262,-10.02413272857666,-122.7468490600586, 6.074729919433594
646,1948376022,0.3904395,0.631705,-0.45457497,0.4918006,-0.545749306678772,-1.9225308895111084,-5.507681846618652,28.43123435974121,-87.69990539550781, 0.7432451248168945
647,1948392689,0.38432726,0.63793296,-0.45620775,0.4870406,0.6324688196182251,-0.38394254446029663,-4.348901271820068,25.119060516357422,-63.092308044433594, -3.5180130004882812
648,1948409356,0.379754,0.6427715,-0.45726913,0.4832565,0.7696554064750671,2.5669891834259033,-1.6646778583526611,19.670515060424805,-47.76403045654297, -4.279065132141113
649,1948426023,0.3777658,0.64593536,-0.46021113,0.47777233,0.5750784277915955,0.259039968252182,-1.296276330947876,-7.708509922027588,-46.52886962890625, -3.6725828647613525
650,1948442690,0.3744862,0.65000576,-0.4614348,0.47363564,0.4567815363407135,0.4223138391971588,-0.7754638195037842,10.291505813598633,-43.1889762878418, -6.437605381011963
651,1948459357,0.37350568,0.6523196,-0.46454114,0.46816048,0.3092663288116455,0.387328565120697,0.5102944374084473,-14.880631446838379,-41.06200408935547, -3.3833961486816406
652,1948476024,0.3727903,0.6544647,-0.46794954,0.46230584,-0.8407361507415771,-0.34179577231407166,-0.8196345567703247,-18.683067321777344,-42.24658203125, -3.309966802597046
653,1948492691,0.37112394,0.6575736,-0.47049004,0.4566216,-1.0904266834259033,-0.668075442314148,-0.7075229287147522,-8.629150390625,-45.41714096069336, -6.869851589202881
654,1948509358,0.36882007,0.6612818,-0.47252348,0.45099857,-0.7329021096229553,-0.5117833018302917,-0.8094652891159058,-2.431267738342285,-47.82740020751953, -8.970438003540039
655,1948526025,0.36785147,0.6640555,-0.475544,0.44449246,0.3714034855365753,0.7270467877388,0.5054486989974976,-16.806041717529297,-47.144344329833984, -7.84588098526001
656,1948542692,0.36746743,0.66631186,-0.47948062,0.4371439,0.4816116988658905,0.5166665315628052,0.5546625852584839,-26.332834243774414,-49.90348434448242, -5.8662590980529785
657,1948559359,0.36619127,0.66925234,-0.48303518,0.42974693,0.8096773028373718,0.2865738272666931,1.188080072402954,-19.520950317382812,-54.24391174316406, -7.302023887634277
658,1948576026,0.36459377,0.6726973,-0.48653063,0.42170808,0.8877760171890259,0.0801204964518547,1.3644230365753174,-18.724905014038086,-59.71366882324219, -9.911539077758789
659,1948592693,0.3621364,0.6770831,-0.4896102,0.413156,1.1425262689590454,-0.6068534851074219,1.527162790298462,-12.897031784057617,-66.75928497314453, -13.78105640411377
660,1948609360,0.35904965,0.6819091,-0.49306864,0.40369126,0.9928603768348694,-0.5353975892066956,1.5271590948104858,-13.021377563476562,-75.43458557128906, -14.010457992553711
661,1948626027,0.35514823,0.68743664,-0.496993,0.39280906,1.5920369625091553,0.37720566987991333,2.5483808517456055,-13.570320129394531,-88.04984283447266, -15.466635704040527
662,1948642694,0.34981793,0.6936928,-0.5013416,0.3808865,1.4892168045043945,0.5979759097099304,3.27817702293396,-9.726336479187012,-100.99988555908203, -14.635475158691406
663,1948659361,0.3426096,0.7008825,-0.506032,0.36785084,1.7009690999984741,0.7879552245140076,2.1985654830932617,-3.2374088764190674,-116.21255493164062, -13.980084419250488
664,1948676028,0.33424783,0.70873946,-0.5110878,0.35320854,1.7831979990005493,0.7347239255905151,3.047910213470459,-2.6017560958862305,-130.64572143554688, -15.405891418457031
665,1948692695,0.32549167,0.7167169,-0.5169412,0.33636868,2.1407392024993896,0.1970931887626648,2.933607339859009,-10.039295196533203,-145.01870727539062, -16.034912109375
666,1948709362,0.31640324,0.7244768,-0.5238891,0.31711635,2.8317322731018066,0.18986530601978302,3.8793540000915527,-19.976961135864258,-160.1863250732422, -14.515586853027344
667,1948726029,0.30611947,0.73262864,-0.53111345,0.2957445,3.923525094985962,0.6545202732086182,4.5347442626953125,-21.387306213378906,-176.69476318359375, -16.574703216552734
668,1948742696,0.29493248,0.74079406,-0.5384754,0.2725497,5.029108047485352,2.056436777114868,5.791795253753662,-23.716495513916016,-189.71534729003906, -17.946306228637695
669,1948759363,0.28386015,0.7480427,-0.54692143,0.24643949,6.251734733581543,2.0898702144622803,7.924752712249756,-38.92179489135742,-204.89212036132812, -15.153325080871582
670,1948776030,0.27288482,0.7544601,-0.5553384,0.21891397,7.483808517456055,2.0398683547973633,7.999842166900635,-46.242103576660156,-210.67945861816406, -15.118401527404785
671,1948792697,0.2645488,0.7593291,-0.5634351,0.18966898,8.63957405090332,2.57423996925354,8.817305564880371,-68.84783172607422,-206.94131469726562, -18.105497360229492
672,1948809364,0.25924987,0.7631736,-0.569408,0.16164835,10.406415939331055,-0.1274363398551941,11.240253448486328,-78.95970916748047,-183.95895385742188, -27.008350372314453
673,1948826031,0.2540013,0.76741445,-0.5726772,0.13637996,10.053038597106934,-2.2567503452301025,8.143807411193848,-64.68128967285156,-165.38729858398438, -38.02822494506836
674,1948842698,0.24549858,0.77468425,-0.5715599,0.11364015,7.946267127990723,-3.3423686027526855,7.607851505279541,-28.150211334228516,-160.3933563232422, -65.7950210571289
675,1948859365,0.23478551,0.7826217,-0.56862605,0.095098786,5.83476448059082,-7.310122489929199,-1.3525354862213135,2.652364730834961,-144.43638610839844, -69.41885375976562
676,1948876032,0.22259541,0.7901012,-0.56453305,0.08656734,8.4674654006958,-5.818999290466309,6.1433281898498535,49.57704544067383,-94.23370361328125, -56.88703918457031
677,1948892699,0.21675685,0.79465365,-0.56051224,0.085839,1.5600107908248901,-3.247736692428589,18.004817962646484,40.74840545654297,-25.812084197998047, -37.07737350463867
678,1948909366,0.22186863,0.7956538,-0.5569371,0.086778805,-1.833374261856079,1.0069587230682373,14.370841026306152,-18.147933959960938,26.74685287475586, -24.94672393798828
679,1948926033,0.23796183,0.7928967,-0.5541056,0.08750011,-1.6020174026489258,-3.508096694946289,9.625629425048828,-85.10090637207031,68.6915054321289, -13.351689338684082
680,1948942700,0.25651467,0.7888977,-0.5503081,0.094877884,-0.7037856578826904,-4.334333419799805,8.664044380187988,-74.6114730834961,116.71875762939453, -4.541451454162598
681,1948959367,0.27482828,0.7847398,-0.5447197,0.10924033,0.07133583724498749,-3.6603477001190186,7.146841049194336,-46.020668029785156,156.97702026367188, -1.2418208122253418
682,1948976034,0.29236528,0.7801515,-0.53762984,0.12977138,1.3137693405151367,-3.761395215988159,5.045839786529541,-18.41742515563965,190.51585388183594, 4.467490196228027
683,1948992701,0.30949765,0.77428806,-0.52968055,0.15533161,1.7964811325073242,-3.155679941177368,4.574456691741943,0.5296900868415833,218.8513946533203, 15.009469032287598
684,1949009368,0.3277035,0.7659584,-0.5220318,0.18275933,2.28542423248291,-1.8397305011749268,4.118564128875732,-3.9610798358917236,234.670166015625, 28.39305305480957
685,1949026035,0.3467921,0.75483316,-0.51515746,0.21112834,2.7800252437591553,-1.948000192642212,2.3728134632110596,-12.495573997497559,244.52500915527344, 43.50896072387695
686,1949042702,0.36534014,0.7416502,-0.5084545,0.24073958,2.411621570587158,-1.7796244621276855,0.4301929175853729,-10.457159042358398,251.6187286376953, 55.41067886352539
687,1949059369,0.38301483,0.7264857,-0.50209475,0.27095973,2.0860519409179688,-1.481449842453003,-0.8307217359542847,-9.447113037109375,254.12432861328125, 67.04468536376953
688,1949076036,0.40094075,0.70871574,-0.49632686,0.30104545,1.9971444606781006,-0.6668485403060913,-1.3111010789871216,-19.17154884338379,257.6907653808594, 78.1663818359375
689,1949092703,0.4199516,0.6877924,-0.49158323,0.33004293,1.852677345275879,-0.24238905310630798,-1.3817179203033447,-39.017452239990234,259.89306640625, 88.66547393798828
690,1949109370,0.43926796,0.6638541,-0.48748657,0.3587454,2.2545793056488037,0.10332907736301422,-2.1520917415618896,-51.662620544433594,264.6164855957031, 100.36652374267578
691,1949126037,0.45659822,0.638355,-0.48244438,0.38893235,2.89593243598938,0.12912337481975555,-4.012904644012451,-40.030914306640625,271.5722351074219, 110.67086791992188
692,1949142704,0.47091284,0.6124126,-0.47478968,0.42162433,3.425063371658325,1.8938071727752686,-4.900872230529785,-12.912835121154785,282.1430969238281, 116.61824035644531
693,1949159371,0.48470193,0.586574,-0.4642452,0.4532897,3.912813901901245,4.2834320068359375,-5.991267204284668,-5.356711387634277,285.3698425292969, 102.38318634033203
694,1949176038,0.49663886,0.56329083,-0.44943872,0.48379573,5.514278411865234,3.5672695636749268,-7.6314215660095215,20.201662063598633,281.2662353515625, 79.09770965576172
