PacketCounter,SampleTimeFine,Quat_W,Quat_X,Quat_Y,Quat_Z,Acc_X,Acc_Y,Acc_Z,Gyr_X,Gyr_Y,Gyr_Z 
1,625394351,0.74330753,-0.061662383,-0.66594374,-0.014521394,0.05454722046852112,-0.3384820818901062,-0.5575219988822937,-0.2197273075580597,-0.19420497119426727, -0.8430143594741821
2,625411018,0.7427978,-0.06041618,-0.6666057,-0.01543758,9.72890567779541,-0.6508347392082214,1.0336942672729492,-0.15015441179275513,-1.9420568943023682, -0.006403173785656691
3,625427685,0.7425611,-0.05955111,-0.66694164,-0.015669927,9.947195053100586,-0.6827743053436279,0.9440324902534485,1.4322686195373535,-1.7445452213287354, 0.4362931549549103
4,625444352,0.7420319,-0.059033792,-0.6675811,-0.015472799,9.931437492370605,-0.5198778510093689,0.9853819012641907,0.7249739766120911,-2.0776383876800537, 0.4471017122268677
5,625461019,0.741664,-0.05824915,-0.66805947,-0.015433331,9.647006034851074,-0.6242930293083191,0.8993247747421265,0.8731560707092285,-1.381062388420105, 0.7283034920692444
6,625477686,0.74124604,-0.057779152,-0.66856754,-0.015283209,9.8561372756958,-0.6681515574455261,0.7803080081939697,2.230756998062134,-1.8025449514389038, 0.9795000553131104
7,625494353,0.7406889,-0.057485096,-0.6692164,-0.015001357,9.787918090820312,-0.5494286417961121,0.9894425868988037,0.9875168800354004,-1.6683857440948486, 0.8381307721138
8,625511020,0.7403939,-0.05718942,-0.66957414,-0.014727279,9.805447578430176,-0.6752685904502869,0.9123893976211548,0.8348395824432373,-0.8451550006866455, 1.3255019187927246
9,625527687,0.74012953,-0.057085324,-0.66988146,-0.014434994,9.895174980163574,-0.6129452586174011,0.9087597727775574,0.6048118472099304,-0.9935677647590637, 1.5161114931106567
10,625544354,0.7399387,-0.05700496,-0.6701052,-0.014154329,9.811786651611328,-0.5837599039077759,0.9813795685768127,-0.4073059856891632,-0.467060387134552, 1.4824694395065308
11,625561021,0.73984265,-0.057007596,-0.67021567,-0.013931288,9.884233474731445,-0.6513856649398804,0.8840750455856323,-0.6439160108566284,-0.12395265698432922, 1.7537078857421875
12,625577688,0.73975253,-0.057163157,-0.67030483,-0.013793519,9.894472122192383,-0.6360119581222534,0.9916015267372131,-0.9442378282546997,-0.0038419051561504602, 1.8815666437149048
13,625594355,0.7397367,-0.057283193,-0.6703172,-0.013538526,9.723278045654297,-0.6661728024482727,0.9634881615638733,-0.6103634834289551,0.316067099571228, 2.2305779457092285
14,625611022,0.7398026,-0.05741208,-0.67024106,-0.013155369,9.770325660705566,-0.7353617548942566,0.8430142998695374,0.42786651849746704,0.8325215578079224, 2.835895538330078
15,625627689,0.739864,-0.057429973,-0.67018163,-0.012647904,9.88297176361084,-0.6604855060577393,0.9005099534988403,1.703596830368042,0.857276201248169, 2.6830646991729736
16,625644356,0.7398936,-0.057499208,-0.67014915,-0.012315868,9.853071212768555,-0.6405582427978516,0.9922296404838562,0.7317612767219543,0.6398885250091553, 2.0436182022094727
17,625661023,0.7399124,-0.0574932,-0.67013407,-0.0120255975,9.77983570098877,-0.7029016613960266,0.9139323830604553,0.972149133682251,0.3329586684703827, 1.544387936592102
18,625677690,0.7399073,-0.057503127,-0.6701423,-0.011833459,9.773087501525879,-0.6591016054153442,0.9314643144607544,0.5325841307640076,0.12709662318229675, 1.0459010601043701
19,625694357,0.73989075,-0.057498377,-0.67016387,-0.01166769,9.81246566772461,-0.6655141711235046,0.9468874335289001,0.6711999773979187,-0.032028678804636, 0.8790726065635681
20,625711024,0.73986316,-0.057421908,-0.67020494,-0.0114278,9.788104057312012,-0.6408225893974304,0.9269230961799622,1.0029356479644775,-0.22595524787902832, 0.8958873152732849
21,625727691,0.7398182,-0.05732947,-0.67026645,-0.011186874,9.85423469543457,-0.6696391105651855,0.9791263937950134,1.2377656698226929,-0.4338022470474243, 0.8740013241767883
22,625744358,0.7397709,-0.05719317,-0.6703351,-0.010904071,9.878327369689941,-0.6424711346626282,0.9639176726341248,1.7303106784820557,-0.5646703839302063, 0.89449143409729
23,625761025,0.73974264,-0.057093397,-0.67037934,-0.010624709,9.860321998596191,-0.6522282958030701,0.9075024127960205,1.5781071186065674,-0.3917590081691742, 1.0953333377838135
24,625777692,0.7397231,-0.05704664,-0.67040867,-0.010384856,9.761905670166016,-0.6108884811401367,0.8822354674339294,1.140744924545288,-0.24120759963989258, 1.1631431579589844
25,625794359,0.7397552,-0.057088844,-0.67037237,-0.010198752,9.799870491027832,-0.608460009098053,0.8789697289466858,0.5464917421340942,0.3708782494068146, 1.381862759590149
26,625811026,0.7398166,-0.057204004,-0.6702972,-0.010041595,9.860908508300781,-0.6111184358596802,0.8927470445632935,0.004680721089243889,0.7420447468757629, 1.6238772869110107
27,625827693,0.7399127,-0.057358023,-0.6701806,-0.009877718,9.843962669372559,-0.6217871904373169,0.9147748947143555,-0.2236757129430771,1.1311143636703491, 1.8830265998840332
28,625844360,0.74003714,-0.057598844,-0.67002445,-0.009736397,9.841292381286621,-0.6571953296661377,0.8996679782867432,-0.15210101008415222,1.4207683801651, 2.265244722366333
29,625861027,0.7401694,-0.057681818,-0.66987455,-0.009493597,9.82196044921875,-0.6838266253471375,0.9089319109916687,0.8524994254112244,1.4251353740692139, 2.0227179527282715
30,625877694,0.74029547,-0.057686735,-0.6697387,-0.009215928,9.764240264892578,-0.6543477177619934,0.889014482498169,1.5149720907211304,1.3119914531707764, 1.827639102935791
31,625894361,0.7403863,-0.057766907,-0.6696335,-0.009064271,9.861742973327637,-0.6763598918914795,0.9704387187957764,0.8901757597923279,1.0255260467529297, 1.5527507066726685
32,625911028,0.7404896,-0.05782182,-0.6695162,-0.008937906,9.849605560302734,-0.6653476357460022,1.0052891969680786,0.8346089720726013,1.1359295845031738, 1.30046546459198
33,625927695,0.74057406,-0.057851054,-0.6694219,-0.008808805,9.782751083374023,-0.6561143398284912,0.9511759281158447,0.7174437642097473,0.9139572381973267, 1.1618753671646118
34,625944362,0.7406157,-0.05784818,-0.6693776,-0.008696366,9.734174728393555,-0.6990194320678711,0.9465746879577637,0.5243111252784729,0.4804621934890747, 0.883414089679718
35,625961029,0.7406307,-0.057836708,-0.6693636,-0.00858016,9.865134239196777,-0.6893973350524902,0.9504521489143372,1.0209797620773315,0.1619170755147934, 0.875102698802948
36,625977696,0.7405941,-0.057867784,-0.66940224,-0.008507988,9.893773078918457,-0.6152156591415405,1.0467450618743896,0.9208342432975769,-0.3567080795764923, 0.8482094407081604
37,625994363,0.74055356,-0.057856753,-0.66945046,-0.008329122,9.798357963562012,-0.682479739189148,0.9655855298042297,1.3038848638534546,-0.4776639938354492, 1.185041904449463
38,626011030,0.7405616,-0.057839904,-0.6694452,-0.008135275,9.835014343261719,-0.6221698522567749,0.8815492987632751,1.2557330131530762,0.01682114228606224, 1.2355120182037354
39,626027697,0.7406087,-0.057883963,-0.6693911,-0.00798272,9.800642967224121,-0.6304054260253906,0.8811351656913757,0.6650145053863525,0.4895932078361511, 1.332584023475647
40,626044364,0.7407055,-0.057973456,-0.66927725,-0.007907927,9.860466957092285,-0.6203252077102661,0.8357768058776855,0.8709278106689453,1.010696291923523, 1.2588706016540527
41,626061031,0.7408386,-0.058048602,-0.66912425,-0.007836391,9.855937957763672,-0.6071509122848511,0.8632683157920837,0.5487840175628662,1.441706657409668, 1.1691746711730957
42,626077698,0.7410042,-0.05812715,-0.6689346,-0.0077868504,9.777738571166992,-0.5857225656509399,0.8834174871444702,0.3355199992656708,1.816343903541565, 1.0951799154281616
43,626094365,0.7411778,-0.05814417,-0.6687422,-0.0076706936,9.824827194213867,-0.6327700018882751,0.8943758606910706,0.8686611652374268,1.862472414970398, 1.1631815433502197
44,626111032,0.74132913,-0.05820453,-0.66857016,-0.007562693,9.858948707580566,-0.6118881702423096,0.9767369627952576,0.7952551245689392,1.6527172327041626, 1.336144208908081
45,626127699,0.74148715,-0.05827956,-0.66839,-0.007418883,9.782431602478027,-0.5786818265914917,1.0019662380218506,0.745617687702179,1.7108324766159058, 1.5867133140563965
46,626144366,0.7416121,-0.058387067,-0.6682438,-0.0072591547,9.867533683776855,-0.6289905905723572,1.0230892896652222,0.4916806221008301,1.3725014925003052, 1.8037680387496948
47,626161033,0.74178594,-0.05866748,-0.6680279,-0.0071284063,9.870833396911621,-0.6607193946838379,1.0794007778167725,-0.347615510225296,1.9266833066940308, 2.5026230812072754
48,626177700,0.7419324,-0.058931008,-0.6678435,-0.0069855484,9.777750968933105,-0.6560016870498657,1.0040855407714844,-0.17428161203861237,1.6063581705093384, 2.4758195877075195
49,626194367,0.7420284,-0.059064515,-0.6677274,-0.0067470963,9.738303184509277,-0.7137806415557861,0.9439151883125305,0.7158300876617432,1.0003488063812256, 2.31581711769104
50,626211034,0.7420679,-0.05916637,-0.66767657,-0.006544565,9.77184772491455,-0.6930144429206848,0.9900842308998108,0.8160911202430725,0.41872286796569824, 1.9581998586654663
51,626227701,0.74207693,-0.059227977,-0.6676628,-0.0063588503,9.805129051208496,-0.6550977826118469,1.0122201442718506,0.9506857395172119,0.09417148679494858, 1.6671626567840576
52,626244368,0.74207395,-0.05926658,-0.66766435,-0.0061744666,9.834114074707031,-0.6661919355392456,0.9965351223945618,1.0799274444580078,-0.04762681573629379, 1.5536727905273438
53,626261035,0.74205863,-0.0592873,-0.667681,-0.0060210773,9.796255111694336,-0.686400294303894,0.9321330785751343,1.132305383682251,-0.1786998063325882, 1.3196238279342651
54,626277702,0.7420364,-0.059303746,-0.6677056,-0.0058672116,9.824172019958496,-0.6925442218780518,0.9397304058074951,1.0363601446151733,-0.23371589183807373, 1.2845858335494995
55,626294369,0.7420093,-0.059306704,-0.66773665,-0.0057339375,9.818243980407715,-0.6588909029960632,0.9732926487922668,1.0449533462524414,-0.27634820342063904, 1.116105318069458
56,626311036,0.7419895,-0.059269153,-0.66776323,-0.005581812,9.827652931213379,-0.6709685921669006,0.9578738212585449,1.2675405740737915,-0.2201283574104309, 1.0247448682785034
57,626327703,0.74199027,-0.059231892,-0.6677667,-0.005442969,9.828009605407715,-0.6707713603973389,0.9551249146461487,1.2809102535247803,-0.0053530544973909855, 0.9773613214492798
58,626344370,0.7420253,-0.05924298,-0.6677279,-0.005307226,9.824010848999023,-0.6514304280281067,0.9322513937950134,1.0803117752075195,0.366677850484848, 1.2089130878448486
59,626361037,0.7420865,-0.05935839,-0.6676502,-0.0052399295,9.825291633605957,-0.6143444776535034,0.952239453792572,0.18491730093955994,0.7194287180900574, 1.3546878099441528
60,626377704,0.7421667,-0.059488278,-0.66755,-0.005173063,9.812699317932129,-0.6558256149291992,0.9614009261131287,0.1823176145553589,0.9191822409629822, 1.4465221166610718
61,626394371,0.7422433,-0.059621558,-0.6674539,-0.005058976,9.791596412658691,-0.6508640050888062,0.9334849715232849,0.3711215853691101,0.8636792898178101, 1.7045570611953735
62,626411038,0.7422971,-0.05973533,-0.6673847,-0.004940391,9.813250541687012,-0.6179546117782593,0.9899609088897705,0.5822598934173584,0.618309736251831, 1.6413705348968506
63,626427705,0.7423387,-0.059852205,-0.66732913,-0.0047928942,9.822394371032715,-0.6173112392425537,0.9997702836990356,0.6625428795814514,0.48051342368125916, 1.8038703203201294
64,626444372,0.7423851,-0.059985448,-0.6672666,-0.004632177,9.813727378845215,-0.6298350691795349,0.9506909251213074,0.6184890866279602,0.5301125049591064, 1.9573034048080444
65,626461039,0.7424047,-0.060105976,-0.66723514,-0.004471201,9.853028297424316,-0.6849436163902283,0.9882193803787231,0.6684594750404358,0.2531879246234894, 1.8943217992782593
66,626477706,0.7424223,-0.060208037,-0.6672075,-0.0043013413,9.813521385192871,-0.6528165936470032,0.9680936932563782,0.7798874378204346,0.22245268523693085, 1.8525729179382324
67,626494373,0.74242103,-0.060292974,-0.66720206,-0.004152671,9.745354652404785,-0.6684118509292603,0.9147501587867737,0.806281328201294,0.029960455372929573, 1.6664453744888306
68,626511040,0.74242055,-0.06034137,-0.66719943,-0.00398359,9.802103042602539,-0.6701949238777161,0.9245690107345581,0.9825094938278198,0.02778337337076664, 1.594422459602356
69,626527707,0.74241436,-0.060427736,-0.667199,-0.0038783024,9.89470100402832,-0.6741665601730347,0.9693276286125183,0.707006573677063,0.0037458576261997223, 1.467947006225586
70,626544374,0.742453,-0.06054636,-0.6671458,-0.0037835974,9.863567352294922,-0.6670778393745422,1.0503826141357422,0.4017927944660187,0.49326851963996887, 1.5785682201385498
71,626561041,0.74253666,-0.06070966,-0.6670387,-0.003653326,9.771620750427246,-0.7175639867782593,0.8913554549217224,0.3299235999584198,0.9530038237571716, 1.9918806552886963
72,626577708,0.7425964,-0.060856417,-0.6669592,-0.0035756186,9.798995971679688,-0.6940106153488159,0.9285910725593567,0.22696053981781006,0.7279706597328186, 1.6413451433181763
73,626594375,0.7426504,-0.060960613,-0.6668899,-0.003481566,9.830465316772461,-0.6797932386398315,0.9806473255157471,0.49960774183273315,0.6515294313430786, 1.5261647701263428
74,626611042,0.7426802,-0.061035354,-0.66685057,-0.00337051,9.839179039001465,-0.6478458046913147,0.9871016144752502,0.7096190452575684,0.38178926706314087, 1.4689202308654785
75,626627709,0.7427094,-0.06111625,-0.6668108,-0.0033044918,9.800361633300781,-0.6489317417144775,0.9763815999031067,0.5338903069496155,0.3936864137649536, 1.2826007604599
76,626644376,0.74275976,-0.061231863,-0.66674465,-0.00320351,9.796634674072266,-0.6878890991210938,0.9733459949493408,0.44523200392723083,0.6178871989250183, 1.6319197416305542
77,626661043,0.7427816,-0.061314903,-0.66671324,-0.00310176,9.83482837677002,-0.6531911492347717,0.9506772756576538,0.6254044771194458,0.30929258465766907, 1.477807879447937
78,626677710,0.7427975,-0.061365433,-0.6666915,-0.0029865662,9.805157661437988,-0.667680025100708,0.9816688299179077,0.9354462623596191,0.22423282265663147, 1.4106388092041016
79,626694377,0.74279433,-0.06136476,-0.6666956,-0.0028394638,9.79726505279541,-0.6860361099243164,0.9428065419197083,1.24473237991333,0.0013894890435039997, 1.3249258995056152
80,626711044,0.742789,-0.06137578,-0.6667011,-0.0027155033,9.803285598754883,-0.6428378224372864,0.9315117001533508,1.1983095407485962,-0.01333141140639782, 1.2772221565246582
81,626727711,0.74279517,-0.061420467,-0.6666903,-0.002624124,9.821476936340332,-0.6320971250534058,0.9637487530708313,0.7836397886276245,0.1500968039035797, 1.2715104818344116
82,626744378,0.74280226,-0.061474554,-0.6666777,-0.0025486543,9.852140426635742,-0.6574277877807617,1.0050923824310303,0.7122315764427185,0.1672317236661911, 1.250034213066101
83,626761045,0.74286395,-0.061587147,-0.66659915,-0.0024611382,9.85229778289795,-0.7502772808074951,0.9787052869796753,0.4601770043373108,0.7500614523887634, 1.614054560661316
84,626777712,0.74296093,-0.061676327,-0.6664831,-0.0023517755,9.792679786682129,-0.731898307800293,0.9273351430892944,0.6794472932815552,1.0965116024017334, 1.6332257986068726
85,626794379,0.7430432,-0.061701432,-0.66638947,-0.002252966,9.738523483276367,-0.6296587586402893,0.9152606725692749,1.0370773077011108,0.9186826348304749, 1.2865321636199951
86,626811046,0.7431021,-0.0617628,-0.6663181,-0.0022127666,9.782511711120605,-0.6054683327674866,0.9412958025932312,0.54377681016922,0.7306854724884033, 1.151322841644287
87,626827713,0.7431391,-0.061850507,-0.666269,-0.0021678084,9.848577499389648,-0.6175238490104675,0.9936460852622986,0.40053775906562805,0.5208534002304077, 1.2978914976119995
88,626844380,0.7431545,-0.061956987,-0.66624194,-0.00211807,9.865093231201172,-0.5822198987007141,1.0298131704330444,0.3535896837711334,0.30393949151039124, 1.4153385162353516
89,626861047,0.7431544,-0.06200051,-0.6662384,-0.0019995153,9.78146743774414,-0.6473503708839417,0.9696056246757507,0.8557779788970947,0.09314699470996857, 1.4708799123764038
90,626877714,0.74312836,-0.06199214,-0.6662686,-0.0018235039,9.773859977722168,-0.66460120677948,0.9375306963920593,1.4750546216964722,-0.22854213416576385, 1.5322349071502686
91,626894381,0.7430889,-0.06199208,-0.66631293,-0.0016674727,9.836394309997559,-0.6583309769630432,0.9757235050201416,1.417515516281128,-0.3566952347755432, 1.478665828704834
92,626911048,0.7431171,-0.062129825,-0.6662691,-0.0015694923,9.982970237731934,-0.7031142711639404,1.1021192073822021,0.3600825071334839,0.43899521231651306, 1.8488203287124634
93,626927715,0.7433845,-0.06257771,-0.66592884,-0.0016003487,10.159751892089844,-0.8425468802452087,1.324739694595337,-1.5964394807815552,3.0821619033813477, 2.7603766918182373
94,626944382,0.74448603,-0.062596284,-0.66469693,-0.00073659903,10.171626091003418,-1.1103652715682983,1.1812931299209595,4.993666172027588,11.05846118927002, 5.7530059814453125
95,626961049,0.74558336,-0.06188154,-0.66353315,0.0002255307,9.814720153808594,-0.4899175465106964,0.6447563171386719,9.347599029541016,10.629093170166016, 2.870577573776245
96,626977716,0.74645406,-0.06104563,-0.6626307,0.00075485243,9.539772987365723,-0.9866573810577393,0.5608698725700378,7.815021514892578,8.482181549072266, 0.0065504517406225204
97,626994383,0.74723375,-0.06001004,-0.66184545,0.0011615491,9.43508243560791,-0.7370169758796692,0.5390655398368835,8.293338775634766,7.554258346557617, -1.591727614402771
98,627011050,0.74797904,-0.059284914,-0.6610684,0.0011918963,9.6782865524292,-0.4969976246356964,0.8008403182029724,4.983150959014893,7.556331634521484, -2.111050605773926
99,627027717,0.74873,-0.05848482,-0.6602891,0.001246282,9.973773002624512,-0.20770399272441864,1.1397349834442139,5.606013774871826,7.596325397491455, -2.2880215644836426
100,627044384,0.7495096,-0.05740019,-0.65949863,0.0014946583,10.153229713439941,-0.30327308177948,1.309512972831726,7.920481204986572,7.709842681884766, -2.5333404541015625
101,627061051,0.7502539,-0.055426687,-0.65881807,0.0024493046,10.124897003173828,-0.36215290427207947,0.9313258528709412,15.730485916137695,6.6864776611328125, -2.9216692447662354
102,627077718,0.75081897,-0.053093605,-0.6583612,0.003555589,9.996615409851074,-0.5486804246902466,0.8718038201332092,18.209980010986328,4.683294773101807, -3.8166303634643555
103,627094385,0.7513418,-0.049615078,-0.65802443,0.0052680243,9.796525955200195,-0.9674064517021179,0.5684137940406799,26.880172729492188,3.6521568298339844, -5.896968841552734
104,627111052,0.75193065,-0.045463365,-0.65763414,0.007132384,9.416572570800781,-1.0140413045883179,1.072037696838379,31.09364128112793,4.20693302154541, -8.161669731140137
105,627127719,0.75295895,-0.04140377,-0.6567037,0.008888369,9.186558723449707,-0.7535242438316345,1.5995217561721802,30.290433883666992,9.040285110473633, -8.188024520874023
106,627144386,0.7540501,-0.038644195,-0.6556074,0.00969705,9.355657577514648,-0.7567828297615051,0.8391419053077698,19.305744171142578,10.50539493560791, -7.190843105316162
107,627161053,0.75481325,-0.037350737,-0.6548039,0.009685179,9.851788520812988,-0.5579271912574768,0.5905051231384277,7.904806137084961,7.857128620147705, -4.903784275054932
108,627177720,0.7552267,-0.03741813,-0.65433705,0.008702862,10.111656188964844,0.03484206646680832,1.7085211277008057,-3.6560850143432617,4.931539535522461, -3.874894857406616
109,627194387,0.75547135,-0.038223475,-0.6540294,0.0069098677,9.767143249511719,0.46676909923553467,2.6024038791656494,-11.166605949401855,3.5697784423828125, -4.741809844970703
110,627211054,0.75547975,-0.03941307,-0.6539674,0.004911038,9.302120208740234,-0.1640722006559372,2.8049676418304443,-14.134774208068848,1.2041627168655396, -4.05307149887085
111,627227721,0.7551071,-0.03957226,-0.65439224,0.004262754,9.252346992492676,-1.1049084663391113,2.5046865940093994,-2.8028745651245117,-3.5553369522094727, -1.7601046562194824
112,627244388,0.75398743,-0.037630614,-0.65578306,0.00595623,9.020834922790527,-1.3913710117340088,0.9666719436645508,18.4030818939209,-12.716421127319336, 0.6560640931129456
113,627261055,0.7521267,-0.034455728,-0.6580579,0.008845167,9.195533752441406,-0.7183966040611267,1.3223694562911987,29.9716796875,-20.975528717041016, 1.0235331058502197
114,627277722,0.74963146,-0.029922925,-0.66104895,0.013115327,9.171330451965332,-1.203839659690857,0.14491933584213257,43.04323959350586,-27.95865821838379, 1.8666644096374512
115,627294389,0.7466395,-0.02482471,-0.6645227,0.01796312,10.320893287658691,-0.05251235142350197,-0.00789385661482811,48.459957122802734,-32.793949127197266, 2.1594135761260986
116,627311056,0.74370205,-0.022372901,-0.66782963,0.02025904,9.622722625732422,1.0994465351104736,1.4193223714828491,23.290691375732422,-30.83467674255371, 1.2028619050979614
117,627327723,0.74131304,-0.022262286,-0.67049056,0.020050062,8.839133262634277,0.9352633953094482,2.447274684906006,-0.012486216612160206,-24.329208374023438, -0.7258142232894897
118,627344390,0.7388318,-0.022836348,-0.6732152,0.019680476,10.412890434265137,-1.4208974838256836,0.2837654650211334,-4.241753578186035,-25.0750789642334, 1.7083771228790283
119,627361057,0.7358312,-0.023003016,-0.67650294,0.019159429,10.23094367980957,0.20478573441505432,0.4943118691444397,-3.032514810562134,-30.321218490600586, -1.0383422374725342
120,627377724,0.7323617,-0.024317797,-0.68026537,0.017151847,8.897225379943848,-0.51800137758255,1.0191396474838257,-15.810379028320312,-34.496849060058594, -3.18371319770813
121,627394391,0.7282587,-0.024629638,-0.6846745,0.015926223,8.596850395202637,-1.8258963823318481,2.0473902225494385,-7.30304479598999,-40.99067306518555, -3.9904189109802246
122,627411058,0.72352034,-0.022994777,-0.6897123,0.016927553,9.150766372680664,-1.364173173904419,2.523045539855957,12.69205379486084,-47.819847106933594, -2.158733606338501
123,627427725,0.71780956,-0.020687668,-0.6956775,0.018828265,9.84702205657959,-0.3378788232803345,1.7378721237182617,19.995729446411133,-57.40207290649414, -0.9879714846611023
124,627444392,0.711254,-0.018901035,-0.7023822,0.020491155,9.613471031188965,-0.8078436255455017,2.1104519367218018,16.070053100585938,-65.081298828125, 0.32568982243537903
125,627461059,0.7045097,-0.015940923,-0.7091242,0.023559876,9.901923179626465,-0.9434826970100403,1.2012280225753784,28.439542770385742,-66.64421844482422, 1.5143853425979614
126,627477726,0.6978612,-0.012045296,-0.71564347,0.02644212,10.432903289794922,0.24307763576507568,0.3961404860019684,31.937360763549805,-65.29263305664062, -3.982759714126587
127,627494393,0.6918941,-0.007368566,-0.7213764,0.02906031,10.273089408874512,0.3160209655761719,0.36599764227867126,34.662986755371094,-58.321102142333984, -9.109679222106934
128,627511060,0.6877142,-0.0032644614,-0.7252958,0.03137773,12.014214515686035,2.0067086219787598,-2.2373669147491455,30.88557243347168,-40.73748016357422, -7.916510581970215
129,627527727,0.6860466,-0.003921106,-0.7269511,0.029444356,13.622156143188477,2.8616464138031006,-3.724376916885376,-12.180715560913086,-16.265729904174805, -4.601175308227539
130,627544394,0.68750846,-0.0069951396,-0.72564703,0.026826201,13.908279418945312,-0.4478870630264282,-3.861137628555298,-26.353208541870117,14.042777061462402, 3.9339888095855713
131,627561061,0.6922785,-0.012582477,-0.72118247,0.022096194,17.137964248657227,-0.5424400568008423,-4.019790172576904,-48.077880859375,46.253170013427734, 6.0497822761535645
132,627577728,0.7004848,-0.016828597,-0.7133077,0.015168292,15.531213760375977,-3.3014957904815674,-2.819669246673584,-51.89389419555664,79.71817779541016, -11.257375717163086
133,627594395,0.7116059,-0.023841837,-0.7021555,0.0051489486,17.665325164794922,-7.1177659034729,0.3216148316860199,-79.4657974243164,110.581787109375, -12.65992546081543
134,627611062,0.7215765,-0.034093708,-0.69149005,-0.002576035,18.197643280029297,-12.697012901306152,-0.9971850514411926,-84.52705383300781,102.35310363769531, 13.757923126220703
135,627627729,0.7254591,-0.04543408,-0.6867472,-0.004813114,13.753320693969727,-10.773866653442383,-9.523005485534668,-65.0664291381836,42.82209777832031, 43.89190673828125
136,627644396,0.7199748,-0.06673648,-0.69070995,-0.010120316,12.912532806396484,-8.845430374145508,-7.669612884521484,-132.17526245117188,-43.480899810791016, 71.95226287841797
137,627661063,0.70877117,-0.08212487,-0.70063317,-0.0035134086,5.5300612449646,-8.041764259338379,-2.249662399291992,-50.06149673461914,-104.48331451416016, 99.2052993774414
138,627677730,0.69576174,-0.09230481,-0.71228,0.0072687618,1.7464145421981812,-0.4863419830799103,1.5917832851409912,-5.6033406257629395,-123.61944580078125, 93.01741790771484
139,627694397,0.6867619,-0.099000305,-0.7198699,0.018559566,-2.0677459239959717,5.0572686195373535,5.2305006980896,17.613494873046875,-85.37206268310547, 80.727294921875
140,627711064,0.6821155,-0.10667943,-0.7229881,0.025026897,-1.8879203796386719,4.737129211425781,4.556993007659912,-7.413123607635498,-39.66148376464844, 65.625244140625
141,627727731,0.6811337,-0.11104448,-0.722969,0.0322784,0.780052661895752,0.2260204255580902,1.7229464054107666,15.2283935546875,-8.184042930603027, 54.794681549072266
142,627744398,0.68145317,-0.113298014,-0.72185856,0.04129755,4.782683849334717,1.305726408958435,-2.704643964767456,35.13138961791992,1.4398833513259888, 53.1505012512207
143,627761065,0.68056625,-0.11883552,-0.721582,0.045024414,5.367483615875244,4.687521934509277,-2.0934057235717773,-8.458643913269043,-3.0819091796875, 44.562095642089844
144,627777732,0.678141,-0.12876181,-0.7223002,0.042754173,4.344455718994141,6.117558002471924,-1.3410332202911377,-60.223819732666016,-9.008880615234375, 38.33517837524414
145,627794399,0.67294204,-0.14380021,-0.7247397,0.034973662,4.454492568969727,4.9913225173950195,-2.0467569828033447,-114.30364990234375,-24.378795623779297, 37.815208435058594
146,627811066,0.6651795,-0.15819582,-0.7292204,0.027350506,4.181220531463623,2.488867998123169,-0.4651215374469757,-112.77560424804688,-47.01089096069336, 34.29451370239258
147,627827733,0.6568762,-0.16688281,-0.7347825,0.02754379,3.811244010925293,-1.9376001358032227,3.529390335083008,-48.232276916503906,-64.26778411865234, 40.58637237548828
148,627844400,0.6494171,-0.158768,-0.7421048,0.04827748,9.472112655639648,-3.874467134475708,-0.60378098487854,132.0092315673828,-94.96891021728516, 46.211795806884766
149,627861067,0.63810515,-0.15261482,-0.75150186,0.069106,16.879108428955078,-5.761558532714844,1.7701597213745117,118.83153533935547,-123.4019546508789, 55.53938674926758
150,627877734,0.62527364,-0.1591484,-0.7602611,0.07554943,17.17113494873047,0.3432450294494629,6.35902738571167,-12.538565635681152,-107.61853790283203, 59.3095588684082
151,627894401,0.61323357,-0.16324638,-0.7684462,0.08237588,18.90504264831543,0.3778091371059418,-3.4487786293029785,0.9884331822395325,-103.2931900024414, 48.788475036621094
152,627911068,0.604778,-0.15723465,-0.7752352,0.09236569,10.864624977111816,-0.3837449550628662,-12.042094230651855,65.22972106933594,-87.79866027832031, 8.645119667053223
153,627927735,0.6016662,-0.15425533,-0.77758557,0.09779588,10.378084182739258,-7.187490463256836,-6.109817028045654,37.15755081176758,-33.45478439331055, 7.438563823699951
154,627944402,0.6041548,-0.15559295,-0.77537096,0.09791812,24.16965103149414,-6.990338325500488,-0.6713830828666687,-0.05986981838941574,24.08443832397461, 9.430099487304688
155,627961069,0.609032,-0.15604798,-0.7722075,0.09178659,26.927101135253906,0.5147998929023743,-0.8345609307289124,-26.65382957458496,46.498172760009766, -21.734230041503906
156,627977736,0.6159095,-0.15336914,-0.7680506,0.085038915,22.356666564941406,-1.7410624027252197,-2.5816218852996826,-14.04851245880127,59.58543014526367, -40.5588264465332
157,627994403,0.62421894,-0.15254106,-0.7625671,0.07465604,19.030363082885742,-0.7011029124259949,0.9402370452880859,-38.821998596191406,77.49384307861328, -45.27430725097656
158,628011070,0.63564384,-0.15249135,-0.7541862,0.06250298,14.221871376037598,-2.424591541290283,2.7548210620880127,-46.78297805786133,108.1880111694336, -47.043861389160156
159,628027737,0.6469647,-0.15189523,-0.7452989,0.053796723,5.280745983123779,-5.693596839904785,-0.9683242440223694,-26.55583953857422,105.66168975830078, -34.14664840698242
160,628044404,0.65427715,-0.14698273,-0.74001396,0.051933,2.699965715408325,-6.336287498474121,-3.8692431449890137,22.11236000061035,60.36182403564453, -28.37044906616211
161,628061071,0.6574295,-0.14401661,-0.73781294,0.051747773,4.42274808883667,-1.9562596082687378,-5.2704973220825195,16.58879852294922,24.54373550415039, -12.889561653137207
162,628077738,0.6565037,-0.1484481,-0.7380354,0.047644407,3.7997853755950928,0.15664887428283691,-5.882408142089844,-41.566009521484375,-0.3104150593280792, 5.918433666229248
163,628094405,0.6532972,-0.15540488,-0.7398158,0.04152908,1.6563764810562134,1.0339771509170532,-4.625182151794434,-65.9245376586914,-15.738622665405273, 8.861903190612793
164,628111072,0.64884716,-0.15888585,-0.7430919,0.039585497,1.4401633739471436,1.2443050146102905,-4.567547798156738,-30.765811920166016,-33.99660873413086, 8.748193740844727
165,628127739,0.6436522,-0.15803564,-0.747737,0.040322475,0.583429753780365,2.209317207336426,-3.477088689804077,1.1551867723464966,-47.7703857421875, -2.638577461242676
166,628144406,0.63824093,-0.1555621,-0.75287604,0.04033188,0.5018557906150818,4.608601093292236,-0.9962437152862549,4.31113338470459,-50.52984619140625, -14.567943572998047
167,628161073,0.63268936,-0.1523549,-0.7581618,0.041024134,0.3363119065761566,0.5101538300514221,-1.7757073640823364,10.945406913757324,-52.77725601196289, -15.242067337036133
168,628177740,0.62788785,-0.14446232,-0.76327664,0.04792339,0.009357748553156853,-1.7054133415222168,2.08894419670105,64.56543731689453,-55.82919692993164, -12.701197624206543
169,628194407,0.62254655,-0.13470735,-0.7682657,0.063697,2.1681370735168457,-9.487276077270508,-10.217976570129395,118.66570281982422,-67.62525177001953, 15.995408058166504
170,628211074,0.6112882,-0.13113768,-0.7765331,0.07826968,13.449564933776855,-8.770074844360352,-1.5370911359786987,79.0087661743164,-108.51632690429688, 42.512123107910156
171,628227741,0.59983826,-0.13780369,-0.7837271,0.0835232,9.709246635437012,-4.350494861602783,2.1628541946411133,-13.411513328552246,-91.22496795654297, 58.75353240966797
172,628244408,0.58802927,-0.14924398,-0.7903105,0.08577455,12.803445816040039,-2.8788998126983643,0.40849101543426514,-49.332401275634766,-85.35089874267578, 72.79663848876953
173,628261075,0.57940483,-0.15067548,-0.7951114,0.09687481,18.05076026916504,-3.095879077911377,-4.215315818786621,43.50924301147461,-76.07437133789062, 54.1927490234375
174,628277742,0.57426506,-0.14828658,-0.79781586,0.10826103,21.48621368408203,-6.509637355804443,-2.2379777431488037,65.33351135253906,-51.60423278808594, 34.44940948486328
175,628294409,0.572293,-0.14958806,-0.79862326,0.11092803,24.116947174072266,-4.295271873474121,-2.40464186668396,7.507734775543213,-15.377324104309082, 19.908124923706055
176,628311076,0.5733296,-0.14996287,-0.7981759,0.10825762,19.308237075805664,-3.8180229663848877,-6.756001949310303,-14.14333724975586,10.531384468078613, -6.9305620193481445
177,628327743,0.5790784,-0.14837049,-0.79506165,0.10262259,17.02278709411621,-6.474733829498291,-6.399917125701904,-15.780573844909668,48.482078552246094, -29.98604965209961
178,628344410,0.5892851,-0.14686479,-0.78899693,0.09304721,16.39238739013672,-4.703339099884033,-3.507063865661621,-31.067556381225586,88.6971435546875, -45.3447265625
179,628361077,0.6041886,-0.14868982,-0.7789446,0.078056246,16.480724334716797,-3.2662806510925293,0.11510293185710907,-66.72315216064453,137.82217407226562, -48.142215728759766
180,628377744,0.62138706,-0.15058239,-0.76626825,0.06353284,10.338485717773438,-3.4908246994018555,-1.2193996906280518,-60.86960220336914,160.28262329101562, -44.28276062011719
181,628394411,0.6340537,-0.14830975,-0.7570153,0.05392604,2.9496819972991943,-5.000013828277588,-2.6799943447113037,-23.439838409423828,114.7710189819336, -46.81768035888672
182,628411078,0.6426936,-0.14538148,-0.7506868,0.047734443,2.1045005321502686,-4.404114723205566,-3.5636348724365234,-8.037718772888184,77.44584655761719, -37.07129669189453
183,628427745,0.64683336,-0.14406934,-0.7476113,0.043912254,3.785557270050049,-4.198871612548828,-5.512908935546875,-8.519072532653809,38.18242263793945, -20.256481170654297
184,628444412,0.6460271,-0.14424144,-0.74832577,0.04303569,5.508079528808594,-0.1190318688750267,-8.3466796875,-5.985945224761963,-6.297050476074219, -1.9744962453842163
185,628461079,0.641295,-0.1480013,-0.7518249,0.039946213,4.187863826751709,0.4735895097255707,-5.058193206787109,-37.919795989990234,-35.207462310791016, 5.116973400115967
186,628477746,0.63641626,-0.14677952,-0.75588965,0.045399643,2.1548514366149902,-0.9438099265098572,-1.9429229497909546,27.974878311157227,-48.29055404663086, 16.568510055541992
187,628494413,0.6335453,-0.13791475,-0.75900084,0.059310056,0.07977047562599182,1.26583731174469,1.6359730958938599,107.72615814208984,-44.50855255126953, 14.139466285705566
188,628511080,0.6324493,-0.12745401,-0.76060057,0.072458215,-0.11690642684698105,4.605520725250244,3.2318613529205322,112.99656677246094,-28.64870262145996, 3.236236572265625
189,628527747,0.6303389,-0.12344189,-0.7625549,0.077104874,0.2333603948354721,1.1327532529830933,0.8240771889686584,39.426063537597656,-24.980012893676758, 0.40563783049583435
190,628544414,0.62705195,-0.12522611,-0.7651417,0.07538377,1.5366653203964233,0.596616804599762,-3.477658748626709,-20.410888671875,-25.459157943725586, 3.331193685531616
191,628561081,0.6180007,-0.12771125,-0.7709904,0.08566774,7.312197208404541,-16.81587028503418,-11.22364330291748,33.13900375366211,-79.65951538085938, 58.98979568481445
192,628577748,0.6083175,-0.1259577,-0.7772844,0.09956742,14.216452598571777,-0.9571695923805237,4.741519927978516,69.52506256103516,-90.08218383789062, 51.065731048583984
193,628594415,0.5973551,-0.13106981,-0.7840236,0.1062783,11.236614227294922,-3.9483468532562256,-0.3420618176460266,0.9136731624603271,-88.28878021240234, 58.34654998779297
194,628611082,0.5885897,-0.12943408,-0.78927296,0.11771796,17.308732986450195,-0.05825630575418472,-3.1317145824432373,57.16254806518555,-79.66438293457031, 41.10837173461914
195,628627749,0.58280826,-0.12495058,-0.79265815,0.12812194,18.65514373779297,-4.706579685211182,-4.262919902801514,67.29010772705078,-57.40153121948242, 20.99931526184082
196,628644416,0.5812557,-0.12390194,-0.7933802,0.13167423,20.29802894592285,-5.134275913238525,-3.374972105026245,22.172487258911133,-14.842501640319824, 10.928337097167969
197,628661083,0.5824236,-0.12620555,-0.7929579,0.12677798,21.5406494140625,-3.7292068004608154,-3.194972276687622,-33.97952651977539,14.64017105102539, -5.910365104675293
198,628677750,0.58650804,-0.12809762,-0.79115474,0.11693412,21.971662521362305,-4.136824607849121,-2.3804738521575928,-55.59162521362305,39.80234146118164, -29.092927932739258
199,628694417,0.5939664,-0.1292014,-0.78716016,0.10435467,19.748252868652344,-3.6214919090270996,-0.9443658590316772,-62.609954833984375,68.5188980102539, -45.00849151611328
200,628711084,0.60462946,-0.13143212,-0.7806479,0.08796491,16.137800216674805,-2.8290696144104004,1.0154930353164673,-83.25920104980469,100.06014251708984, -54.39073181152344
201,628727751,0.6193787,-0.13454898,-0.77019775,0.0711484,10.068665504455566,-3.9029431343078613,1.131231665611267,-83.2662582397461,138.97705078125, -50.23532485961914
202,628744418,0.6312002,-0.13400334,-0.761569,0.060352784,2.025347948074341,-6.28831148147583,-4.181060314178467,-39.48444366455078,108.14190673828125, -44.32106018066406
203,628761085,0.6387531,-0.12901355,-0.75634676,0.057356454,1.7015740871429443,-6.739738464355469,-7.505823612213135,15.271993637084961,62.169517517089844, -35.418365478515625
204,628777752,0.6430949,-0.12524822,-0.75337917,0.056228604,2.6665186882019043,-4.751032829284668,-6.135828495025635,15.904050827026367,34.77260208129883, -21.90666389465332
205,628794419,0.6460884,-0.12516096,-0.7510127,0.05370771,3.8922901153564453,1.0333070755004883,-5.758586883544922,-8.934982299804688,28.046737670898438, -9.225942611694336
206,628811086,0.6479994,-0.13269258,-0.7487768,0.04269691,2.9467239379882812,3.081002950668335,-2.0945816040039062,-87.53961181640625,32.24508285522461, -7.219162464141846
207,628827753,0.650935,-0.13921174,-0.74541587,0.035484713,1.5601216554641724,-0.9674396514892578,0.8667665123939514,-62.181060791015625,38.82725524902344, 5.4007391929626465
208,628844420,0.6538931,-0.13921227,-0.74266607,0.0386148,0.29101699590682983,-3.2268221378326416,-0.4116126000881195,19.844932556152344,24.654762268066406, 17.647029876708984
209,628861087,0.65393573,-0.13465288,-0.7429955,0.046845194,0.8895730972290039,-0.23357290029525757,-2.8777379989624023,62.76683807373047,-10.138528823852539, 14.951360702514648
210,628877754,0.6490761,-0.13382994,-0.7470626,0.051840894,0.5118845701217651,-0.7806158661842346,-2.670881509780884,23.738155364990234,-47.6402587890625, 17.600069046020508
211,628894421,0.6406779,-0.13640459,-0.7536094,0.05475887,0.8932597041130066,0.3956255614757538,-1.901682734489441,-6.195575714111328,-73.63172912597656, 24.713294982910156
212,628911088,0.632315,-0.1421406,-0.75935763,0.05787843,4.246460437774658,-4.836610317230225,-1.8638360500335693,-18.700841903686523,-68.8522720336914, 42.73600387573242
213,628927755,0.61969537,-0.14200144,-0.7683703,0.0736226,12.65264892578125,-7.417008399963379,-12.730538368225098,67.30706024169922,-119.90396881103516, 65.25960540771484
214,628944422,0.60629684,-0.14109275,-0.77826077,0.08250576,13.508299827575684,1.6643118858337402,2.239687442779541,33.25071716308594,-120.97364807128906, 31.29030990600586
215,628961089,0.59524536,-0.14276157,-0.7856727,0.08955768,14.69819450378418,-2.314389944076538,-1.2868876457214355,16.393014907836914,-95.11735534667969, 38.78183364868164
216,628977756,0.588614,-0.14124617,-0.7898941,0.09823716,22.56125259399414,-0.6755536198616028,-2.551875352859497,44.524253845214844,-61.879600524902344, 28.751930236816406
217,628994423,0.58577335,-0.1389144,-0.79165673,0.10417371,21.534313201904297,-3.7189862728118896,-4.237218856811523,38.30490493774414,-29.427316665649414, 13.356557846069336
218,629011090,0.58725876,-0.13926248,-0.79062843,0.10315002,21.838237762451172,-3.1239612102508545,-4.707998752593994,-4.234371662139893,13.807876586914062, -0.35368606448173523
219,629027757,0.5924249,-0.1419656,-0.78730947,0.09498789,21.427621841430664,-3.9301772117614746,-4.12689208984375,-47.39361572265625,51.45461654663086, -16.586240768432617
220,629044424,0.6024131,-0.14300151,-0.7808215,0.08346809,19.829269409179688,-4.240060329437256,-2.6946346759796143,-52.034751892089844,92.51773834228516, -39.189300537109375
221,629061091,0.6169502,-0.14383109,-0.77056545,0.07010241,16.261184692382812,-3.7877092361450195,-0.05397951602935791,-54.52921676635742,134.08389282226562, -46.75103759765625
222,629077758,0.6322885,-0.14506465,-0.7589151,0.056703698,9.217820167541504,-4.104098320007324,-0.6492867469787598,-55.061424255371094,144.25694274902344, -43.71578598022461
223,629094425,0.6447672,-0.14502172,-0.7490874,0.04595611,5.748062610626221,-4.860317707061768,-1.4970999956130981,-39.323265075683594,118.1855239868164, -39.640201568603516
224,629111092,0.65397686,-0.14430353,-0.7416066,0.03886385,5.065951347351074,-4.525402069091797,-2.8690648078918457,-21.55711555480957,87.09776306152344, -28.3929443359375
225,629127759,0.65831697,-0.14767289,-0.7374619,0.031010298,4.057284832000732,-2.5981945991516113,-6.241110801696777,-49.555931091308594,49.20463562011719, -13.15186882019043
226,629144426,0.65785253,-0.1559937,-0.7365394,0.0201467,3.6511871814727783,-0.6979786157608032,-5.072420597076416,-92.75215148925781,14.618756294250488, -4.009523868560791
227,629161093,0.6556719,-0.16237724,-0.73726815,0.012791779,2.0503714084625244,0.6570306420326233,-2.3513875007629395,-68.24224090576172,-5.383352279663086, 0.5108664631843567
228,629177760,0.65363485,-0.16280685,-0.73898154,0.012720895,0.8057758808135986,-2.0630743503570557,-0.8279226422309875,-4.374692440032959,-17.664688110351562, 2.093846559524536
229,629194427,0.6534541,-0.15443568,-0.74069065,0.022914447,0.6130548715591431,-0.7564052939414978,1.5022861957550049,89.41168975830078,-20.427566528320312, 3.247882604598999
230,629211094,0.6537255,-0.14145862,-0.7424608,0.037207812,0.48585045337677,1.1592473983764648,-0.3991111218929291,131.4461669921875,-23.520288467407227, -1.9668458700180054
231,629227761,0.65202326,-0.1319719,-0.74511987,0.047388636,1.2889299392700195,2.2979917526245117,-2.80696964263916,92.63111114501953,-32.64767074584961, -2.952296733856201
232,629244428,0.6470167,-0.12941128,-0.74969,0.050863035,2.1228203773498535,1.7296217679977417,-2.535778284072876,23.655305862426758,-49.66318130493164, 1.9068795442581177
233,629261095,0.6386137,-0.13196379,-0.7561176,0.055175256,2.6680498123168945,-8.409778594970703,-9.443697929382324,1.6144310235977173,-74.29072570800781, 31.60606575012207
234,629277762,0.6237134,-0.13015509,-0.76768076,0.06861174,10.995994567871094,-3.704946994781494,-6.0280632972717285,60.436180114746094,-140.15982055664062, 46.42848587036133
235,629294429,0.61060655,-0.1311596,-0.7771916,0.0770072,13.058823585510254,-0.19388124346733093,1.8471336364746094,24.407596588134766,-115.8875732421875, 40.58237075805664
236,629311096,0.59906596,-0.13498941,-0.78489804,0.082662284,12.980965614318848,-2.5953502655029297,-1.622866153717041,0.27573806047439575,-96.20439910888672, 45.10627365112305
237,629327763,0.5911944,-0.13665885,-0.7898338,0.08931062,18.6568546295166,-2.7033133506774902,-2.023231029510498,19.528759002685547,-67.23452758789062, 38.062740325927734
238,629344430,0.5865466,-0.13798822,-0.7925011,0.094150364,20.33421516418457,-4.048712730407715,-2.147867202758789,15.517655372619629,-39.17466354370117, 29.137372970581055
239,629361097,0.58521277,-0.14059901,-0.79300106,0.09437778,22.158035278320312,-4.603816509246826,-2.236900806427002,-10.253933906555176,-7.35925817489624, 17.53191566467285
240,629377764,0.58686835,-0.14426522,-0.79168403,0.08949578,21.96573257446289,-5.031747817993164,-2.255176544189453,-38.32669448852539,21.656164169311523, 2.6579952239990234
241,629394431,0.59202725,-0.14757429,-0.7881899,0.08051359,20.59113883972168,-3.904123306274414,-2.4409914016723633,-54.443546295166016,53.13737487792969, -15.7360200881958
242,629411098,0.600555,-0.1498282,-0.7823946,0.068878844,16.537240982055664,-3.0926642417907715,-1.9125295877456665,-59.8795051574707,82.68082427978516, -31.675029754638672
243,629427765,0.6129882,-0.14937742,-0.7737392,0.057092335,12.733508110046387,-3.269050359725952,-0.3501901924610138,-44.2039680480957,114.23538970947266, -45.683345794677734
244,629444432,0.62712586,-0.1478025,-0.76328045,0.047650754,7.290335178375244,-4.952480316162109,-1.350306749343872,-24.60973358154297,127.91873168945312, -40.59359359741211
245,629461099,0.63848686,-0.14434686,-0.7547517,0.04299515,3.288350820541382,-5.457361221313477,-5.850462913513184,5.0946574211120605,99.53114318847656, -31.0153865814209
246,629477766,0.6456186,-0.14107971,-0.74939746,0.040947985,4.484927654266357,-2.744446277618408,-6.734097003936768,12.664835929870605,61.34309005737305, -20.691843032836914
247,629494433,0.6494412,-0.14260603,-0.74603766,0.036301523,3.71095609664917,-1.5351288318634033,-6.033330917358398,-25.74127769470215,39.56399154663086, -8.614823341369629
248,629511100,0.65137666,-0.14594303,-0.7439844,0.029939745,3.400679588317871,4.5647807121276855,-3.8868370056152344,-44.75965118408203,26.40471649169922, -7.834603786468506
249,629527767,0.6523557,-0.14904957,-0.74272335,0.024048794,1.371395230293274,0.7083196043968201,-2.3210361003875732,-42.38430404663086,17.570655822753906, -7.288121700286865
250,629544434,0.6532236,-0.14589968,-0.7424865,0.026945904,0.029796814545989037,-1.6326972246170044,-1.352016806602478,30.29245376586914,2.45481276512146, -0.8232461214065552
251,629561101,0.65299594,-0.13561124,-0.74411476,0.038717866,0.5488837957382202,-1.6259832382202148,-2.4980735778808594,106.22332763671875,-21.66429901123047, 0.836013913154602
252,629577768,0.6495971,-0.123755656,-0.74839395,0.051133975,0.6962912082672119,1.0661011934280396,-4.227587699890137,112.91886901855469,-50.6789665222168, -6.009320259094238
253,629594435,0.6425471,-0.11904378,-0.7548622,0.056082904,0.5651312470436096,1.1458150148391724,-2.260134220123291,38.77383041381836,-70.1875, -3.162177085876465
254,629611102,0.6347515,-0.11876364,-0.7611574,0.06021168,3.4020402431488037,-4.437594890594482,0.48338496685028076,14.446502685546875,-70.82414245605469, 16.670536041259766
255,629627769,0.62411445,-0.115474164,-0.76914155,0.07462118,8.764873504638672,-5.896663188934326,-11.754589080810547,78.35250854492188,-102.75534057617188, 45.41402816772461
256,629644436,0.61061144,-0.12054466,-0.7789149,0.07690384,15.38379955291748,0.48425906896591187,1.6981593370437622,-24.740497589111328,-111.28217315673828, 37.45711898803711
257,629661103,0.59910816,-0.12938455,-0.7862658,0.07819991,8.755720138549805,-4.173768520355225,1.0638864040374756,-42.855472564697266,-87.84117889404297, 54.620079040527344
258,629677770,0.5910037,-0.13159025,-0.7909701,0.08811988,19.351348876953125,-2.9280054569244385,1.5271588563919067,35.437828063964844,-69.93743133544922, 54.74004364013672
259,629694437,0.58576256,-0.13014525,-0.7938471,0.09874861,21.455570220947266,-5.427292346954346,-3.954407215118408,57.81877517700195,-50.084999084472656, 37.77550506591797
260,629711104,0.58415866,-0.1312108,-0.7944508,0.10193295,21.324012756347656,-5.047014236450195,-2.8572170734405518,11.87326431274414,-12.821495056152344, 21.105937957763672
261,629727771,0.58579993,-0.13406417,-0.793189,0.098573186,21.321693420410156,-3.9446330070495605,-3.9063003063201904,-26.85896110534668,19.3960018157959, 4.075604438781738
262,629744438,0.5905594,-0.13586576,-0.7902671,0.090873785,20.81633949279785,-3.940443754196167,-3.9345462322235107,-42.303245544433594,46.24917984008789, -19.602684020996094
263,629761105,0.59885895,-0.13600697,-0.7850464,0.081070766,18.14069366455078,-3.4979701042175293,-2.679541826248169,-42.26771545410156,75.63324737548828, -37.125125885009766
264,629777772,0.6117041,-0.13487941,-0.776438,0.06906329,15.59825611114502,-2.46321177482605,-0.4354438781738281,-42.85307693481445,115.36040496826172, -52.338470458984375
265,629794439,0.62671196,-0.1362076,-0.7651903,0.056245495,8.428394317626953,-4.210180759429932,-1.164381504058838,-54.32323455810547,139.77134704589844, -41.144508361816406
266,629811106,0.63943,-0.13459441,-0.7554495,0.048063222,2.6673338413238525,-5.249585151672363,-3.964193344116211,-19.980892181396484,115.69200134277344, -37.264610290527344
267,629827773,0.6476985,-0.1315752,-0.74915326,0.044092886,2.9696438312530518,-4.781668186187744,-6.0615034103393555,2.7112460136413574,73.22455596923828, -27.941625595092773
268,629844440,0.6513623,-0.12937324,-0.7463994,0.043335218,4.582796573638916,-4.13254451751709,-7.797393321990967,10.40084171295166,31.289417266845703, -11.400094032287598
269,629861107,0.6499628,-0.13083352,-0.74744165,0.04197723,3.9404361248016357,-0.9152371287345886,-9.250014305114746,-14.657305717468262,-9.80164623260498, 2.7095000743865967
270,629877774,0.64501566,-0.13449009,-0.7512529,0.03855582,2.210294723510742,1.6115175485610962,-3.719933271408081,-38.975624084472656,-37.59779739379883, 3.300006866455078
271,629894441,0.6390724,-0.13585104,-0.7560882,0.038231418,0.8006440997123718,-0.4860011339187622,-0.504126787185669,-13.909088134765625,-50.64875411987305, 4.562069892883301
272,629911108,0.6339539,-0.1301488,-0.76094,0.046198234,1.041405439376831,0.2439984530210495,-0.3883039057254791,60.97886276245117,-56.018192291259766, 4.015739917755127
273,629927775,0.6300937,-0.12101634,-0.76500547,0.055711932,0.5958296656608582,3.8627076148986816,0.6899462938308716,85.40234375,-48.46303176879883, -6.892369270324707
274,629944442,0.6257609,-0.11764788,-0.7688472,0.058788586,0.9520567059516907,1.4301364421844482,-0.4911278188228607,26.502262115478516,-42.479434967041016, -4.000815391540527
275,629961109,0.6221478,-0.11654805,-0.77170146,0.061849944,2.1532039642333984,-1.6771202087402344,0.25826412439346313,17.40292739868164,-33.4334831237793, 8.514557838439941
276,629977776,0.61256343,-0.11853332,-0.77837443,0.069636405,7.521758556365967,-8.564933776855469,-13.263036727905273,22.707822799682617,-83.9238052368164, 44.54206848144531
277,629994443,0.6003256,-0.12423951,-0.78670204,0.07262022,12.743585586547852,0.18302661180496216,4.077384948730469,-20.62105369567871,-99.20966339111328, 43.71160125732422
278,630011110,0.58810437,-0.13307928,-0.79441965,0.07294297,11.257943153381348,0.6802987456321716,1.1844443082809448,-48.46730041503906,-92.86604309082031, 50.48297882080078
279,630027777,0.5784506,-0.13691276,-0.80019355,0.07962614,16.173656463623047,-2.7821569442749023,-3.5370402336120605,10.003358840942383,-79.52949523925781, 49.42829513549805
280,630044444,0.5728184,-0.13496967,-0.8033035,0.091465086,17.885595321655273,-7.406726837158203,-4.484453201293945,66.60057830810547,-54.89079284667969, 38.5108528137207
281,630061111,0.5708321,-0.13626967,-0.8038753,0.09677763,19.308940887451172,-7.592855453491211,-2.44547963142395,22.72173500061035,-16.72406578063965, 30.709449768066406
282,630077778,0.5718089,-0.14004686,-0.80280864,0.09444497,20.967500686645508,-4.737480163574219,-3.41318416595459,-25.460872650146484,14.733304023742676, 13.917794227600098
283,630094445,0.5759308,-0.1419708,-0.80017006,0.08874765,21.264461517333984,-3.1340324878692627,-4.305609703063965,-32.72853088378906,40.15748596191406, -9.98880672454834
284,630111112,0.58255947,-0.14119312,-0.7962282,0.081912994,19.279447555541992,-3.977686882019043,-3.677542209625244,-25.04958724975586,58.45121765136719, -29.48139190673828
285,630127779,0.5917371,-0.13862678,-0.7907792,0.07279004,17.177072525024414,-2.9976584911346436,-1.5778312683105469,-27.117422103881836,79.55306243896484, -48.33820724487305
286,630144446,0.6055568,-0.13920105,-0.7813387,0.058599856,13.481527328491211,-3.3704373836517334,0.7609505653381348,-61.07501220703125,127.29669952392578, -50.32875061035156
287,630161113,0.6190912,-0.13820529,-0.7715821,0.047817484,4.686896324157715,-6.006101131439209,-2.809788227081299,-36.454078674316406,123.01527404785156, -44.150390625
288,630177780,0.6291842,-0.1328762,-0.7645511,0.04396527,2.301039457321167,-6.128544330596924,-4.635107517242432,14.543718338012695,85.20150756835938, -39.269527435302734
289,630194447,0.63610333,-0.12790449,-0.7596859,0.043480404,4.078179359436035,-3.1117382049560547,-4.389151573181152,27.101360321044922,56.334407806396484, -24.03653907775879
290,630211114,0.6415955,-0.12813137,-0.7551517,0.041030418,4.738654613494873,-1.3222378492355347,-3.7936816215515137,-7.218711853027344,50.83794021606445, -5.425166606903076
291,630227781,0.6473977,-0.13120104,-0.74989027,0.03643051,4.073019027709961,3.0520310401916504,-1.1903883218765259,-30.471345901489258,58.458614349365234, 0.39474260807037354
292,630244448,0.6535423,-0.13604386,-0.7438954,0.03153362,1.2077215909957886,-0.5443519353866577,-0.28928330540657043,-39.353416442871094,64.20343017578125, 8.918209075927734
293,630261115,0.65887284,-0.13670442,-0.7390291,0.0321662,0.29473423957824707,-0.4438255727291107,-2.8445968627929688,6.683022499084473,48.8931999206543, 11.478852272033691
294,630277782,0.66026336,-0.13784426,-0.7376528,0.03032663,0.5669605135917664,2.6235694885253906,-5.622338771820068,-12.495083808898926,15.585037231445312, 0.28455111384391785
295,630294449,0.6561358,-0.14447057,-0.74028987,0.024189103,0.3837292492389679,-0.4173871576786041,-7.502983093261719,-65.19761657714844,-25.22605323791504, 6.031453609466553
296,630311116,0.6479925,-0.1496299,-0.74646336,0.02256297,1.075201153755188,-2.246870756149292,-4.032838821411133,-40.11824417114258,-66.11055755615234, 16.052629470825195
297,630327783,0.64064735,-0.1474458,-0.75278336,0.03388288,5.659094333648682,-8.5540771484375,2.630998134613037,59.879886627197266,-77.00318145751953, 35.68258285522461
298,630344450,0.6313748,-0.1407569,-0.76072574,0.05338608,10.045897483825684,-1.7577133178710938,-8.271866798400879,119.6757583618164,-103.5909423828125, 46.95777130126953
299,630361117,0.6179781,-0.14732623,-0.770185,0.056686606,12.13090991973877,-1.8721154928207397,4.33782958984375,-27.091537475585938,-110.99629211425781, 46.01357650756836
300,630377784,0.6075598,-0.1509925,-0.77690995,0.066958085,13.005009651184082,-5.175528526306152,1.9135308265686035,26.201231002807617,-92.03732299804688, 61.9052619934082
301,630394451,0.5995988,-0.14798379,-0.7823826,0.080373764,23.468603134155273,-2.1489412784576416,-0.7158195972442627,73.94717407226562,-80.18363952636719, 39.499267578125
302,630411118,0.594153,-0.14376321,-0.7861984,0.09059041,22.23705291748047,-1.7231913805007935,-3.256999969482422,65.20877075195312,-57.415260314941406, 20.24445343017578
303,630427785,0.59129167,-0.144,-0.788154,0.09193365,21.835508346557617,-1.8674291372299194,-3.0566821098327637,2.7823143005371094,-24.399215698242188, 8.485174179077148
304,630444452,0.5916289,-0.14549294,-0.7881858,0.08700757,21.182483673095703,-3.7563467025756836,-3.235461950302124,-31.89506721496582,7.637989044189453, -10.149869918823242
305,630461119,0.5962302,-0.14515133,-0.7855563,0.0796373,18.257041931152344,-4.231833457946777,-3.5641283988952637,-31.828067779541016,42.80902099609375, -29.827428817749023
306,630477786,0.6052778,-0.14294659,-0.7799386,0.07000878,15.088109016418457,-4.167915344238281,-2.4248313903808594,-30.33445167541504,80.2434310913086, -48.55535888671875
307,630494453,0.61860394,-0.13961042,-0.7708918,0.059699625,11.113855361938477,-4.579110622406006,-0.4558562636375427,-23.46511459350586,117.52727508544922, -56.13608169555664
308,630511120,0.6319895,-0.13481887,-0.7613474,0.052568175,4.349081039428711,-5.295437812805176,-3.088465690612793,-0.21208509802818298,116.23513793945312, -49.93275833129883
309,630527787,0.64194876,-0.1285835,-0.7542474,0.049788315,2.6413321495056152,-4.943950176239014,-5.798221588134766,24.791860580444336,83.18675994873047, -39.745819091796875
310,630544454,0.6484723,-0.1235446,-0.7495121,0.04951779,4.319030284881592,-2.178408145904541,-6.515588283538818,28.599123001098633,53.31574249267578, -23.509618759155273
311,630561121,0.6516604,-0.12355769,-0.7469077,0.046919227,3.9760756492614746,-1.2046928405761719,-5.839824199676514,-9.422295570373535,30.502504348754883, -8.573116302490234
312,630577788,0.6520968,-0.12718756,-0.74619174,0.042320758,3.614712953567505,1.813876986503601,-5.17612361907959,-38.80976104736328,10.934898376464844, 0.30939674377441406
313,630594455,0.65088814,-0.13195428,-0.74673724,0.036281753,1.6123673915863037,0.8424961566925049,-0.6091750860214233,-53.03951644897461,-1.44099760055542, -0.863848090171814
314,630611122,0.6483981,-0.13567497,-0.74834377,0.033969574,0.31125161051750183,-1.2782405614852905,-1.0722252130508423,-30.636783599853516,-16.412220001220703, 9.831716537475586
315,630627789,0.644419,-0.13474756,-0.751747,0.037998777,0.8713545203208923,-1.2234747409820557,-2.3976426124572754,20.907184600830078,-39.05801010131836, 12.810192108154297
316,630644456,0.63857406,-0.13143522,-0.7569793,0.04393587,-0.22140496969223022,1.0352405309677124,-1.808067798614502,39.14800262451172,-59.12742614746094, 7.68281364440918
317,630661123,0.63151664,-0.13021065,-0.7628287,0.04821141,2.4155471324920654,0.6779693365097046,2.041673421859741,20.084495544433594,-65.95928192138672, 11.074512481689453
318,630677790,0.62304926,-0.1281849,-0.7692003,0.060904212,4.975813388824463,-8.99472427368164,-11.225618362426758,66.26881408691406,-83.4964828491211, 43.44217300415039
319,630694457,0.6088634,-0.12717935,-0.77977943,0.07109782,12.484098434448242,0.0625249445438385,-2.5891146659851074,41.928070068359375,-128.84078979492188, 36.56060791015625
320,630711124,0.5965973,-0.13098606,-0.78807706,0.076480545,10.018675804138184,-1.6686444282531738,0.7811013460159302,-0.765392005443573,-102.5567855834961, 43.27649688720703
321,630727791,0.58718973,-0.1314372,-0.7940529,0.08609726,16.138338088989258,-2.06474232673645,-1.7559431791305542,38.79929733276367,-83.00226593017578, 43.268428802490234
322,630744458,0.58124256,-0.13026719,-0.79757047,0.09523127,19.128787994384766,-4.781487464904785,-4.8488898277282715,47.88943862915039,-54.95579147338867, 32.56916809082031
323,630761125,0.57952183,-0.13137722,-0.7981513,0.09924183,19.19070053100586,-5.223843574523926,-3.731015920639038,16.356992721557617,-13.995497703552246, 24.49593162536621
324,630777792,0.5814317,-0.13693684,-0.79620767,0.09611935,21.90003204345703,-4.2611083984375,-2.387800455093384,-35.43838882446289,25.352632522583008, 20.303049087524414
325,630794459,0.5857272,-0.14194968,-0.7931414,0.08775497,22.5194091796875,-3.1270976066589355,-3.1284215450286865,-59.07307052612305,47.34565353393555, -4.054649353027344
326,630811126,0.59318507,-0.14422579,-0.7882594,0.07731617,20.782764434814453,-4.211574554443359,-2.0819787979125977,-55.23625564575195,72.15496063232422, -27.3377628326416
327,630827793,0.60332566,-0.14604838,-0.7813871,0.06404914,17.74542808532715,-3.708275318145752,-0.6547620296478271,-65.00752258300781,97.23155212402344, -40.724212646484375
328,630844460,0.61617684,-0.14767122,-0.77215624,0.04789796,13.019918441772461,-2.9949231147766113,0.34792882204055786,-76.05315399169922,124.27034759521484, -52.53192138671875
329,630861127,0.6310116,-0.14812233,-0.7607747,0.03325888,7.137544631958008,-4.342577934265137,1.0863982439041138,-60.28052520751953,141.8511505126953, -50.826751708984375
330,630877794,0.6442344,-0.14590888,-0.7503155,0.026444968,2.404344320297241,-6.299265384674072,-3.5429623126983643,-9.631546020507812,120.74121856689453, -31.46854019165039
331,630894461,0.6517431,-0.13954876,-0.7449807,0.02758504,3.288964033126831,-5.1846723556518555,-6.219494819641113,42.71486282348633,59.995182037353516, -21.862646102905273
332,630911128,0.6548729,-0.13343406,-0.7432336,0.030672885,3.7787957191467285,-2.0178143978118896,-5.591245174407959,46.88412857055664,19.807859420776367, -14.631771087646484
333,630927795,0.65503746,-0.13019186,-0.7435146,0.034089882,4.197509288787842,-0.3411470949649811,-5.953431606292725,32.60308837890625,-4.038511276245117, 0.24983364343643188
334,630944462,0.65437233,-0.12847662,-0.7443056,0.036055665,2.3236746788024902,3.3514115810394287,-2.8133082389831543,17.454530715942383,-8.759503364562988, 1.2702568769454956
335,630961129,0.65464014,-0.12726499,-0.7442239,0.037161864,0.5685465931892395,2.278625726699829,-0.19331464171409607,11.88522720336914,0.8927502632141113, 0.6200646162033081
336,630977796,0.6557391,-0.1258935,-0.7434121,0.038676295,-0.13448390364646912,1.6389193534851074,0.3514145016670227,15.624714851379395,8.036306381225586, 2.1249406337738037
337,630994463,0.6553786,-0.124713875,-0.7438759,0.039676335,0.33096033334732056,1.1893731355667114,-3.763925790786743,10.538535118103027,-4.688354969024658, 0.1061582863330841
338,631011130,0.650811,-0.12761977,-0.74756676,0.036088947,0.6339452862739563,0.8151701092720032,-7.7914958000183105,-35.77361297607422,-35.601173400878906, -1.264266848564148
339,631027797,0.6420636,-0.1334588,-0.75419253,0.033717796,1.0512629747390747,-6.169701099395752,-3.757845401763916,-46.95853805541992,-70.3637924194336, 17.731237411499023
340,631044464,0.63009405,-0.13201158,-0.76375735,0.047216363,7.740378379821777,-7.318887233734131,-7.05049991607666,63.8457145690918,-116.20868682861328, 47.87876510620117
341,631061131,0.6151122,-0.13404576,-0.7750026,0.05513271,13.685348510742188,-1.0329378843307495,0.8215977549552917,16.180465698242188,-132.96641540527344, 41.25617218017578
342,631077798,0.601095,-0.14280805,-0.7841155,0.058767397,10.815637588500977,-3.558119773864746,2.5832607746124268,-33.4207878112793,-112.42139434814453, 60.65576171875
343,631094465,0.5901255,-0.14468206,-0.79117054,0.06977465,15.677279472351074,-4.222415924072266,-1.2896243333816528,38.640663146972656,-97.67362213134766, 54.73681640625
344,631111132,0.5830806,-0.1421873,-0.79561144,0.08247777,18.607789993286133,-4.620060920715332,-4.779327869415283,70.72478485107422,-69.58963775634766, 38.56568908691406
345,631127799,0.57987034,-0.14227003,-0.7974126,0.08742346,19.991575241088867,-4.27462911605835,-4.568395137786865,23.19011116027832,-29.014291763305664, 21.994874954223633
346,631144466,0.58054185,-0.1447238,-0.7966554,0.085828036,21.680774688720703,-4.756653785705566,-3.03060245513916,-16.78191566467285,10.228095054626465, 9.13664722442627
347,631161133,0.5840267,-0.1460411,-0.79441667,0.08054369,22.170745849609375,-3.5046703815460205,-2.5572192668914795,-28.7913761138916,34.4329833984375, -11.939616203308105
348,631177800,0.5902565,-0.14679486,-0.7904564,0.07230058,20.3327693939209,-3.1689727306365967,-1.5900713205337524,-39.00248336791992,58.871315002441406, -26.5956974029541
349,631194467,0.5989913,-0.14754325,-0.78465545,0.061290782,17.065959930419922,-2.532141923904419,-0.8078945875167847,-50.596656799316406,82.61453247070312, -37.16264724731445
350,631211134,0.6099675,-0.14689548,-0.7771121,0.049580283,11.902713775634766,-2.569176435470581,-0.33992117643356323,-45.6495475769043,101.88996124267578, -46.698020935058594
351,631227801,0.62370735,-0.14426672,-0.76710856,0.04148406,6.845226287841797,-3.7298474311828613,-1.3805431127548218,-14.452888488769531,122.5779800415039, -40.56419372558594
352,631244468,0.6348074,-0.13878329,-0.75911295,0.03881185,1.616438865661621,-5.369690895080566,-6.392913341522217,23.33837890625,93.81110382080078, -33.67115783691406
353,631261135,0.6414361,-0.13116331,-0.7547694,0.040978473,2.321746826171875,-4.761923313140869,-8.070816040039062,52.68117141723633,49.51048278808594, -26.11864471435547
354,631277802,0.6444169,-0.12486465,-0.75313467,0.043861847,3.076038122177124,-1.9949606657028198,-6.44049596786499,45.91399383544922,18.68360137939453, -17.566524505615234
355,631294469,0.645437,-0.120951645,-0.75283796,0.044908054,3.41433048248291,2.4102509021759033,-3.5862345695495605,24.29088020324707,4.953977584838867, -13.99654769897461
356,631311136,0.64551824,-0.11914915,-0.7530762,0.044565152,1.9976974725723267,1.4211493730545044,-1.5265984535217285,6.821477890014648,-0.39566513895988464, -9.316226959228516
357,631327803,0.64488584,-0.11768051,-0.7537144,0.046781577,1.082654356956482,-0.3345920443534851,-0.6847314834594727,17.880908966064453,-7.826791763305664, 3.7044150829315186
358,631344470,0.643628,-0.111804515,-0.7551214,0.055086993,1.0665291547775269,-0.2771471440792084,-2.53733229637146,68.22456359863281,-20.805574417114258, 7.428925514221191
359,631361137,0.64031124,-0.10572471,-0.75818187,0.06312155,-0.11530915647745132,-0.11536181718111038,-3.1029326915740967,65.53939819335938,-38.61852264404297, 4.664583206176758
360,631377804,0.63561547,-0.10106462,-0.762242,0.06903626,2.2218029499053955,3.4293577671051025,-0.5226824879646301,46.82684326171875,-47.9705924987793, 2.5846376419067383
361,631394471,0.62800413,-0.10491209,-0.76771456,0.07223885,4.4409499168396,-10.370172500610352,-11.153768539428711,-7.211827754974365,-63.50493621826172, 35.80241012573242
362,631411138,0.61574847,-0.10805837,-0.7764502,0.07938775,12.218864440917969,-3.8605215549468994,-0.21597927808761597,11.700702667236328,-105.0672607421875, 48.853172302246094
363,631427805,0.6063913,-0.115219094,-0.7823057,0.083739005,12.786661148071289,-4.417988300323486,4.017000198364258,-16.531476974487305,-73.20084381103516, 58.97156524658203
364,631444472,0.5983769,-0.11859182,-0.78706974,0.091664635,17.211259841918945,-1.3442755937576294,-0.39618685841560364,20.106637954711914,-66.61788177490234, 53.56573486328125
365,631461139,0.59274495,-0.11883831,-0.79050964,0.09811019,21.653236389160156,-3.358508586883545,-3.537370443344116,27.73920249938965,-49.150760650634766, 30.215373992919922
366,631477806,0.59128815,-0.11627159,-0.7913073,0.10340358,21.59241485595703,-4.745956897735596,-2.7177186012268066,38.15339279174805,-16.716236114501953, 9.641674041748047
367,631494473,0.5927104,-0.1173282,-0.7904284,0.10075467,22.518871307373047,-4.217489719390869,-2.2582356929779053,-16.279499053955078,14.590218544006348, -3.599090099334717
368,631511140,0.59737265,-0.1193668,-0.7876421,0.0922901,21.81642723083496,-3.5032966136932373,-2.5874998569488525,-47.89677810668945,45.21474075317383, -22.614212036132812
369,631527807,0.60614735,-0.11978491,-0.78204864,0.08146858,18.50187110900879,-2.5646986961364746,-1.9417774677276611,-49.00251388549805,79.86327362060547, -41.27210998535156
370,631544474,0.6190818,-0.11806935,-0.7732575,0.06978806,14.20253849029541,-2.783799648284912,0.697411298751831,-39.51528549194336,114.98888397216797, -55.95943069458008
371,631561141,0.6333666,-0.116629586,-0.7626511,0.060065832,7.31886100769043,-4.8051838874816895,-0.6950039863586426,-28.341703414916992,128.3360137939453, -45.30868148803711
372,631577808,0.6442894,-0.11311765,-0.754377,0.054874267,2.704458236694336,-6.7453460693359375,-4.312198162078857,0.7247190475463867,96.0423355102539, -36.993350982666016
373,631594475,0.65114963,-0.10903859,-0.7491723,0.053440496,3.873892307281494,-3.5509769916534424,-6.392605781555176,18.362247467041016,58.335662841796875, -24.284448623657227
374,631611142,0.6549227,-0.110356234,-0.74596524,0.049333595,4.2081217765808105,-0.9256188273429871,-5.275116920471191,-22.592647552490234,37.61198043823242, -8.882648468017578
375,631627809,0.6573575,-0.116220035,-0.7434373,0.04093012,3.946641445159912,4.209315776824951,-3.0209810733795166,-66.30609130859375,32.593074798583984, -4.976643085479736
376,631644476,0.6597205,-0.1242188,-0.740563,0.030086666,2.0500128269195557,2.443554401397705,-0.7301598787307739,-88.32657623291016,36.382266998291016, -4.6784515380859375
377,631661143,0.6620878,-0.12910789,-0.73782825,0.02409385,0.42014074325561523,-0.9602734446525574,0.009940000250935555,-49.527915954589844,30.980453491210938, 1.4348599910736084
378,631677810,0.6640909,-0.124892466,-0.73657566,0.029008696,0.3570966124534607,-2.5074033737182617,-1.2201166152954102,46.659358978271484,11.194883346557617, 3.6216328144073486
379,631694477,0.6623162,-0.118028365,-0.73895335,0.03680746,0.9765684008598328,0.510213315486908,-4.405314922332764,69.40010833740234,-27.484912872314453, 0.9466062784194946
380,631711144,0.6549433,-0.1186464,-0.74529696,0.038796026,0.9475839138031006,-1.4186782836914062,-3.165273904800415,0.30364990234375,-67.28035736083984, 10.706046104431152
381,631727811,0.6442095,-0.121977076,-0.753903,0.04178546,2.254743814468384,-4.535947799682617,-0.9981539845466614,-10.113410949707031,-94.71846008300781, 28.1258544921875
382,631744478,0.63415897,-0.120246895,-0.76163834,0.0573612,7.66452693939209,-7.4189229011535645,-4.188510417938232,78.38129425048828,-99.32585144042969, 58.06881332397461
383,631761145,0.6189766,-0.12163828,-0.7728009,0.0696509,14.124848365783691,-4.357449531555176,-3.6001222133636475,41.917667388916016,-137.1321258544922, 59.1418571472168
384,631777812,0.6047283,-0.12484402,-0.7827337,0.07775501,11.375041961669922,-3.2789227962493896,1.6333580017089844,13.317553520202637,-122.5531005859375, 51.52322006225586
385,631794479,0.5933928,-0.12435409,-0.7903141,0.088459514,18.332876205444336,-0.00007091742008924484,-2.597511053085327,46.316307067871094,-101.38134765625, 42.91518020629883
386,631811146,0.5859143,-0.12211687,-0.7951846,0.09733166,20.877552032470703,-1.15017569065094,-6.0784807205200195,49.00456619262695,-69.0640869140625, 25.899734497070312
387,631827813,0.5834831,-0.119995005,-0.79658693,0.1029467,20.050662994384766,-3.3388965129852295,-4.743203639984131,37.3166389465332,-24.695480346679688, 13.0471773147583
388,631844480,0.58490914,-0.12176718,-0.7955283,0.10094135,20.893346786499023,-4.70574426651001,-3.6659398078918457,-15.384434700012207,15.382454872131348, 3.233602523803711
389,631861147,0.5899268,-0.12502523,-0.7923614,0.09229688,20.81517791748047,-4.481570720672607,-2.6973912715911865,-53.29060745239258,50.045257568359375, -16.00238609313965
390,631877814,0.5980347,-0.12724929,-0.78714234,0.08105102,18.231891632080078,-3.6823012828826904,-1.9328937530517578,-58.03460693359375,76.3623046875, -32.61832809448242
391,631894481,0.6090446,-0.12766623,-0.779754,0.06891799,14.61402416229248,-3.055981159210205,-0.9754638671875,-52.92043685913086,101.00060272216797, -45.454349517822266
392,631911148,0.6227732,-0.12583937,-0.7700944,0.05720698,9.507838249206543,-2.81644344329834,0.03491678833961487,-37.542137145996094,123.52490234375, -55.033973693847656
393,631927815,0.63694197,-0.12533237,-0.75913864,0.04801528,4.828813076019287,-5.105283737182617,-1.4749054908752441,-31.032859802246094,130.1184844970703, -36.0412712097168
394,631944482,0.6467795,-0.12215602,-0.7514868,0.044968028,3.0527069568634033,-4.854113578796387,-4.934220790863037,9.009444236755371,86.63597869873047, -24.724998474121094
395,631961149,0.6523673,-0.11742456,-0.7473672,0.04550488,3.869589328765869,-2.953228235244751,-6.196233749389648,30.15156364440918,45.50514221191406, -18.599071502685547
396,631977816,0.65525264,-0.115863025,-0.7451089,0.04508287,3.1469428539276123,-1.5814341306686401,-5.089958190917969,8.513446807861328,25.109060287475586, -7.331705093383789
397,631994483,0.6572786,-0.11569926,-0.74345076,0.04335465,2.943453311920166,3.8167665004730225,-1.8983291387557983,-5.461533069610596,19.598913192749023, -6.2792067527771
398,632011150,0.6593486,-0.11894823,-0.7413986,0.037932787,1.2284852266311646,1.9263617992401123,0.4449909031391144,-39.56999588012695,25.583568572998047, -5.1342854499816895
399,632027817,0.6616941,-0.1208092,-0.73911166,0.03577982,0.41337642073631287,0.578967809677124,-0.16374781727790833,-16.311922073364258,24.996307373046875, 2.7727372646331787
400,632044484,0.6623663,-0.1210077,-0.7384378,0.036574114,0.8311603665351868,0.588625967502594,-3.6784253120422363,4.444016456604004,6.296955108642578, 6.814792156219482
401,632061151,0.6592057,-0.12084315,-0.7411695,0.038893342,0.6615380644798279,-1.2000676393508911,-4.62708854675293,9.84227466583252,-29.963090896606445, 10.055218696594238
402,632077818,0.65166634,-0.123961225,-0.7472132,0.040464442,1.82297682762146,-1.7087763547897339,-5.230359077453613,-13.345959663391113,-65.69921112060547, 21.780569076538086
403,632094485,0.6405629,-0.12618586,-0.7558475,0.0495074,6.9383673667907715,-7.42105770111084,-5.948355674743652,25.308059692382812,-102.1382827758789, 49.414180755615234
404,632111152,0.6268773,-0.12874071,-0.76611364,0.059335988,12.945369720458984,-5.714559078216553,-0.3110760748386383,25.138017654418945,-123.22325134277344, 53.92017364501953
405,632127819,0.61506206,-0.1322436,-0.774288,0.06847163,11.186226844787598,-4.729612350463867,2.299280881881714,19.97755241394043,-103.42537689208984, 56.938602447509766
406,632144486,0.6055831,-0.13196719,-0.7806416,0.080327615,16.441173553466797,-3.4171321392059326,-1.3657267093658447,53.231632232666016,-87.60572052001953, 48.85908508300781
407,632161153,0.59902257,-0.1295689,-0.7849353,0.090889096,20.71030044555664,-3.179533004760742,-3.1317527294158936,58.87478256225586,-63.41319274902344, 32.36015701293945
408,632177820,0.5960959,-0.12979464,-0.7866017,0.09529307,23.11557960510254,-1.742121934890747,-2.3941683769226074,19.970386505126953,-25.978702545166016, 21.2357120513916
409,632194487,0.5958099,-0.13250077,-0.7865666,0.093632944,22.994638442993164,-1.315689206123352,-2.7106211185455322,-19.627737045288086,2.2580645084381104, 9.717071533203125
410,632211154,0.5988847,-0.13482808,-0.7845453,0.087448016,21.497119903564453,-3.2757811546325684,-2.915294885635376,-38.32865524291992,32.40126419067383, -11.075800895690918
411,632227821,0.60592,-0.13668053,-0.7798411,0.07763648,17.516132354736328,-3.858095169067383,-2.5905349254608154,-50.50821304321289,67.77879333496094, -28.42603874206543
412,632244488,0.6164716,-0.13871178,-0.7724497,0.063588575,14.084980964660645,-3.789191484451294,-1.797402024269104,-69.89543914794922,102.01901245117188, -44.32254409790039
413,632261155,0.6312835,-0.14099023,-0.76111484,0.04803525,9.212140083312988,-4.4975690841674805,-0.7200757265090942,-72.70674133300781,142.74667358398438, -47.57524871826172
414,632277822,0.6445177,-0.1406762,-0.7506253,0.03699872,2.511855125427246,-6.507819175720215,-3.7717208862304688,-39.06659698486328,125.42130279541016, -41.94145584106445
415,632294489,0.6533285,-0.13653582,-0.74393076,0.032972317,2.2369890213012695,-6.946660041809082,-6.095077037811279,9.261819839477539,77.9968032836914, -33.30442810058594
416,632311156,0.65802467,-0.13152765,-0.74068266,0.033067677,3.7711942195892334,-3.394474983215332,-6.329653739929199,28.091510772705078,37.81696319580078, -21.54298210144043
417,632327823,0.65899235,-0.13068485,-0.7399926,0.032582954,4.0347819328308105,-0.7246536016464233,-8.463235855102539,3.085505485534668,8.70020866394043, -4.5165324211120605
418,632344490,0.6566978,-0.13389719,-0.74158645,0.029481215,3.65834641456604,2.914297580718994,-4.928720474243164,-32.177467346191406,-14.802606582641602, 2.948566198348999
419,632361157,0.65268904,-0.13836592,-0.7444097,0.026572932,1.5990866422653198,-0.3812684118747711,-1.7290334701538086,-38.821659088134766,-28.908246994018555, 9.5267972946167
420,632377824,0.64898986,-0.13637793,-0.7477594,0.032699905,0.4544910490512848,-2.587502956390381,1.1725856065750122,37.11461639404297,-39.53466033935547, 16.424875259399414
421,632394491,0.64514023,-0.12998103,-0.75163066,0.044165544,0.9266437888145447,1.437238335609436,-1.6959400177001953,83.8538818359375,-48.639007568359375, 17.07133674621582
422,632411158,0.6390906,-0.12895378,-0.7567541,0.047515176,0.4853939414024353,3.294067859649658,-0.5248245000839233,15.579687118530273,-56.61223602294922, 8.405008316040039
423,632427825,0.63172483,-0.13627462,-0.7619234,0.04273051,1.1902918815612793,-0.46746426820755005,3.465848207473755,-64.5094223022461,-53.73823928833008, 16.536605834960938
424,632444492,0.6245034,-0.13686457,-0.76691777,0.055683088,5.9962921142578125,-14.666980743408203,-10.251385688781738,57.805809020996094,-70.89492797851562, 58.42662811279297
425,632461159,0.61370754,-0.13457286,-0.7748869,0.06930595,15.7407808303833,0.4934907555580139,-1.670759916305542,68.6062240600586,-103.95492553710938, 44.51485824584961
426,632477826,0.6026635,-0.14014326,-0.78206104,0.07441276,11.046364784240723,-0.14344286918640137,0.6687730550765991,-9.535794258117676,-90.39228057861328, 51.367271423339844
427,632494493,0.59301627,-0.14295468,-0.78808427,0.08257688,18.212711334228516,0.4429148733615875,-1.07427978515625,20.4417781829834,-82.58401489257812, 49.612876892089844
428,632511160,0.58648133,-0.14250687,-0.79208297,0.09130206,20.865293502807617,-5.479543685913086,-3.409756898880005,41.148223876953125,-59.98944854736328, 34.527671813964844
429,632527827,0.5846865,-0.14221996,-0.79286736,0.09631534,20.413806915283203,-5.010739803314209,-2.9510788917541504,26.901865005493164,-17.523914337158203, 20.636877059936523
430,632544494,0.5854447,-0.1455875,-0.79204834,0.0933717,21.018115997314453,-4.019352912902832,-3.0482869148254395,-27.629554748535156,12.974997520446777, 8.484627723693848
431,632561161,0.588915,-0.14820206,-0.7898775,0.085492924,20.91495704650879,-4.29392671585083,-3.1936609745025635,-47.891178131103516,37.56897735595703, -15.81300163269043
432,632577828,0.595803,-0.14796789,-0.78566754,0.076491214,18.256160736083984,-3.5241169929504395,-2.2735061645507812,-37.768367767333984,63.78645324707031, -35.71612548828125
433,632594495,0.60535616,-0.14825141,-0.77939105,0.06414974,15.661816596984863,-1.9296190738677979,-1.0327916145324707,-54.098602294921875,90.24654388427734, -45.8672981262207
434,632611162,0.6177997,-0.14862797,-0.7705707,0.04954115,11.156089782714844,-1.7054882049560547,-0.045376673340797424,-62.635581970214844,118.62903594970703, -53.42573928833008
435,632627829,0.6317574,-0.14848162,-0.7598366,0.038529005,4.90372371673584,-4.285822868347168,-1.6397695541381836,-39.09275817871094,130.85308837890625, -39.4658203125
436,632644496,0.6409564,-0.14385003,-0.75311184,0.03612082,0.8312053680419922,-7.0001678466796875,-5.906741619110107,18.712797164916992,78.75999450683594, -28.323869705200195
437,632661163,0.6460647,-0.1338241,-0.75030905,0.041568533,3.3232133388519287,-3.914733648300171,-6.491857528686523,79.3028335571289,31.047481536865234, -24.742938995361328
438,632677830,0.6476237,-0.12702006,-0.74987155,0.046285085,3.4396731853485107,-2.763484477996826,-7.105867385864258,57.39065170288086,3.917504072189331, -12.592329978942871
439,632694497,0.6467163,-0.12384016,-0.75106937,0.048131626,3.0907974243164062,1.8403011560440063,-6.266720771789551,22.8374080657959,-12.106884002685547, -7.282771110534668
440,632711164,0.645498,-0.12576146,-0.75215346,0.042210978,1.3177129030227661,5.585564136505127,-0.9492872953414917,-39.86444091796875,-4.862743377685547, -15.258915901184082
441,632727831,0.6447483,-0.12978673,-0.75246495,0.03537687,0.37518414855003357,0.6312566995620728,-0.4805265963077545,-53.6579704284668,2.4685328006744385, -7.761431694030762
442,632744498,0.6431407,-0.13045685,-0.753695,0.035984572,0.5910524725914001,-2.457237720489502,-2.785529136657715,-0.9285123348236084,-13.561896324157715, 7.236150741577148
443,632761165,0.64026684,-0.1223288,-0.7569178,0.046580072,-0.14599022269248962,-2.6267590522766113,-1.8885812759399414,88.15802764892578,-40.03288269042969, 4.279786586761475
444,632777832,0.6342808,-0.11837631,-0.7620426,0.054464854,1.2701408863067627,-1.73502779006958,-1.7159693241119385,52.04633712768555,-60.870426177978516, 13.460036277770996
445,632794499,0.6247399,-0.12071888,-0.7687776,0.06409522,6.672745704650879,-10.963119506835938,-4.994935512542725,31.101072311401367,-85.73552703857422, 53.93121337890625
446,632811166,0.61241406,-0.1234795,-0.7772448,0.07478296,13.686165809631348,-5.4756693840026855,1.3972253799438477,31.9954776763916,-108.59300231933594, 60.2583122253418
447,632827833,0.6005765,-0.12718268,-0.78486395,0.08438829,10.724690437316895,-3.930438280105591,1.0585764646530151,18.893634796142578,-100.06170654296875, 61.953861236572266
448,632844500,0.5905884,-0.12443828,-0.79120386,0.0985751,18.712722778320312,1.127590537071228,-2.772307872772217,74.0426025390625,-92.94194030761719, 45.87447738647461
449,632861167,0.5834312,-0.121961474,-0.79560375,0.1083902,21.946470260620117,-2.6980817317962646,-4.093085765838623,56.99362564086914,-66.9227523803711, 28.489356994628906
450,632877834,0.5803859,-0.121569954,-0.79736805,0.11214823,21.469650268554688,-4.4656982421875,-3.780153274536133,18.062902450561523,-26.4411678314209, 15.506424903869629
451,632894501,0.5807229,-0.122731514,-0.7973317,0.10936357,20.976476669311523,-5.232067584991455,-3.533560037612915,-17.04696273803711,5.077666282653809, -3.840423822402954
452,632911168,0.5853349,-0.12292105,-0.794818,0.10265515,19.58169937133789,-4.750614166259766,-4.0186004638671875,-31.85002326965332,41.712162017822266, -25.258262634277344
453,632927835,0.5936388,-0.12335825,-0.78984743,0.09228766,17.24094581604004,-3.781980514526367,-2.872238874435425,-48.928829193115234,75.25154113769531, -38.92102813720703
454,632944502,0.6046459,-0.12509073,-0.78272825,0.07805121,14.654504776000977,-3.047461986541748,-1.6855376958847046,-69.69332122802734,102.24424743652344, -47.981136322021484
455,632961169,0.6180448,-0.12654476,-0.7733929,0.062214155,10.39673137664795,-2.5171563625335693,-0.9626660943031311,-74.01162719726562,125.54254150390625, -55.46450424194336
456,632977836,0.6331832,-0.12798555,-0.761808,0.048453085,5.719041347503662,-3.1654670238494873,-0.4024888873100281,-59.5460319519043,142.31654357910156, -45.620826721191406
457,632994503,0.64411896,-0.12677151,-0.75321066,0.041394092,1.526268482208252,-5.20263147354126,-3.4973158836364746,-21.697540283203125,101.33235168457031, -31.106689453125
458,633011170,0.6500597,-0.12156149,-0.74895805,0.041318234,3.0158567428588867,-4.607887268066406,-4.904831886291504,35.128623962402344,47.38162612915039, -24.153583526611328
459,633027837,0.6526547,-0.1148885,-0.74752724,0.045231063,3.3215491771698,-3.020667314529419,-4.8644843101501465,53.50127029418945,14.849617004394531, -14.868267059326172
460,633044504,0.6550088,-0.10963057,-0.74608624,0.047961857,4.447171688079834,4.690214157104492,-1.728232502937317,40.82320022583008,15.118765830993652, -12.84722900390625
461,633061171,0.65864307,-0.11283712,-0.7427679,0.041869454,1.6317495107650757,4.525480270385742,3.027980089187622,-41.31474304199219,39.66452407836914, -8.051587104797363
462,633077838,0.6626831,-0.11830948,-0.73854417,0.037504725,0.14677146077156067,-1.9966522455215454,-0.343233197927475,-42.14259719848633,45.08478546142578, 12.005216598510742
463,633094505,0.66488135,-0.11728239,-0.7365948,0.040072937,0.3861737847328186,-1.1995923519134521,-4.964822292327881,20.58929443359375,18.0565128326416, 9.181519508361816
464,633111172,0.6626575,-0.1177982,-0.7385457,0.03948356,0.410989910364151,3.074154853820801,-7.0910868644714355,-7.074161052703857,-19.11901092529297, 0.6132521033287048
465,633127839,0.6531124,-0.12749328,-0.74552774,0.03712672,3.0547714233398438,-11.144771575927734,-9.205400466918945,-65.10444641113281,-75.19425964355469, 37.13114929199219
466,633144506,0.64054066,-0.12817998,-0.7555205,0.04966313,9.966221809387207,-7.379361629486084,0.019401632249355316,48.362457275390625,-119.47052764892578, 55.78459548950195
467,633161173,0.6275908,-0.12915978,-0.76543164,0.05968363,10.946890830993652,-0.590621292591095,2.0978245735168457,33.53110122680664,-118.75959777832031, 46.349952697753906
468,633177840,0.61420155,-0.13396637,-0.77477306,0.06735206,10.901302337646484,-4.3719706535339355,0.26543354988098145,4.372066974639893,-114.99983978271484, 57.069393157958984
469,633194507,0.60463834,-0.12821935,-0.78149253,0.08509881,16.204111099243164,-4.850258827209473,-2.2052087783813477,107.60309600830078,-97.82670593261719, 43.98099899291992
470,633211174,0.59755087,-0.122783415,-0.78619105,0.09879878,20.7210693359375,-2.51159405708313,-2.748826265335083,88.65033721923828,-72.60598754882812, 28.996747970581055
471,633227841,0.5935485,-0.12231676,-0.7887962,0.10266261,21.489194869995117,-1.660663366317749,-3.5872082710266113,17.58733367919922,-35.27653503417969, 15.4944429397583
472,633244508,0.59291667,-0.12254275,-0.78943807,0.10109796,21.32288932800293,-1.663759708404541,-4.625433921813965,-8.21508502960205,-4.6095709800720215, -4.053134441375732
473,633261175,0.59615624,-0.12171586,-0.7877363,0.09620096,20.91937828063965,-4.184731960296631,-3.139190912246704,-18.002145767211914,28.265750885009766, -23.784425735473633
474,633277842,0.6029528,-0.12049597,-0.7836402,0.08852638,18.82868766784668,-4.395493030548096,-1.109744668006897,-28.288009643554688,59.74856948852539, -37.302978515625
475,633294509,0.61267203,-0.12061266,-0.7773148,0.07659878,15.621472358703613,-3.6143269538879395,-0.006100282073020935,-54.133506774902344,89.28731536865234, -47.438804626464844
476,633311176,0.6256797,-0.11928365,-0.76818305,0.06474147,10.875204086303711,-3.3150956630706787,1.061312198638916,-41.92290115356445,117.407958984375, -54.56808090209961
477,633327843,0.63910556,-0.11728447,-0.7579624,0.057285417,3.671149492263794,-4.537710666656494,-3.350466012954712,-15.008797645568848,120.33821868896484, -38.47929763793945
478,633344510,0.64789945,-0.111296035,-0.75146264,0.05606771,1.262581467628479,-5.547860145568848,-7.039803504943848,31.386262893676758,72.96609497070312, -33.250614166259766
479,633361177,0.6527356,-0.104971215,-0.7480446,0.057852775,3.152350664138794,-2.7528903484344482,-7.893501281738281,42.957237243652344,36.71615982055664, -22.39773941040039
480,633377844,0.65483505,-0.10358617,-0.7464087,0.05775203,3.755209445953369,-0.5724591612815857,-6.824875831604004,8.400395393371582,18.08663558959961, -5.680931091308594
481,633394511,0.65504634,-0.10693748,-0.74608195,0.05329783,3.069033145904541,4.299884796142578,-4.433726787567139,-37.07869338989258,7.571017265319824, -1.1550617218017578
482,633411178,0.6539365,-0.113206185,-0.74660087,0.046245195,1.3262404203414917,0.8866149187088013,-2.683220624923706,-64.7384033203125,0.007536648772656918, 2.042534112930298
483,633427845,0.6523104,-0.11531362,-0.74775517,0.045346636,0.04865872859954834,-2.142718553543091,-0.10276998579502106,-15.033832550048828,-11.58050537109375, 8.038949012756348
484,633444512,0.6494411,-0.11153012,-0.7503278,0.05287324,0.5337654948234558,-0.9668896794319153,-3.4463067054748535,53.2624397277832,-32.849185943603516, 14.765264511108398
485,633461179,0.64373237,-0.10758826,-0.7553336,0.05920084,0.5135108828544617,0.8122313618659973,-3.151449680328369,44.73994827270508,-57.452640533447266, 7.738312244415283
486,633477846,0.63598984,-0.11100013,-0.76146007,0.058092408,0.8457134962081909,0.9499595761299133,1.5901646614074707,-28.307559967041016,-64.4518814086914, 13.014398574829102
487,633494513,0.62711185,-0.11360274,-0.7677337,0.066409364,6.1139726638793945,-10.959014892578125,-8.407584190368652,23.690645217895508,-78.59758758544922, 50.33625030517578
488,633511180,0.6135773,-0.11256417,-0.7777385,0.07729911,16.163389205932617,-3.072406053543091,-1.0316691398620605,47.903282165527344,-122.90875244140625, 41.2254524230957
489,633527847,0.6024324,-0.11575257,-0.78513485,0.08508833,10.46260929107666,-6.043928623199463,4.9661173820495605,17.53192901611328,-94.7232437133789, 51.33169937133789
490,633544514,0.59374374,-0.11519802,-0.7902549,0.09846387,18.987594604492188,-1.7971129417419434,1.0998008251190186,66.30281829833984,-78.77465057373047, 54.58775329589844
491,633561181,0.58753914,-0.11341671,-0.79391825,0.10783541,21.960960388183594,-4.069927215576172,-5.556723117828369,52.6292839050293,-57.14023208618164, 31.045791625976562
492,633577848,0.5854384,-0.11159074,-0.79515696,0.1119602,21.917129516601562,-3.3599140644073486,-3.2478177547454834,27.978418350219727,-20.569534301757812, 8.774917602539062
493,633594515,0.5863183,-0.11307842,-0.79481757,0.108209684,22.70693588256836,-2.561363935470581,-3.2558114528656006,-23.127899169921875,10.103983879089355, -6.278711795806885
494,633611182,0.5902135,-0.114935316,-0.7928194,0.09937655,21.704566955566406,-4.342761039733887,-2.5499143600463867,-49.11690902709961,37.54124450683594, -25.553190231323242
495,633627849,0.5978409,-0.11512497,-0.7883236,0.088760674,19.20871353149414,-3.623779296875,-0.9539093375205994,-50.14558410644531,68.97528076171875, -41.77399826049805
496,633644516,0.6091198,-0.11416969,-0.7810767,0.07653479,14.838788986206055,-2.7258644104003906,0.8406322598457336,-48.58348846435547,100.31007385253906, -54.85873031616211
497,633661183,0.6226077,-0.11472787,-0.77133083,0.065160826,7.836823463439941,-3.8544199466705322,-0.3418944478034973,-46.33195877075195,122.47555541992188, -42.522586822509766
498,633677850,0.63364524,-0.11284068,-0.7630714,0.059015512,1.8029727935791016,-5.171825408935547,-5.107145309448242,-11.609451293945312,98.06474304199219, -33.05753707885742
499,633694517,0.6408157,-0.108479396,-0.75776124,0.058185294,3.3275692462921143,-2.5524559020996094,-8.15588665008545,20.561826705932617,60.32627868652344, -23.390188217163086
500,633711184,0.6447784,-0.10996411,-0.7545099,0.05369972,3.7219345569610596,-2.2401256561279297,-6.338532447814941,-24.920982360839844,39.20759582519531, -9.612534523010254
501,633727851,0.64695275,-0.11465884,-0.7523846,0.047150668,3.6465277671813965,3.100313425064087,-5.215322494506836,-51.814430236816406,27.801252365112305, -2.2956814765930176
502,633744518,0.6474772,-0.12382385,-0.7511446,0.03497287,1.460764765739441,2.2778384685516357,-3.2159276008605957,-101.7143325805664,21.146360397338867, -4.378632068634033
503,633761185,0.64742774,-0.13074447,-0.75036216,0.026455132,0.10577580332756042,-0.8423965573310852,-1.5344791412353516,-72.40348815917969,12.33992862701416, 0.01465714629739523
504,633777852,0.6473684,-0.13025945,-0.7504496,0.027786277,-0.03205262869596481,-1.692089557647705,-1.1215003728866577,5.813551902770996,-0.7727352976799011, 5.376432418823242
505,633794519,0.64551836,-0.12436815,-0.75274116,0.03492077,0.5635861158370972,-0.8756566643714905,-4.33319616317749,59.943885803222656,-26.428224563598633, 1.4503217935562134
506,633811186,0.6409321,-0.119224295,-0.7571647,0.04114929,0.6410228610038757,-0.13043132424354553,-0.8764449954032898,49.684303283691406,-49.14562225341797, 0.06496132910251617
507,633827853,0.6340624,-0.11924386,-0.76273257,0.044552416,1.0386003255844116,-2.9534196853637695,-3.8511486053466797,11.148548126220703,-62.49909210205078, 14.073408126831055
508,633844520,0.6219098,-0.11677001,-0.7721885,0.05760402,5.032227993011475,-9.237823486328125,-11.403642654418945,65.0727767944336,-115.38105010986328, 41.74205017089844
509,633861187,0.60802984,-0.112746194,-0.78250366,0.07263694,14.078975677490234,-2.5129401683807373,1.620124340057373,81.82244873046875,-130.55523681640625, 41.682090759277344
510,633877854,0.5968324,-0.11428081,-0.7898559,0.08281698,10.661114692687988,-4.085522651672363,0.7256115674972534,39.79193878173828,-98.14679718017578, 51.47644805908203
511,633894521,0.5882857,-0.111992426,-0.7950539,0.09626625,16.9051570892334,-1.2599650621414185,-2.2382633686065674,72.44902801513672,-78.72663116455078, 45.17586898803711
512,633911188,0.5834793,-0.11066988,-0.7977259,0.10458249,21.291685104370117,-3.897026538848877,-3.8876023292541504,45.30690002441406,-43.56850051879883, 29.147159576416016
513,633927855,0.5827381,-0.11028375,-0.79788864,0.10783071,22.764028549194336,-5.017469882965088,-2.404609441757202,20.81074333190918,-7.319178581237793, 12.418339729309082
514,633944522,0.58527976,-0.11194537,-0.79622376,0.10461249,24.42689323425293,-2.5660369396209717,-2.000495195388794,-20.285524368286133,24.719924926757812, -2.9531805515289307
515,633961189,0.5908841,-0.11444816,-0.7928616,0.09554155,22.14861297607422,-3.3224411010742188,-3.135910987854004,-49.76655578613281,52.70096206665039, -23.304534912109375
516,633977856,0.59970194,-0.1156046,-0.78730327,0.08453803,18.49056053161621,-4.232950687408447,-2.00944185256958,-54.713802337646484,80.7680892944336, -37.908260345458984
517,633994523,0.6113074,-0.117362864,-0.7794515,0.07060197,14.911994934082031,-2.850243091583252,-0.7189728021621704,-67.50226593017578,107.43868255615234, -46.965824127197266
518,634011190,0.6256874,-0.12020115,-0.7687786,0.055195447,9.529976844787598,-2.1229515075683594,0.942335844039917,-77.03255462646484,136.00718688964844, -46.26587677001953
519,634027857,0.6392065,-0.121802956,-0.75803906,0.044225615,2.987780809402466,-3.4305355548858643,-2.6558001041412354,-49.10945129394531,127.59148406982422, -33.30335235595703
520,634044524,0.64771485,-0.11832716,-0.75151837,0.041043192,1.5712722539901733,-5.110274314880371,-4.799341678619385,9.559978485107422,74.6477279663086, -27.718875885009766
521,634061191,0.6523392,-0.11149101,-0.74837005,0.04433507,3.8533074855804443,-3.2614879608154297,-5.812966346740723,55.66255187988281,33.07810592651367, -18.097721099853516
522,634077858,0.6530177,-0.10670722,-0.74822754,0.048343424,4.197650909423828,-1.4551594257354736,-6.995538234710693,44.43391418457031,-0.22617453336715698, -5.289572238922119
523,634094525,0.65091264,-0.10357706,-0.7502568,0.05195541,3.776625871658325,1.4004051685333252,-4.7116289138793945,30.851367950439453,-23.121612548828125, 0.8734295964241028
524,634111192,0.64825237,-0.10313912,-0.75258046,0.05247769,1.7282646894454956,2.8416643142700195,-1.1351898908615112,2.636160373687744,-24.135101318359375, 0.9262147545814514
525,634127859,0.6459828,-0.10334374,-0.75441676,0.053680684,-0.18198224902153015,-0.10443022102117538,-1.3082985877990723,3.70664381980896,-20.173450469970703, 7.532122611999512
526,634144526,0.6435563,-0.10144733,-0.7563899,0.05846386,-0.42484357953071594,-0.8253102898597717,-3.7799205780029297,31.522132873535156,-24.913551330566406, 12.482433319091797
527,634161193,0.6397546,-0.096943654,-0.75974184,0.06409585,-0.33448511362075806,1.6574031114578247,-2.4637439250946045,45.94113540649414,-39.75296401977539, 2.2552852630615234
528,634177860,0.6331018,-0.099076316,-0.7649116,0.06539555,2.0876545906066895,-6.041882038116455,-4.303329944610596,-8.475362777709961,-56.81794738769531, 17.910926818847656
529,634194527,0.62096643,-0.09924441,-0.77374184,0.076648146,7.9630208015441895,-9.035111427307129,-6.789432525634766,46.96807098388672,-109.1965103149414, 50.80593490600586
530,634211194,0.60990614,-0.098342516,-0.781409,0.087997265,13.159514427185059,-2.117359161376953,3.606419324874878,53.397438049316406,-99.08509063720703, 45.64990997314453
531,634227861,0.600445,-0.09978094,-0.78724647,0.0987569,13.168716430664062,-3.637908935546875,0.7559638619422913,42.51527786254883,-81.07801055908203, 56.040069580078125
532,634244528,0.5928053,-0.09760797,-0.7917471,0.110414624,22.10629653930664,-1.942933440208435,-0.21294304728507996,64.42639923095703,-68.82316589355469, 39.87386703491211
533,634261195,0.58804065,-0.09440136,-0.7944583,0.11888067,23.733394622802734,-4.041816711425781,-2.074787139892578,54.560028076171875,-44.601539611816406, 20.303293228149414
534,634277862,0.58644295,-0.09447255,-0.7954735,0.11992383,23.53732681274414,-1.9157463312149048,-1.8595049381256104,3.8361387252807617,-12.906326293945312, 6.8350419998168945
535,634294529,0.58808255,-0.09673661,-0.7948225,0.114273146,22.176513671875,-3.306687116622925,-2.8237152099609375,-37.84352111816406,17.523942947387695, -9.754082679748535
536,634311196,0.5936286,-0.098114476,-0.791664,0.10605169,19.24236297607422,-4.192378520965576,-2.2028892040252686,-43.82211685180664,49.997318267822266, -26.329317092895508
537,634327863,0.6031823,-0.09855364,-0.7857731,0.09496922,15.458535194396973,-3.6431403160095215,-1.924265742301941,-50.81755828857422,84.15057373046875, -44.18984603881836
538,634344530,0.6173647,-0.09826448,-0.7760429,0.083441235,11.311697006225586,-3.690192699432373,-0.43108439445495605,-44.54156494140625,124.87252807617188, -50.38990020751953
539,634361197,0.6313333,-0.096477576,-0.7657815,0.075426325,3.059856653213501,-4.898697853088379,-4.178012847900391,-19.32257652282715,122.72930908203125, -42.988433837890625
540,634377864,0.6410943,-0.09325616,-0.75841135,0.07151005,1.3664970397949219,-4.992672443389893,-6.118213176727295,4.198369026184082,84.60087585449219, -32.53352355957031
541,634394531,0.6474036,-0.09183918,-0.7534778,0.06859693,3.615940570831299,-2.3475723266601562,-7.504482269287109,-1.9154691696166992,56.17167663574219, -18.62359619140625
542,634411198,0.65087396,-0.09578829,-0.7504871,0.06290399,4.0652313232421875,-1.0148558616638184,-7.055397033691406,-42.89494705200195,37.184757232666016, -3.1014516353607178
543,634427865,0.65218073,-0.1045003,-0.74899095,0.052465774,3.8471992015838623,3.9874420166015625,-4.527332305908203,-90.72573852539062,24.587491989135742, 0.19162097573280334
544,634444532,0.65222347,-0.115633465,-0.74811214,0.039521255,1.8215388059616089,1.3843852281570435,-1.5947566032409668,-115.57390594482422,18.017744064331055, 1.4954376220703125
545,634461199,0.6508922,-0.12272133,-0.7484899,0.032279056,0.27169156074523926,-1.498575210571289,-0.3817649781703949,-69.48467254638672,-0.3165527880191803, 5.655182361602783
546,634477866,0.64802325,-0.12201745,-0.7509502,0.035376336,0.6466996073722839,-0.9489246606826782,-2.6083855628967285,17.117773056030273,-28.05530548095703, 10.366238594055176
547,634494533,0.64214265,-0.11778838,-0.75632054,0.041929908,0.14573070406913757,0.4111061692237854,-3.3787851333618164,47.18418884277344,-60.2515869140625, 5.86374568939209
548,634511200,0.6339672,-0.11738004,-0.7630629,0.045197077,0.8447667360305786,0.5391762256622314,0.7895730137825012,11.014754295349121,-74.44729614257812, 10.765064239501953
549,634527867,0.6244185,-0.11713802,-0.77023077,0.055902697,7.0567708015441895,-8.538585662841797,-5.659140586853027,49.21747589111328,-89.70774841308594, 43.97224426269531
550,634544534,0.61160386,-0.11491764,-0.7795576,0.070884705,14.466475486755371,-6.364517688751221,-1.0397655963897705,75.9388427734375,-120.24778747558594, 51.41542434692383
551,634561201,0.60175407,-0.11619262,-0.7859057,0.08211894,12.4572114944458,-3.6592142581939697,0.8928675055503845,44.90208435058594,-87.19221496582031, 55.253360748291016
552,634577868,0.5929417,-0.11672712,-0.7915232,0.09102668,16.58587074279785,-0.6059494018554688,-1.3142216205596924,36.222259521484375,-77.0746078491211, 41.69959259033203
553,634594535,0.58716863,-0.1171517,-0.7950942,0.09661134,20.578622817993164,-4.6524224281311035,-4.502780914306641,22.17987060546875,-49.596988677978516, 27.370527267456055
554,634611202,0.5860772,-0.11612772,-0.7955792,0.10040778,21.679323196411133,-4.332857131958008,-3.0111184120178223,23.148496627807617,-10.828516006469727, 11.861126899719238
555,634627869,0.5880444,-0.11844085,-0.79427814,0.09642554,22.860143661499023,-2.9512429237365723,-1.918647289276123,-26.279102325439453,20.751174926757812, -2.621803045272827
556,634644536,0.5930794,-0.12173525,-0.7911602,0.0866203,22.103124618530273,-4.50291633605957,-1.1534909009933472,-60.258060455322266,50.72026062011719, -20.830089569091797
557,634661203,0.6010415,-0.12423947,-0.7859806,0.0744882,18.872922897338867,-4.148262977600098,-0.12904435396194458,-64.91783142089844,76.17235565185547, -34.86772537231445
558,634677870,0.6110515,-0.12608092,-0.77914053,0.060496137,14.509397506713867,-2.9577369689941406,0.8457898497581482,-70.42447662353516,95.49454498291016, -45.570411682128906
559,634694537,0.6237803,-0.12659404,-0.7698552,0.04685286,9.2529935836792,-2.6854093074798584,2.2183287143707275,-59.82228088378906,119.47455596923828, -50.18198013305664
560,634711204,0.63580096,-0.1259435,-0.76050305,0.039121542,2.7266602516174316,-4.503235340118408,-2.512216806411743,-24.37294578552246,110.48506927490234, -30.671951293945312
561,634727871,0.6416509,-0.12181652,-0.7562709,0.038719226,2.2852108478546143,-5.54206657409668,-6.314755439758301,25.633615493774414,47.941951751708984, -20.03333854675293
562,634744538,0.64417076,-0.11563407,-0.754913,0.04218201,2.9340381622314453,-2.3556716442108154,-6.426281929016113,49.531150817871094,14.573576927185059, -15.017033576965332
563,634761205,0.6477015,-0.11024874,-0.7524082,0.047011185,4.387706756591797,1.8634686470031738,-2.415175676345825,49.38079833984375,25.03890609741211, -3.7062997817993164
564,634777872,0.6538806,-0.107942365,-0.74737614,0.04709418,2.2171921730041504,6.1212310791015625,1.7376283407211304,13.212648391723633,54.74225616455078, -7.799963474273682
565,634794539,0.66252005,-0.11183768,-0.7395414,0.040474676,0.7544841170310974,1.5798628330230713,4.726414680480957,-41.43036651611328,86.01188659667969, -5.151494979858398
566,634811206,0.67042446,-0.11525975,-0.732055,0.036632854,1.0368314981460571,0.2392551302909851,-4.2173333168029785,-26.37102508544922,78.46626281738281, 5.090179920196533
567,634827873,0.67217046,-0.11930301,-0.730028,0.031825,0.7535537481307983,-1.2491170167922974,-8.878894805908203,-40.37934494018555,23.276187896728516, 0.9953491687774658
568,634844540,0.66756403,-0.12243249,-0.7337902,0.030342,-0.6056697964668274,-0.9842705130577087,-10.889565467834473,-25.894254684448242,-38.20025634765625, 8.402215003967285
569,634861207,0.65610605,-0.12805775,-0.7430806,0.03094321,1.4568840265274048,-5.703217506408691,-6.864503860473633,-33.673946380615234,-99.27056884765625, 27.317527770996094
570,634877874,0.64421046,-0.12551248,-0.7530302,0.0467458,7.463139533996582,-4.484544277191162,2.321733236312866,80.2504653930664,-119.51995086669922, 53.60307693481445
571,634894541,0.6289767,-0.13058409,-0.76418066,0.05800074,13.232132911682129,-6.436652183532715,-1.318202018737793,19.714908599853516,-135.7977752685547, 72.89067840576172
572,634911208,0.61325884,-0.13543983,-0.7750759,0.0694769,14.24796199798584,-7.337852954864502,1.6403141021728516,21.361793518066406,-137.51402282714844, 73.11274719238281
573,634927875,0.60076064,-0.13383377,-0.78345245,0.08589293,16.40814208984375,-2.0408833026885986,-2.427849769592285,79.18061828613281,-117.49258422851562, 60.259544372558594
574,634944542,0.59113246,-0.13151956,-0.7898685,0.096814185,20.359609603881836,-2.5393831729888916,-6.365657806396484,56.30510711669922,-89.31419372558594, 33.880592346191406
575,634961209,0.5866374,-0.12913647,-0.79282355,0.103012085,19.250398635864258,-4.704802513122559,-6.057284832000732,37.92927169799805,-43.15362548828125, 14.050844192504883
576,634977876,0.5865308,-0.12819678,-0.79313946,0.1023579,20.2875919342041,-4.434685230255127,-5.1163105964660645,0.5233059525489807,-1.4803502559661865, -6.465030670166016
577,634994543,0.59088016,-0.128509,-0.79072183,0.095421776,20.581525802612305,-2.8937225341796875,-4.466503143310547,-32.90287780761719,40.23820114135742, -25.677383422851562
578,635011210,0.59915835,-0.12925902,-0.78559357,0.08452336,18.134218215942383,-2.364539623260498,-3.2178781032562256,-50.96694564819336,76.37775421142578, -39.53523254394531
579,635027877,0.6118325,-0.12853152,-0.7771537,0.07192269,16.248424530029297,-2.7807040214538574,-0.6970541477203369,-48.070533752441406,114.35177612304688, -54.139766693115234
580,635044544,0.6277799,-0.12916028,-0.76531124,0.05923616,10.922869682312012,-3.4179561138153076,-0.6935533285140991,-50.10235595703125,146.97779846191406, -45.75920104980469
581,635061211,0.63976425,-0.12778094,-0.7562141,0.05014162,2.853304862976074,-5.813645362854004,-3.9218873977661133,-27.977006912231445,110.41816711425781, -41.54170608520508
582,635077878,0.6478654,-0.12243577,-0.750328,0.047831506,2.4403038024902344,-5.3042755126953125,-5.307998180389404,20.0252685546875,68.83759307861328, -33.85506820678711
583,635094545,0.6510354,-0.12132806,-0.7479185,0.04528157,3.820906162261963,-3.7189273834228516,-7.639779090881348,-2.5569896697998047,28.961767196655273, -14.709711074829102
584,635111212,0.64802074,-0.12530725,-0.75010204,0.041403204,4.80249547958374,-0.4496365785598755,-8.877774238586426,-40.313114166259766,-20.307802200317383, 3.7220449447631836
585,635127879,0.64101547,-0.13291876,-0.75513273,0.034735683,2.630297899246216,0.3466727137565613,-1.6119285821914673,-73.50591278076172,-50.386512756347656, 8.538789749145508
586,635144546,0.6340056,-0.13422588,-0.76075053,0.035762567,1.3172290325164795,-0.4120500981807709,1.4337806701660156,-8.403090476989746,-61.013519287109375, 9.489422798156738
587,635161213,0.630232,-0.1262109,-0.76462996,0.047111753,1.0153859853744507,2.773303985595703,1.750957727432251,90.83110809326172,-48.59471130371094, 6.365026950836182
588,635177880,0.6282684,-0.116723455,-0.76700705,0.05791992,-0.08332374691963196,4.080502033233643,0.36626794934272766,95.28499603271484,-32.34954071044922, -2.807968854904175
589,635194547,0.6265755,-0.109845124,-0.76878935,0.065576516,0.9688517451286316,2.5453267097473145,1.700142502784729,70.54899597167969,-25.371305465698242, -2.676375389099121
590,635211214,0.622634,-0.11208693,-0.77177083,0.06429255,2.8709232807159424,-4.087810039520264,-8.371389389038086,-20.272052764892578,-31.133760452270508, 7.466324806213379
591,635227881,0.6122144,-0.115337275,-0.77897996,0.07128244,11.529879570007324,-8.741554260253906,-8.484469413757324,11.944759368896484,-89.3444595336914, 47.905113220214844
592,635244548,0.6015845,-0.12207547,-0.7859033,0.07449624,11.483670234680176,-3.7057254314422607,4.420446395874023,-25.621610641479492,-83.85859680175781, 51.53093719482422
593,635261215,0.59041876,-0.128037,-0.792808,0.080422334,10.252696990966797,-3.5868921279907227,-1.775895118713379,-2.1832642555236816,-90.94757080078125, 57.4894905090332
594,635277882,0.5818562,-0.12694398,-0.79787755,0.09338106,14.248065948486328,-3.9887633323669434,-4.146460056304932,66.04959106445312,-78.89591217041016, 48.21862030029297
595,635294549,0.5766462,-0.12427626,-0.8006421,0.10491373,15.029159545898438,-6.749614238739014,-4.656643867492676,68.36857604980469,-50.89930725097656, 33.878299713134766
596,635311216,0.5748675,-0.12578124,-0.8013156,0.10770185,18.96226692199707,-7.410390377044678,-1.851275086402893,8.189788818359375,-13.26837158203125, 21.448823928833008
597,635327883,0.5762254,-0.1275736,-0.8004284,0.10489732,21.95604133605957,-2.9139657020568848,-3.5755631923675537,-19.837665557861328,15.161642074584961, -0.07326527684926987
598,635344550,0.5807261,-0.12651627,-0.7980438,0.09938379,21.52415657043457,-1.3280363082885742,-4.732363224029541,-19.8704776763916,38.7503776550293, -27.323585510253906
599,635361217,0.5889123,-0.124310896,-0.79331326,0.09155966,18.695919036865234,-3.9315993785858154,-3.8323769569396973,-23.147693634033203,69.54087829589844, -43.26809310913086
600,635377884,0.60037786,-0.12298279,-0.78610545,0.08037537,16.582260131835938,-3.097665309906006,-1.9049005508422852,-40.90204620361328,100.92729949951172, -51.95828628540039
601,635394551,0.616247,-0.12543575,-0.77482516,0.06443305,12.680729866027832,-2.512537956237793,0.6001559495925903,-75.10309600830078,147.33470153808594, -50.37998962402344
602,635411218,0.63123554,-0.12626445,-0.7634705,0.05207949,5.234051704406738,-4.4622039794921875,-1.983503818511963,-49.93073272705078,139.13926696777344, -43.30650329589844
603,635427885,0.64129555,-0.12246926,-0.7560216,0.046611898,1.5181142091751099,-6.482794761657715,-3.8803317546844482,-0.5754212141036987,88.9495849609375, -39.15913391113281
604,635444552,0.64729416,-0.11569288,-0.7519088,0.04752583,2.328603982925415,-4.8684306144714355,-4.967193603515625,40.677059173583984,46.9498405456543, -28.024967193603516
605,635461219,0.64971703,-0.11027578,-0.7503699,0.05149943,3.912862777709961,-4.464683532714844,-6.43991756439209,47.61012268066406,14.890568733215332, -8.398582458496094
606,635477886,0.6496112,-0.109782256,-0.7505243,0.0516398,4.497735977172852,4.320590019226074,-3.978536367416382,3.224952220916748,-0.9924022555351257, -0.5347931385040283
607,635494553,0.647467,-0.12009154,-0.7515522,0.039166458,3.0320005416870117,5.417544841766357,-2.1774213314056396,-111.75340270996094,-2.06520414352417, -1.0284206867218018
608,635511220,0.64323956,-0.13248318,-0.7535959,0.028006308,0.5743564367294312,-2.528568983078003,-2.753908395767212,-118.82292938232422,-17.35566520690918, 15.656681060791016
609,635527887,0.6380927,-0.13285473,-0.75766826,0.03355739,0.7840095162391663,-4.865771293640137,-3.9600534439086914,25.654870986938477,-49.786319732666016, 24.875595092773438
610,635544554,0.63078284,-0.12220666,-0.7646085,0.05052314,0.6287786364555359,-0.07927603274583817,-2.9323954582214355,127.21665954589844,-85.84793090820312, 15.832993507385254
611,635561221,0.6212286,-0.11849371,-0.77249825,0.057280224,0.9369279146194458,5.565680027008057,1.6201742887496948,40.94620895385742,-90.67921447753906, 8.044443130493164
612,635577888,0.6127247,-0.1213385,-0.7785023,0.061479606,4.6340532302856445,-6.772963047027588,-3.3783798217773438,3.3417773246765137,-72.9299087524414, 32.69077682495117
613,635594555,0.5991405,-0.122136824,-0.78803825,0.07147862,10.677478790283203,-6.893441200256348,-7.5845136642456055,34.753482818603516,-120.11736297607422, 45.8013801574707
614,635611222,0.5873395,-0.123418495,-0.79584134,0.08023084,9.115789413452148,-5.019569396972656,4.731423377990723,26.100048065185547,-101.39910888671875, 44.39910888671875
615,635627889,0.57713926,-0.12229701,-0.80169207,0.09614416,16.353031158447266,-4.438780307769775,2.080739974975586,78.44691467285156,-92.46208190917969, 60.70448684692383
616,635644556,0.56869483,-0.12090117,-0.80658925,0.10669202,24.236923217773438,-3.2282493114471436,-3.7839410305023193,53.81697463989258,-75.22981262207031, 37.05531311035156
617,635661223,0.5631331,-0.119845234,-0.8099482,0.1118131,25.745512008666992,-0.42653387784957886,-3.6755151748657227,26.381010055541992,-48.656982421875, 16.78216552734375
618,635677890,0.56085443,-0.11989897,-0.8114683,0.11218693,22.754762649536133,-1.6228007078170776,-5.198869228363037,-0.17464041709899902,-18.56113624572754, 3.628497838973999
619,635694557,0.56288373,-0.12105801,-0.8105297,0.10746559,19.07856559753418,-4.136685371398926,-6.268155097961426,-27.890819549560547,20.12892723083496, -10.934610366821289
620,635711224,0.56966335,-0.12263371,-0.8067267,0.09816803,15.967928886413574,-5.044528007507324,-5.424663066864014,-48.76423263549805,61.74042510986328, -27.479143142700195
621,635727891,0.58025855,-0.124362886,-0.8003513,0.085275136,14.760522842407227,-5.376316547393799,-3.2678239345550537,-64.34254455566406,96.10719299316406, -41.11605453491211
622,635744558,0.59557813,-0.1255784,-0.7902788,0.07054359,12.850591659545898,-4.824249267578125,-0.10122862458229065,-66.28244018554688,138.13302612304688, -50.87291717529297
623,635761225,0.6116262,-0.12620792,-0.7788237,0.058471132,4.881290435791016,-5.050143718719482,-3.2005035877227783,-48.10434341430664,145.1247100830078, -42.3442497253418
624,635777892,0.6230785,-0.12390349,-0.77057356,0.051358785,0.9928595423698425,-6.489025592803955,-5.42087459564209,-14.941546440124512,101.66753387451172, -38.07322311401367
625,635794559,0.630874,-0.12048404,-0.76490456,0.049019568,2.271833896636963,-3.4220337867736816,-6.733882904052734,11.2947359085083,66.77601623535156, -24.53732681274414
626,635811226,0.63482475,-0.12130858,-0.76167065,0.046258803,3.8543267250061035,-2.601761817932129,-6.772431373596191,-12.232719421386719,37.601680755615234, -4.953843593597412
627,635827893,0.6356427,-0.12531729,-0.7606349,0.041096084,4.205452919006348,3.6407246589660645,-4.836292266845703,-43.376041412353516,14.956794738769531, 0.5813934206962585
628,635844560,0.6344444,-0.13187909,-0.7608879,0.033734977,2.4179296493530273,1.179606318473816,-0.79865962266922,-68.37732696533203,1.4843381643295288, 3.868215799331665
629,635861227,0.6320865,-0.13505411,-0.7622775,0.034063082,1.1567459106445312,-2.696749687194824,-0.23044854402542114,-16.09371566772461,-17.007577896118164, 19.154281616210938
630,635877894,0.6293183,-0.12776108,-0.76510364,0.047455806,1.1937167644500732,-1.676499605178833,-1.8003904819488525,99.73638916015625,-40.52153778076172, 19.427047729492188
631,635894561,0.6246971,-0.12122219,-0.7692919,0.056998093,0.5787858366966248,5.124557018280029,-0.5664377808570862,73.92496490478516,-52.4743537902832, 6.154084205627441
632,635911228,0.61931086,-0.122838825,-0.7734747,0.0556924,0.7808916568756104,4.679962158203125,1.3797873258590698,-18.87141227722168,-44.30927276611328, 3.0038626194000244
633,635927895,0.61303383,-0.1263566,-0.7775205,0.06070933,2.7449357509613037,-14.704459190368652,-13.237373352050781,1.1805781126022339,-51.99152755737305, 41.4327392578125
634,635944562,0.60326916,-0.12112361,-0.78425926,0.07957924,12.977346420288086,-4.6972575187683105,-4.042141437530518,113.44255828857422,-98.85160064697266, 50.96710968017578
635,635961229,0.594021,-0.12278751,-0.7901584,0.087819636,12.538262367248535,-2.0135769844055176,2.3806421756744385,27.124958038330078,-79.63143157958984, 44.73194885253906
636,635977896,0.58513075,-0.1258447,-0.79554105,0.0943376,16.920076370239258,-0.08711487799882889,0.42056310176849365,11.805380821228027,-73.0894775390625, 45.72298812866211
637,635994563,0.5790816,-0.12636511,-0.7992243,0.09968472,21.635046005249023,-2.8034777641296387,-3.9891579151153564,20.83078956604004,-51.882144927978516, 26.370813369750977
638,636011230,0.5777947,-0.12410768,-0.7997789,0.105378956,21.386442184448242,-4.287766933441162,-3.2786757946014404,39.93741989135742,-15.453439712524414, 12.014275550842285
639,636027897,0.5791716,-0.12637565,-0.7988548,0.10208069,23.26068115234375,-3.629662036895752,-1.3355896472930908,-23.23061752319336,15.697395324707031, 0.2736532688140869
640,636044564,0.5833707,-0.13093193,-0.7963482,0.09146244,22.038379669189453,-4.4044952392578125,-0.9206260442733765,-72.59577941894531,46.5084342956543, -15.871247291564941
641,636061231,0.5907559,-0.13403553,-0.7917356,0.0787203,19.178884506225586,-3.4712934494018555,-0.3712223172187805,-74.05498504638672,73.2604751586914, -32.49644088745117
642,636077898,0.60140425,-0.13533632,-0.7847488,0.06454819,15.004350662231445,-2.580988883972168,1.7825599908828735,-69.99816131591797,100.85507202148438, -47.776588439941406
643,636094565,0.61524147,-0.13453914,-0.7749828,0.052716255,7.530841827392578,-3.546527624130249,-0.3497694134712219,-43.09366226196289,126.0037841796875, -48.587039947509766
644,636111232,0.6248937,-0.13026062,-0.76832414,0.047096614,1.7455697059631348,-7.4559326171875,-6.7913947105407715,-0.04356854781508446,83.47466278076172, -42.278114318847656
645,636127899,0.63097495,-0.11820408,-0.76495993,0.052295074,2.036756992340088,-5.431727886199951,-10.161772727966309,81.8536605834961,39.26601028442383, -38.04743957519531
646,636144566,0.6364796,-0.10617374,-0.76174074,0.058068745,2.9203944206237793,-0.802234411239624,-3.5876128673553467,89.405029296875,34.12601089477539, -36.17172622680664
647,636161233,0.64569086,-0.0977818,-0.754889,0.0605383,3.634089708328247,6.595548629760742,1.096740961074829,66.334716796875,72.1292953491211, -31.119298934936523
648,636177900,0.6570617,-0.10026028,-0.74542207,0.05063738,2.9260997772216797,4.6121649742126465,3.2389073371887207,-50.33900451660156,109.1333236694336, -27.869659423828125
649,636194567,0.6690536,-0.104753695,-0.734658,0.040886078,1.6769975423812866,-0.7714333534240723,3.0250871181488037,-57.66939926147461,118.71450805664062, -16.14980125427246
650,636211234,0.6769864,-0.10875437,-0.7270996,0.03446949,1.1624830961227417,-1.5545620918273926,-7.070224761962891,-42.4075927734375,80.89073181152344, -4.4686384201049805
651,636227901,0.6772971,-0.11151022,-0.72658557,0.03012833,0.12513229250907898,-1.403573751449585,-10.458324432373047,-33.585086822509766,8.212348937988281, -4.504190921783447
652,636244568,0.6694761,-0.11748967,-0.73300964,0.02636065,-0.18540629744529724,-0.8500109910964966,-10.41198444366455,-53.356998443603516,-64.40177917480469, 10.620924949645996
653,636261235,0.6543431,-0.12338388,-0.7455831,0.026784847,2.1269962787628174,-4.393723964691162,-7.112160682678223,-38.81446838378906,-132.8777618408203, 25.831987380981445
654,636277902,0.64103657,-0.121650934,-0.7567801,0.039460465,6.649106025695801,-7.409544467926025,7.6564860343933105,60.09688949584961,-129.05552673339844, 42.639949798583984
655,636294569,0.62861615,-0.11719672,-0.76648307,0.06008781,10.547706604003906,-6.046163082122803,-7.523013114929199,114.54419708251953,-125.32665252685547, 64.48003387451172
656,636311236,0.61430144,-0.1203288,-0.77658427,0.07121458,17.516557693481445,-7.305445671081543,2.98872447013855,29.96367835998535,-126.18248748779297, 63.82144546508789
657,636327903,0.60330653,-0.12164791,-0.7835214,0.08554124,14.409880638122559,-6.568728923797607,0.9042649865150452,58.96495056152344,-98.68727111816406, 68.62188720703125
658,636344570,0.5944093,-0.12230677,-0.78926337,0.09371352,23.691547393798828,0.05457045137882233,-3.6288483142852783,31.070316314697266,-77.73441314697266, 39.2567138671875
659,636361237,0.5901661,-0.12007194,-0.79215413,0.09888659,21.291826248168945,-1.2203137874603271,-7.651951313018799,32.407737731933594,-40.20549011230469, 10.750259399414062
660,636377904,0.59068495,-0.11869723,-0.79203737,0.09838348,21.561338424682617,-3.5341386795043945,-4.925950050354004,3.892138957977295,3.2447774410247803, -8.27701473236084
661,636394571,0.59543926,-0.11863136,-0.7892972,0.09158903,21.462291717529297,-4.594066143035889,-3.2120370864868164,-30.62596321105957,43.01823806762695, -27.35031509399414
662,636411238,0.60371286,-0.12002983,-0.7840702,0.07973477,19.030628204345703,-3.3563661575317383,-0.8657757639884949,-56.5756721496582,76.48509979248047, -40.999961853027344
663,636427905,0.61454296,-0.121557966,-0.7767745,0.064669006,15.747956275939941,-3.1884050369262695,0.684951663017273,-73.30180358886719,102.1218032836914, -52.80137634277344
664,636444572,0.628115,-0.11851622,-0.76726985,0.05217879,9.794838905334473,-2.7372303009033203,1.3660848140716553,-37.69734573364258,122.05435943603516, -65.5373764038086
665,636461239,0.64218265,-0.116141826,-0.75646186,0.04333779,4.230528831481934,-3.858379602432251,-0.7759697437286377,-17.639873504638672,126.94697570800781, -45.773685455322266
666,636477906,0.65122026,-0.11288301,-0.7494389,0.038876653,2.564931869506836,-5.172486305236816,-6.2293381690979,9.256462097167969,79.31095886230469, -33.09406661987305
667,636494573,0.6557708,-0.10632533,-0.7463538,0.040196292,3.4106814861297607,-4.21844482421875,-6.6946120262146,38.405574798583984,35.32024383544922, -24.941144943237305
668,636511240,0.65894115,-0.102424674,-0.7440964,0.040330045,4.250156879425049,0.6651275753974915,-2.9666335582733154,21.674631118774414,25.69009780883789, -17.149682998657227
669,636527907,0.6625093,-0.104272746,-0.7409364,0.034959003,2.90724778175354,6.02999210357666,-0.1458023339509964,-31.82185935974121,37.275821685791016, -12.15275764465332
670,636544574,0.66630745,-0.11016139,-0.7369769,0.027640559,0.7533962726593018,-0.7690042853355408,0.35021379590034485,-59.82956314086914,44.460906982421875, 0.1433570683002472
671,636561241,0.67043173,-0.10967139,-0.73326796,0.028495437,-0.2763964831829071,-2.198633909225464,1.3123085498809814,10.970369338989258,37.56311798095703, 5.011030197143555
672,636577908,0.67236745,-0.103870675,-0.7320606,0.034934178,0.48231375217437744,1.0989543199539185,-4.929989814758301,61.4919548034668,9.730661392211914, 2.4951021671295166
673,636594575,0.6685868,-0.104343295,-0.7354504,0.03489031,1.036928415298462,2.268800735473633,-6.00331449508667,-5.316591262817383,-34.11178970336914, 2.202221155166626
674,636611242,0.6597323,-0.11240952,-0.74243385,0.030159159,1.091976523399353,-0.7887206077575684,-5.077538967132568,-68.3909683227539,-71.05680084228516, 17.71250343322754
675,636627909,0.6473322,-0.11956692,-0.75208074,0.032238834,5.203009128570557,-10.935882568359375,-5.9633097648620605,-32.77037048339844,-106.65331268310547, 42.63608169555664
676,636644576,0.63196456,-0.1164115,-0.7645792,0.04987823,10.950789451599121,-4.865390300750732,-5.784340858459473,90.5137939453125,-149.73333740234375, 56.78266143798828
677,636661243,0.6166032,-0.11597182,-0.77619797,0.062193446,12.423460960388184,-3.389455795288086,4.0637688636779785,51.00143051147461,-140.64537048339844, 48.596195220947266
678,636677910,0.6035307,-0.1161449,-0.78509396,0.07673657,12.669108390808105,-6.742430686950684,0.9004743099212646,63.087623596191406,-118.41937255859375, 62.530723571777344
679,636694577,0.5942153,-0.11357647,-0.7913745,0.08794941,20.632139205932617,-2.711890459060669,-5.838840961456299,60.979915618896484,-86.13945007324219, 33.95507049560547
680,636711244,0.5891326,-0.111263685,-0.79472166,0.09466118,21.14410400390625,-1.908866286277771,-5.023078441619873,43.576629638671875,-48.28793716430664, 15.939091682434082
681,636727911,0.5882544,-0.11021761,-0.7953179,0.09632402,24.352588653564453,-1.017459511756897,-3.120419502258301,11.813629150390625,-8.385002136230469, 2.8515090942382812
682,636744578,0.59094846,-0.11132383,-0.7937372,0.0914796,23.35053825378418,-1.8800466060638428,-3.092337131500244,-25.98349380493164,25.624011993408203, -12.965717315673828
683,636761245,0.59764975,-0.11222988,-0.78951246,0.08300226,19.596160888671875,-3.1590476036071777,-3.317307949066162,-43.14794158935547,61.6316032409668, -28.54190444946289
684,636777912,0.6076992,-0.113280855,-0.7828309,0.07102789,15.66130542755127,-3.8992953300476074,-1.802939534187317,-57.56980895996094,92.34465026855469, -42.41775894165039
685,636794579,0.62100464,-0.11229364,-0.77353793,0.058162265,11.443502426147461,-3.935558795928955,-1.3111798763275146,-49.37471389770508,120.29785919189453, -56.80971908569336
686,636811246,0.63630176,-0.11003094,-0.7621327,0.04655191,7.270190238952637,-4.482242107391357,0.2564764618873596,-36.854671478271484,138.83255004882812, -57.0787239074707
687,636827913,0.6502737,-0.10870891,-0.7508493,0.039393,2.1949450969696045,-5.970160484313965,-4.427618026733398,-12.587865829467773,127.07952117919922, -33.18292999267578
688,636844580,0.6586491,-0.104831845,-0.7441668,0.03751745,3.2949745655059814,-3.708193302154541,-6.703952312469482,16.367294311523438,73.82988739013672, -24.18553352355957
