Acc_X,Acc_Y,Acc_Z
-3.652313709259033,3.94385838508606,9.861224174499512
-4.83740758895874,-2.40697717666626,10.414435386657717
1.487706184387207,-3.4112415313720703,2.52672815322876
2.665422916412353,-6.588986396789551,0.3937757611274719
5.761147499084473,-3.102223873138428,-3.5940043926239014
7.993643283843994,-4.5495195388793945,-7.268723011016846
8.585908889770508,-4.064416408538818,-8.57940673828125
8.886818885803223,-5.11107063293457,-10.622366905212402
8.118748664855957,-2.2452261447906494,-13.29204559326172
6.5753021240234375,-0.4297764301300049,-14.645106315612791
3.1722962856292725,-2.2875640392303467,-14.878358840942385
1.9780486822128296,-2.013155460357666,-15.158079147338867
2.2227063179016118,-1.2849160432815552,-14.587228775024414
0.3630677163600921,-3.3571572303771973,-10.653889656066896
1.0456634759902954,-3.847490310668945,-9.750843048095703
-0.8557398319244385,-0.6218441128730774,-6.173305988311768
4.5318922996521,10.459081649780272,-28.583402633666992
19.775821685791016,-5.671681880950928,-25.64619445800781
-3.3428759574890137,-3.452843427658081,19.363189697265625
13.946578979492188,-2.585799217224121,-0.4707530736923218
8.6983003616333,6.443173885345459,7.946247100830078
13.759947776794434,-2.5599751472473145,0.9569580554962158
9.21482753753662,-1.3143659830093384,-0.1021693348884582
5.055490493774414,-1.745132327079773,-1.2216081619262695
3.545254230499268,0.633468747138977,-3.535365343093872
2.995295286178589,3.679012298583984,-1.3296499252319336
4.599511623382568,5.040938377380371,-0.930333137512207
6.132109642028809,3.667964220046997,0.2953200042247772
7.341037750244141,1.6434465646743774,1.31777822971344
8.11745834350586,-0.9202046394348145,2.643932819366455
8.642525672912598,-2.855605125427246,4.5276713371276855
8.307360649108887,-2.8206284046173096,7.419041156768799
7.020169734954834,-1.80095636844635,10.549029350280762
6.292293548583984,1.258472561836243,9.525306701660156
6.960823059082031,3.1632978916168213,13.870718002319336
8.231629371643066,4.4815826416015625,19.006366729736328
11.882513046264648,4.410144805908203,13.518260955810549
13.37299633026123,9.289669036865234,7.495721817016602
12.056873321533203,7.927172660827637,23.98499870300293
6.202725887298584,2.0443687438964844,23.441696166992188
6.98826265335083,5.924007415771484,23.59333610534668
7.724146842956543,6.767569065093994,21.82873916625977
7.26853084564209,3.7835092544555664,17.575475692749023
6.154056549072266,0.6901789903640747,13.536001205444336
4.739429473876953,-2.7168188095092773,10.208857536315918
3.6840221881866455,-0.4059957265853882,6.538149833679199
2.3585872650146484,2.2586352825164795,4.28253173828125
1.1253447532653809,3.293696641921997,2.842613935470581
2.053523302078247,3.3697779178619385,0.4550957679748535
3.32112193107605,3.066330671310425,-2.577284097671509
4.622295379638672,-0.0852119997143745,-5.999258995056152
6.3585710525512695,-1.8914657831192017,-10.734423637390137
6.280454158782959,-2.9933183193206787,-11.920507431030272
7.968414306640625,0.0220294706523418,-15.115002632141112
8.25085163116455,4.796009063720703,-22.23687171936035
8.193974494934082,4.906386852264404,-26.743389129638672
1.9117257595062256,-0.4294365048408508,-23.271440505981445
4.601938724517822,0.6722091436386108,-28.66537094116211
1.4807332754135132,-0.6580153107643127,-26.39504051208496
1.2517788410186768,-2.6812524795532227,-27.390745162963867
-0.2096459120512008,-3.0098798274993896,-18.74627113342285
3.531779766082764,4.856656551361084,-22.028942108154297
16.477550506591797,-2.3364853858947754,-35.533817291259766
3.5464954376220703,-11.090012550354004,14.984698295593262
8.848356246948242,3.0861289501190186,-0.7321268320083618
9.777948379516602,4.342366218566895,11.281868934631348
11.787864685058594,-2.794387102127075,5.234234809875488
4.970204830169678,-5.609186172485352,-4.418624877929688
0.9717127680778505,2.156255006790161,-2.2506682872772217
4.07628870010376,3.0544626712799072,-2.159042358398437
4.796352386474609,3.6821908950805664,-0.127862274646759
6.747170448303223,1.3059957027435305,-0.6070585250854492
9.800739288330078,-0.1340346783399582,1.1941019296646118
11.701421737670898,-1.3766947984695437,4.683694839477539
11.917621612548828,-3.1475958824157715,5.862508773803711
8.311322212219238,-2.853062629699707,8.932558059692383
5.26881217956543,-2.051100254058838,10.57005214691162
1.983321070671081,1.783417582511902,9.269438743591309
3.8897604942321777,4.033450603485107,9.74793529510498
3.957259178161621,4.175305843353272,19.40854263305664
4.055066585540772,4.411545276641846,11.747303009033203
8.322044372558594,4.831673622131348,6.281842231750488
9.457996368408203,4.16793966293335,20.66123390197754
2.734909772872925,-1.822721600532532,20.668027877807617
5.966557502746582,1.8328473567962649,17.47728157043457
3.415035486221313,1.6797335147857666,17.343000411987305
4.238171100616455,1.6900866031646729,14.504515647888184
3.3318800926208496,4.287543296813965,12.948707580566406
2.389371156692505,4.181422710418701,10.96376895904541
2.6870291233062744,2.6296539306640625,8.110692977905273
1.836848497390747,4.196616172790527,6.69920539855957
1.672308325767517,3.399113655090332,5.4646759033203125
1.6787967681884766,3.073644161224365,3.974088430404663
2.4587996006011963,3.516014337539673,2.3441803455352783
3.60866904258728,3.0390357971191406,0.3923370242118835
4.240609169006348,1.835945725440979,-1.5796821117401123
4.918554782867432,1.0399768352508545,-3.760865449905396
4.575675964355469,-1.7242512702941897,-5.391060829162598
3.206566333770752,-2.8207335472106934,-5.260717868804932
2.6463189125061035,-0.0473485141992569,-7.0355095863342285
4.513868808746338,1.341976284980774,-12.092286109924316
4.461009502410889,-0.8837153911590576,-15.08719539642334
2.3144330978393555,0.0420448966324329,-14.81984806060791
1.571357250213623,1.4756089448928833,-18.09049415588379
-0.1082052588462829,1.3352460861206057,-17.943599700927734
-1.647732853889465,1.4661760330200195,-21.207090377807617
-1.7748994827270508,2.8627967834472656,-22.207094192504883
-3.5549540519714355,-0.6127955913543701,-17.563396453857422
-1.4191073179244995,-1.162511110305786,-16.6387996673584
3.740347623825073,2.505432367324829,-18.30501937866211
17.03874969482422,27.8651180267334,-57.93089294433594
16.04041862487793,-24.355810165405277,25.40775489807129
21.959964752197266,2.2975666522979736,11.17920207977295
8.881660461425781,-21.059701919555664,-3.5739541053771973
-1.086270451545715,2.6575675010681152,-1.1530336141586304
2.8717007637023926,-1.4608300924301147,-4.812265872955322
1.1395955085754397,5.102733135223389,-1.933267831802368
2.602781295776367,2.3498051166534424,-3.011704683303833
4.100966930389404,1.5077612400054932,-1.2682747840881348
4.953893661499023,1.3787336349487305,-2.3410003185272217
6.611276626586914,2.4478156566619877,-0.5953017473220825
10.90646743774414,3.5673811435699463,3.050525665283203
10.712684631347656,-0.1526456028223037,4.372082233428955
10.562959671020508,-2.4259958267211914,7.916013717651367
8.148366928100586,-1.3661375045776367,9.98598575592041
3.552536725997925,0.0360506325960159,11.662763595581056
1.8484365940093996,4.897905826568604,10.358954429626465
2.048560380935669,4.751357555389404,10.988476753234863
1.283984661102295,2.471719980239868,10.08271598815918
6.122101306915283,3.2233564853668213,5.1246113777160645
9.16706657409668,2.469856977462769,13.11195945739746
5.012738227844238,1.095850110054016,18.09453392028809
6.206952095031738,3.724075317382813,18.179367065429688
3.646392345428467,6.162182331085205,20.29922103881836
3.6483097076416016,3.3406479358673096,19.36650848388672
4.937693595886231,2.0785181522369385,17.384336471557617
5.632419109344482,4.962261199951172,16.12395668029785
5.2459001541137695,2.600155830383301,12.684053421020508
3.801466703414917,2.8445427417755127,10.405329704284668
3.0549561977386475,1.2668142318725586,8.504329681396484
2.613154172897339,1.025321364402771,6.610680103302002
2.06179428100586,0.8588259816169739,4.982504367828369
2.320373058319092,0.7677944898605347,2.694875478744507
2.5109739303588867,2.049238443374634,1.4003877639770508
2.916321992874145,1.4278799295425415,0.1667937785387039
4.418659210205078,0.9593456387519836,-1.2772783041000366
5.752654075622559,-2.9245307445526123,-2.581740140914917
5.777972221374512,-4.963428020477295,-3.860885858535767
5.214418888092041,-5.695065975189209,-5.044522762298584
5.038990020751953,-4.787052631378174,-7.250735282897949
7.398849010467529,0.6495259404182434,-14.43483066558838
7.59353494644165,1.4269918203353882,-18.978761672973636
2.288553237915039,2.2171788215637207,-21.315645217895508
0.7816629409790039,2.6650097370147705,-26.285648345947266
-2.5010628700256348,4.29817533493042,-27.41709899902344
-3.075489044189453,5.303540229797363,-26.98037338256836
-1.9884600639343264,1.4648933410644531,-24.72125816345215
-1.9691468477249143,-0.2693771421909332,-17.109333038330078
4.445216178894043,6.564090728759766,-27.309978485107425
19.62152862548828,10.333484649658203,-39.093482971191406
0.6790300011634827,-14.380167007446287,21.62255096435547
25.825389862060547,1.8438591957092283,3.869570255279541
11.113737106323242,-12.620551109313965,2.224218845367432
7.914762020111084,-6.7698163986206055,-4.915804386138916
5.362532138824463,3.240736722946167,-0.3502717018127441
4.870092391967773,0.6097064018249512,-1.4586433172225952
3.3536548614501958,1.4777528047561646,-2.1715939044952397
3.697141647338867,2.6420624256134038,-2.0093982219696045
5.5695881843566895,1.863141655921936,-0.7260514497756958
8.371506690979004,-0.5299265384674072,-0.1546874493360519
9.601051330566406,-1.4519360065460205,3.3147292137146
8.637060165405273,-3.266452550888061,5.001091957092285
6.862011432647705,-2.1114087104797363,7.7798309326171875
5.149196147918701,0.7308845520019531,9.423369407653809
2.8426849842071533,2.666661500930786,10.060702323913574
0.8607345223426819,0.8208913803100586,5.092281818389893
4.487277030944824,1.5446089506149292,2.623775720596313
7.792431354522705,2.4068379402160645,3.862392902374268
8.22435188293457,0.32582488656044,10.092289924621582
7.345039367675781,4.742569923400879,14.721124649047852
6.517875671386719,5.002904891967773,17.325241088867188
6.181119441986084,3.620074987411499,17.59107208251953
6.104958534240723,3.061213254928589,17.481689453125
6.16300630569458,3.730227470397949,16.54759407043457
7.268067359924316,4.10932207107544,15.044880867004396
8.172595977783203,7.561173439025879,13.921567916870115
6.94920015335083,7.175675392150879,12.429588317871094
5.654668807983398,3.359540700912476,11.630136489868164
3.790522575378418,3.452054262161255,9.825936317443848
2.945812940597534,3.236768245697021,8.147753715515137
3.791343688964844,1.6914383172988892,5.837516784667969
4.969222068786621,1.0444624423980713,3.466492176055908
5.578227519989014,1.8392544984817505,1.8804254531860352
5.78796911239624,1.0658386945724487,0.9369350671768188
6.084105014801025,-1.4221549034118652,-0.8875859975814819
5.720400333404541,-2.9843807220458984,-2.693722009658813
4.036901473999023,-5.104643821716309,-3.838836908340454
2.3318991661071777,-4.586016654968262,-4.657638549804688
2.511268377304077,-4.597383975982666,-9.616823196411133
3.65938138961792,1.1709743738174438,-15.0725736618042
3.53812313079834,-0.8549920320510864,-17.402158737182617
2.4892024993896484,2.8679423332214355,-21.76865768432617
1.3807179927825928,-0.1778916716575622,-25.960906982421875
-0.0319694280624389,0.7625612020492554,-28.71310043334961
-1.3083826303482056,-0.4966942369937897,-28.508712768554688
-2.221482515335083,-1.3768199682235718,-24.145957946777344
-3.3598666191101074,-0.0756064727902412,-16.930700302124023
1.2173750400543213,4.8038105964660645,-22.17180633544922
27.88998794555664,17.24051856994629,-55.46346282958984
0.9334812760353088,-13.29237937927246,27.193098068237305
26.41439819335937,6.0873003005981445,4.909444332122803
7.2680206298828125,-14.096519470214844,0.8889447450637817
4.608650207519531,-5.831110954284668,-4.5631632804870605
4.408548831939697,1.946609616279602,-2.985006809234619
2.6164321899414062,2.9134249687194824,-1.9939842224121092
2.497819423675537,0.1995088905096054,-5.361059665679932
4.742131233215332,0.5369499325752258,-2.442343235015869
7.8705854415893555,2.1200408935546875,-1.0370060205459597
9.475777626037598,1.2718621492385864,0.3339247107505798
9.759095191955566,0.1913885623216629,3.752993583679199
11.79471206665039,-0.5102006793022156,5.226378440856934
7.154419422149658,0.3553488254547119,10.265494346618652
-1.6483416557312012,0.5543487071990967,7.979643821716309
2.649967908859253,3.752793550491333,-0.838894248008728
2.3424088954925537,5.658427715301514,2.754998207092285
5.683189868927002,4.648306369781494,2.985643148422241
6.000894069671631,5.050777912139893,10.193592071533203
5.077477931976318,6.67573881149292,15.05175495147705
4.748631000518799,3.9449384212493896,17.779634475708008
5.247603416442871,2.0608911514282227,18.53304481506348
5.833124160766602,1.794711709022522,18.977109909057617
6.068304061889648,1.156366229057312,18.429065704345703
5.840418338775635,2.166032075881958,16.998815536499023
6.082522392272949,2.5055763721466064,15.547945022583008
7.290045261383057,2.860270738601685,12.708063125610352
6.633530616760254,4.0475358963012695,11.25983428955078
5.307870864868164,0.7056236267089844,10.28111171722412
3.8292410373687744,1.5041061639785769,8.892461776733398
3.371936321258545,0.3908347487449646,6.697072505950928
3.705152988433838,0.4181824326515198,5.354447364807129
4.972060680389404,1.2064297199249268,3.62710165977478
5.528019428253174,1.281200885772705,2.1178793907165527
5.288252353668213,1.2188102006912231,0.6346145272254944
4.773797512054443,0.284095287322998,-0.6776957511901855
4.265259742736816,-1.8739992380142207,-2.55962347984314
2.9939236640930176,-2.6238858699798584,-3.213923931121826
2.339766025543213,-3.645388126373291,-4.893054962158203
2.45282244682312,-0.1608969867229461,-7.905167579650879
5.134763240814209,1.699737310409546,-10.995935440063477
5.405615329742432,0.084447830915451,-14.211675643920898
4.265583515167236,0.0682777240872383,-17.447546005249023
2.96776819229126,-0.0440234541893005,-22.130014419555664
0.5233274698257446,-0.1195422112941742,-22.949567794799805
-1.6919887065887451,3.148749351501465,-23.23906135559082
-1.7228107452392578,4.2243971824646,-23.041467666625977
-2.1449227333068848,-2.2979485988616943,-22.21634101867676
-1.3253748416900637,-0.6721803545951843,-18.16961669921875
2.837804079055786,3.803605556488037,-21.71782112121582
19.47477912902832,24.06528091430664,-50.74790573120117
6.489950180053711,-19.232681274414062,23.23419189453125
15.87139892578125,10.001420021057127,5.838553428649902
9.92531967163086,-13.93535614013672,4.945258140563965
4.116395950317383,-1.355616807937622,-2.7283589839935303
3.945302248001098,-3.389853239059448,-4.308948040008545
1.9276440143585205,1.7523850202560425,-2.600220203399658
4.419572830200195,0.593292236328125,-3.1648271083831787
5.421188831329346,0.3536535501480102,-1.4023635387420654
7.557892322540283,-0.169374793767929,-2.171796560287476
10.806238174438477,2.3578906059265137,1.1532299518585205
12.146259307861328,0.359106183052063,2.208212614059448
11.91642951965332,-1.6151745319366455,5.276670455932617
9.238221168518066,-2.213947057723999,7.775245189666748
7.6103739738464355,-0.8481367826461792,11.353719711303713
0.0598107799887657,2.208359479904175,6.414717674255371
2.476898431777954,3.916511297225952,2.727025270462036
3.393686294555664,6.074016571044922,2.939139604568481
5.637714385986328,2.4996132850646973,3.688943862915039
7.5680766105651855,3.233820915222168,11.21708869934082
5.8350324630737305,4.075172424316406,13.906271934509276
5.275041103363037,3.5481276512146,16.672893524169922
4.220896244049072,2.071739673614502,18.473094940185547
5.020134925842285,0.7672641277313232,17.90342903137207
5.330183506011963,1.7376282215118408,17.848215103149414
5.646819591522217,2.1222479343414307,15.93497085571289
7.033123970031738,3.2222235202789307,13.98340892791748
7.204948902130127,5.122165203094482,12.549474716186523
6.128382205963135,2.0101146697998047,10.334036827087402
4.566315174102783,1.8221592903137207,8.886123657226562
2.778650283813477,3.189890146255493,7.193084239959717
1.9538778066635127,2.4012465476989746,5.496368408203125
2.105572462081909,2.670639991760254,4.155977249145508
2.1550350189208984,2.189592838287353,3.639793157577514
1.8719420433044436,1.6671550273895264,3.0327277183532715
1.9690382480621336,0.2560694217681885,2.0980489253997803
2.204555034637451,-1.8816696405410769,0.8622482419013977
2.71766996383667,-3.112541437149048,-0.4585103988647461
2.704100608825684,-4.236769676208496,-1.6048765182495115
2.578714370727539,-4.516787052154541,-2.639222383499145
2.590021133422852,-3.248535633087158,-5.157544136047363
3.027925729751587,-1.0700346231460571,-9.113359451293944
3.053581476211548,0.8328580260276794,-13.15823459625244
3.3961334228515625,2.7088754177093506,-17.672073364257812
0.926587462425232,3.379084348678589,-20.67130851745605
-0.133715808391571,2.739103317260742,-23.896026611328125
-1.8440558910369875,0.8955785036087036,-24.693140029907227
-2.55647087097168,1.286253809928894,-23.24274444580078
-3.734286785125733,-0.0258217528462409,-19.32281875610352
-2.1009926795959477,2.5289785861968994,-18.875822067260746
19.895523071289062,39.780799865722656,-71.92159271240234
7.865616321563721,-32.524131774902344,20.23634910583496
22.183862686157227,0.0861568078398704,-0.7461328506469727
6.388700008392334,-11.813529014587402,0.038152277469635
6.388513565063477,-3.786371946334839,-2.8793158531188965
7.0521626472473145,1.0552668571472168,-1.2183531522750854
6.397655963897705,2.744288206100464,1.597295880317688
5.081304550170898,0.5882794260978699,-1.3461976051330566
3.634347438812256,0.6289718747138977,-2.084888219833374
4.7596588134765625,0.7049694657325745,-1.597205638885498
6.024351596832275,0.0053957705385982,0.6285914182662964
6.844931125640869,0.8648448586463928,2.118166923522949
6.036776542663574,-0.3300465941429138,4.4136643409729
4.286489963531494,1.0098025798797607,6.055856227874756
6.0254998207092285,5.320781707763672,9.334481239318848
-1.7092101573944092,0.4208861887454986,4.071956157684326
1.465312957763672,4.689987659454346,2.90110445022583
3.165680408477783,-0.6205918192863464,-0.5124531984329224
6.941443920135498,1.955379843711853,3.4583683013916016
5.668356895446777,3.257992744445801,9.830299377441406
6.0042724609375,6.059379577636719,15.12325954437256
4.258452892303467,4.583120822906494,19.849950790405277
4.279180526733398,2.387760877609253,20.49033737182617
4.94858455657959,2.5460541248321533,19.811254501342773
5.540887832641602,2.7132773399353027,18.40746307373047
6.679642677307129,2.211942672729492,15.896037101745604
7.371609210968018,1.4301996231079102,14.081100463867188
9.60315227508545,3.487090587615967,11.849803924560549
8.460870742797852,4.257579326629639,10.039968490600586
7.300810813903809,0.4191882610321045,7.7586350440979
5.722091197967529,1.1659095287322998,6.526968479156494
4.397753715515137,1.31260085105896,4.573535919189453
4.572066783905029,1.229141116142273,3.0692622661590576
5.043743133544922,1.876108169555664,2.037172317504883
4.931500434875488,1.5341967344284058,1.4151259660720823
4.906888484954834,0.4906954765319824,0.3372009694576263
4.130599498748779,-0.8567339777946472,-1.4940993785858154
2.746054172515869,-1.6009953022003174,-3.1350772380828857
1.3275141716003418,-2.568207025527954,-5.3052978515625
-0.1115395128726959,-1.8349921703338623,-7.126282215118408
-1.021023154258728,-0.4824651181697845,-8.502887725830078
0.11841282248497,1.2794175148010254,-10.413945198059082
1.8244948387146,2.23267674446106,-12.576181411743164
1.5972273349761963,1.3697654008865356,-14.651299476623535
1.8638944625854488,0.12249606102705,-17.710952758789062
1.4058003425598145,0.5503026247024536,-19.63353157043457
-0.5823098421096802,4.022415637969971,-19.94510269165039
-2.020832061767578,4.210484027862549,-19.955059051513672
-2.4318959712982178,3.4192466735839844,-18.510404586791992
-2.3788089752197266,2.305311679840088,-15.507157325744627
-2.777137041091919,0.7188360095024109,-10.690561294555664
-2.1543736457824707,1.8857660293579104,-9.755824089050291
22.9836368560791,5.6644287109375,-18.40241241455078
26.52181053161621,-5.769628047943115,7.453695774078369
13.143893241882324,1.978760361671448,-11.340987205505373
-4.163345813751221,-1.3157124519348145,-10.23266315460205
-4.212548732757568,2.9186434745788574,-10.283227920532228
0.875453531742096,4.9545745849609375,-1.6073356866836548
7.041364669799805,-2.7804572582244877,0.2411144524812698
3.877986431121826,-0.2387560456991195,-0.5258535742759705
3.7800774574279785,-0.4368740916252136,-4.854689121246338
3.811944246292114,-1.4466370344161987,-2.01809310913086
6.448862552642822,1.5779681205749512,-0.0501108095049858
8.473462104797363,1.2205891609191897,0.5166443586349487
9.642682075500488,3.152750253677368,4.341516494750977
8.085981369018555,1.8995980024337769,4.768359661102295
10.707772254943848,0.7952444553375244,10.797452926635742
4.931569576263428,0.8775186538696289,13.98769760131836
-1.4263311624526978,-0.3631186783313751,4.270843505859375
5.976864337921143,5.181906700134277,2.781597852706909
5.092472076416016,1.7995563745498655,5.364045143127441
7.8880615234375,2.654906272888184,10.66104793548584
4.660097122192383,1.2890844345092771,20.01668739318848
2.25260066986084,-1.0004878044128418,23.179101943969727
0.6417145133018494,-1.4271292686462402,24.474210739135746
1.218538761138916,0.9915868043899536,24.02043914794922
2.0824522972106934,-0.5335469245910645,20.806509017944336
2.7106285095214844,-0.5759603381156921,18.239896774291992
4.995400905609131,0.2250301837921142,14.39925479888916
7.826386451721191,3.1914703845977783,10.908788681030272
8.071615219116211,2.1545839309692383,8.192399024963379
7.042605876922607,0.1631920933723449,6.122961521148682
6.215127468109131,2.5529627799987797,4.14656925201416
5.784048557281494,2.4769105911254883,2.1345765590667725
5.588953971862793,2.7427282333374023,1.0106213092803955
5.419121265411377,2.6229257583618164,-0.0211254358291625
4.932906627655029,0.8314049243927002,-1.0079058408737185
3.725707054138184,-0.3137670457363128,-2.0117101669311523
2.500773668289185,-0.9553651213645936,-3.179039239883423
2.146422863006592,-2.0376434326171875,-4.117214202880859
2.656655550003052,-3.7340166568756095,-6.365250110626221
2.395662307739258,-2.796733856201172,-9.643840789794922
1.6445482969284058,-0.6039814949035645,-11.765741348266602
1.5554218292236328,0.5325592160224915,-13.956035614013672
1.715836524963379,1.8767414093017576,-16.559879302978516
0.314141035079956,1.514338135719299,-17.515470504760742
-0.5425131320953369,1.149741768836975,-18.029720306396484
-1.367182731628418,0.538505494594574,-17.560651779174805
-2.032430648803711,1.2068402767181396,-16.41891098022461
-2.8043301105499268,1.3259828090667725,-15.363890647888184
-2.704660415649414,1.3346946239471436,-13.89953327178955
-2.2349724769592285,1.9899510145187376,-11.298096656799316
-1.0026569366455078,2.353602886199951,-12.116357803344728
17.07125473022461,7.931292533874512,-16.634851455688477
26.413318634033203,-1.0735455751419067,5.216648101806641
8.275262832641602,-5.348899841308594,-5.008550643920898
-2.0459556579589844,3.849462985992432,-11.13967990875244
-3.649335145950317,2.5675466060638428,-15.896745681762695
-1.0554933547973633,5.8767499923706055,0.3807480335235595
8.310136795043945,-2.7186944484710693,0.0975754559040069
4.396949291229248,0.7006473541259766,-0.7560325860977173
3.8294427394866943,-1.0412970781326294,-4.409428596496582
7.429021835327148,-0.4838926494121551,-1.4653953313827517
9.257200241088867,2.31645131111145,0.5159177780151367
10.72787094116211,-0.060214377939701,3.4128167629241943
10.218652725219728,0.146246999502182,1.5638175010681152
10.38320255279541,-2.1296608448028564,4.758246898651123
12.515788078308104,0.3435188829898834,12.336896896362305
-0.635712742805481,-1.8628079891204836,6.320149898529053
2.8392343521118164,1.7626761198043823,0.2483098804950714
2.500321865081787,4.092611789703369,0.4452293217182159
8.546483039855957,4.205687999725342,-5.6728105545043945
9.359966278076172,2.836045742034912,4.768670082092285
8.253385543823242,4.305140018463135,9.69975757598877
8.629514694213867,7.134252548217773,15.392293930053713
6.99627161026001,2.39593243598938,18.92454719543457
7.584068775177002,1.21748685836792,18.48709297180176
7.287935733795166,3.2408504486083984,20.07039833068848
6.89709997177124,2.3619072437286377,19.17458152770996
6.719985008239746,2.8342955112457275,17.03347396850586
7.559349060058594,4.710410118103027,16.010929107666016
7.284237861633301,6.067620754241943,14.635713577270508
5.864223003387451,4.787456035614014,12.649273872375488
4.425906181335449,3.390908479690552,11.661332130432127
3.0219194889068604,3.0144636631011963,9.668949127197266
2.2470831871032715,3.0892789363861084,7.71816873550415
2.420692682266236,2.154283046722412,6.422828674316406
3.147961139678955,1.3952128887176514,4.859897613525391
3.638378143310547,1.3152369260787964,3.663207054138184
4.055736064910889,1.4000747203826904,1.9851667881011963
3.551642179489136,1.3213838338851929,1.6369249820709229
3.5241522789001465,-0.1026939749717712,0.0613859742879867
2.694679021835327,-1.807133913040161,-1.5773494243621826
1.769220232963562,-2.897611379623413,-3.0049259662628174
1.233221411705017,-3.826172828674317,-4.989273071289063
2.7676596641540527,-2.760426998138428,-9.385035514831545
3.596733570098877,-1.493179202079773,-12.77607250213623
4.120757579803467,-1.3493304252624512,-17.268510818481445
3.893775224685669,0.1991937458515167,-22.3643856048584
2.632597684860229,1.0850753784179688,-26.85061836242676
0.7069380283355713,-0.3545775413513183,-29.321701049804688
-0.8832495212554932,-1.5787678956985474,-28.269420623779297
-2.825813055038452,-2.509817361831665,-22.35682678222656
-1.913446307182312,-0.2963199615478515,-16.699907302856445
12.475109100341797,24.02524185180664,-64.17176055908203
18.902023315429688,-23.466068267822266,3.5324666500091557
10.163747787475586,1.1508283615112305,10.042513847351074
12.86052131652832,-3.867353677749634,8.359864234924316
7.296695232391357,-10.440306663513184,-7.785746097564697
5.681203365325928,-0.8622336387634277,-0.3475730121135711
3.847060918807984,1.6479793787002563,-0.6420625448226929
2.6864802837371826,2.6218349933624268,-2.314391851425171
2.9643282890319824,0.3630210161209106,-2.680137157440185
3.5319836139678955,0.832563042640686,-1.3961327075958252
6.330592155456543,0.8518569469451904,-1.1423852443695068
7.694279670715332,0.2808218002319336,2.076184034347534
9.440888404846191,-0.2912274897098541,3.319958448410034
8.197307586669922,-1.600239634513855,6.350465297698975
5.5196146965026855,0.065840944647789,9.965611457824709
3.4801597595214844,1.55128812789917,7.222007751464844
1.4664130210876465,2.8174190521240234,5.1436028480529785
2.051342487335205,3.666628360748291,4.605200290679932
5.873452663421631,1.7324213981628418,-0.1846996694803238
7.224019527435303,2.414079427719116,5.4741926193237305
6.117753982543945,3.1578876972198486,11.302546501159668
6.557429313659668,4.388368129730225,12.841026306152344
6.043938159942627,3.955179691314697,14.923469543457031
6.435413360595703,2.190361738204956,15.71862506866455
7.270555973052978,1.63457989692688,16.436647415161133
7.238578796386719,1.4583394527435305,16.30304718017578
7.528067588806152,2.26877760887146,15.356927871704102
7.516284942626953,3.7281415462493896,14.184891700744627
5.80246639251709,2.8797898292541504,12.772960662841797
4.539547443389893,0.220817893743515,10.901613235473633
2.7802834510803223,1.6810660362243652,10.011529922485352
1.668127417564392,1.259655475616455,7.907530307769775
1.755389928817749,0.51271653175354,6.063486576080322
2.169163942337036,0.983308732509613,4.331161022186279
2.313946485519409,0.3766178786754608,3.2868311405181885
2.675307273864746,1.7347835302352903,1.9938879013061523
3.0703396797180176,0.9694664478302002,1.0804049968719482
3.55402946472168,-0.241604283452034,-0.1842318177223205
3.4450669288635254,-1.3331897258758545,-2.3311784267425537
2.686947822570801,-2.434121370315552,-3.52774429321289
1.240545630455017,-2.825350046157837,-5.364427089691162
0.4335473179817199,-1.2915358543395996,-8.300836563110352
1.6732085943222046,-0.970132291316986,-13.407391548156738
1.9312968254089355,0.4094840288162231,-16.045381546020508
1.4094704389572144,1.2963545322418213,-19.542430877685547
-0.0948489010334014,1.80770742893219,-21.49049186706543
-1.1447277069091797,1.7448344230651855,-23.16769218444824
-3.0080907344818115,-0.1271126866340637,-21.72785186767578
-3.92449688911438,1.2092444896697998,-18.36017799377441
-5.358729362487793,-0.5531686544418335,-12.667440414428713
-6.040719985961914,-0.2389475405216217,-9.591291427612305
13.03620147705078,25.33263397216797,-75.20970916748047
15.291586875915527,-24.74121856689453,6.971909046173096
2.0055863857269287,-0.6545388698577881,4.243287563323975
7.917184352874756,4.214723587036133,5.686773300170898
13.3370361328125,-1.0059306621551514,4.9217023849487305
11.749393463134766,-2.9012365341186523,-2.6336920261383057
7.217422485351562,-2.7146337032318115,0.6069209575653076
5.490323543548584,-1.321736454963684,-1.5655159950256348
4.300730228424072,-0.3068016469478607,-0.8510327935218811
4.138188362121582,1.6291146278381348,-1.280350923538208
4.341439247131348,1.1105782985687256,-0.9891385436058044
6.470090866088867,-0.6739002466201782,1.445598006248474
8.905247688293457,-0.6012351512908936,4.127411842346191
7.44095516204834,-0.0374753773212432,6.462369918823242
5.855257987976074,2.1234471797943115,8.11212158203125
6.096368789672852,3.7551541328430176,9.915072441101074
1.076953649520874,0.3902201056480407,6.504611015319824
5.866786956787109,2.439185857772827,3.632232427597046
5.686162948608398,1.5175514221191406,2.304919004440308
10.239523887634276,-0.1389766931533813,5.966842174530029
6.750892162322998,2.160613775253296,10.735849380493164
6.982502460479736,4.620139122009277,13.534849166870115
5.051522731781006,5.466401100158691,16.074790954589844
4.314599990844727,4.515858173370361,16.156593322753906
4.200141429901123,4.701117992401123,15.991016387939451
4.42589282989502,3.1912684440612797,14.993934631347656
4.662884712219238,2.414818286895752,13.119486808776855
5.598415851593018,2.6483469009399414,11.33280086517334
5.698164939880371,3.187807083129883,9.330575942993164
4.560215473175049,1.7158530950546265,7.572844982147217
3.649128198623657,0.8812244534492493,6.16728401184082
2.857293128967285,1.8628883361816408,5.173015117645264
2.8575210571289062,1.068795084953308,4.08007287979126
3.1220288276672363,2.094360589981079,3.1881420612335205
3.584059953689575,3.003296136856079,2.744389533996582
3.4711837768554688,3.0058393478393555,2.5058929920196533
3.068621873855591,2.99298095703125,1.4585371017456057
2.1560299396514893,1.966783881187439,0.4573604464530945
1.237673282623291,0.3495421409606933,-1.053756594657898
-0.2139903604984283,-0.9759817719459534,-2.4926602840423584
-1.49197518825531,-2.1917943954467773,-4.217423439025879
-2.305747985839844,-3.842819452285767,-6.25244140625
-2.5980732440948486,-3.8512916564941406,-8.215556144714355
-1.398695945739746,-1.6547054052352903,-12.299413681030272
-1.1103017330169678,-0.9798678755760192,-14.533404350280762
-0.2328062355518341,0.181166335940361,-18.369068145751957
-0.2775815427303314,-0.0942747741937637,-21.079219818115234
-0.6696451306343079,1.1794828176498413,-23.009716033935547
-2.2187304496765137,-0.4789446294307709,-21.885215759277344
-4.980932235717773,-0.3129923045635223,-17.05312156677246
-7.983175277709961,-1.8383845090866089,-11.154638290405272
-0.9883904457092284,10.209480285644531,-45.416107177734375
28.78974151611328,5.149692535400391,-37.029422760009766
-1.1591696739196775,-11.333887100219728,14.305459976196287
16.072935104370117,-3.985152244567871,-1.2481980323791504
9.516679763793944,-4.942968368530273,3.677644014358521
13.336334228515623,-5.278317928314209,-2.564344882965088
8.387117385864258,1.5516765117645264,1.835542678833008
6.69919490814209,-0.0596300810575485,0.0490548461675643
4.026468276977539,1.214354157447815,-0.08013965934515
3.158350706100464,0.4407875835895538,-0.4383504390716553
3.97296142578125,-0.6318991184234619,-0.4459995031356811
6.226449966430664,-0.1959512829780578,0.5814900994300842
5.757102966308594,0.9826534390449524,3.378387689590454
5.459223747253418,1.4340068101882937,3.597054958343506
6.43348503112793,2.992196559906006,9.346867561340332
2.7483606338500977,3.7279162406921382,10.220264434814451
2.834855318069458,1.9792401790618896,5.173105716705322
4.833813190460205,2.2368295192718506,2.005725622177124
7.143939971923828,0.9843894243240356,-0.5467127561569214
7.905703067779541,1.9930660724639893,8.871994018554688
6.4322357177734375,6.985744476318359,11.546951293945312
5.973186016082764,6.82770299911499,14.831448554992676
4.188612937927246,3.417085886001587,17.199068069458008
4.628434181213379,0.730421781539917,17.142425537109375
5.217879295349121,0.3333369493484497,16.332603454589844
5.581381320953369,0.7069631814956665,15.28407096862793
5.543622970581055,0.0350324735045433,13.67475414276123
6.099505424499512,0.3720238506793976,11.114160537719728
6.164226055145264,1.919381618499756,8.828146934509277
4.602120399475098,0.9645160436630248,7.2789130210876465
4.191977500915527,-0.2494757771492004,5.334193229675293
3.2815890312194824,1.628826379776001,4.194072723388672
3.059807538986206,0.852145791053772,3.106550693511963
3.050877571105957,1.265741944313049,2.20938491821289
3.521517515182495,2.357073307037353,1.8829184770584104
3.6025280952453613,2.4559359550476074,0.8885244727134705
3.327916622161865,1.8025598526000977,0.4746877253055572
2.873713731765747,-0.0453839674592018,-1.0775924921035769
1.258106708526611,-0.9708778858184814,-2.665098190307617
-0.8416146039962769,-1.5532371997833252,-3.942151069641113
-2.652688503265381,-2.3704540729522705,-5.45597505569458
-3.152165412902832,-1.9968115091323853,-7.42036771774292
-2.56826400756836,-1.6360665559768677,-10.190177917480469
-1.981865406036377,-0.1006579101085662,-12.698965072631836
-1.9508872032165527,-0.8796094059944153,-14.704427719116213
-1.8110066652297971,-0.6120015382766724,-15.885565757751465
-1.5644218921661377,-0.0159612223505973,-17.002254486083984
-1.442748785018921,-0.8241048455238342,-17.510013580322266
-1.887168884277344,-1.985211730003357,-17.370222091674805
-3.314554452896118,-2.659346580505371,-14.972982406616213
-4.9716997146606445,-2.4812090396881104,-11.323519706726074
-1.8403657674789429,7.409961700439453,-26.89667320251465
22.607383728027344,25.827699661254883,-55.45404815673828
-0.0506452322006225,-24.299945831298828,14.680764198303224
15.177301406860352,-0.6303099393844604,-2.627333641052246
8.588580131530762,-5.135884761810303,1.0400749444961548
9.07499885559082,-2.8530266284942627,-1.0285758972167969
8.462576866149902,-2.1457886695861816,0.1900642216205597
5.6114501953125,1.6827397346496582,-0.5406844019889832
3.73449182510376,0.8315820097923279,-1.022547960281372
3.344796657562256,0.4210814535617828,-0.7508945465087891
4.318102836608887,0.81678307056427,-1.124558448791504
6.16485071182251,-0.6471354365348816,-0.3507108986377716
7.836633682250977,-0.5134572386741638,2.2487473487854004
8.19245719909668,0.1808225214481353,3.620657205581665
5.539812088012695,1.49240243434906,4.56328821182251
6.274197101593018,1.9817047119140625,7.830146789550781
3.874574422836304,4.400040626525879,12.157630920410156
2.263012647628784,0.0991389155387878,7.128779888153076
4.630302906036377,1.212696194648743,1.975087523460388
6.966185569763184,0.4696865975856781,-0.8641528487205505
8.407676696777344,-0.935438871383667,7.725060939788818
5.5041985511779785,3.8843119144439697,11.852191925048828
6.285274982452393,4.710586071014404,13.783331871032717
5.477975845336914,1.4180967807769775,14.425111770629885
5.724732398986816,1.373621940612793,14.25149917602539
5.78082275390625,2.913379430770874,14.343829154968262
6.162109375,2.148364305496216,13.33493995666504
7.057827472686768,2.058335781097412,11.619282722473145
7.893487453460693,2.97762393951416,10.764175415039062
7.07972526550293,4.579775333404541,9.469746589660645
5.31628942489624,2.2787039279937744,7.309144973754883
4.312209606170654,0.4303256571292877,6.118200302124023
2.1690762042999268,2.093190193176269,5.592665195465088
1.3323897123336792,1.1466989517211914,3.638880252838135
0.6812704205513,1.3978248834609983,3.0870985984802246
0.293578177690506,1.5425642728805542,2.713665008544922
0.1019289493560791,1.829258680343628,1.89725399017334
0.033939205110073,1.1449995040893557,1.246707320213318
-0.2473845183849334,-0.4964810907840729,0.7873921990394592
-0.2820464074611664,-1.656794548034668,-0.2548448741436004
-1.033441424369812,-3.138303279876709,-1.6208922863006592
-2.0298666954040527,-3.2642784118652344,-2.391331672668457
-3.21101975440979,-4.167032241821289,-3.6967661380767822
-4.120241165161133,-3.297961473464966,-5.304589748382568
-3.913619041442871,-1.543383240699768,-8.983972549438477
-1.841028094291687,1.0827850103378296,-12.608630180358888
-1.166057586669922,-0.6059162616729736,-14.594168663024902
-0.1948267519474029,0.3540847301483154,-18.760570526123047
-1.055325269699097,0.8117640614509583,-20.890764236450195
-1.8263227939605715,2.839045763015747,-21.704790115356445
-3.5994808673858643,0.9408713579177856,-18.81991004943848
-4.674731731414795,0.0631305053830146,-14.639421463012695
3.758546829223633,12.112814903259276,-46.80817794799805
21.81231117248535,12.786649703979492,-25.81410026550293
4.127603530883789,-14.990715980529783,14.441486358642578
16.025094985961914,-5.4736528396606445,-3.842848300933838
6.291441440582275,-7.957733631134033,0.2993700802326202
7.588216304779053,-6.144967079162598,-3.9056556224823
3.937245130538941,-0.8458523154258728,-0.8986312747001648
3.8187575340271,1.9306727647781368,-1.4924777746200562
2.940746307373047,2.337196350097656,-1.336231708526611
3.3727426528930664,0.8653679490089417,-1.333424091339111
4.586091041564941,-0.3749254941940307,-2.388671636581421
6.554067134857178,-1.8398314714431765,-0.2425389736890792
8.431966781616211,-1.258450984954834,0.9035367965698242
9.527457237243652,-0.1111896783113479,4.0153913497924805
7.841612815856934,2.1828787326812744,6.19777250289917
6.999173164367676,2.2694499492645264,12.012904167175291
3.420072555541992,4.67078971862793,12.426206588745115
3.65182375907898,1.323692798614502,5.7528076171875
5.523253440856934,3.7866363525390634,-1.1668108701705933
9.007810592651367,2.705148458480835,4.606725692749023
5.48974609375,-0.3007271885871887,10.840429306030272
7.858751773834228,4.3615241050720215,12.868815422058104
6.233608245849609,4.641788482666016,16.56441879272461
5.407713890075684,2.134732961654663,16.711692810058594
5.82614803314209,2.429312229156494,15.9772367477417
5.766269683837891,3.106553077697754,15.710257530212402
6.738219261169434,2.5291907787323,13.293451309204102
7.270702362060547,2.3093035221099854,11.228044509887695
6.635688304901123,2.2784409523010254,9.852023124694824
4.516685485839844,2.495223999023437,8.361227989196777
3.5331411361694336,0.7716483473777771,5.993898391723633
2.1861376762390137,1.963540315628052,4.858066558837891
1.3696969747543335,2.3618834018707275,3.797464847564697
0.7935595512390137,2.021369457244873,3.4747207164764404
0.1271863281726837,3.331446409225464,3.303400754928589
-0.4467797875404358,3.695189476013184,2.897199869155884
-0.7999310493469238,2.2256505489349365,2.154005527496338
-1.234572172164917,0.7493220567703247,1.2198306322097778
-1.0800235271453855,-2.141026020050049,-0.3139744102954864
-1.8790159225463867,-3.809285879135132,-2.1494178771972656
-2.591412305831909,-3.857799768447876,-3.4288904666900635
-3.07244610786438,-5.0239129066467285,-5.025968551635742
-3.375671625137329,-4.103663921356201,-6.397285461425781
-2.784494400024414,-2.314053773880005,-8.972207069396973
-0.2527140378952026,0.7079883813858032,-14.994425773620604
0.5609443187713623,0.0137683674693107,-16.62287712097168
0.4331748187541961,0.4964431524276733,-20.24225425720215
-0.7639411687850952,1.1658432483673096,-21.72599220275879
-2.0253982543945312,1.4510048627853394,-21.561851501464844
-3.3542606830596924,-0.0273198187351226,-18.95228576660156
-4.992769718170166,-0.1705791503190994,-13.881244659423828
2.193035840988159,16.20878028869629,-43.7111930847168
23.37039375305176,12.52597713470459,-26.859506607055664
7.068397045135498,-17.39569091796875,13.84368896484375
19.62763023376465,-10.208015441894531,-2.0224173069000244
3.6366076469421382,-6.555112361907959,-1.4119523763656616
7.724550724029541,-1.6205440759658811,-3.1551170349121094
6.423162937164307,-0.4057581126689911,0.7256474494934082
4.373422145843506,1.9580968618392944,-1.198478102684021
3.997828960418701,0.7093238234519958,-2.726210355758667
4.798127174377441,-1.435004949569702,-1.3014400005340576
5.738898277282715,0.087177850306034,-0.2164180129766464
9.273959159851074,-2.423460006713867,-0.4586281478404999
9.75168228149414,-1.6302666664123535,4.566870212554932
7.554365634918213,1.2198413610458374,5.726603984832764
6.627378463745117,2.537841796875,6.837015151977539
2.656516790390014,2.294513940811157,9.774862289428713
1.4166184663772583,2.9880542755126958,5.223981380462647
4.158398151397705,1.002472162246704,-0.8590817451477051
6.940910339355469,1.4911699295043943,0.2392048388719558
5.841238975524902,-0.5911692976951599,7.577772617340088
6.586549758911133,3.073983907699585,9.246747016906738
7.175178050994873,5.196293830871582,12.453344345092772
6.002768516540527,2.7112135887146,14.690103530883787
6.046331882476807,2.3727972507476807,15.040884971618652
6.244140148162842,4.062952518463135,15.172213554382324
6.405074119567871,4.992498397827148,15.105810165405272
6.721397876739502,3.763916015625,13.95047378540039
7.941880226135254,3.832194805145264,12.233515739440918
7.933567523956299,4.958287715911865,10.843228340148926
6.457387447357178,4.938032627105713,9.518108367919922
5.191360950469971,2.4720778465271,8.028785705566406
3.364110946655273,3.015481472015381,6.563149452209473
1.9006423950195312,2.788811206817627,5.512387275695801
1.2791614532470703,1.7737220525741575,4.162271022796631
0.8589842319488525,2.2829015254974365,2.9964725971221924
0.5525196194648743,2.2943358421325684,2.487947463989258
0.1358160078525543,1.7203545570373535,1.7327003479003906
-0.726383626461029,0.6472610235214233,0.991852879524231
-1.3386865854263306,-0.9994441270828248,0.2315101623535156
-1.6556169986724854,-4.052921772003174,-1.4208788871765137
-2.768390655517578,-4.328961849212647,-2.4253244400024414
-3.5193982124328613,-5.074785232543945,-2.855417490005493
-3.744217395782471,-4.661130428314209,-4.295036792755127
-3.37133264541626,-2.7161788940429688,-7.636125087738037
-2.374828577041626,0.1416179686784744,-11.36575698852539
-0.3893439173698425,1.0982049703598022,-13.899137496948242
1.0945545434951782,0.3381612598896026,-18.074201583862305
-0.2213844954967498,0.6349813342094421,-20.850242614746094
-1.5319228172302246,0.9207440614700316,-22.19098663330078
-2.067824125289917,0.5061646699905396,-20.88089942932129
-1.2580934762954712,2.2061104774475098,-18.926448822021484
9.504401206970217,16.870716094970703,-62.86750793457031
20.04596328735352,-0.1175192296504974,-10.556962013244627
0.5702213644981384,-17.99852752685547,13.736351013183594
16.722219467163086,-8.56540298461914,-6.004359722137451
6.483302593231201,-11.72588062286377,-1.7453309297561646
7.062961578369141,-4.5196614265441895,-2.542092800140381
3.338334560394287,1.666964769363403,0.0847760587930679
0.4956035912036896,4.6786932945251465,-1.8193819522857664
0.7484623193740845,3.375264883041382,-3.394489288330078
3.0667099952697754,0.7582309246063232,-2.452442407608032
5.954934597015381,-0.4276278614997864,-2.4571473598480225
7.543102264404297,0.0114052714779973,-2.588911533355713
9.418977737426758,-1.1449893712997437,0.9464463591575624
12.646767616271973,-0.0082355961203575,4.287103176116943
10.710346221923828,1.685522198677063,7.850588798522949
8.064582824707031,2.1984310150146484,8.232345581054688
4.81739616394043,4.769681453704834,13.341575622558594
0.4414329528808594,2.7332725524902344,7.365477085113525
3.945566654205322,4.547738552093506,-7.218225955963135
8.417732238769531,5.036380767822266,0.2275172472000122
5.466735363006592,-1.744246244430542,8.808611869812012
8.094270706176758,2.73349404335022,11.0563325881958
7.575091361999512,2.343052387237549,14.359461784362791
7.014102458953857,0.5850487947463989,14.766921997070312
7.279472351074219,2.261972188949585,15.416186332702637
6.513049602508545,4.0345869064331055,16.833925247192383
6.325319290161133,3.900397300720215,15.812355041503906
6.515560150146484,4.8187255859375,15.01742935180664
6.324010372161865,4.2959465980529785,14.4290189743042
6.681277275085449,3.723308563232422,12.306575775146484
6.209156513214111,5.859611988067627,10.801032066345217
4.221208572387695,4.284101486206055,9.464156150817873
3.5663390159606934,1.2420555353164673,7.775364398956299
1.4297244548797607,3.1751708984375,6.468849182128906
1.014768362045288,1.3463040590286257,4.392035484313965
1.0157586336135864,1.945106029510498,3.3841471672058105
1.2556931972503662,3.223730564117432,3.2163398265838623
1.905765414237976,2.8750159740448,2.1397666931152344
1.8393055200576784,2.738077402114868,1.296475172042847
1.6595124006271362,1.1439661979675293,0.4164279401302337
1.58272385597229,-1.1891337633132937,-1.575117826461792
0.3488371670246124,-2.51810884475708,-2.571527004241944
-0.8610774278640747,-3.89522647857666,-4.552803039550781
-2.4030508995056152,-4.285751819610596,-6.852043151855469
-2.34668517112732,-2.330117464065552,-10.58377742767334
-0.0205006599426269,-0.1631504148244857,-16.07562255859375
0.6375045776367188,-0.8137575387954712,-18.301462173461918
0.6068105697631836,-2.365662097930908,-21.868921279907227
-0.8616071939468384,-1.134539008140564,-23.65896224975586
-2.4562671184539795,-0.5988053679466248,-23.644184112548828
-4.4699320793151855,0.0056978492066264,-20.80774307250977
-6.368549346923828,0.024185374379158,-15.28260326385498
-5.964361190795898,3.580315589904785,-16.467029571533203
21.83110809326172,30.409278869628903,-70.91333770751953
1.6053743362426758,-25.485599517822266,17.747140884399414
13.84228229522705,0.2115060836076736,-2.2284727096557617
12.132672309875488,-9.858912467956545,1.5997567176818848
11.400577545166016,-3.515535831451416,2.014496326446533
11.404426574707031,-4.284980773925781,-2.3404412269592285
8.042512893676758,1.0572603940963743,1.777280569076538
5.775138378143311,1.403847575187683,-0.227174311876297
5.359652519226074,-0.7221642136573792,-0.5606889128684998
5.326508045196533,-0.0485661700367927,0.7177782654762268
6.741252422332764,-2.312187910079956,-0.2669025957584381
7.1060943603515625,-3.104933023452759,3.0685348510742188
6.851661205291748,0.5201318860054016,6.628671169281006
4.493666648864746,3.794285535812378,4.791967391967773
1.1145009994506836,1.9307893514633176,8.431629180908203
1.601840853691101,3.982622385025024,7.073992729187012
4.524882316589356,0.9445119500160216,3.896322011947632
5.971164226531982,0.8798561096191406,1.243423342704773
7.637331485748291,1.1912556886672974,7.933311462402344
5.221212387084961,4.1820502281188965,12.499265670776367
5.973941802978516,5.067162990570068,16.31842613220215
4.847733020782471,0.7267849445343018,17.40669059753418
5.123056411743164,1.0463184118270874,17.792583465576172
4.952127933502197,3.713515281677246,18.68939208984375
5.403163433074951,1.6994820833206177,15.989480018615724
6.098246574401856,2.2257370948791504,13.63000774383545
6.925204277038574,2.8067877292633057,12.27235984802246
7.116635799407959,2.4781901836395264,9.201360702514648
5.797996997833252,2.803786277770996,6.98898458480835
5.207284450531006,0.813382625579834,4.832772731781006
4.05595588684082,1.936381697654724,3.430002927780152
3.1842799186706543,2.994112730026245,1.933485746383667
2.2045116424560547,2.8418960571289062,1.6626445055007937
1.269354224205017,3.564990282058716,0.9315095543861388
0.4068595468997955,3.28641939163208,0.1869188696146011
-0.5353568196296692,2.53065824508667,-0.131462424993515
-0.8244187831878662,0.0908018723130226,-1.340973734855652
-1.9250775575637815,-2.3555541038513184,-2.5164153575897217
-3.342175006866455,-3.1553242206573486,-3.309004306793213
-4.525374889373779,-3.110903263092041,-4.559030532836914
-5.405815124511719,-3.8080484867095943,-5.5670013427734375
-5.389887809753418,-3.4541726112365723,-7.364051818847656
-4.2319183349609375,-2.2406527996063232,-10.765392303466797
-3.263588190078736,-1.799294114112854,-12.821303367614746
-1.932223320007324,-1.216252326965332,-15.587736129760742
-1.810476541519165,-1.331644892692566,-16.773529052734375
-2.041199922561645,-0.9572421312332152,-18.35273551940918
-2.955456495285034,-0.2616192400455475,-17.78164291381836
-4.2603840827941895,-1.0898245573043823,-15.770988464355469
-5.697380065917969,-2.519474983215332,-12.031451225280762
-3.058712959289551,6.106303215026856,-28.839815139770508
26.792560577392575,25.05630111694336,-55.76696014404297
-1.959242582321167,-30.100048065185547,17.366140365600586
22.23008918762207,-4.7384934425354,-2.4964754581451416
11.78500747680664,-9.91765308380127,1.3688479661941528
10.310684204101562,-5.146030902862549,-1.6571059226989746
7.182164669036865,-0.1909321397542953,1.076638102531433
4.427758693695068,3.1635396480560303,0.3684588670730591
2.176299571990967,2.011627435684204,-0.6081483364105225
2.16063928604126,0.2343063950538635,-2.1472532749176025
2.788936138153076,-0.2443384528160095,-1.100752353668213
5.416934967041016,-1.799802303314209,-0.4371562004089355
7.983898639678955,-1.2669209241867063,2.656909227371216
7.121485233306885,0.5880191922187805,3.650337219238281
7.585219383239746,0.2948464453220367,5.292790412902832
6.601650714874268,3.0264172554016118,10.98969268798828
2.654200553894043,3.2505273818969727,14.23511028289795
4.238706111907959,2.504330635070801,6.227029800415039
5.203577041625977,1.2632575035095217,-1.4136548042297363
10.78960132598877,-1.127918720245361,0.7425196170806885
7.654528141021728,-0.4687991142272949,8.679903030395508
8.305691719055176,4.584526062011719,11.895184516906738
6.273850917816162,4.996739864349365,16.24124526977539
5.723243236541748,2.8163905143737797,16.871379852294922
5.501665115356445,3.355201482772827,17.4530029296875
5.794910430908203,4.295741081237793,17.858184814453125
6.769074440002441,3.610683679580689,14.97651481628418
6.569425106048584,3.512392044067383,13.475570678710938
