Acc_X,Acc_Y,Acc_Z
5.028310775756836,-0.7425427436828613,-2.407609224319458
3.0510013103485107,0.5301945805549622,-3.3682637214660645
5.273141860961914,-0.6424691081047058,-3.0669522285461426
7.604199409484863,-1.3647098541259766,-2.420977830886841
9.850336074829102,-0.4809477925300598,-0.6503812670707703
12.449193954467772,-0.4102555811405182,2.3870086669921875
13.38646125793457,-0.0245342180132865,5.330181121826172
11.744861602783203,2.9310622215271,7.406186103820801
8.634578704833984,2.885672092437744,1.5378737449645996
6.65310525894165,2.263300657272339,2.0903170108795166
7.064089298248291,-0.4671531021595001,6.902737617492676
9.429798126220703,-4.495491981506348,12.811387062072754
6.471188068389893,-4.031745433807373,10.967362403869627
6.194407939910889,-11.724294662475586,2.4855425357818604
11.484317779541016,-9.523174285888672,11.220780372619627
1.461969971656799,-2.306412935256958,27.594602584838867
7.010163307189941,-4.786942005157471,17.15070152282715
6.343197345733643,-9.789517402648926,16.75050926208496
6.01307487487793,-3.818462610244751,16.803730010986328
7.067429542541504,-2.3329031467437744,13.980791091918944
8.133015632629395,-2.7696361541748047,10.836262702941896
8.466925621032715,-0.15874844789505,8.699294090270996
8.998005867004395,-3.068727731704712,4.669613838195801
8.315990447998047,-3.258398056030273,3.5220093727111816
7.541624069213867,-3.8199543952941895,2.0506927967071533
7.7508368492126465,-3.319465160369873,-0.0571768581867218
8.27994441986084,-2.628258228302002,-1.869523525238037
8.644543647766113,-0.557224452495575,-6.285829544067383
8.449185371398926,1.8339853286743164,-8.36475944519043
8.320096969604492,1.4888993501663208,-11.89238452911377
8.175501823425293,0.2450321614742279,-16.660104751586914
6.015145301818848,-4.94989013671875,-22.76030540466309
2.9136838912963867,-4.392326831817627,-25.56574440002441
1.7021303176879885,-2.260051965713501,-29.524259567260746
-0.4660924673080444,2.105402946472168,-29.79484748840332
-1.5225977897644043,-1.5473756790161133,-29.951005935668945
-1.1659948825836182,-1.780517816543579,-25.877336502075195
-1.25392484664917,3.7224531173706055,-17.499784469604492
2.435005187988281,-10.068065643310549,-47.41938400268555
20.42782020568848,8.365195274353027,2.349691867828369
8.196240425109863,-3.7291338443756095,11.287938117980955
20.29317855834961,0.2868489623069763,7.663707256317139
7.974231243133545,9.208380699157717,-2.2778334617614746
3.337101697921753,1.6657205820083618,-2.0941503047943115
1.5201174020767212,-3.729384422302246,-1.1600161790847778
0.7049169540405273,-3.735424041748047,-5.534387111663818
1.0568057298660278,-1.0718742609024048,-5.621875762939453
4.58539628982544,-1.730280518531799,-2.0668492317199707
7.0284576416015625,-3.416955709457397,0.3025075197219848
9.576892852783203,0.4310124516487121,1.1689138412475586
9.96724796295166,1.9439173936843872,0.825188159942627
9.871232986450195,3.3507251739501958,2.994743824005127
8.734742164611816,4.7425456047058105,6.644094944000244
8.234663009643555,3.1219310760498047,8.380934715270996
7.690749645233154,1.7528895139694214,11.394194602966309
7.916725158691406,-0.7943123579025269,14.089103698730469
9.062800407409668,-2.541963577270508,19.08598518371582
7.607919692993164,-10.22873306274414,21.655012130737305
5.305437088012695,-6.406466007232666,12.242161750793455
5.933435440063477,-7.954625129699707,3.2482643127441406
7.782625198364258,-6.23586368560791,22.788328170776367
4.415727138519287,0.5695827603340149,17.72856903076172
8.795201301574707,-6.112464427947998,13.83009433746338
6.672083854675293,-5.192924976348877,14.33085823059082
5.7120137214660645,-3.103222608566284,12.745551109313965
5.083531856536865,-0.9646421074867249,11.286957740783691
4.06704568862915,-2.21018385887146,7.559900283813477
3.677285671234131,-4.145039081573486,4.798932552337647
2.3716471195220947,-4.505372524261475,3.544825792312622
1.3394606113433838,-4.351337909698486,1.7427464723587036
0.9561256766319276,-3.5461058616638184,-0.6199843883514404
0.901724338531494,-2.698258638381958,-3.240412712097168
1.213503360748291,-0.586428701877594,-5.784316062927246
2.873793840408325,-0.5568583011627197,-8.817208290100098
4.843596935272217,0.7715907692909241,-10.356040954589844
6.200825214385986,1.8359163999557493,-11.770074844360352
6.388613700866699,-0.9666648507118224,-18.01986694335937
3.0794501304626465,-3.725322008132935,-22.842151641845703
-0.1733280420303344,-3.866899251937866,-24.752241134643555
-2.390188455581665,-1.507636547088623,-24.40886688232422
-3.634553909301758,-1.219614863395691,-22.59819984436035
-2.9061524868011475,-1.7195085287094116,-23.392353057861328
-2.5814473628997803,2.854855298995972,-18.36337280273437
0.4491093158721924,-0.3683600723743438,-21.90535926818848
12.332051277160645,-11.685105323791504,-56.93345260620117
11.901185035705566,15.590373039245604,27.3514347076416
6.922484874725342,-7.686590194702148,-5.872365474700928
15.666382789611816,2.832280158996582,5.950282096862793
9.520221710205078,7.099964618682861,0.380830705165863
4.783736228942871,3.239136219024658,-3.3374781608581543
1.1499149799346924,-2.116160154342652,-2.401611804962158
0.5425987839698792,0.2757578492164612,-6.277989864349365
1.4728286266326904,-2.935209989547729,-3.95802903175354
2.9321484565734863,-2.2789266109466557,-3.366997241973877
7.2288498878479,-1.5824354887008667,-1.8103339672088623
9.815489768981934,-0.8484019637107849,2.335766553878784
10.879593849182127,1.7281213998794556,3.1123721599578857
10.319514274597168,4.550747394561768,5.181954860687256
8.357295989990234,4.295046329498291,7.96641731262207
4.783006191253662,2.9993205070495605,9.986404418945312
3.07930588722229,-1.0208107233047483,8.307341575622559
3.917436122894287,-3.343812942504883,11.424025535583496
2.318755626678467,-3.0942671298980717,14.954504013061523
4.03202486038208,-3.612220287322998,16.242008209228516
4.299009799957275,-4.501972675323486,9.231195449829102
5.251528739929199,-7.025693893432617,1.4093233346939087
9.433582305908203,-6.029692649841309,13.393838882446287
2.8922665119171143,0.4381245374679565,17.333297729492188
5.951539039611816,-4.956377029418945,14.909857749938965
6.042377948760986,-4.419270515441895,15.883661270141602
7.108438014984131,1.8542251586914065,14.34341049194336
7.809524059295654,0.9373674392700196,13.71327304840088
5.745899677276611,0.3004940152168274,12.335434913635254
4.362081050872803,2.1436264514923096,10.526410102844238
4.20640754699707,-1.8308426141738887,7.321392059326172
5.224717617034912,-1.9785292148590088,5.797634601593018
6.249825954437256,-5.178214073181152,2.279214859008789
6.304519176483154,-5.439610958099365,0.5651744604110718
6.025478839874268,-4.129120349884033,-0.898349404335022
5.525227069854736,-2.453399896621704,-2.618420362472534
4.143603324890137,-1.8907148838043213,-4.919499397277832
2.692023992538452,1.1503329277038574,-5.7829790115356445
1.5105475187301636,-0.3908082842826843,-8.902481079101562
0.813340961933136,-1.7460894584655762,-11.85957145690918
0.6112178564071655,-2.461447238922119,-13.146942138671877
0.3144572079181671,-0.767331063747406,-15.056803703308104
0.2520599961280823,-0.5229185819625854,-17.633176803588867
-0.8806509971618652,-1.1656444072723389,-19.522735595703125
-2.359968662261963,-0.7945234775543213,-19.928327560424805
-4.010645389556885,-3.5121424198150635,-21.512975692749023
-3.469303131103516,-2.5816452503204346,-20.95829963684082
-3.434764623641968,1.6977602243423462,-15.41672420501709
-2.022080898284912,0.6374658346176147,-13.083869934082031
3.26725697517395,-17.908931732177734,-65.7979507446289
30.288494110107425,6.281186103820801,-9.942842483520508
-1.366722583770752,5.494707584381104,20.26296806335449
18.944801330566406,-3.687229871749878,-1.9205946922302248
5.119570255279541,6.462060928344727,-0.5447810888290405
4.018192768096924,4.455856323242188,-4.383427143096924
3.057458639144897,-1.4854494333267212,-2.3319125175476074
3.297171831130981,-1.6755635738372805,-3.7332146167755127
4.253328323364258,-0.8550816178321838,-4.164989471435547
7.253161907196045,-0.4821040034294128,-2.611361265182495
10.42530632019043,-0.7742353677749634,0.3993891179561615
11.926304817199709,0.8472699522972107,1.0915135145187378
12.93255615234375,4.583541393280029,3.404602289199829
10.416242599487305,6.152280330657959,6.744614124298096
6.627232551574707,3.2899911403656006,6.608394622802734
5.240567684173584,-1.8313939571380613,6.882425785064697
3.721602439880371,-6.066562652587891,11.518648147583008
0.8350523710250854,-9.7061185836792,14.145424842834473
-0.6911393404006958,-4.7581892013549805,11.753825187683104
3.006540060043335,-6.279903411865234,3.621387004852295
7.821562767028809,-9.767590522766112,7.43019437789917
2.455696582794189,-3.8169662952423096,17.64487648010254
3.58799409866333,-0.5245417356491089,18.95957565307617
3.724843740463257,-7.009335041046143,15.785304069519045
4.148739814758301,-3.5965981483459477,14.91254425048828
5.408907413482666,-1.525842547416687,14.846117973327637
6.738187313079834,-0.8964267373085022,11.426383018493652
7.318758487701416,0.2255013287067413,10.152478218078612
7.130290985107422,1.3267558813095093,8.73356819152832
7.080958843231201,1.4061477184295654,6.499908924102783
6.899202346801758,-0.5043931603431702,4.579809665679932
6.569674968719482,-1.7783708572387695,3.21825909614563
6.303507328033447,-3.531914710998535,1.0245473384857178
5.471316814422607,-3.9812963008880615,-0.080174833536148
5.289158344268799,-2.271076202392578,-1.6816821098327637
4.718508720397949,0.3493081331253052,-2.7710485458374023
3.960417747497559,2.01306414604187,-5.346674919128418
2.846531629562378,4.057942867279053,-6.627979755401611
1.4147568941116333,1.4125845432281494,-8.928707122802734
1.081184983253479,-2.308551788330078,-14.020621299743652
0.7311751246452332,-4.145074367523193,-16.639856338500977
-0.69581139087677,-1.1382901668548584,-17.305713653564453
-1.043043851852417,-1.855457067489624,-20.6652946472168
-1.8290207386016848,-2.712350368499756,-20.98829460144043
-3.5463500022888184,-4.274112701416016,-21.016326904296875
-4.008076190948486,-4.007283687591553,-22.119741439819336
-4.3285441398620605,-2.264815330505371,-20.07036781311035
-4.373746871948242,-0.0740662515163421,-16.282365798950195
-3.855967283248901,-0.6584967374801636,-13.589606285095217
17.27110481262207,-10.790912628173828,-21.41472816467285
35.0214729309082,4.667738437652588,2.8619093894958496
7.106818675994873,4.322049140930176,-4.941274642944336
-3.9014155864715576,0.5534047484397888,-14.549793243408203
-3.5979995727539062,-3.305930852890014,-3.28114652633667
5.9951653480529785,-5.472746849060059,-2.465902805328369
5.960063934326172,3.013873815536499,-2.2839903831481934
4.58764123916626,0.5566181540489197,-4.068584442138672
5.34080982208252,0.8924130797386169,-3.4793176651000977
9.842141151428224,-0.8177613615989685,-1.5463440418243408
11.89168930053711,0.2441769987344741,2.95566725730896
11.317773818969728,-1.0069557428359983,2.4039106369018555
9.30875015258789,1.2347629070281982,5.541701316833496
7.353729248046875,2.155797243118286,7.451471328735352
4.04561710357666,0.9199791550636292,5.731377601623535
3.554025411605835,-3.0526766777038574,7.790771961212158
1.084740161895752,-4.012794017791748,11.267913818359377
1.603323221206665,-4.0382399559021,13.22295379638672
0.6588943004608154,-0.917836368083954,9.642621994018556
4.969408512115479,-4.406796455383301,4.323883056640625
6.748290538787842,-6.095089435577393,8.960379600524902
3.874857902526856,-0.6517600417137146,18.66770362854004
4.04900598526001,-2.2940022945404053,18.917421340942383
5.82822322845459,-4.926990032196045,15.171167373657228
6.947819232940674,-2.182514905929565,13.823381423950195
8.203591346740723,-1.3516151905059814,12.779034614562988
9.495506286621094,-2.9436771869659424,10.625842094421388
8.6541748046875,-0.1679408699274063,8.852636337280273
7.492351055145264,1.3460246324539185,6.909271240234375
6.466032028198242,-0.3603529930114746,4.625302314758301
5.358774662017822,-1.1241233348846436,3.097972869873047
5.026507377624512,-2.2785418033599854,1.50283944606781
4.574474334716797,-2.322545528411865,1.1938577890396118
4.119109630584717,-1.6992158889770508,0.3861343562602997
3.718109846115112,-0.8921939134597778,-1.0821852684020996
3.5390398502349854,0.4576658606529236,-1.7204711437225342
3.313992738723755,0.9181539416313172,-3.5388100147247314
2.620251178741455,1.5641525983810425,-5.617912769317627
1.435578227043152,0.7129417061805725,-7.585137367248535
0.7352773547172546,-0.5756040811538696,-10.031617164611816
0.6559934020042419,-2.194741487503052,-13.42726230621338
0.5197564363479614,-3.1319849491119385,-18.100830078125
-0.0832015872001648,-2.463390588760376,-21.60846519470215
-1.3575501441955566,-2.774461269378662,-23.35413932800293
-2.871756076812744,-3.8014750480651855,-23.6138973236084
-3.7766737937927246,-3.5458779335021973,-23.13773536682129
-3.5066943168640137,-1.6914434432983398,-20.651050567626957
-2.601848125457764,-0.1600695103406906,-16.958820343017578
-1.9352350234985352,0.5120182633399963,-12.642330169677734
2.3030107021331787,-2.350802183151245,-7.731662750244141
31.068153381347656,-5.000552177429199,0.8231393098831177
22.06683158874512,10.622588157653809,3.891947746276856
2.2897391319274902,-6.848579406738281,-16.988487243652344
-5.910956382751465,-2.380030870437622,-14.107603073120115
-0.1579106450080871,-6.982276916503906,-3.8810317516326895
5.619415283203125,-1.3574426174163818,-0.8769689798355103
3.5709872245788574,2.2471671104431152,-2.160949230194092
3.1613800525665283,-1.1387535333633425,-2.3293333053588867
3.5778725147247314,1.0309810638427734,-4.835282802581787
2.998133420944214,1.9839441776275637,-4.053122043609619
5.307769775390625,0.3830019831657409,-1.551442265510559
7.308623790740967,-2.163252592086792,-1.5132886171340942
11.825882911682127,1.433688402175903,3.8368380069732666
10.790492057800291,1.152338624000549,6.623969078063965
9.546371459960938,3.121549129486084,9.00389575958252
6.402712821960449,3.3729827404022217,10.235408782958984
5.71589994430542,-0.1761945784091949,8.745475769042969
6.098063945770264,-3.950527429580689,11.48277187347412
6.316022872924805,-4.067723274230957,17.248809814453125
4.273566722869873,-4.251407146453857,16.791400909423828
3.819195032119751,-4.004395484924316,9.54746437072754
5.931641101837158,-7.070506095886231,7.050376892089844
6.0854902267456055,-0.914914071559906,21.613258361816406
3.302851676940918,1.243099808692932,20.27573776245117
4.929548740386963,-5.462816715240479,15.794184684753418
4.665215969085693,-2.1906816959381104,15.24086093902588
5.939188480377197,-2.288380622863769,12.465864181518556
5.680384159088135,0.9292486310005188,11.834983825683594
5.014450073242188,0.2520508170127868,8.76304817199707
4.501701354980469,0.594890832901001,6.145767211914063
4.457846641540527,-1.4460636377334597,3.645117044448853
4.253462791442871,-2.6283771991729736,1.898845076560974
3.631495475769043,-3.3607654571533203,0.5568947792053223
3.244417428970337,-2.6871347427368164,-0.3169423341751098
3.889492034912109,-1.6233166456222534,-1.7393296957015991
4.214328289031982,-0.3247498571872711,-3.220728874206543
4.629668235778809,0.4097968339920044,-5.602753162384033
5.027305603027344,-0.3640299439430237,-7.581668853759766
5.13676643371582,0.4531074464321136,-8.420767784118652
4.717671871185303,-1.291061282157898,-11.25705909729004
3.5956993103027344,-1.874652862548828,-14.834148406982422
1.7044260501861572,-3.115095615386963,-19.37070083618164
-0.624445915222168,-2.9051239490509038,-20.64905548095703
-2.554656982421875,-3.678528070449829,-21.810880661010746
-3.317502498626709,-3.798350334167481,-22.114761352539062
-3.373810052871704,-2.530897617340088,-21.20621681213379
-3.199429035186768,-0.9767970442771912,-19.329343795776367
-3.1126222610473637,0.3493960797786712,-16.02581787109375
-2.7604734897613525,1.853952169418335,-12.367429733276367
-0.4019934833049774,0.9359418153762816,-10.153573036193848
18.740243911743164,-6.661953926086426,-0.8895170092582703
27.872743606567383,8.397881507873535,0.7912914752960205
6.726778507232666,-7.869287490844727,-12.485852241516112
-7.195303916931152,0.5672094225883484,-12.95745849609375
-3.0735955238342285,-1.9760282039642332,-4.542008876800537
5.547592639923096,-4.5590596199035645,-2.056294679641724
5.288903713226318,3.726689577102661,-2.9149746894836426
4.524288654327393,1.298957347869873,-3.02400803565979
5.167647838592529,-0.0301755294203758,-3.328160762786865
7.318859100341797,0.2766543924808502,-2.900892972946167
11.77533721923828,1.9621413946151731,0.3725830316543579
10.566716194152832,1.013561129570007,2.3065028190612797
10.76924991607666,3.046182870864868,1.4851666688919067
8.345013618469238,3.100605726242065,7.017744064331055
5.913647174835205,0.368859052658081,6.391476631164551
4.626269817352295,-3.128162384033203,5.828754425048828
2.549152135848999,-3.3396008014678955,12.149849891662598
2.25233006477356,-6.284536361694336,13.2012939453125
1.281641125679016,-3.083477735519409,9.96503448486328
2.3705179691314697,1.3546757698059082,3.820666551589966
6.9097089767456055,-3.5899465084075928,3.802656173706055
7.350223064422607,-1.073412537574768,11.376791000366213
6.028810501098633,-0.8886996507644653,15.263909339904783
7.329123020172119,-4.471099853515625,13.676814079284668
7.98499870300293,-4.20828104019165,13.421263694763184
9.043466567993164,-2.82715392112732,13.501701354980469
10.525146484375,-3.704603672027588,12.73069667816162
10.240914344787598,-3.366576910018921,10.762321472167969
8.206855773925781,-1.3456512689590454,9.253400802612305
6.370174407958984,0.5236150622367859,9.149296760559082
4.374733924865723,0.1751323640346527,6.625596046447754
3.5582196712493896,-0.3230588138103485,4.714559555053711
3.515377759933472,-0.8961754441261292,3.635432481765747
3.135619640350342,-1.9157642126083372,2.5039005279541016
3.049280405044556,-2.4998040199279785,0.772159218788147
2.316979169845581,-1.3246538639068604,0.5493131875991821
1.975332856178284,0.1064442917704582,-0.3521406650543213
1.638485550880432,1.2418019771575928,-1.80487060546875
0.6178084015846252,3.045099973678589,-2.853634119033813
-0.7207289338111877,2.413950204849243,-4.656455039978027
-2.310542583465576,1.0233120918273926,-7.099301338195801
-3.522815227508545,-0.0849487408995628,-9.514849662780762
-2.573573589324951,-2.637769937515259,-13.271326065063477
-0.972013294696808,-2.991640329360962,-18.431400299072266
-0.5053951740264893,-2.03633975982666,-22.08189392089844
-1.583270788192749,-2.6742758750915527,-23.572486877441406
-3.229449987411499,-4.210190773010254,-23.999042510986328
-4.12673282623291,-3.6543257236480713,-21.865388870239254
-3.777956485748291,-1.0174373388290403,-19.310203552246094
-3.768310546875,0.3626506626605987,-14.34748077392578
4.015366554260254,-8.044837951660156,-19.61553192138672
46.45654296875,-6.999115943908691,-13.429487228393556
19.089582443237305,11.782550811767578,4.892548561096191
-7.045231819152832,0.2502216696739197,-12.843127250671388
-7.433990478515625,-4.1219587326049805,-10.90951919555664
-0.0790623873472213,-11.65787410736084,0.2222609519958496
5.518445014953613,0.7019503712654114,-3.202065944671631
3.8962056636810303,1.9881938695907595,-2.4361820220947266
4.794373989105225,0.0738265439867973,-4.122254848480225
3.89548397064209,0.7553818821907043,-4.144381046295166
4.272239685058594,1.9127328395843504,-3.4457294940948486
8.105567932128906,-0.855864942073822,-3.6297643184661865
10.343986511230469,-0.3359710276126861,3.311277389526367
10.484835624694824,0.8198449015617371,5.1300435066223145
10.311251640319824,2.528427124023437,6.260797500610352
5.966763496398926,4.201394081115723,9.614426612854004
4.921934127807617,0.5150653123855591,7.186517238616943
2.259474039077759,1.9240732192993164,8.814632415771484
1.6511621475219729,-0.898665726184845,10.608114242553713
1.5358490943908691,-1.4313631057739258,6.8779072761535645
3.884122133255005,-3.888726711273194,4.739074230194092
4.868553638458252,-3.562069892883301,8.705241203308105
4.500933170318604,0.7937497496604919,14.85680866241455
4.019145011901856,-0.8891100883483887,16.25173568725586
5.56423282623291,-3.9998817443847656,14.881306648254396
5.797558784484863,-2.6224191188812256,13.554232597351074
6.058361530303955,-1.3208776712417605,14.030840873718262
6.955093383789063,-1.959319829940796,13.444786071777344
7.996402740478516,-3.888421058654785,10.749366760253906
6.886157035827637,-2.907432556152344,9.28565788269043
5.834960460662842,0.4578122496604919,11.284330368041992
4.441420555114746,-0.2983008325099945,9.787989616394045
3.9026167392730713,-2.405841827392578,6.328636169433594
4.336790084838867,-2.3879361152648926,5.068064212799072
4.87886381149292,-3.1625289916992188,2.766230821609497
5.2289814949035645,-3.044339179992676,1.100562334060669
5.459450721740723,-1.4135798215866089,-0.861693263053894
5.579042434692383,-0.9980036020278932,-3.0143818855285645
5.817075252532959,-0.2808802425861358,-5.345521450042725
5.523152828216553,1.5214107036590576,-5.844720363616943
4.257944583892822,0.3862063586711883,-7.5629682540893555
3.1014504432678223,-0.5461004376411438,-10.399946212768556
2.031813621520996,-1.3142024278640747,-12.967710494995115
0.9112801551818848,-0.8768693804740906,-14.869181632995604
0.0919007658958435,-1.2444674968719482,-17.458663940429688
-0.6964991092681885,-1.8938170671463013,-19.91537475585937
-1.7548471689224243,-2.3109192848205566,-20.57762718200684
-2.631663084030152,-1.9028396606445312,-20.93260383605957
-3.59814715385437,-0.5508047938346863,-20.668336868286133
-3.522602081298828,-0.1785676181316375,-18.950056076049805
-2.530954122543335,0.1908759027719497,-15.674851417541504
-1.193648338317871,-0.1463028043508529,-12.885750770568848
9.093585014343262,-11.701617240905762,-9.702106475830078
31.844581604003903,6.013155460357666,2.301712989807129
9.17392921447754,10.190455436706545,0.4773004651069641
-2.551663637161255,-6.831152439117432,-11.742138862609863
-6.077039241790772,-9.27245044708252,-14.623278617858888
1.0456234216690063,-6.735691547393799,-4.385969638824463
6.416848182678223,2.359091281890869,0.4941850304603576
2.266512632369995,-0.7965132594108582,-2.9421331882476807
3.1356618404388428,0.3688621819019317,-3.6322333812713614
2.959546566009521,0.9968289136886596,-4.684375286102295
4.424593925476074,2.033327102661133,-2.989898204803467
5.594673156738281,-2.6691250801086426,-1.0891178846359253
8.580183982849121,-1.6534103155136108,-0.2448762357234954
12.509860038757324,-0.9722991585731506,4.536635398864746
10.908313751220703,2.66310453414917,7.425824165344238
9.909061431884766,4.290037155151367,8.550030708312988
5.686306953430176,4.120328426361084,11.443807601928713
6.140859603881836,-1.508711576461792,9.326837539672852
4.785723209381104,-1.2125296592712402,12.235658645629885
4.116501808166504,-2.7864773273468018,11.96318817138672
5.286474227905273,-7.791371822357178,7.892200469970703
6.359862804412842,-6.614344596862793,6.063296794891357
5.314439296722412,0.7801191806793213,16.82706642150879
1.449857473373413,-0.1494185775518417,20.43836975097656
2.116647720336914,-4.346681594848633,16.65682601928711
2.584353446960449,-1.8225111961364744,15.052704811096191
3.190796136856079,-0.734764814376831,14.44405746459961
4.8167901039123535,-3.1442837715148926,11.67544651031494
4.472349643707275,-2.553288221359253,8.968866348266602
4.079840660095215,0.1885128915309906,9.400251388549805
4.45185661315918,-1.0337491035461426,8.112113952636719
4.523521423339844,-2.163259267807007,5.436995029449463
5.595550537109375,-3.0252950191497803,3.758972644805908
5.88369607925415,-3.3600881099700928,2.6845648288726807
5.527777671813965,-2.506274938583374,2.583439350128174
5.290975093841553,-1.9078906774520876,0.8637410998344421
4.873241424560547,-0.9777357578277588,-1.0779039859771729
4.49787712097168,-0.6774234175682068,-2.2061867713928223
3.968874216079712,0.2429589480161667,-4.278444290161133
3.222675085067749,1.7880792617797852,-4.753939151763916
2.457524299621582,0.6300438642501831,-7.208767414093018
1.4184176921844482,1.7566696405410769,-8.876611709594727
0.1496706902980804,1.9977251291275024,-9.87314510345459
-0.4333145320415497,0.9898553490638732,-12.077046394348145
-0.4696369767189026,-1.2536237239837646,-14.90530776977539
-1.1750833988189695,-3.120403528213501,-17.53628921508789
-2.5975515842437744,-3.961576223373413,-18.748144149780277
-2.988748550415039,-3.5155770778656006,-20.077362060546875
-3.661881446838379,-1.7838799953460691,-19.68167304992676
-3.56294059753418,-0.8685044050216675,-17.83234214782715
-2.057600736618042,-0.6782969236373901,-15.391860961914062
-0.7457808256149292,-3.295769691467285,-19.59605598449707
22.24384117126465,-11.20496940612793,-32.04756546020508
20.73031997680664,8.996662139892578,10.547329902648926
6.950552940368652,-3.0790810585021973,-9.461268424987791
-4.124405860900879,-0.812148928642273,-11.887642860412598
-2.238200187683105,-1.1150647401809692,-5.063153266906738
3.6930880546569824,-3.6449086666107178,-2.674101591110229
7.309912204742432,0.978990375995636,-1.1368340253829956
7.271748065948486,1.0786678791046145,-2.1688692569732666
10.024375915527344,1.729358434677124,-0.4842138886451721
9.535860061645508,1.954109787940979,0.1901934444904327
7.655932903289795,1.327494502067566,0.5803969502449036
6.331417083740234,1.5353405475616455,-0.801312267780304
5.250734329223633,2.283241271972656,1.8428905010223389
5.937426567077637,-0.4451530277729034,2.50405502319336
3.530462741851806,-0.7996612191200256,5.566549777984619
2.0828394889831543,-0.8414392471313477,7.969249248504639
1.5850303173065186,-2.607630968093872,9.319514274597168
1.1412155628204346,-3.176400661468506,5.319060802459717
1.9743785858154297,-4.376889705657959,4.146617412567139
4.9591898918151855,-5.026594161987305,3.823195695877075
6.256768226623535,-3.4319369792938232,10.554351806640623
6.450078964233398,-3.1872129440307617,14.772867202758787
7.756946563720703,-3.3350160121917725,16.191299438476562
7.439440727233887,-2.692758321762085,17.573177337646484
7.335818290710449,-2.88447380065918,16.910133361816406
7.393433094024658,-3.066606044769287,14.965709686279297
8.248851776123047,-3.738124132156372,11.976205825805664
8.138202667236328,-3.91683030128479,10.059137344360352
6.488731384277344,-0.6397351622581482,9.075176239013672
5.475435256958008,0.9256367683410645,7.833683490753174
4.399531364440918,-0.6637455821037292,4.416866302490234
3.5449955463409424,-0.9289388060569764,3.1954715251922607
2.9079794883728027,-1.0795048475265503,2.1272809505462646
2.446338415145874,-1.8115438222885127,0.6416290998458862
1.9918243885040283,-1.557597041130066,-0.2661293745040893
1.7253810167312622,-1.1883985996246338,-1.215662121772766
1.6295688152313232,-0.152339830994606,-3.0571205615997314
1.340195894241333,2.3978493213653564,-3.820488691329956
0.7694200277328491,1.508611083030701,-5.857553958892822
-0.4590465426445007,1.474957823753357,-6.915169715881348
-0.5601990222930908,-0.5237313508987427,-9.161775588989258
-0.5233851671218872,-1.6296395063400269,-12.478317260742188
-1.5848736763000488,-1.5745242834091189,-13.485305786132812
-2.1698999404907227,-2.1000120639801025,-15.108201026916504
-2.437241315841675,-2.273969411849976,-15.720796585083008
-2.636684894561768,-2.943325519561768,-16.224464416503906
-3.1416144371032715,-2.6371607780456543,-16.783676147460938
-3.749112606048584,-1.397520899772644,-16.20500373840332
-3.8153727054595943,-0.63689124584198,-15.14633083343506
-3.1062347888946533,-1.4140297174453735,-15.357464790344238
12.006731986999512,-12.236920356750488,-42.9473876953125
34.436859130859375,7.564699172973633,2.484947204589844
2.2470638751983643,-0.5608497262001038,0.0416231900453567
-1.917177438735962,-1.3130959272384644,-14.68589973449707
-5.134067058563232,-1.7340328693389893,-8.795944213867188
2.0440833568573,-5.173336982727051,-1.2016035318374634
7.300430774688721,3.0303940773010254,-1.8263020515441892
3.7823774814605713,1.155505657196045,-1.7988553047180176
3.6389474868774414,-0.1942008584737777,-3.595892906188965
4.806591510772705,1.5281323194503784,-3.297118186950684
9.172557830810549,-1.0792902708053589,0.2076063156127929
9.964241027832031,-1.8237297534942627,2.2067785263061523
9.28232765197754,0.7209586501121521,2.5483713150024414
10.14352798461914,1.326969861984253,3.0804409980773926
8.265022277832031,3.0036981105804443,6.352378845214844
5.9803147315979,1.4291740655899048,5.5845947265625
5.696517467498779,-2.1416094303131104,6.517279624938965
4.614738464355469,-4.051700115203857,12.18445873260498
2.4062275886535645,-4.97096061706543,14.013086318969728
2.4349634647369385,-4.969575881958008,16.980712890625
1.6256769895553589,-4.122252941131592,8.299524307250977
5.5760111808776855,-8.57363224029541,2.373683452606201
8.408875465393066,-5.301541805267334,12.469746589660645
2.1080517768859863,1.7327280044555664,19.15779685974121
5.840709686279297,-3.0846288204193115,15.284603118896484
6.186532974243164,-2.939759492874145,12.119792938232422
6.420732975006104,-0.953614056110382,12.657255172729492
6.378650188446045,-3.23203706741333,11.236873626708984
5.848266124725342,-2.8840267658233643,9.096129417419434
4.445619583129883,0.2501029968261719,8.707039833068848
3.753774881362915,-0.9422116279602052,6.568747043609619
3.377129554748535,-1.678879737854004,3.2395918369293213
3.264278650283813,-1.5607274770736694,2.6353914737701416
2.8343002796173096,-2.178374528884888,1.6155060529708862
2.3239517211914062,-2.248911142349243,0.570889413356781
2.019198179244995,-1.9886178970336916,-0.6792861819267273
1.8084661960601809,-0.4223241806030273,-1.5279566049575806
1.6945301294326782,-0.0949119925498962,-3.1081326007843018
1.1102967262268066,2.307389974594116,-4.1766228675842285
0.4219311475753784,2.2593560218811035,-5.798716068267822
0.4380616545677185,2.700308084487915,-7.241573333740234
1.0354944467544556,0.0413870550692081,-9.837541580200195
0.8251105546951294,-1.8539990186691284,-14.179699897766112
-0.2525327205657959,-1.6898523569107056,-17.42465591430664
-1.203037142753601,-1.059470295906067,-18.4627742767334
-2.101065158843994,-1.1811383962631226,-18.761234283447266
-2.7815699577331543,-0.9543845057487488,-18.5254020690918
-3.607353687286377,-0.0985045582056045,-16.375560760498047
-3.5561535358428955,0.1589289307594299,-15.82957649230957
-3.72301197052002,1.842133641242981,-12.753125190734863
-2.6955795288085938,1.2686100006103516,-10.361053466796877
-0.1405625492334365,-2.9298107624053955,-14.33284854888916
36.06436538696289,-33.07024002075195,-47.91073989868164
9.798700332641602,41.19577407836914,27.58639335632324
4.157349109649658,-10.859148979187012,-16.080339431762695
-6.346915721893311,4.237454414367676,-1.6201261281967163
-2.099231719970703,-3.694142818450928,-6.049341678619385
3.87613844871521,-0.8196811079978943,-2.184962272644043
6.202187061309815,-2.0048491954803467,-0.4077607095241546
7.363835334777832,-1.4188990592956543,-1.749763011932373
8.26479434967041,0.6711742877960205,-2.4017837047576904
10.091338157653809,2.986327648162842,-0.9468876123428344
8.073872566223145,2.249525785446167,-0.4761618673801422
6.450267791748047,2.3359107971191406,-0.4161653518676758
5.180317401885986,2.19425630569458,1.290407657623291
5.684053897857666,0.6826891303062439,1.0461573600769043
5.916014194488525,-0.3576240539550781,5.642343997955322
4.133512020111084,-0.6092206239700317,8.698564529418945
3.9579923152923584,-1.3655600547790527,8.040738105773926
3.5554039478302,-3.352339506149292,12.41617202758789
0.702889084815979,-2.8594586849212646,8.037578582763672
3.3387374877929688,-5.83986234664917,0.880847692489624
7.864699840545654,-5.258862495422363,3.542996406555176
6.144047737121582,-0.5420991778373718,13.547566413879396
7.645900249481201,-4.628846645355225,12.88335418701172
8.806464195251465,-5.49773645401001,12.200337409973145
8.006248474121094,-3.411756992340088,13.342162132263184
8.167156219482422,-3.5619683265686035,13.628793716430664
8.755338668823242,-3.673220157623291,12.242149353027344
9.599982261657717,-4.5378522872924805,9.811186790466309
8.084676742553711,-4.502118110656738,8.814749717712402
5.360410213470459,0.3157725930213928,9.191987991333008
4.122759342193604,-0.2439736872911453,7.508894920349121
2.855017900466919,-1.4307819604873655,4.358376502990723
2.837947130203247,-0.9536563158035278,3.419808149337769
2.4846363067626958,-1.1812944412231443,2.772528171539306
2.381711721420288,-1.747072458267212,1.216983437538147
1.8163881301879885,-0.7311615347862244,0.1642852574586868
1.3277769088745115,0.2183360606431961,-0.6385138630867004
0.7040583491325378,1.877500414848328,-1.2451976537704468
0.1479033380746841,0.9651950001716614,-2.188791275024414
-0.4604001045227051,1.9356287717819212,-3.1016831398010254
-1.7880520820617676,1.7100608348846436,-4.637606620788574
-3.06265640258789,2.682857036590576,-6.100401878356934
-3.5097389221191406,-0.2414583414793014,-9.015270233154297
-2.722400665283203,-2.286075592041016,-15.4677152633667
-1.952440619468689,-1.0552735328674316,-17.736913681030273
-1.9167438745498655,-0.3024064302444458,-20.09532928466797
-2.1856274604797363,-0.3256036043167114,-21.11458969116211
-2.9220032691955566,-1.821875810623169,-22.22362899780273
-3.468728542327881,-0.4355627298355102,-21.156211853027344
-3.577770948410034,0.7844370603561401,-17.649234771728516
-0.9862452745437622,-10.10328483581543,-32.89143753051758
27.29070281982422,-13.562607765197754,-51.72732162475586
3.470292568206787,25.38931655883789,31.79003143310547
15.91713523864746,-5.318697452545166,-10.24193286895752
3.7747795581817623,2.7636969089508057,0.180594190955162
5.076655387878418,3.296135425567627,-2.6981747150421143
5.342480182647705,-3.2350099086761475,-0.454588234424591
4.070437908172607,-1.3362351655960083,-1.2358633279800415
2.4825730323791504,0.3095832765102386,-2.7155935764312744
2.416900634765625,-0.2519930303096771,-4.111689567565918
3.400874376296997,-0.7631124258041382,-2.5046050548553467
4.745238780975342,-0.6916564106941223,-0.5170271992683411
6.2711381912231445,0.0323368683457374,-0.901422083377838
6.681518077850342,0.9163024425506592,1.4065533876419067
7.15808629989624,0.9691499471664428,3.2388360500335693
8.514634132385254,0.9230136275291444,7.83058500289917
7.709401130676269,-0.5522686243057251,10.90579891204834
6.40237283706665,-2.8771347999572754,11.32740306854248
3.25408673286438,-4.585902690887451,12.212677001953123
2.0275354385375977,-4.81490421295166,9.59054470062256
2.913136482238769,-8.476451873779297,-1.4569051265716553
9.871522903442385,-8.186454772949219,1.3210619688034058
4.932890892028809,-2.761361598968506,11.426908493041992
3.617043018341065,-1.7724497318267822,13.190225601196287
5.346993446350098,-2.7559564113616943,12.67974090576172
5.233108997344971,-2.6658742427825928,13.053353309631348
5.304460048675537,-1.1966739892959597,11.767820358276367
6.357125282287598,-1.187052607536316,10.729653358459473
7.572420120239258,-1.958452820777893,9.781815528869627
7.117361068725586,-2.996309280395508,8.670530319213867
4.922302722930908,-1.4330472946166992,7.124477386474609
4.075403690338135,1.8723658323287964,7.364095211029053
3.537651300430298,-0.476942241191864,5.36574649810791
3.285618305206299,-2.2770652770996094,3.001578092575073
3.170767307281494,-2.823326110839844,2.498222827911377
3.089561700820923,-2.6492652893066406,1.2152433395385742
2.979442834854126,-2.3337247371673584,-0.0458148568868637
2.4007129669189453,-1.5540778636932373,-0.7742850184440613
1.7907202243804932,0.2590439915657043,-1.6578850746154783
1.2660436630249023,0.6682628393173218,-2.091956853866577
0.388692170381546,0.348596453666687,-3.7301025390625
-0.795117199420929,0.7576509118080139,-5.174118995666504
-1.986160516738892,1.1067795753479004,-7.180322170257568
-2.451261043548584,-0.1618734896183014,-9.925212860107422
-2.4211647510528564,-1.2535357475280762,-13.604628562927246
-2.5746748447418213,-0.4464569389820099,-16.446672439575195
-3.0612621307373047,-0.1763994842767715,-18.978538513183597
-3.307318925857544,0.4275870025157928,-19.751522064208984
-3.996246337890625,-0.1373274028301239,-19.830739974975582
-4.931439399719238,-0.1389189213514328,-18.9577579498291
-5.284231185913086,0.5642315745353699,-16.51441764831543
-5.557256698608398,2.135824680328369,-12.141718864440918
-0.776356041431427,-26.65376853942871,-65.06311798095703
36.749244689941406,5.106533050537109,-3.776826858520508
5.955874443054199,15.091303825378418,20.56590461730957
15.996808052062988,0.5497228503227234,-7.038156986236572
1.9572182893753047,5.146981239318848,-4.543947696685791
5.357774257659912,2.5374538898468018,1.0745474100112915
6.570405006408691,-2.0049877166748047,-1.4197691679000854
4.783828258514404,-2.656311273574829,-0.0899542346596717
1.3094991445541382,0.2025355547666549,-2.43018102645874
1.4583531618118286,-0.5335254073143005,-3.383119583129883
3.9889631271362314,-0.7771725654602051,-0.8679340481758118
5.089347362518311,0.3795233368873596,-0.3863565921783447
6.44737434387207,1.1934890747070312,1.026028752326965
7.237701892852783,2.0581929683685303,3.0652244091033936
8.129971504211426,2.3292624950408936,7.109899044036865
6.77610445022583,2.414318799972534,8.561945915222168
6.146213531494141,1.4053497314453125,10.64061450958252
4.518466949462891,-1.5488959550857544,11.965720176696776
2.594221353530884,-4.734553813934326,13.462696075439451
1.3391669988632202,-5.684757232666016,7.837318897247314
3.408221244812012,-8.16845703125,1.310002684593201
10.899479866027832,-9.527450561523438,2.5348496437072754
3.41857647895813,-2.1826882362365723,13.438386917114258
2.3689498901367188,-2.723472118377685,16.02466583251953
3.696920871734619,-3.413620948791504,14.703097343444824
4.222344398498535,-1.8601202964782717,13.12796688079834
4.89581298828125,-0.7462374567985535,12.080830574035645
5.822288513183594,-2.486026763916016,10.525903701782228
6.032230854034424,-4.202527046203613,7.6503167152404785
5.244387626647949,-1.9222755432128904,6.369865894317627
4.86625337600708,2.1479692459106445,7.611065864562988
4.862728595733643,-0.9297143816947936,3.4913485050201416
4.910684585571289,-2.318639278411865,1.7501453161239624
5.277431011199951,-1.6279830932617188,1.175127625465393
5.527712345123291,-2.4461464881896973,-0.5870835185050964
5.193633079528809,-1.8060312271118164,-1.5495277643203735
4.6446533203125,0.2384381592273712,-2.220517635345459
3.7633135318756095,2.333343267440796,-3.087528705596924
2.621992349624634,2.7485170364379883,-4.897915840148926
0.8700931072235107,3.0565781593322754,-5.924103736877441
0.0392810702323913,3.3036341667175293,-7.604706287384033
-0.696638822555542,1.9819014072418213,-10.614330291748049
-1.610988974571228,-0.1668916791677475,-13.3806734085083
-2.7020723819732666,-1.1625213623046875,-16.538549423217773
-3.931917428970337,-1.4375295639038086,-18.0586051940918
-3.238733291625977,-0.2169327437877655,-20.67336845397949
-3.518509864807129,1.6944332122802734,-18.94169807434082
-3.8440656661987305,0.6981402039527893,-20.637378692626957
-4.384823799133301,0.301805317401886,-18.552934646606445
-4.981705188751221,1.6563938856124878,-15.692523956298828
-4.811027050018311,3.254624605178833,-10.757061004638672
-2.096273899078369,-14.158852577209473,-51.76372146606445
28.024606704711918,3.7865614891052246,-13.623575210571287
0.0885268449783325,12.42714500427246,19.52472686767578
16.57923698425293,-7.926562786102295,-5.574751377105713
4.947459220886231,2.420775413513184,1.0195953845977783
8.670137405395508,3.2589099407196045,-0.9544107913970948
8.252554893493652,0.6670003533363342,-1.5323152542114258
7.55623197555542,1.602451205253601,-1.5303422212600708
7.135869026184082,0.739251971244812,-1.4337552785873413
7.053400993347168,1.24274742603302,0.4505893886089325
6.242073059082031,1.023624300956726,-0.2898159027099609
5.680403232574463,3.0286953449249268,0.2824971675872803
6.244259357452393,3.2154133319854736,2.2827396392822266
6.560997486114502,2.216592073440552,1.5920923948287964
5.405412673950195,1.5244711637496948,6.091197490692139
4.02574348449707,0.3268880248069763,8.118475914001465
4.288477420806885,-1.267492651939392,10.42086696624756
3.2212209701538086,-4.100512981414795,13.151934623718262
1.910268783569336,-2.902374029159546,6.7532877922058105
2.5059497356414795,-5.173279285430908,2.8792929649353027
10.180811882019045,-4.611611843109131,6.687932968139648
3.343670606613159,-2.039315938949585,15.84006690979004
5.439304828643799,-3.4611001014709477,14.590006828308104
6.123387336730957,-4.499209880828857,11.888647079467772
6.265603065490723,-3.541269063949585,12.18525218963623
6.138363838195801,-3.210887670516968,12.656322479248049
5.869256019592285,-3.452767133712769,11.192179679870604
6.17492151260376,-4.105390548706055,9.128145217895508
6.2105255126953125,-3.605200290679932,7.359050750732422
5.087553977966309,-1.9329302310943604,6.4954118728637695
4.269125461578369,-0.0391908884048461,5.940239906311035
3.49043083190918,-0.723271369934082,4.048543453216553
3.3382365703582764,-2.555769205093384,2.119760274887085
3.386954069137573,-2.38675856590271,1.357390284538269
3.490443468093872,-2.395914077758789,0.219399943947792
3.336667060852051,-1.819851875305176,-0.8384450674057007
2.900381326675415,0.3988200724124908,-2.10446834564209
1.9120436906814573,1.6677488088607788,-3.194199323654175
1.0494953393936155,2.280045509338379,-5.128542900085449
-0.0682836174964904,2.790684461593628,-6.464380741119385
-1.0975301265716553,3.5810694694519043,-7.283832550048828
-1.530517339706421,2.407914161682129,-8.6525297164917
-2.1018311977386475,1.2900609970092771,-10.524613380432127
-2.586215019226074,-0.1761908829212188,-12.793161392211914
-2.160450220108032,-1.2228924036026,-17.614303588867188
-2.821897506713867,0.9605305194854736,-14.97940731048584
-3.19209885597229,-0.1628224551677703,-16.46468734741211
-3.219688892364502,0.1160021349787712,-18.18885612487793
-4.040398597717285,-0.3400720953941345,-17.74917984008789
-4.819583892822266,0.7109696865081787,-16.40618896484375
-5.720518112182617,3.1096630096435547,-12.688310623168944
-2.753997802734375,-8.334126472473145,-33.45616912841797
21.16088104248047,-28.16008758544922,-53.06560897827149
-0.0655241012573242,28.748876571655277,30.20221328735352
20.31368064880371,-8.158365249633789,-8.037662506103516
8.621818542480469,10.538167953491213,0.4779819250106811
8.232003211975098,6.526779651641846,-5.229966163635254
7.1311116218566895,-1.6688299179077148,-0.4429606199264526
6.9816765785217285,-0.804145336151123,-0.5357321500778198
5.323085784912109,0.4214582145214081,-2.163667678833008
5.052341461181641,1.7602006196975708,-2.374152898788452
5.228831768035889,1.5373929738998413,-1.511810541152954
6.156124591827393,2.2988412380218506,-0.2912516295909881
6.754330158233643,3.175140857696533,1.3071032762527466
7.4289751052856445,3.3752593994140625,3.6451950073242183
5.7102532386779785,1.7490262985229492,3.8879823684692383
4.1326904296875,0.4824911952018738,8.394576072692871
3.089369773864746,-0.1667853593826294,9.339202880859377
3.2409534454345703,-3.204412937164306,9.817465782165527
2.247744560241699,-6.664986610412598,12.609366416931152
0.2930431365966797,-6.576452255249023,6.688904762268066
2.653193712234497,-5.328916072845459,3.3880646228790283
6.2641448974609375,-1.9019252061843872,11.800515174865724
1.7147458791732788,-2.3415181636810303,16.64698028564453
3.98033618927002,-2.757288217544556,14.41989040374756
4.49488639831543,-4.010443687438965,12.285712242126465
5.053121566772461,-3.3118038177490234,11.908862113952637
5.593955039978027,-2.905710458755493,12.648622512817385
6.342831611633301,-3.9118053913116455,10.208516120910645
7.266083717346191,-3.698347806930542,7.974724769592285
6.143708229064941,-1.4160557985305786,7.976617813110352
5.201132297515869,-0.1007692515850067,7.326418399810791
5.400367736816406,-2.6872072219848637,3.618203401565552
5.275135040283203,-2.5567994117736816,1.9487614631652832
5.456146717071533,-3.402559995651245,0.8562031984329224
5.585543632507324,-3.069368600845337,-0.2145972251892089
5.191117286682129,-2.5341367721557617,-1.5729165077209473
4.56751823425293,-1.7948964834213257,-2.911548376083374
3.398149013519287,-0.1623360514640808,-3.4479634761810303
1.7545981407165527,0.1806835532188415,-4.254543781280518
-0.2976658940315246,0.3035174310207367,-5.696756362915039
-1.350597620010376,0.6985912322998047,-6.924194812774658
-2.1860151290893555,1.3228667974472046,-9.497295379638672
-3.507350444793701,0.640444815158844,-10.61544704437256
-4.346580982208252,1.763965129852295,-11.122512817382812
-4.886405944824219,1.2064472436904907,-12.61435604095459
-5.230236530303955,-0.9040541052818298,-14.331440925598145
-4.833825588226318,0.2326610088348388,-15.882484436035156
-4.625112533569336,0.8170868754386902,-13.96900749206543
-4.966566562652588,0.679797351360321,-14.338644981384276
-5.316826820373535,0.4798691272735595,-13.556262016296388
-4.899451732635498,0.4104440212249756,-12.656103134155272
-4.915621280670166,1.8809525966644287,-9.955193519592283
-4.726900577545166,2.8182477951049805,-7.16489839553833
-0.6277611255645752,-25.606185913085938,-64.40711975097656
32.56367492675781,-0.4369004964828491,-12.25050163269043
0.3126546740531921,19.03445816040039,20.5955753326416
21.03438949584961,-1.2365949153900146,-7.433427333831787
2.546016931533813,5.35667896270752,-0.6744292974472046
8.100825309753418,6.303701877593994,-3.725231885910034
6.677670955657959,-1.4090783596038818,0.41275554895401
4.630662441253662,-1.4420803785324097,-2.2531652450561523
3.0504961013793945,0.8127425909042358,-2.222750186920166
3.866930246353149,0.9010894894599916,-1.7043426036834717
5.021060943603516,1.170087456703186,-1.0264058113098145
5.290921688079834,2.059220314025879,-0.6990305185317993
5.4600443840026855,2.2521369457244877,0.9327342510223388
6.303875923156738,1.9632964134216309,0.7964745759963989
6.873891830444336,1.066889405250549,6.030256271362305
5.847916126251221,0.8525980710983276,8.341438293457031
6.064191818237305,-0.1602801829576492,10.890766143798828
4.668185234069824,-3.555821657180786,14.2349853515625
2.127183198928833,-5.486199855804443,9.404067993164062
3.050679445266724,-6.891894340515137,2.666379451751709
9.991419792175291,-3.7248265743255615,5.62398624420166
3.6619486808776855,-2.604381799697876,16.131160736083984
5.548290729522705,-4.644897937774658,14.772817611694336
5.994562149047852,-4.647555828094482,12.771878242492676
5.979155540466309,-4.055888175964356,12.625616073608398
5.690031051635742,-2.8366525173187256,12.079855918884276
5.940439224243164,-2.810840129852295,10.77707576751709
6.394309997558594,-4.097224712371826,9.105396270751951
6.110522747039795,-3.709345817565918,6.273159503936768
5.066222190856934,0.0787893831729888,6.394763946533203
4.12418270111084,0.6540952920913696,6.223587989807129
3.355337142944336,-0.8892330527305603,3.5491042137146
2.7877721786499023,-1.7227729558944702,1.906392216682434
2.3794374465942383,-2.120893239974976,1.575507640838623
1.7837908267974854,-0.8933995962142944,1.12455153465271
0.9512916803359984,-0.3832732737064361,-0.0090479888021945
0.3455249965190887,0.5853822231292725,-0.7323321104049683
-0.1637302041053772,1.689442157745361,-1.0540919303894043
-0.7393274307250977,2.0402603149414062,-2.724647283554077
-1.175861954689026,2.5205368995666504,-4.020528793334961
-2.1774797439575195,2.502777099609375,-5.638062477111816
-3.289870500564575,3.118660449981689,-6.733861923217773
-3.0983119010925293,1.6435608863830566,-10.383913040161133
-3.0343945026397705,-0.1260724365711212,-16.0803165435791
-2.933364152908325,-1.8571226596832275,-19.28376197814941
-2.980463981628418,-0.0207299888134002,-20.83878898620605
-3.1521871089935303,0.2422069907188415,-22.21781349182129
-4.692996978759766,0.9700037837028505,-20.87223243713379
-5.5797648429870605,0.764624834060669,-18.55440902709961
-6.016020774841309,3.9053893089294434,-13.494528770446776
-3.3297784328460693,-14.216477394104004,-54.2257194519043
27.563135147094727,-10.090539932250977,-25.325214385986328
-1.7677247524261477,19.22641944885254,24.46772003173828
20.353853225708008,-6.79748010635376,-8.007284164428711
6.027106761932373,6.052165508270264,0.8363445997238159
8.975263595581055,6.531957149505615,-0.909239649772644
7.365667819976807,-0.0939569696784019,-1.436326265335083
6.107229232788086,0.8212035298347473,-0.8620612621307373
4.407886505126953,1.0866155624389648,-1.4253002405166626
4.167231559753418,1.723280429840088,-2.6889684200286865
4.021352291107178,1.3589155673980713,-0.8063681721687317
4.672048568725586,2.0820484161376958,-0.5593047142028809
6.465385913848877,3.743074655532837,1.2247999906539917
7.722180366516113,3.0641088485717773,3.494516134262085
7.458375453948975,1.0640051364898682,7.051487922668457
5.485604286193848,0.3248091340065002,9.603893280029297
4.8161821365356445,-2.5283260345458984,10.70907497406006
3.337852954864502,-5.770050525665283,11.045232772827148
2.5954668521881104,-4.876193046569824,8.863957405090332
0.6555925607681274,-4.97235918045044,5.1224470138549805
6.715162754058838,-7.905432224273682,2.08530330657959
6.370739936828613,-4.264683723449707,10.700533866882324
3.2375707626342773,-2.2174184322357178,15.527255058288574
4.029600620269775,-2.762862205505371,15.046792984008787
4.005699157714844,-4.360435485839844,11.569554328918455
4.779191493988037,-4.209558486938477,11.254039764404297
4.643840789794922,-2.7362875938415527,12.786948204040527
5.800470352172852,-1.9564603567123413,11.30687141418457
7.214289665222168,-3.4311439990997314,7.847495079040527
6.58746862411499,-4.193202495574951,5.965038776397705
5.4320807456970215,0.9642016291618348,6.614005565643311
5.119052886962891,1.2170590162277222,5.645668983459473
4.57802677154541,-2.885182857513428,2.6153602600097656
3.9841363430023193,-3.403785467147827,2.376451253890991
3.8499484062194815,-3.134126901626587,1.1193033456802368
3.51930832862854,-3.670477151870728,0.4326278865337372
2.9384214878082275,-3.0507354736328125,-0.5166751742362976
2.2973735332489014,-1.1602109670639038,-1.3375606536865234
1.891983985900879,1.3141268491744995,-2.1095705032348637
1.137643814086914,2.012018918991089,-3.452099084854126
-0.0422186553478241,0.8008108139038086,-5.060671806335449
-1.2365403175354004,-0.0079394746571779,-6.2626051902771
-2.327444076538086,0.7932766079902649,-7.39584493637085
-2.852931022644043,-0.2833990752696991,-10.958849906921388
-3.431998014450073,0.4590787589550018,-14.961487770080566
-3.6517930030822754,0.7133100628852844,-18.45267868041992
-4.355569839477539,0.9790300726890564,-18.093713760375977
-4.753570556640625,0.6664350628852844,-19.198495864868164
-5.885817050933838,0.9556747674942015,-19.708703994750977
-7.063677310943604,1.0643702745437622,-18.760177612304688
-7.466804504394531,2.553797721862793,-15.354918479919434
-8.32260799407959,4.261415481567383,-10.04396152496338
-8.310746192932129,3.7515835762023926,-8.263665199279785
7.4301438331604,-41.76045989990234,-94.8617172241211
23.293603897094727,27.681272506713867,31.51885223388672
