PacketCounter,SampleTimeFine,Quat_W,Quat_X,Quat_Y,Quat_Z,Acc_X,Acc_Y,Acc_Z,Gyr_X,Gyr_Y,Gyr_Z 
1,3916557188,0.6501294,0.3815474,-0.46213078,0.46710628,0.21180647611618042,0.06681820750236511,0.05698522925376892,-0.23378147184848785,0.6247174739837646, -0.0018679396016523242
2,3916573855,0.6502733,0.38128677,-0.46268687,0.46656814,14.870442390441895,0.9363554120063782,4.398034572601318,0.3124428987503052,2.3968942165374756, 0.10243158787488937
3,3916590522,0.6502421,0.38085383,-0.4625001,0.46715066,15.127687454223633,1.1747738122940063,4.395879745483398,1.9016599655151367,2.481339454650879, -0.40081319212913513
4,3916607189,0.65035874,0.381791,-0.46174482,0.46696994,15.423458099365234,0.924433171749115,4.469394207000732,1.7692291736602783,2.2459840774536133, -0.11242694407701492
5,3916623856,0.650226,0.38171837,-0.46192124,0.46703976,15.032370567321777,1.1885173320770264,4.467708587646484,-1.2003519535064697,2.33596134185791, -0.026854917407035828
6,3916640523,0.65013987,0.38239536,-0.46116185,0.46735623,15.238696098327637,0.9819501638412476,4.301753044128418,2.0187222957611084,1.9994232654571533, -0.3059052526950836
7,3916657190,0.650092,0.38256493,-0.46118227,0.4672638,15.181652069091797,1.0990045070648193,4.508626461029053,0.8945428133010864,2.3339765071868896, 0.04432918131351471
8,3916673857,0.65028465,0.38257673,-0.4610634,0.46710336,15.149518966674805,1.0927095413208008,4.429351806640625,1.0040242671966553,2.173346519470215, -0.2295026034116745
9,3916690524,0.650516,0.3825494,-0.46098384,0.46688205,15.234965324401855,1.0900830030441284,4.378813743591309,1.2978659868240356,1.9067823886871338, -0.15114055573940277
10,3916707191,0.65047055,0.3827899,-0.46070024,0.4670282,14.929750442504883,1.0895956754684448,4.409325122833252,1.2370998859405518,2.203761339187622, -0.2963005006313324
11,3916723858,0.65072334,0.38280565,-0.4606012,0.4667609,15.39067554473877,0.9630544781684875,4.383769989013672,1.1671388149261475,1.6614125967025757, -0.8735852241516113
12,3916740525,0.6507998,0.38287914,-0.46048087,0.4667125,14.880757331848145,0.9541130065917969,4.5065999031066895,1.2355502843856812,1.942063808441162, -0.8977634906768799
13,3916757192,0.6508971,0.38305828,-0.4602622,0.46664557,15.246399879455566,1.0486888885498047,4.409832000732422,2.2922918796539307,1.2010881900787354, -1.9763782024383545
14,3916773859,0.65095496,0.3832536,-0.46001974,0.46664357,15.250816345214844,1.0372896194458008,4.517086982727051,2.2305777072906494,1.4393632411956787, -1.8394273519515991
15,3916790526,0.6512911,0.38316113,-0.46000314,0.46626672,14.863424301147461,1.0226631164550781,4.334550857543945,0.5213528871536255,1.1940319538116455, -2.31113600730896
16,3916807193,0.6512266,0.38355902,-0.45964423,0.4663836,15.35624885559082,1.198638677597046,4.359223365783691,2.449925422668457,0.9296578168869019, -2.4588963985443115
17,3916823860,0.6512956,0.3837133,-0.45946908,0.4663331,15.002777099609375,1.151490569114685,4.470556259155273,0.024697046726942062,1.1678047180175781, -2.0223917961120605
18,3916840527,0.651436,0.38387245,-0.45930937,0.46616322,15.392080307006836,1.2342886924743652,4.379548072814941,2.0321052074432373,0.9588691592216492, -1.839337706565857
19,3916857194,0.6515513,0.38393635,-0.45914257,0.46611384,14.999354362487793,1.4021389484405518,4.480437755584717,0.7253836989402771,1.6219563484191895, -1.1373575925827026
20,3916873861,0.6514788,0.38432467,-0.4587486,0.4662828,15.231324195861816,0.9903825521469116,4.182962417602539,2.410097599029541,1.2607531547546387, -1.2333283424377441
21,3916890528,0.6514792,0.38446724,-0.4584654,0.46644333,15.46401309967041,1.5549591779708862,4.5648512840271,1.6003904342651367,2.1661365032196045, -0.49171262979507446
22,3916907195,0.651575,0.38452297,-0.45819435,0.46652982,14.992156982421875,0.8951081037521362,4.1812872886657715,1.4013413190841675,2.431445598602295, -0.1387311816215515
23,3916923862,0.6516423,0.38447827,-0.45801082,0.46665287,15.476795196533203,1.5022776126861572,4.472750663757324,-0.35257163643836975,2.4388606548309326, -0.09096350520849228
24,3916940529,0.6517329,0.38441107,-0.4577951,0.46679342,15.12857723236084,1.0994375944137573,4.40924072265625,-0.11173539608716965,2.7830307483673096, 0.2806191146373749
25,3916957196,0.6517715,0.38439792,-0.45750976,0.46703,15.331889152526855,1.1054465770721436,4.390579700469971,1.3008499145507812,2.9992151260375977, 0.5369253754615784
26,3916973863,0.651859,0.3842905,-0.4573114,0.46719056,15.169417381286621,1.0948238372802734,4.351921081542969,0.09508074820041656,2.882894992828369, 0.4062366485595703
27,3916990530,0.6519777,0.38419205,-0.45710105,0.4673118,15.422257423400879,1.2610812187194824,4.3959455490112305,0.42371731996536255,2.9530868530273438, 0.11233090609312057
28,3917007197,0.6521694,0.38400605,-0.45693716,0.46735772,15.172262191772461,1.1484519243240356,4.443765640258789,-0.2709183394908905,3.116956949234009, 0.05936383455991745
29,3917023864,0.6523679,0.3838717,-0.4567879,0.46733657,14.877052307128906,1.0107448101043701,4.270449161529541,-0.6195840239524841,2.657195806503296, -0.5165826082229614
30,3917040531,0.6523596,0.38410038,-0.45638812,0.46755096,15.694330215454102,1.1993486881256104,4.472720146179199,2.7245702743530273,2.569626569747925, -0.8193119168281555
31,3917057198,0.65268654,0.38381448,-0.45637733,0.46733987,15.273094177246094,1.1462186574935913,4.540208339691162,-2.0710043907165527,2.1280953884124756, -0.8934863209724426
32,3917073865,0.6527938,0.38388804,-0.45596093,0.467536,15.0194673538208,1.186684489250183,4.257049083709717,1.8791203498840332,2.683756113052368, -0.831541895866394
33,3917090532,0.6530053,0.38389155,-0.4556498,0.46754104,15.595240592956543,1.1906789541244507,4.28135347366333,0.21926391124725342,2.1275763511657715, -1.5643211603164673
34,3917107199,0.65319777,0.383809,-0.4552408,0.4677384,15.42966079711914,1.4325088262557983,4.64697265625,0.9324751496315002,3.269365072250366, -0.590603232383728
35,3917123866,0.65344995,0.38364148,-0.4549659,0.46779132,15.113747596740723,1.172913908958435,4.301697254180908,-1.0106643438339233,2.675278663635254, -0.9618848562240601
36,3917140533,0.6535512,0.38367075,-0.4545251,0.46805406,15.378036499023438,1.2526097297668457,4.390151500701904,1.6924680471420288,2.8849055767059326, -0.5219612717628479
37,3917157200,0.65374947,0.3835107,-0.45424974,0.46817577,15.615921974182129,1.514343023300171,4.575145721435547,-0.402593195438385,2.6796579360961914, -0.4456353485584259
38,3917173867,0.6538341,0.38342175,-0.4538602,0.46850795,15.337861061096191,1.1663260459899902,4.477995872497559,1.1308454275131226,3.1524171829223633, 0.3140181005001068
39,3917190534,0.65401083,0.38330904,-0.45349324,0.46870902,15.292969703674316,1.1936761140823364,4.209307670593262,0.807561993598938,3.1094775199890137, -0.2861834764480591
40,3917207201,0.6542096,0.38314316,-0.45305732,0.46898848,15.557952880859375,1.2717803716659546,4.448037147521973,1.2203748226165771,3.8902039527893066, 0.053767457604408264
41,3917223868,0.65457606,0.38280338,-0.45274994,0.4690514,15.047881126403809,1.311340093612671,4.415348529815674,-1.2520002126693726,3.8126111030578613, -0.6293296813964844
42,3917240535,0.6548298,0.38270378,-0.45227382,0.46923816,15.546581268310547,1.1952028274536133,4.49718713760376,0.8820438981056213,3.7566983699798584, -0.9537786245346069
43,3917257202,0.655089,0.38250077,-0.4518945,0.469407,15.232394218444824,1.1611618995666504,4.4832072257995605,-0.015495683066546917,3.6209380626678467, -0.49395373463630676
44,3917273869,0.65536195,0.38234055,-0.4515478,0.46949038,15.42384147644043,1.5269354581832886,4.505033493041992,-0.39826464653015137,3.139867067337036, -1.0251611471176147
45,3917290536,0.6555896,0.3821861,-0.4511776,0.469654,15.2283353805542,1.062633991241455,4.439545154571533,-0.13359585404396057,3.280673027038574, -0.6570810079574585
46,3917307203,0.6558003,0.3820758,-0.45080903,0.4698037,15.355897903442383,1.156628966331482,4.363559246063232,0.3882564902305603,3.0697782039642334, -0.6990473866462708
47,3917323870,0.6560204,0.38186783,-0.45044222,0.47001708,15.374401092529297,1.3201239109039307,4.473369598388672,0.28629234433174133,3.591252565383911, -0.08185818046331406
48,3917340537,0.6562396,0.38170823,-0.45003948,0.47022653,15.195636749267578,1.2653450965881348,4.409640312194824,0.5494627952575684,3.579214572906494, -0.35814234614372253
49,3917357204,0.6564319,0.3815017,-0.4496721,0.4704772,15.469358444213867,1.1751145124435425,4.452852725982666,0.007216378580778837,3.5630404949188232, 0.018998220562934875
50,3917373871,0.6566431,0.3813179,-0.44928282,0.4707032,15.575778007507324,1.4324085712432861,4.7344231605529785,0.646996021270752,3.632732629776001, -0.09125804901123047
51,3917390538,0.65684944,0.38115296,-0.44898263,0.47083566,14.992868423461914,0.8335608839988708,4.344752311706543,-0.034205760806798935,2.890591859817505, -0.38468998670578003
52,3917407205,0.6569737,0.38118955,-0.44857383,0.4710223,15.597920417785645,1.431728482246399,4.58802604675293,1.3570184707641602,2.5983381271362305, -0.8723428845405579
53,3917423872,0.657164,0.38112426,-0.44831014,0.47106048,15.281535148620605,1.122771143913269,4.578824996948242,0.6026861071586609,2.15625, -0.7938656210899353
54,3917440539,0.6573176,0.38111976,-0.4480174,0.47112843,15.211343765258789,1.264454960823059,4.489339828491211,0.843970537185669,2.028698682785034, -0.9098144173622131
55,3917457206,0.6574627,0.38114363,-0.44774213,0.471168,15.29503345489502,1.1296594142913818,4.346680641174316,0.2620883584022522,1.7089242935180664, -1.243535041809082
56,3917473873,0.65752804,0.3812425,-0.4472965,0.47142005,15.64780044555664,1.360124945640564,4.58547306060791,2.16499662399292,2.563875913619995, -0.655275285243988
57,3917490540,0.65778035,0.38103962,-0.4470896,0.47142842,15.070395469665527,1.2045210599899292,4.403820991516113,-0.7908560633659363,2.4363503456115723, -0.6677742600440979
58,3917507207,0.6579322,0.38103595,-0.4466604,0.47162625,15.514100074768066,1.4364218711853027,4.40481424331665,1.5340789556503296,2.9726803302764893, -0.7279641032218933
59,3917523874,0.65815306,0.38082308,-0.44632417,0.47180834,15.299381256103516,1.2589874267578125,4.529865264892578,0.06311608850955963,3.4057140350341797, -0.13114982843399048
60,3917540541,0.65840024,0.38058457,-0.44603792,0.47192654,15.426876068115234,1.2614142894744873,4.496579170227051,-0.39661261439323425,3.183651924133301, -0.2696760892868042
61,3917557208,0.6586203,0.38040856,-0.44572306,0.4720591,15.42791748046875,1.4174662828445435,4.562441349029541,0.19960616528987885,3.0740296840667725, -0.34826868772506714
62,3917573875,0.6588348,0.38020882,-0.44542316,0.47220373,15.128324508666992,1.1724151372909546,4.506096839904785,-0.1823624223470688,3.0714943408966064, -0.2546798884868622
63,3917590542,0.65893745,0.3801937,-0.44499326,0.47247776,15.341416358947754,1.2870557308197021,4.437115669250488,1.5785554647445679,3.0374035835266113, -0.2749779224395752
64,3917607209,0.6591678,0.37998986,-0.44468033,0.472615,15.373117446899414,1.2448079586029053,4.530887126922607,0.006832187529653311,3.1901957988739014, -0.28663170337677
65,3917623876,0.6593582,0.37990934,-0.44432837,0.47274533,15.075560569763184,1.0951132774353027,4.3548736572265625,0.45126378536224365,2.7980659008026123, -0.778062641620636
66,3917640543,0.65958273,0.37979326,-0.44393823,0.4728916,15.422401428222656,1.394821047782898,4.568781852722168,0.6029677987098694,3.2530629634857178, -0.7327793836593628
67,3917657210,0.6598426,0.37960303,-0.44361567,0.47298455,15.080506324768066,1.2626959085464478,4.500048637390137,-0.2543853223323822,3.1523149013519287, -0.6991754174232483
68,3917673877,0.6600357,0.37954676,-0.4432261,0.47312573,15.481144905090332,1.2963093519210815,4.535171985626221,0.9061836004257202,2.9439427852630615, -0.84279865026474
69,3917690544,0.6603142,0.37932745,-0.44299713,0.4731276,15.078455924987793,1.2877566814422607,4.532643795013428,-0.9431621432304382,2.649486541748047, -0.815867006778717
70,3917707211,0.66044945,0.37935644,-0.44258854,0.47329786,15.133525848388672,1.2656906843185425,4.4369707107543945,1.6087270975112915,2.655569553375244, -0.8258941769599915
71,3917723878,0.66059595,0.3793278,-0.4422246,0.47345647,15.604461669921875,1.3974988460540771,4.601485252380371,1.1293857097625732,2.64532470703125, -0.6264738440513611
72,3917740545,0.6608731,0.37907583,-0.4420206,0.47346196,14.820596694946289,1.250096321105957,4.469192981719971,-1.211775302886963,2.645913600921631, -0.6498326659202576
73,3917757212,0.66095346,0.37914407,-0.44156066,0.47372416,15.331707000732422,1.1803817749023438,4.353758335113525,2.3695528507232666,2.8370485305786133, -0.4828634262084961
74,3917773879,0.6612086,0.37886947,-0.44131702,0.47381493,15.036776542663574,1.3467189073562622,4.513797283172607,-0.8676173090934753,3.0596225261688232, -0.2287726253271103
75,3917790546,0.66134816,0.37875962,-0.44092175,0.4740757,15.404555320739746,1.4142966270446777,4.568634986877441,1.189473032951355,3.303891181945801, 0.026528354734182358
76,3917807213,0.6615031,0.37858334,-0.44064164,0.4742608,14.903648376464844,0.867376446723938,4.346670627593994,0.24011266231536865,2.8482413291931152, 0.13405047357082367
77,3917823880,0.6616965,0.3783966,-0.44030812,0.47444975,15.393177032470703,1.560013771057129,4.609800815582275,0.28256574273109436,3.2547788619995117, -0.0868014395236969
78,3917840547,0.6618733,0.37824354,-0.44001636,0.47459587,15.240215301513672,1.005205512046814,4.55134391784668,0.21023544669151306,2.7940189838409424, -0.21677307784557343
79,3917857214,0.66204035,0.37814438,-0.43969315,0.47474143,15.252751350402832,1.23210608959198,4.492311477661133,0.5856664180755615,2.732189893722534, -0.4357616901397705
80,3917873881,0.66226375,0.3779687,-0.43937504,0.47486454,15.112117767333984,1.2486886978149414,4.506299018859863,0.0046166894026100636,3.0729286670684814, -0.478278785943985
81,3917890548,0.6624049,0.37798044,-0.43895504,0.4750465,15.517423629760742,1.1887651681900024,4.477321624755859,1.5771723985671997,2.83046555519104, -0.7743359208106995
82,3917907215,0.6626896,0.37771198,-0.43878028,0.47502455,15.000153541564941,1.1467206478118896,4.507007598876953,-1.4856903553009033,2.5376744270324707, -0.6894683241844177
83,3917923882,0.6628107,0.37770453,-0.43837145,0.47523874,15.31870174407959,1.2751537561416626,4.522324562072754,1.609623908996582,2.872035503387451, -0.4738990068435669
84,3917940549,0.6629501,0.3776573,-0.4380512,0.4753771,15.140426635742188,1.0193650722503662,4.459092140197754,0.8577756881713867,2.4596195220947266, -0.5308871865272522
85,3917957216,0.66314214,0.37753907,-0.43777454,0.475458,15.30219554901123,1.4492511749267578,4.536836624145508,0.08543756604194641,2.5049798488616943, -0.6403303146362305
86,3917973883,0.6632035,0.3775948,-0.43732518,0.47574177,15.440146446228027,1.1602144241333008,4.580418109893799,2.3931803703308105,2.859830856323242, -0.2554098963737488
87,3917990550,0.6635195,0.3772519,-0.4371841,0.47570258,14.896713256835938,1.2013089656829834,4.47531270980835,-2.0647292137145996,2.6877777576446533, -0.5642605423927307
88,3918007217,0.6635841,0.3773547,-0.43674463,0.47593448,15.659496307373047,1.252469778060913,4.55674409866333,2.4105327129364014,2.540607213973999, -0.6199811100959778
89,3918023884,0.6638139,0.37710205,-0.43652728,0.47601393,15.227351188659668,1.330662488937378,4.660835266113281,-0.8181335926055908,2.796849012374878, -0.21049796044826508
90,3918040551,0.6639485,0.37710002,-0.43611863,0.47620234,15.461821556091309,1.2915183305740356,4.514245510101318,1.518551230430603,2.8460700511932373, -0.6511132121086121
91,3918057218,0.6641453,0.3769937,-0.4358027,0.4763012,15.310672760009766,1.1364963054656982,4.439001560211182,0.308626651763916,2.722341775894165, -0.7107908725738525
92,3918073885,0.66435087,0.37684274,-0.43544254,0.4764633,15.565855026245117,1.5184810161590576,4.637420654296875,0.4178391396999359,3.2611818313598633, -0.43280336260795593
93,3918090552,0.6645748,0.37667277,-0.43514737,0.47655523,15.025001525878906,1.0168591737747192,4.398304462432861,-0.14171507954597473,2.897711992263794, -0.5841872692108154
94,3918107219,0.66470194,0.37666905,-0.43471482,0.4767755,15.574625015258789,1.4409973621368408,4.509971618652344,1.7041088342666626,3.022266387939453, -0.5370854735374451
95,3918123886,0.6649607,0.37640312,-0.43446812,0.4768498,15.101393699645996,1.2785848379135132,4.601946830749512,-0.8814353942871094,3.049313545227051, -0.36833620071411133
96,3918140553,0.6650511,0.37645167,-0.43407124,0.47704676,15.51430606842041,1.206472635269165,4.498819351196289,1.8507287502288818,2.5163772106170654, -0.5832395553588867
97,3918157220,0.6652902,0.37620974,-0.43381655,0.47713587,15.323088645935059,1.3634607791900635,4.680512428283691,-0.6511644124984741,2.9852561950683594, -0.33063435554504395
98,3918173887,0.6654604,0.37612492,-0.43348995,0.47726205,15.238003730773926,1.1329654455184937,4.412506580352783,0.5926586985588074,2.688443660736084, -0.5885670781135559
99,3918190554,0.66561323,0.37602156,-0.43315357,0.47743583,15.559290885925293,1.4219889640808105,4.617428302764893,0.7268308401107788,2.867706775665283, -0.28638842701911926
100,3918207221,0.6658841,0.37572423,-0.43294042,0.4774853,14.895255088806152,1.1943411827087402,4.495271682739258,-1.237964153289795,2.9725394248962402, -0.3429412245750427
101,3918223888,0.6659958,0.3757156,-0.43259066,0.47765335,15.551152229309082,1.1203505992889404,4.535192012786865,1.294305682182312,2.482837438583374, -0.49207115173339844
102,3918240555,0.6661434,0.37561056,-0.43224138,0.4778464,15.256471633911133,1.4069794416427612,4.68155574798584,0.8327136635780334,2.9723732471466064, -0.2106260508298874
103,3918257222,0.66633236,0.37550142,-0.43197218,0.47791213,14.995023727416992,1.0527825355529785,4.360354423522949,0.06197632849216461,2.4127867221832275, -0.7098175287246704
104,3918273889,0.66642183,0.37551868,-0.4315612,0.47814503,15.668013572692871,1.4496387243270874,4.651998043060303,1.8646878004074097,2.787141799926758, -0.35969194769859314
105,3918290556,0.66665065,0.37528503,-0.43137762,0.47817513,14.983278274536133,1.0210944414138794,4.47527551651001,-0.9955145120620728,2.4636409282684326, -0.4139012098312378
106,3918307223,0.66682583,0.37519658,-0.43106255,0.47828445,15.114646911621094,1.5127978324890137,4.504720687866211,0.47763198614120483,2.6362063884735107, -0.6479629278182983
107,3918323890,0.66692436,0.37523493,-0.43066004,0.47847986,15.091299057006836,0.9654472470283508,4.325319290161133,1.7949060201644897,2.6176116466522217, -0.5993884205818176
108,3918340557,0.667143,0.37505764,-0.43041345,0.47853562,15.209692001342773,1.4605932235717773,4.664201736450195,-0.4273606836795807,2.6132702827453613, -0.5987608432769775
109,3918357224,0.6671997,0.37513837,-0.43005192,0.47871846,15.264664649963379,1.0296233892440796,4.419703960418701,1.9278104305267334,2.1412153244018555, -0.5398644804954529
110,3918373891,0.667381,0.37503162,-0.42987472,0.47870842,15.180950164794922,1.4109711647033691,4.538825511932373,-0.42801380157470703,1.7892582416534424, -0.8086569309234619
111,3918390558,0.6674524,0.37505448,-0.42954642,0.47888562,15.065789222717285,1.1545839309692383,4.395257472991943,1.4969918727874756,2.216952085494995, -0.35947421193122864
112,3918407225,0.667612,0.37494248,-0.42929545,0.47897586,15.235560417175293,1.3095792531967163,4.447337627410889,0.13589459657669067,2.346590757369995, -0.4547406733036041
113,3918423892,0.6677858,0.37473494,-0.42907768,0.47909117,14.756036758422852,1.2342801094055176,4.324243545532227,-0.36889973282814026,2.621018171310425, -0.016264066100120544
114,3918440559,0.6678648,0.37470427,-0.42873242,0.4793141,14.948025703430176,1.1092891693115234,4.307201862335205,1.4357646703720093,2.626626968383789, -0.055656399577856064
115,3918457226,0.6680269,0.37454575,-0.42847493,0.47944206,14.99476432800293,1.3472481966018677,4.4757981300354,0.05310153216123581,2.6497042179107666, -0.1704525351524353
116,3918473893,0.6681041,0.3745329,-0.42815682,0.47962865,15.323474884033203,1.0924890041351318,4.515455722808838,1.3120681047439575,2.352263927459717, -0.20575962960720062
117,3918490560,0.6682362,0.37441343,-0.42792615,0.47974393,14.95087718963623,1.2140151262283325,4.409563064575195,0.18513500690460205,2.2856578826904297, -0.17853333055973053
118,3918507227,0.6683655,0.37434763,-0.4277003,0.47981662,15.134458541870117,1.2270368337631226,4.355117321014404,0.29550012946128845,1.9729396104812622, -0.5122027397155762
119,3918523894,0.66848487,0.3742736,-0.4274316,0.47994733,14.972905158996582,1.2802817821502686,4.413893699645996,0.5946308374404907,2.3239238262176514, -0.2997838854789734
120,3918540561,0.6685939,0.37419787,-0.4271801,0.48007846,15.343562126159668,1.1791146993637085,4.427365303039551,0.5593109726905823,2.226172685623169, -0.21340502798557281
121,3918557228,0.66869146,0.37411794,-0.42690304,0.4802514,14.845617294311523,1.108231782913208,4.340495586395264,0.7758662700653076,2.4369266033172607, -0.03984055295586586
122,3918573895,0.6688044,0.37406626,-0.426635,0.48037252,15.07027816772461,1.190220832824707,4.286189079284668,0.6841087937355042,2.2139298915863037, -0.38988932967185974
123,3918590562,0.66891825,0.37399924,-0.4263295,0.48053738,15.175263404846191,1.3288384675979614,4.5059661865234375,0.8619250059127808,2.5529141426086426, -0.24364082515239716
124,3918607229,0.6689773,0.37402427,-0.42601055,0.4807185,15.198949813842773,0.971540629863739,4.309110641479492,1.5179684162139893,2.1893670558929443, -0.2903839647769928
125,3918623896,0.66920733,0.37373537,-0.42590025,0.48072076,14.888083457946777,1.3607704639434814,4.375713348388672,-1.576973795890808,2.30890154838562, -0.22566069662570953
126,3918640563,0.6692426,0.37383533,-0.42551845,0.48093194,15.175704002380371,1.2360467910766602,4.316007137298584,2.221088409423828,2.2379801273345947, -0.45333194732666016
127,3918657230,0.6694241,0.37366372,-0.42539445,0.48092255,14.924920082092285,1.1293984651565552,4.398065567016602,-0.9009906649589539,1.812002420425415, -0.4935438632965088
128,3918673897,0.66948664,0.37366858,-0.42510486,0.4810875,15.001107215881348,1.2929527759552002,4.397214889526367,1.27495539188385,2.0898873805999756, -0.2405032366514206
129,3918690564,0.66955227,0.37375224,-0.42479345,0.48120636,15.364764213562012,1.230459213256836,4.317922115325928,1.5660821199417114,1.8206597566604614, -0.7483006715774536
130,3918707231,0.6697063,0.37361866,-0.4245825,0.48128185,14.844356536865234,1.067266821861267,4.31226921081543,-0.12105841934680939,2.228477954864502, -0.34899866580963135
131,3918723898,0.6698192,0.37359443,-0.424292,0.4813998,14.95835018157959,1.3919414281845093,4.223174095153809,0.8785988688468933,2.22375226020813, -0.5423489212989807
132,3918740565,0.6699489,0.3735306,-0.42407396,0.4814611,15.094183921813965,1.1900756359100342,4.309702396392822,0.24446679651737213,1.928207278251648, -0.5552833080291748
133,3918757232,0.67002606,0.3734654,-0.4238715,0.48158264,14.712106704711914,1.1652240753173828,4.331140995025635,0.4971745014190674,1.8669415712356567, -0.06170098856091499
134,3918773899,0.6699891,0.37359282,-0.4235799,0.48179162,15.052007675170898,1.2225453853607178,4.254749298095703,2.2279655933380127,1.5332082509994507, -0.07206133008003235
135,3918790566,0.67000014,0.37361702,-0.42338014,0.4819331,14.966050148010254,1.26545250415802,4.324039459228516,1.1287965774536133,1.4237395524978638, -0.0058653089217841625
136,3918807233,0.6700548,0.37359342,-0.42319056,0.482042,14.72587776184082,1.21578049659729,4.139357089996338,0.6660646796226501,1.5818979740142822, -0.1356448531150818
137,3918823900,0.6701409,0.3735282,-0.42304114,0.48210382,14.991547584533691,1.2767828702926636,4.249658584594727,0.12401028722524643,1.5114502906799316, -0.2327810376882553
138,3918840567,0.67022026,0.3734134,-0.42297232,0.48214296,14.63084602355957,0.9791185855865479,4.222727298736572,-0.42102158069610596,1.2318236827850342, 0.03624837473034859
139,3918857234,0.6702369,0.3734553,-0.42280614,0.4822332,15.02213191986084,1.3839162588119507,4.203583717346191,0.9328464269638062,1.113672137260437, -0.23148757219314575
140,3918873901,0.6702573,0.37345648,-0.4226731,0.48232055,14.677539825439453,0.9804900288581848,4.1951141357421875,0.6207430362701416,1.1072819232940674, -0.04970144107937813
141,3918890568,0.67017144,0.37360802,-0.42241588,0.48254755,14.999510765075684,1.2087993621826172,4.225462913513184,2.4020678997039795,1.2349483966827393, 0.1842513531446457
142,3918907235,0.6702931,0.37343282,-0.4223699,0.48255444,14.559882164001465,1.2254782915115356,4.166441440582275,-0.9770861268043518,1.389854073524475, -0.027994681149721146
143,3918923902,0.67031765,0.37345532,-0.42216453,0.48268282,14.648378372192383,1.0022333860397339,3.9702417850494385,1.0707837343215942,1.504150629043579, -0.12651392817497253
144,3918940569,0.6704246,0.37334052,-0.42203546,0.4827357,14.77725887298584,1.243266224861145,4.200808525085449,-0.2504281997680664,1.6624243259429932, -0.15936221182346344
145,3918957236,0.67044663,0.37336233,-0.42185837,0.4828433,14.386219024658203,0.9574541449546814,4.050060272216797,0.9098464250564575,1.3295361995697021, -0.14722180366516113
146,3918973903,0.67044234,0.37347704,-0.421634,0.4829564,14.606002807617188,1.2092015743255615,3.9800429344177246,1.5857269763946533,1.1840046644210815, -0.42659229040145874
147,3918990570,0.67045534,0.3735687,-0.42144638,0.48303127,14.673181533813477,1.0962979793548584,4.168102264404297,1.1987959146499634,1.0519455671310425, -0.500856339931488
148,3919007237,0.6705096,0.37358618,-0.4213724,0.48300686,14.428532600402832,0.9013465642929077,4.075560092926025,0.08625717461109161,0.6454464197158813, -0.5903215408325195
149,3919023904,0.670447,0.3738313,-0.42112887,0.4831164,14.597562789916992,1.3659090995788574,4.000809669494629,2.3877758979797363,0.6831738352775574, -0.6863306760787964
150,3919040571,0.67047524,0.37390056,-0.42103574,0.48310485,14.492650032043457,0.9952768087387085,4.025569438934326,0.49741777777671814,0.5357856750488281, -0.6450045704841614
151,3919057238,0.67046463,0.37403488,-0.4209153,0.48312053,14.109968185424805,1.0697920322418213,3.917879581451416,1.0642012357711792,0.40841370820999146, -0.6542507410049438
152,3919073905,0.67041755,0.37421486,-0.42078638,0.48315883,14.537762641906738,1.2583186626434326,3.9817562103271484,1.4629526138305664,0.24987110495567322, -0.5827785730361938
153,3919090572,0.67033964,0.3743841,-0.42063326,0.4832692,14.567915916442871,1.1390423774719238,4.105080604553223,1.7787058353424072,0.4941394329071045, -0.17823876440525055
154,3919107239,0.6702693,0.37453377,-0.420526,0.48334402,14.065299987792969,0.9598047733306885,3.6677234172821045,1.4135842323303223,0.2757783532142639, -0.19254347681999207
155,3919123906,0.6702203,0.37470102,-0.4203989,0.48339304,14.591504096984863,1.3473858833312988,3.9234259128570557,1.4331649541854858,0.30638551712036133, -0.48556551337242126
156,3919140573,0.6702566,0.3746806,-0.42038068,0.48337436,14.241183280944824,1.0099316835403442,3.9811949729919434,-0.22157545387744904,0.4999278485774994, -0.25871384143829346
157,3919157240,0.67021596,0.37481827,-0.42028394,0.48340794,14.177080154418945,1.1420694589614868,3.793344259262085,1.1263248920440674,0.24660545587539673, -0.4199329912662506
158,3919173907,0.67014545,0.37503818,-0.4201892,0.48341766,14.447562217712402,1.108957290649414,3.8806729316711426,1.531415343284607,-0.1797243058681488, -0.6518559455871582
159,3919190574,0.6700816,0.3752313,-0.42008922,0.48344305,14.180774688720703,0.9625786542892456,3.8602349758148193,1.4419500827789307,-0.006723333150148392, -0.5443722605705261
160,3919207241,0.66998285,0.37554824,-0.41999665,0.4834144,14.433749198913574,1.219309687614441,3.7617597579956055,1.920754075050354,-0.6920551657676697, -1.0190908908843994
161,3919223908,0.6699401,0.3757242,-0.41995195,0.48337576,14.193470001220703,1.1154145002365112,3.9303178787231445,0.9223453402519226,-0.30462464690208435, -0.7257870435714722
162,3919240575,0.6698289,0.3760266,-0.41984254,0.48338965,13.988738059997559,1.0354734659194946,3.6061458587646484,2.0669772624969482,-0.48680782318115234, -0.7816227674484253
163,3919257242,0.6696811,0.37638876,-0.41973606,0.4834051,14.503960609436035,1.2371174097061157,3.8781824111938477,2.4144134521484375,-0.7975667119026184, -0.8272262215614319
164,3919273909,0.66961676,0.37659997,-0.41974142,0.4833251,13.793859481811523,1.02021062374115,3.659856081008911,0.8441497087478638,-0.8134081363677979, -0.8221932053565979
165,3919290576,0.6693741,0.37711895,-0.41958234,0.48339465,14.252706527709961,1.1072880029678345,3.6435117721557617,3.725630521774292,-1.2004802227020264, -0.8474732041358948
166,3919307243,0.66931295,0.37733123,-0.4196598,0.48324656,14.126298904418945,1.1809345483779907,3.7040421962738037,0.44400253891944885,-1.3020342588424683, -0.9506664872169495
167,3919323910,0.66911453,0.3777797,-0.41962948,0.48319727,14.02968692779541,0.9998689293861389,3.591966390609741,2.582803726196289,-1.7181767225265503, -0.9771116375923157
168,3919340577,0.6689699,0.37809753,-0.41969913,0.48308814,14.11220645904541,1.2806769609451294,3.751255750656128,1.2372663021087646,-1.749680519104004, -0.8416590094566345
169,3919357244,0.66879857,0.37843424,-0.41983604,0.48294285,13.860548973083496,1.1238951683044434,3.566373586654663,1.033888578414917,-2.2922210693359375, -0.8096301555633545
170,3919373911,0.6685343,0.37886077,-0.42004985,0.48278844,14.040070533752441,1.1043764352798462,3.5798451900482178,1.4741839170455933,-3.2209765911102295, -0.5736860632896423
171,3919390578,0.6682108,0.37933514,-0.4202502,0.48268953,14.02685546875,1.2394044399261475,3.607459545135498,2.0268163681030273,-3.340587854385376, -0.3097728192806244
172,3919407245,0.66783065,0.3798541,-0.42054674,0.48254895,13.839391708374023,1.0360310077667236,3.441312313079834,2.2283883094787598,-4.16476583480835, -0.07808031886816025
173,3919423912,0.6673773,0.3804706,-0.42083812,0.48243627,14.072366714477539,1.1811654567718506,3.492854356765747,3.2308177947998047,-4.558856010437012, 0.10915491729974747
174,3919440579,0.66692066,0.38099924,-0.4212174,0.48231986,13.981441497802734,1.1911455392837524,3.516284227371216,1.5158171653747559,-4.798449516296387, 0.17608089745044708
175,3919457246,0.66643965,0.38157415,-0.42161575,0.4821821,13.806636810302734,1.0822279453277588,3.291872501373291,1.6518465280532837,-5.169066429138184, 0.058057595044374466
176,3919473913,0.66603976,0.38208166,-0.42204213,0.48195967,13.895099639892578,1.189497709274292,3.3699710369110107,1.295650601387024,-4.985845565795898, -0.12255678325891495
177,3919490580,0.66570437,0.38255852,-0.42253578,0.4816121,13.832074165344238,1.1014066934585571,3.3400187492370605,0.6434487700462341,-5.2945556640625, -0.5458323955535889
178,3919507247,0.6652009,0.38330007,-0.4228424,0.4814491,13.729674339294434,1.155031442642212,3.310765504837036,3.20947003364563,-5.341055393218994, -0.508386492729187
179,3919523914,0.6647552,0.3840277,-0.42324823,0.4811284,14.025314331054688,1.1665271520614624,3.281392812728882,2.4689173698425293,-5.952430725097656, -1.0133538246154785
180,3919540581,0.66423595,0.38483012,-0.4236218,0.48087534,13.674544334411621,1.0901399850845337,3.3037195205688477,3.181220054626465,-6.086923599243164, -0.8118588328361511
181,3919557248,0.663647,0.3857952,-0.42400655,0.480576,13.63235092163086,0.9743935465812683,3.055556297302246,3.8712258338928223,-7.004587650299072, -1.2664586305618286
182,3919573915,0.6630523,0.3867732,-0.42429447,0.4803567,13.984230995178223,1.306581974029541,3.222654104232788,4.227031707763672,-6.450394630432129, -1.2954394817352295
183,3919590582,0.6625518,0.38763583,-0.42474875,0.47995013,13.54003620147705,1.0628669261932373,3.0589778423309326,2.675022602081299,-6.991781711578369, -1.5451375246047974
184,3919607249,0.66192615,0.38877836,-0.42499343,0.4796727,13.698163986206055,1.0614334344863892,2.962421417236328,5.204277992248535,-7.007932186126709, -1.9824620485305786
185,3919623916,0.66130483,0.3899934,-0.42515004,0.4794043,13.723167419433594,1.2482936382293701,3.029541254043579,5.894771099090576,-6.804131031036377, -2.3851194381713867
186,3919640583,0.6607656,0.39121413,-0.42531714,0.47900486,13.508399963378906,1.052871584892273,2.864562511444092,5.90985631942749,-6.900088310241699, -3.0015017986297607
187,3919657250,0.6602185,0.39256477,-0.42533073,0.4786422,13.710036277770996,1.2776062488555908,2.850447177886963,7.236339569091797,-6.536606788635254, -3.569502115249634
188,3919673917,0.65979916,0.39383706,-0.4253693,0.47814068,13.304210662841797,1.1554474830627441,2.729511260986328,5.571846008300781,-6.459627151489258, -4.500472545623779
189,3919690584,0.65930104,0.39531305,-0.4251889,0.47776997,13.396944046020508,1.053755760192871,2.7327487468719482,7.344451427459717,-6.084286689758301, -5.00759220123291
190,3919707251,0.658746,0.3969841,-0.42482555,0.4774731,13.584074974060059,1.3221555948257446,2.779250383377075,9.533416748046875,-5.803648948669434, -5.437758445739746
191,3919723918,0.65833133,0.3985584,-0.42458603,0.47694647,13.063036918640137,1.164078712463379,2.6342973709106445,7.729767799377441,-6.249039649963379, -6.283680438995361
192,3919740585,0.6577085,0.40045592,-0.42403764,0.47670424,13.269771575927734,1.194046974182129,2.6055755615234375,11.284736633300781,-5.787563800811768, -6.220124244689941
193,3919757252,0.65724474,0.402103,-0.42367703,0.4762776,13.244621276855469,1.5837429761886597,2.7144947052001953,8.448371887207031,-5.876631736755371, -6.368664264678955
194,3919773919,0.65699625,0.40329793,-0.42358816,0.47568864,13.092341423034668,1.3359311819076538,2.482228994369507,4.630911827087402,-5.405766487121582, -5.674610137939453
195,3919790586,0.6567662,0.40440938,-0.4235695,0.47507912,12.984783172607422,1.5949934720993042,2.506974220275879,4.034788608551025,-5.434695720672607, -5.345000267028809
196,3919807253,0.6564881,0.405652,-0.4236149,0.4743631,12.899025917053223,1.4106545448303223,2.3726794719696045,3.5857601165771484,-6.697019577026367, -6.086411952972412
197,3919823920,0.6561621,0.4071243,-0.4236713,0.47350174,12.875345230102539,1.2120518684387207,2.370771646499634,4.8924946784973145,-7.944767475128174, -7.018573760986328
198,3919840587,0.6556058,0.40899006,-0.42344716,0.4728644,12.9384126663208,1.5546376705169678,2.550307273864746,8.659921646118164,-8.024758338928223, -7.274715900421143
199,3919857254,0.6551017,0.41088852,-0.4232905,0.47205678,12.299338340759277,1.3954864740371704,2.2573208808898926,8.123720169067383,-8.731401443481445, -8.056159973144531
200,3919873921,0.65433073,0.4131657,-0.42290783,0.4714812,12.823274612426758,1.331100583076477,2.2254843711853027,11.748064041137695,-9.09931755065918, -7.965532302856445
201,3919890588,0.6535727,0.4152907,-0.4226327,0.4709119,12.50285530090332,1.8226337432861328,2.3629212379455566,10.939737319946289,-8.980497360229492, -7.1647491455078125
202,3919907255,0.65304255,0.41687337,-0.422666,0.47021857,12.641914367675781,2.0044403076171875,2.153879404067993,6.499910831451416,-8.304831504821777, -5.988917350769043
203,3919923922,0.65337,0.41663563,-0.42320362,0.46949017,12.33804702758789,2.1579172611236572,2.287942409515381,-5.909337043762207,-2.289109706878662, -2.1906800270080566
204,3919940589,0.6542078,0.41503054,-0.42441595,0.46865,12.489927291870117,1.7014998197555542,2.5416319370269775,-15.992877960205078,0.26622503995895386, 1.5922596454620361
205,3919957256,0.6553504,0.41210312,-0.42614433,0.46806842,12.245859146118164,1.838608980178833,2.7687454223632812,-23.628803253173828,3.842534303665161, 7.1392669677734375
206,3919973923,0.6565101,0.40847567,-0.42874375,0.4672484,11.417600631713867,2.089815378189087,2.0473103523254395,-32.490238189697266,1.209839940071106, 9.818930625915527
207,3919990590,0.65786767,0.40460262,-0.43214366,0.4655737,12.141815185546875,2.1587650775909424,2.434335947036743,-35.7856559753418,-2.900139331817627, 9.462265968322754
208,3920007257,0.6588626,0.40143618,-0.4356829,0.463605,11.666726112365723,1.322281837463379,1.8913187980651855,-32.803829193115234,-7.67987060546875, 7.630508899688721
209,3920023924,0.6588848,0.40087524,-0.4378433,0.4620209,11.842681884765625,1.481316328048706,1.4481782913208008,-13.545150756835938,-11.690852165222168, 0.6024305820465088
210,3920040591,0.6587444,0.40127566,-0.44006437,0.45975754,11.21456241607666,0.5806096792221069,1.8657170534133911,-8.624946594238281,-17.03342628479004, -3.9232304096221924
211,3920057258,0.6582792,0.40223646,-0.44233745,0.45739695,11.32376480102539,0.42292994260787964,2.406714677810669,-7.523539066314697,-20.54229164123535, -5.522146224975586
212,3920073925,0.65774393,0.40336505,-0.44530976,0.45427844,11.132539749145508,0.7637946009635925,2.479783773422241,-11.9747314453125,-26.67458724975586, -7.62000846862793
213,3920090592,0.6564624,0.40588337,-0.44790068,0.45133254,10.871498107910156,0.05287596955895424,2.076582193374634,-1.304139494895935,-31.02159881591797, -9.657610893249512
214,3920107259,0.6542285,0.40967035,-0.4502133,0.4488466,11.320744514465332,1.0231751203536987,1.9315744638442993,8.198556900024414,-35.52021026611328, -9.68596363067627
215,3920123926,0.6513633,0.41382945,-0.4531394,0.44624642,11.09365463256836,1.515645980834961,2.090242624282837,8.93277645111084,-41.77218246459961, -7.807314395904541
216,3920140593,0.64836144,0.41761127,-0.45696172,0.44318676,10.497597694396973,1.5896483659744263,1.897235631942749,4.25029993057251,-46.24813461303711, -5.495182991027832
217,3920157260,0.64476085,0.42185998,-0.46074215,0.44049317,11.49894905090332,2.386880397796631,1.2578966617584229,9.333405494689941,-48.32018280029297, -3.6159684658050537
218,3920173927,0.6409456,0.4261416,-0.46470952,0.43776363,10.444670677185059,1.6687352657318115,1.2836189270019531,9.362442016601562,-50.02817916870117, -2.6753220558166504
219,3920190594,0.6364623,0.43098104,-0.46814153,0.43590683,10.678351402282715,1.3352539539337158,0.7589660882949829,18.175182342529297,-48.9241943359375, -0.16168171167373657
220,3920207261,0.6318443,0.43594974,-0.47146994,0.43409342,11.201021194458008,1.6653907299041748,0.4240448474884033,19.587745666503906,-49.15011978149414, -0.29484352469444275
221,3920223928,0.6273108,0.44091263,-0.47440687,0.43245283,10.731093406677246,1.4219989776611328,0.18271319568157196,21.033605575561523,-46.61965560913086, -0.9475505352020264
222,3920240595,0.6232298,0.44546103,-0.47724807,0.43056175,10.42809772491455,1.2803517580032349,-0.10586041212081909,17.338712692260742,-44.23859405517578, -2.3137030601501465
223,3920257262,0.61943495,0.45004365,-0.4797012,0.4285416,10.823577880859375,1.4027857780456543,0.037066370248794556,17.329673767089844,-42.1108283996582, -5.020138263702393
224,3920273929,0.6159424,0.4546693,-0.4816798,0.42646855,10.468934059143066,0.7191817164421082,-0.19186000525951385,17.798173904418945,-39.36802291870117, -7.749380111694336
225,3920290596,0.6125588,0.45964655,-0.48279762,0.42473915,10.368401527404785,1.0261002779006958,-0.5680530071258545,22.60685920715332,-35.30207824707031, -10.491326332092285
226,3920307263,0.60931826,0.4648719,-0.48299488,0.4234873,10.687178611755371,1.3603490591049194,-0.6767863035202026,27.468652725219727,-30.14196014404297, -12.644789695739746
227,3920323930,0.6069182,0.4693718,-0.4831227,0.42182118,10.559809684753418,1.5230032205581665,-1.3033398389816284,20.56355094909668,-26.247770309448242, -14.647189140319824
228,3920340597,0.6049918,0.47353598,-0.48272192,0.4203906,10.162396430969238,1.76308274269104,-1.042280673980713,19.94057846069336,-20.69620132446289, -15.630732536315918
229,3920357264,0.6034751,0.47731075,-0.4821215,0.4189885,10.074162483215332,1.4260820150375366,-0.6353445053100586,17.649614334106445,-17.260446548461914, -16.049245834350586
230,3920373931,0.60192937,0.48113695,-0.48106524,0.41804865,9.978564262390137,1.3678444623947144,-0.8755269050598145,20.79901885986328,-14.08373737335205, -15.720498085021973
231,3920390598,0.6002281,0.4852264,-0.479326,0.4177659,9.80518627166748,1.376962661743164,-0.9259781241416931,26.534605026245117,-10.33696460723877, -15.693843841552734
232,3920407265,0.5986735,0.48915008,-0.47741848,0.41760495,9.174520492553711,1.6275182962417603,0.29238370060920715,26.23989486694336,-8.258075714111328, -15.63851547241211
233,3920423932,0.5969177,0.49399564,-0.47415227,0.4181357,10.0772705078125,1.768917441368103,-0.3700784146785736,36.88398361206055,-3.6693367958068848, -19.810611724853516
234,3920440599,0.5954584,0.49913883,-0.46961614,0.41922602,9.560532569885254,1.7048696279525757,-1.6398699283599854,42.569400787353516,3.5553605556488037, -23.65562629699707
235,3920457266,0.5940427,0.5051363,-0.46256375,0.42188314,9.999492645263672,2.2028589248657227,-2.15240478515625,58.21688461303711,16.951335906982422, -28.770727157592773
236,3920473933,0.59471005,0.50876355,-0.45617992,0.42353216,10.048195838928223,2.886806011199951,-1.6601945161819458,36.139732360839844,24.274805068969727, -29.06981086730957
237,3920490600,0.6006987,0.5053271,-0.4541229,0.42140004,10.831230163574219,4.0993218421936035,-1.5614882707595825,-35.83114242553711,30.657987594604492, -22.70758056640625
238,3920507267,0.6107354,0.49675822,-0.4547403,0.41646716,10.754377365112305,2.4170541763305664,-0.9805858731269836,-87.6068344116211,37.43575668334961, -20.616558074951172
239,3920523934,0.6214298,0.48675787,-0.45668986,0.410276,8.689422607421875,-1.5659666061401367,-1.1479251384735107,-103.62401580810547,33.72908020019531, -18.738466262817383
240,3920540601,0.63031185,0.4765313,-0.46053568,0.40439078,8.474099159240723,-2.3210289478302,-3.3597047328948975,-102.90772247314453,21.635835647583008, -5.355594635009766
241,3920557268,0.6325995,0.4719555,-0.46530133,0.40071303,8.000547409057617,-5.600077152252197,-6.6932291984558105,-52.383548736572266,-11.593323707580566, 7.549914360046387
242,3920573935,0.6272499,0.47586027,-0.46912724,0.40004286,12.256017684936523,0.4784189760684967,-1.020503044128418,21.47977066040039,-45.318817138671875, 11.259697914123535
243,3920590602,0.6095817,0.4873517,-0.47459725,0.40700865,10.973577499389648,-24.054494857788086,-14.7020845413208,114.62031555175781,-88.00382232666016, 58.905948638916016
244,3920607269,0.5871552,0.4967201,-0.4881686,0.4125645,9.675119400024414,3.345485210418701,-8.550606727600098,94.38565826416016,-135.81451416015625, 99.46160125732422
245,3920623936,0.57324535,0.49201778,-0.51607233,0.40370488,5.343692302703857,-8.507357597351074,-6.605644226074219,-80.62347412109375,-174.15721130371094, 113.40705871582031
246,3920640603,0.5561149,0.49085984,-0.5383664,0.39994326,1.2781440019607544,-0.5321067571640015,0.8022417426109314,-22.114120483398438,-155.85488891601562, 110.6420669555664
247,3920657270,0.53791255,0.4922858,-0.5531475,0.40290532,-2.02593994140625,4.661401271820068,4.999216556549072,36.95441436767578,-115.60293579101562, 104.41354370117188
248,3920673937,0.5228324,0.4928441,-0.5612854,0.41074327,-6.038105487823486,10.055785179138184,9.745763778686523,60.18031311035156,-60.50841522216797, 94.82485961914062
249,3920690604,0.5166414,0.489172,-0.5626783,0.4209343,-6.461280345916748,8.709026336669922,9.381985664367676,43.06787872314453,17.553638458251953, 72.06552124023438
250,3920707271,0.5190997,0.4825867,-0.5604923,0.42836213,9.326356887817383,17.281999588012695,11.38083267211914,3.3645529747009277,62.490787506103516, 36.814476013183594
251,3920723938,0.50438577,0.49424943,-0.54547805,0.45140463,23.107864379882812,-6.60547399520874,-13.024286270141602,223.52572631835938,39.6706428527832, 30.89517593383789
252,3920740605,0.4976813,0.49900696,-0.5386499,0.46169448,44.58108139038086,16.884035110473633,18.222740173339844,99.079345703125,19.81496238708496, 15.212923049926758
253,3920757272,0.50128365,0.4946755,-0.54374874,0.45645198,2.6742911338806152,8.775952339172363,0.9455589056015015,-62.73868942260742,-8.150485038757324, 4.589853286743164
254,3920773939,0.49432966,0.49830872,-0.54029924,0.46411598,-2.9373414516448975,-7.1400651931762695,-11.764342308044434,75.7094955444336,0.7036412954330444, 23.684812545776367
255,3920790606,0.48778662,0.4999919,-0.5352794,0.47491947,7.363636493682861,-1.2950433492660522,3.457131862640381,84.3360595703125,25.045137405395508, 34.5890998840332
256,3920807273,0.49353975,0.49073744,-0.5444568,0.46814764,10.020264625549316,2.620541572570801,-1.432868242263794,-105.66735076904297,-2.1972382068634033, 24.49203872680664
257,3920823940,0.49255314,0.4893439,-0.5454119,0.4695318,8.102035522460938,-5.987513542175293,-0.625027060508728,0.7514067888259888,2.7045176029205322, 16.79901695251465
258,3920840607,0.48779497,0.49262884,-0.5413981,0.47566912,3.21399188041687,-1.0843113660812378,-1.233826756477356,63.13850021362305,6.274670600891113, 10.554243087768555
259,3920857274,0.48819593,0.49111378,-0.5419,0.4762527,5.928112983703613,0.11028596013784409,-1.4208345413208008,-5.876067638397217,7.259518623352051, 8.167093276977539
260,3920873941,0.49033555,0.48859352,-0.54294914,0.4754511,8.157275199890137,-1.049942135810852,-2.274123191833496,-22.0737247467041,10.54918384552002, 3.426788091659546
261,3920890608,0.4912241,0.4886422,-0.53968775,0.4781894,6.552738666534424,-0.5712445974349976,-2.542933464050293,18.094106674194336,23.970821380615234, -4.65700626373291
262,3920907275,0.49332476,0.48810753,-0.536659,0.47997808,5.8345794677734375,0.22607924044132233,-1.5233420133590698,7.7630839347839355,26.49460220336914, -8.923580169677734
263,3920923942,0.4959892,0.48750812,-0.53485173,0.47985867,5.005669593811035,-0.9233095049858093,0.7923919558525085,-5.422372341156006,18.284242630004883, -12.903177261352539
264,3920940609,0.4971197,0.48857507,-0.53246504,0.48025766,4.448729515075684,-2.114893674850464,-0.41022390127182007,9.21521282196045,10.801268577575684, -14.182604789733887
265,3920957276,0.49674165,0.49126923,-0.5282152,0.482588,5.543272018432617,1.1429024934768677,-1.7323976755142212,33.063533782958984,12.76176643371582, -14.911059379577637
266,3920973943,0.49663013,0.4932907,-0.52524537,0.48388028,6.279139518737793,2.471151351928711,-0.8174430131912231,21.84738540649414,8.143315315246582, -12.520581245422363
267,3920990610,0.49643803,0.4952364,-0.5244053,0.48300034,5.165175437927246,1.6128005981445312,0.3969453275203705,6.928682327270508,-6.519640922546387, -12.057699203491211
268,3921007277,0.4952402,0.4977469,-0.52698797,0.47882047,2.5746853351593018,-2.1125221252441406,5.792313575744629,-10.984267234802246,-34.97993087768555, -10.2896728515625
269,3921023944,0.4893957,0.50383186,-0.52554005,0.48005536,3.558011770248413,-2.7506141662597656,-1.3926998376846313,49.97576141357422,-31.616365432739258, -3.405519962310791
270,3921040611,0.48561165,0.50831956,-0.52555656,0.47914818,6.163327217102051,3.7169806957244873,-1.6542295217514038,24.88873863220215,-31.1919002532959, -6.703726768493652
271,3921057278,0.48413637,0.510002,-0.52878404,0.47528684,5.657148361206055,1.0556855201721191,1.8012582063674927,-13.794349670410156,-34.59827423095703, -2.6341893672943115
272,3921073945,0.48130482,0.512225,-0.53179675,0.47240183,3.5617549419403076,-2.188840627670288,2.035881996154785,-2.9849190711975098,-37.272377014160156, 2.378375291824341
273,3921090612,0.47625792,0.51563424,-0.53193945,0.47364578,4.079833030700684,0.6018729209899902,-3.1891419887542725,33.15882873535156,-25.303035736083984, 8.680435180664062
274,3921107279,0.47622985,0.5140842,-0.53580797,0.47099113,6.304133892059326,3.2851412296295166,-2.5894601345062256,-27.262115478515625,-16.681156158447266, 10.946866989135742
275,3921123946,0.4783035,0.5103944,-0.54011583,0.4679725,5.942176818847656,-0.9886983036994934,-2.306835651397705,-44.45082092285156,-4.645064353942871, 12.552501678466797
276,3921140613,0.4820735,0.50583434,-0.5430036,0.465708,5.320550441741943,0.8079278469085693,-2.3330371379852295,-45.89827346801758,11.847806930541992, 7.776853561401367
277,3921157280,0.48738602,0.5005628,-0.5444159,0.46422318,5.171995639801025,-0.5828965306282043,-1.5624592304229736,-45.9858283996582,27.567052841186523, 2.9939050674438477
278,3921173947,0.49372256,0.49570027,-0.5418091,0.46579233,6.374319076538086,-0.7394735813140869,-2.621371030807495,-23.88666534423828,54.11796569824219, -5.4294610023498535
279,3921190614,0.50261766,0.4897901,-0.5367478,0.46838367,8.703207015991211,1.1636037826538086,-5.111144065856934,-24.503820419311523,78.9196548461914, -14.6497163772583
280,3921207281,0.51280004,0.48529088,-0.5265476,0.47357836,9.73359203338623,0.5392360687255859,-3.487946033477783,2.1789348125457764,105.8834228515625, -32.24508285522461
281,3921223948,0.5263635,0.47810197,-0.5164303,0.47713706,13.193214416503906,1.9391677379608154,4.4865498542785645,-24.804670333862305,121.28492736816406, -38.979454040527344
282,3921240615,0.5437951,0.46531495,-0.5113601,0.47568884,10.762743949890137,5.364997386932373,4.177420616149902,-92.1448745727539,118.38947296142578, -33.2198600769043
283,3921257282,0.5570014,0.45435154,-0.51169103,0.4706235,3.8403520584106445,-3.6580824851989746,3.1184024810791016,-102.23078918457031,65.54832458496094, -21.773361206054688
284,3921273949,0.56518596,0.44697165,-0.5167613,0.46231914,-2.0817487239837646,-1.708256483078003,2.626121997833252,-99.52711486816406,7.834610462188721, -15.939201354980469
285,3921290616,0.56921405,0.4398175,-0.5330561,0.4454294,-3.7355527877807617,-8.795318603515625,-13.899785041809082,-152.04791259765625,-77.83243560791016, -2.492692470550537
286,3921307283,0.55797225,0.44577694,-0.5498609,0.4331314,-3.079674243927002,-10.751638412475586,-13.687044143676758,-39.243614196777344,-161.29666137695312, 15.266350746154785
287,3921323950,0.5409797,0.45974147,-0.5624351,0.4238461,-9.769363403320312,2.1020829677581787,-0.4709295630455017,33.08848190307617,-180.64418029785156, 0.1274319291114807
288,3921340617,0.5295114,0.4700613,-0.5731753,0.41246855,-12.80396842956543,7.985382556915283,11.70596981048584,-0.7093737721443176,-148.4241943359375, -15.324602127075195
289,3921357284,0.52461594,0.47372505,-0.58218455,0.4017762,-12.082579612731934,-1.163285255432129,11.813338279724121,-38.55365753173828,-95.76868438720703, -10.352584838867188
290,3921373951,0.5148849,0.48189953,-0.57984084,0.4079844,-11.72392463684082,-4.306918621063232,1.6583107709884644,92.49697875976562,-32.208274841308594, 8.877402305603027
291,3921390618,0.5020226,0.492065,-0.57867074,0.41350403,0.009507670998573303,2.763566732406616,-18.229389190673828,103.86612701416016,-56.72832489013672, 10.933612823486328
292,3921407285,0.49012974,0.49960145,-0.58364546,0.4117394,18.375444412231445,0.6692603826522827,8.819079399108887,45.0455207824707,-90.18002319335938, 14.426169395446777
293,3921423952,0.4764688,0.50762814,-0.5882278,0.411436,5.715942859649658,-5.074004650115967,7.711740493774414,59.76465606689453,-93.05028533935547, 21.054460525512695
294,3921440619,0.46036488,0.51643145,-0.59271514,0.41237327,26.544506072998047,2.2452304363250732,1.833393931388855,76.08191680908203,-101.0278549194336, 28.252859115600586
295,3921457286,0.45138925,0.52136856,-0.5956713,0.41182303,13.074822425842285,4.871152877807617,-0.9846030473709106,36.827999114990234,-61.92581558227539, 13.805423736572266
296,3921473953,0.44302014,0.52785367,-0.59397423,0.4150884,7.182863235473633,2.6311240196228027,-5.978418350219727,68.31558227539062,-35.84339141845703, 1.223102331161499
297,3921490620,0.44179955,0.53059524,-0.5916383,0.41622865,5.9916815757751465,-0.9399247765541077,-5.875665187835693,24.149795532226562,-1.4808275699615479, -12.508864402770996
298,3921507287,0.44669572,0.52940685,-0.5882708,0.41728765,8.965554237365723,-1.6859797239303589,-4.303333759307861,-7.489457130432129,37.74563217163086, -18.086612701416016
299,3921523954,0.45873603,0.5226331,-0.585516,0.41663796,12.617018699645996,-0.05267927795648575,-4.1075897216796875,-59.33694076538086,74.6834945678711, -19.100860595703125
300,3921540621,0.48050967,0.50698245,-0.58316785,0.41472256,15.57636833190918,3.222219467163086,1.6367318630218506,-128.58607482910156,133.53196716308594, -13.76720905303955
301,3921557288,0.51400995,0.47751638,-0.5850668,0.40677845,9.53798770904541,2.469653844833374,-0.6513063311576843,-251.43820190429688,184.60757446289062, 3.2715632915496826
302,3921573955,0.54041666,0.45365024,-0.58472973,0.40030313,4.166220188140869,-2.7079086303710938,-5.312462329864502,-196.16162109375,153.02085876464844, -1.441874384880066
303,3921590622,0.5575899,0.43794546,-0.58171165,0.39863393,-1.725828766822815,-7.016944885253906,-14.61263656616211,-110.3297348022461,118.67033386230469, 0.4722842574119568
304,3921607289,0.5657326,0.4271315,-0.5852729,0.39365086,-2.2582645416259766,-0.7014137506484985,-13.130694389343262,-95.68635559082031,34.85528564453125, 12.368696212768555
305,3921623956,0.56239164,0.42519128,-0.596131,0.38413012,-8.080138206481934,-5.952597618103027,-17.621023178100586,-65.46654510498047,-76.3310317993164, 11.536149978637695
306,3921640623,0.54120827,0.44121957,-0.6035115,0.38495833,-9.91770076751709,-5.813792705535889,-5.986817359924316,107.76936340332031,-152.27035522460938, 14.52670955657959
307,3921657290,0.51211566,0.46712896,-0.6030606,0.39477342,-11.198019027709961,0.5232853889465332,8.273673057556152,226.5587615966797,-154.6903839111328, 3.720597982406616
308,3921673957,0.49138507,0.48864534,-0.593954,0.40863806,-17.819686889648438,8.054347038269043,20.723005294799805,224.48374938964844,-65.23177337646484, -14.34884262084961
309,3921690624,0.48869362,0.49496776,-0.58522683,0.41676754,-15.692317962646484,6.636244297027588,20.546098709106445,88.06793975830078,29.43633270263672, -20.629396438598633
310,3921707291,0.5013858,0.48428428,-0.58615506,0.41292053,-9.921839714050293,1.1826554536819458,10.726516723632812,-97.23943328857422,65.85151672363281, -3.2876906394958496
311,3921723958,0.51409036,0.46502402,-0.6022093,0.3959896,-11.016942977905273,-7.328629016876221,-31.21880340576172,-222.54244995117188,-5.923192024230957, 36.55685806274414
312,3921740625,0.4960304,0.47387534,-0.60814846,0.3994391,14.351340293884277,-2.009591817855835,-4.8349103927612305,87.114013671875,-107.24803161621094, 43.291255950927734
313,3921757292,0.47941822,0.48108405,-0.6113256,0.40619895,3.792982578277588,8.462515830993652,32.08735275268555,98.22005462646484,-76.48436737060547, 48.38551330566406
314,3921773959,0.4631619,0.48608392,-0.6249589,0.39828396,20.52006721496582,7.131877899169922,-0.22968578338623047,-1.1065422296524048,-153.4647979736328, 43.32677459716797
315,3921790626,0.43935046,0.504953,-0.6230746,0.4046874,17.295612335205078,-0.5128529071807861,0.5764659643173218,172.40789794921875,-126.81343078613281, -1.4758497476577759
316,3921807293,0.4250099,0.51318675,-0.6262685,0.40471444,23.13490104675293,-0.05976849049329758,1.2698512077331543,65.93148040771484,-94.283203125, 16.1170654296875
317,3921823960,0.42394587,0.509833,-0.6363022,0.39428413,15.501989364624023,-0.8152704834938049,3.2149882316589355,-78.8416519165039,-62.0456428527832, 22.672956466674805
318,3921840627,0.42514473,0.5084012,-0.6400782,0.38869002,4.405218124389648,5.693692684173584,-10.204401016235352,-43.066261291503906,-22.419147491455078, 0.24823391437530518
319,3921857294,0.42936078,0.5090511,-0.636566,0.3889732,1.4914336204528809,3.6544559001922607,-8.539973258972168,-2.108819007873535,27.583417892456055, -25.071203231811523
320,3921873961,0.4351815,0.51144093,-0.6258922,0.3966161,6.92801570892334,-2.425717830657959,-4.9307122230529785,48.81220626831055,77.23420715332031, -40.214263916015625
321,3921890628,0.44524688,0.51098615,-0.6147246,0.40343797,12.876199722290039,-2.8761038780212402,0.899625301361084,23.153127670288086,101.99081420898438, -43.86284637451172
322,3921907295,0.4654728,0.5018994,-0.6071093,0.40354726,12.220791816711426,0.8138833045959473,6.815826416015625,-77.23725891113281,134.27191162109375, -43.759281158447266
323,3921923962,0.49465033,0.48123512,-0.6071566,0.39382073,4.409148216247559,1.4576042890548706,5.771261215209961,-207.544677734375,144.96998596191406, -25.32590103149414
324,3921940629,0.5141338,0.46929908,-0.6029322,0.38974047,-3.307034492492676,-3.5673394203186035,0.5170447826385498,-110.61520385742188,113.85760498046875, -30.460233688354492
325,3921957296,0.5218036,0.46598923,-0.59829426,0.39066502,-8.32278823852539,-8.310544967651367,-9.577205657958984,-20.151927947998047,59.44956970214844, -18.37065315246582
326,3921973963,0.520533,0.46662515,-0.59829926,0.39159223,-6.053066253662109,-4.1979780197143555,-8.86626148223877,10.161247253417969,-4.11685848236084, 4.001351833343506
327,3921990630,0.5186377,0.4661244,-0.6041255,0.38571444,-8.755791664123535,2.6041998863220215,-3.621116876602173,-35.58743667602539,-45.91360855102539, 4.549363136291504
328,3922007297,0.5180068,0.46533525,-0.61051536,0.37736362,-13.596535682678223,3.4210731983184814,5.365005970001221,-52.433902740478516,-49.653072357177734, -4.506112575531006
329,3922023964,0.5179883,0.46582496,-0.61338097,0.37210083,-13.700264930725098,1.715389609336853,13.085081100463867,-27.72040367126465,-28.07712745666504, -11.608460426330566
330,3922040631,0.51610506,0.4693785,-0.6100094,0.37577683,-11.712615966796875,-0.9990918040275574,10.420125007629395,42.83452224731445,6.709555149078369, -7.8320722579956055
331,3922057298,0.5110278,0.47784466,-0.5979699,0.3910847,-10.789878845214844,-1.1731810569763184,6.326119422912598,141.7710418701172,48.67556381225586, -6.891348361968994
332,3922073965,0.5044103,0.4851297,-0.5901131,0.40247503,-14.622260093688965,-4.194637298583984,-30.050500869750977,115.32400512695312,17.85133934020996, 2.077859401702881
333,3922090632,0.48571637,0.5001865,-0.594582,0.40045643,10.107915878295898,6.003146171569824,-22.952556610107422,94.00556182861328,-139.03599548339844, -1.5687799453735352
334,3922107299,0.47588807,0.50434196,-0.6036131,0.3934732,-0.9584516882896423,-4.255692005157471,22.01197052001953,-5.750509738922119,-104.44062805175781, 17.870771408081055
335,3922123966,0.46555877,0.5071877,-0.6100581,0.3922303,6.0135416984558105,3.712804079055786,-0.5199917554855347,22.524532318115234,-75.3597640991211, 34.34264373779297
336,3922140633,0.45458108,0.51399577,-0.6107718,0.39512327,13.376276016235352,-0.4649829566478729,-0.15504342317581177,70.29254150390625,-56.048370361328125, 12.836579322814941
337,3922157300,0.4459978,0.5186331,-0.6093098,0.40105814,15.060624122619629,-4.163355350494385,1.6425150632858276,73.73023986816406,-22.66724967956543, 17.250526428222656
338,3922173967,0.44084066,0.5215721,-0.6088328,0.4036642,20.086505889892578,1.5186842679977417,6.902286052703857,39.623008728027344,-18.705007553100586, 8.109567642211914
339,3922190634,0.43974346,0.5221197,-0.6087702,0.40424708,11.0183687210083,4.696046352386475,-3.722550630569458,8.205522537231445,-3.950490951538086, 2.277219295501709
340,3922207301,0.44255653,0.5214364,-0.6063641,0.405673,9.060898780822754,3.6956048011779785,-6.177697658538818,0.5170641541481018,25.993146896362305, -9.159932136535645
341,3922223968,0.45106766,0.51573193,-0.6053504,0.4051048,12.844642639160156,3.401494264602661,-0.8743461966514587,-47.370758056640625,52.49331283569336, -5.09550666809082
342,3922240635,0.46400815,0.5062913,-0.60569334,0.40187237,13.044934272766113,2.713320016860962,2.598196506500244,-89.52488708496094,67.61675262451172, -5.25237512588501
343,3922257302,0.47964022,0.49646392,-0.6045091,0.39753938,10.100171089172363,2.5841028690338135,5.140865325927734,-100.4906997680664,80.77983856201172, -19.859264373779297
344,3922273969,0.49801892,0.48650405,-0.6001749,0.39380324,6.096767425537109,2.75549578666687,10.136201858520508,-99.2130126953125,104.79568481445312, -35.57011413574219
345,3922290636,0.5205258,0.4688901,-0.6008948,0.3848644,-3.9398117065429688,-0.2816459536552429,4.845658302307129,-174.395751953125,107.56262969970703, -16.060083389282227
346,3922307303,0.530744,0.46329275,-0.5976249,0.38277343,-10.720215797424316,-10.023430824279785,-7.998653888702393,-52.905548095703125,61.275108337402344, -21.60641098022461
347,3922323970,0.52990484,0.46733236,-0.5913584,0.3887117,-7.772922515869141,-7.774209022521973,-13.624155044555664,58.33974838256836,27.329734802246094, -12.633784294128418
348,3922340637,0.529265,0.46883178,-0.5895528,0.3905161,-7.8396148681640625,4.64528226852417,-2.1601693630218506,19.689939498901367,5.849213123321533, -3.7695164680480957
349,3922357304,0.536931,0.4606788,-0.59822935,0.3763003,-16.324851989746094,2.465088367462158,-1.791966438293457,-135.29779052734375,-24.2487850189209, -11.315977096557617
350,3922373971,0.54247147,0.45521253,-0.6070151,0.36060938,-12.668069839477539,-0.43239980936050415,4.050547122955322,-124.99919891357422,-44.90263366699219, -21.884401321411133
351,3922390638,0.54056674,0.45951515,-0.60812,0.356123,-10.619067192077637,-3.2433571815490723,4.686709403991699,0.5549478530883789,-36.53836441040039, -26.4438533782959
352,3922407305,0.5278749,0.47428998,-0.5994965,0.37013686,-11.566211700439453,-7.103652477264404,3.8033101558685303,174.74746704101562,-12.753674507141113, -5.864559650421143
353,3922423972,0.51256335,0.49110195,-0.5869891,0.3892836,-11.337231636047363,-5.340236186981201,5.106436729431152,221.73785400390625,2.050184488296509, -1.7877177000045776
354,3922440639,0.49307483,0.5080201,-0.58157724,0.40070024,-9.736248970031738,3.1282174587249756,-34.88800811767578,186.01144409179688,-66.29454040527344, 5.5815253257751465
355,3922457306,0.4812364,0.51099724,-0.5971022,0.38828114,12.839818000793457,-6.442098617553711,3.7587716579437256,-41.04336166381836,-150.52183532714844, 32.663185119628906
356,3922473973,0.46268287,0.5178668,-0.602957,0.39265978,0.5349134206771851,-3.236893653869629,9.883268356323242,90.20185852050781,-97.6796875, 56.043766021728516
357,3922490640,0.4473821,0.523154,-0.61167765,0.38988423,24.301671981811523,12.929784774780273,4.970803260803223,36.18255615234375,-114.81427764892578, 41.197715759277344
358,3922507307,0.4410699,0.5249025,-0.61601484,0.38789237,14.696479797363281,6.8163676261901855,-3.45167875289917,8.076892852783203,-51.55557632446289, 18.99106788635254
359,3922523974,0.4330537,0.5303083,-0.6154262,0.39049742,20.726659774780273,2.331915855407715,0.3551645874977112,57.959571838378906,-37.02592849731445, 4.396115779876709
360,3922540641,0.43020746,0.5329285,-0.61468554,0.39124206,17.849178314208984,1.3355073928833008,3.8658199310302734,23.369094848632812,-14.183516502380371, -3.725018262863159
361,3922557308,0.43896225,0.5282529,-0.6136568,0.38946941,9.874150276184082,-0.19475477933883667,-3.237353801727295,-50.57441329956055,45.85194396972656, -12.564920425415039
362,3922573975,0.45004952,0.5249656,-0.60721517,0.39135215,2.3898234367370605,-3.348824977874756,-4.001701354980469,-24.942960739135742,81.61752319335938, -33.31513214111328
363,3922590642,0.46454853,0.52038413,-0.5976744,0.3951971,3.883863925933838,-2.822465658187866,0.06849803775548935,-24.750247955322266,116.13754272460938, -42.31088638305664
364,3922607309,0.48628265,0.50935805,-0.5905948,0.394058,4.604580402374268,-1.360123872756958,4.204442977905273,-98.40663146972656,137.68890380859375, -42.69070816040039
365,3922623976,0.51533866,0.48786888,-0.58882123,0.38691026,0.32432132959365845,-2.956397294998169,7.089292049407959,-197.83192443847656,156.88967895507812, -21.612375259399414
366,3922640643,0.5344268,0.47164965,-0.5891385,0.38059226,-8.104721069335938,-6.779890537261963,-4.5142059326171875,-147.8881378173828,97.71326446533203, -6.583142280578613
367,3922657310,0.5363692,0.46941513,-0.58865196,0.38137436,-7.90472412109375,-10.88087272644043,-11.35395622253418,-10.03580093383789,17.846385955810547, 4.9480671882629395
368,3922673977,0.5295924,0.47536197,-0.58614296,0.38729754,-8.716310501098633,1.2081931829452515,-2.142259120941162,74.36051177978516,-14.475595474243164, 6.876657009124756
369,3922690644,0.52675277,0.47832105,-0.5834558,0.39156088,-14.133504867553711,4.535337448120117,4.105781555175781,44.392860412597656,4.661255836486816, 1.8840256929397583
370,3922707311,0.52990216,0.4765865,-0.57891536,0.3961393,-15.200745582580566,3.384111166000366,10.680990219116211,13.959541320800781,49.01053237915039, -0.19882038235664368
371,3922723978,0.5358011,0.47064787,-0.5760656,0.39944497,-12.56229305267334,0.28095969557762146,4.73054313659668,-20.0200138092041,60.844398498535156, 10.075408935546875
372,3922740645,0.541277,0.46463034,-0.576693,0.39820027,-9.778860092163086,0.6255344152450562,-4.597986698150635,-46.509220123291016,31.783029556274414, 6.068838119506836
373,3922757312,0.54278827,0.46210322,-0.5816329,0.39184788,-10.170845985412598,-0.9206165671348572,-11.553017616271973,-52.924034118652344,-25.681474685668945, -2.1166718006134033
374,3922773979,0.5316193,0.46959972,-0.5890399,0.38715494,-4.17922306060791,-6.110721111297607,-19.58272933959961,24.738248825073242,-106.9783935546875, 5.986895561218262
375,3922790646,0.51165664,0.48705274,-0.5914426,0.38882253,3.185648202896118,9.139758110046387,8.062993049621582,128.5789337158203,-129.7465362548828, -4.000047206878662
376,3922807313,0.49932963,0.49359393,-0.59922993,0.38465422,1.2737541198730469,6.559922218322754,5.125175952911377,26.50505256652832,-108.2726821899414, 17.70351791381836
377,3922823980,0.48368812,0.50307,-0.60438603,0.38429707,10.618681907653809,2.3236191272735596,0.29623979330062866,70.5152359008789,-107.89064025878906, 18.700868606567383
378,3922840647,0.47017896,0.51017076,-0.6064933,0.38836002,15.255973815917969,-4.587167739868164,3.2872250080108643,81.67622375488281,-67.40496826171875, 27.132783889770508
379,3922857314,0.462309,0.5114948,-0.6118022,0.38773918,27.33477020263672,4.787464618682861,9.023675918579102,15.131478309631348,-55.43718719482422, 32.12152099609375
380,3922873981,0.46211815,0.5088474,-0.6197504,0.3787223,5.011843204498291,3.7518649101257324,-6.772670745849609,-66.82482147216797,-50.8990478515625, 11.066316604614258
381,3922890648,0.46093926,0.50980586,-0.6194842,0.37930512,4.7994794845581055,-0.7837395668029785,-5.514909744262695,10.393796920776367,-4.651793003082275, 0.12087278068065643
382,3922907315,0.465592,0.5075311,-0.6184421,0.37837252,8.322614669799805,-0.8905574679374695,-1.7341029644012451,-24.73226547241211,25.888675689697266, -8.871064186096191
383,3922923982,0.47506875,0.50509596,-0.6123962,0.37968272,8.230520248413086,-0.25389301776885986,-5.478547096252441,-19.531261444091797,70.65388488769531, -31.055801391601562
384,3922940649,0.49182236,0.49775296,-0.6039951,0.38150093,9.279833793640137,1.1431739330291748,3.6944849491119385,-52.55791473388672,123.66121673583984, -35.92631530761719
385,3922957316,0.5139978,0.48258477,-0.60045713,0.3773188,5.097653388977051,0.8611551523208618,0.4395958185195923,-135.25595092773438,129.57040405273438, -21.286985397338867
386,3922973983,0.5314999,0.4713493,-0.5949743,0.37595636,0.3834584653377533,-1.7955230474472046,-1.6277625560760498,-89.15730285644531,116.2637939453125, -21.886219024658203
387,3922990650,0.5410143,0.46443555,-0.59257734,0.37477377,-4.797580242156982,-4.461751937866211,-11.836607933044434,-54.720542907714844,61.77167892456055, -8.318412780761719
388,3923007317,0.5398183,0.4618475,-0.5995671,0.36852768,-4.9766998291015625,-2.0049514770507812,-15.93110179901123,-49.27018356323242,-43.737831115722656, 12.680156707763672
389,3923023984,0.52916986,0.46488315,-0.6138643,0.35641783,-6.522995471954346,-4.990149974822998,-12.681349754333496,-41.10091018676758,-142.24684143066406, 14.851715087890625
390,3923040651,0.5094623,0.47907403,-0.62219995,0.35185722,-9.812406539916992,-1.101867437362671,0.22158128023147583,74.89142608642578,-161.64996337890625, -1.7425882816314697
391,3923057318,0.48947024,0.49536452,-0.6242523,0.35403684,-12.769035339355469,1.4048802852630615,10.916379928588867,127.21271514892578,-123.72868347167969, -7.155638694763184
392,3923073985,0.47622755,0.50526404,-0.62467176,0.35735297,-12.642976760864258,1.2100648880004883,16.77684211730957,91.57743835449219,-70.0845718383789, 2.1547634601593018
393,3923090652,0.4709393,0.5094523,-0.6227624,0.3617205,-12.105206489562988,1.9895159006118774,15.224615097045898,55.50581741333008,-10.99894905090332, 2.54231333732605
394,3923107319,0.47521982,0.50593233,-0.6233755,0.36000234,-11.370955467224121,-0.6914274096488953,9.364501953125,-35.272037506103516,19.333003997802734, 0.9504990577697754
395,3923123986,0.48111907,0.49802005,-0.6282044,0.35476705,-8.382171630859375,-5.148270130157471,-5.201450347900391,-80.75817108154297,10.979442596435547, 18.93407440185547
396,3923140653,0.4697881,0.49853277,-0.63807213,0.35160804,3.429928779602051,-7.705256938934326,-25.488250732421875,2.7564117908477783,-93.32962036132812, 48.5698127746582
397,3923157320,0.45577857,0.50398976,-0.6420774,0.35496053,9.344677925109863,1.4674866199493408,19.93391227722168,70.58899688720703,-75.12359619140625, 34.09040069580078
398,3923173987,0.44026965,0.51088035,-0.6444787,0.36029363,5.115180492401123,7.159915447235107,3.461163282394409,92.95845794677734,-74.01111602783203, 32.12925720214844
399,3923190654,0.4267351,0.5206936,-0.64363664,0.36401555,18.264862060546875,9.238404273986816,-1.603588581085205,95.80728912353516,-68.48906707763672, -1.7757768630981445
400,3923207321,0.41512433,0.5316522,-0.63880175,0.37006807,10.888402938842773,3.9767770767211914,-1.0414185523986816,112.64930725097656,-42.91593551635742, -18.855241775512695
401,3923223988,0.41133395,0.53673166,-0.6352064,0.37314415,14.217671394348145,1.9033058881759644,0.8542525172233582,51.079811096191406,-8.093749046325684, -16.785419464111328
402,3923240655,0.4142134,0.53663296,-0.6330768,0.3737196,9.262113571166992,0.9286249279975891,-2.1414546966552734,-2.8463196754455566,20.7934627532959, -12.894843101501465
403,3923257322,0.42361614,0.53305155,-0.62986445,0.373733,8.530122756958008,1.8853888511657715,-3.880704879760742,-36.496726989746094,59.12763595581055, -20.079330444335938
404,3923273989,0.43699273,0.52727216,-0.62537163,0.37407458,9.939720153808594,0.4261326491832733,-0.9425799250602722,-52.74860382080078,86.953125, -24.478229522705078
405,3923290656,0.45357966,0.5205132,-0.61849797,0.37522224,9.462907791137695,0.662201464176178,3.5405807495117188,-57.74887466430664,113.3023681640625, -34.74222183227539
406,3923307323,0.47812426,0.5068967,-0.6139581,0.37082136,5.071426868438721,-0.11080800741910934,9.561386108398438,-137.24366760253906,137.5496368408203, -35.0816535949707
407,3923323990,0.49959496,0.49081233,-0.61536986,0.3617018,-3.37550950050354,-5.622995376586914,2.011046886444092,-169.73703002929688,94.57736206054688, -11.652325630187988
408,3923340657,0.5101996,0.4829294,-0.61492586,0.3582485,-9.244174003601074,-7.353863716125488,-3.8840885162353516,-76.30438995361328,53.710350036621094, -6.316863059997559
409,3923357324,0.5112095,0.48147315,-0.6142546,0.35991666,-7.38508415222168,-7.473337173461914,-7.27531623840332,0.284096360206604,15.331765174865723, 7.164634704589844
410,3923373991,0.50837356,0.4819383,-0.6152249,0.36164954,-8.525923728942871,-0.4195908010005951,-3.194741725921631,15.94918155670166,-10.938308715820312, 14.049281120300293
411,3923390658,0.50727546,0.48119965,-0.6172825,0.3606673,-12.645435333251953,4.073544979095459,2.131206512451172,-8.214576721191406,-13.2310209274292, 8.947081565856934
412,3923407325,0.51102513,0.47660786,-0.6216196,0.3539599,-12.65773868560791,5.261981964111328,5.631074905395508,-67.63566589355469,-9.958828926086426, 0.9844979047775269
413,3923423992,0.5127192,0.4731722,-0.6244565,0.35111406,-10.82286548614502,-2.75195574760437,6.347754955291748,-36.66851806640625,-3.698774576187134, 9.853736877441406
414,3923440659,0.50584674,0.4774151,-0.6226497,0.3584709,-8.333992004394531,-4.246159553527832,0.9490717649459839,73.283447265625,-9.54357624053955, 18.368925094604492
415,3923457326,0.49271685,0.48814332,-0.61794794,0.37025204,-8.566815376281738,0.6488167643547058,-2.5655925273895264,142.45123291015625,-27.682920455932617, 11.82323932647705
416,3923473993,0.48131725,0.4937381,-0.62531763,0.36542377,-5.022212028503418,5.204205513000488,-16.531879425048828,17.941301345825195,-103.76197814941406, 13.510615348815918
417,3923490660,0.46546605,0.5000338,-0.6360623,0.35879296,6.935489177703857,-4.7342000007629395,3.530977487564087,19.143301010131836,-141.45654296875, 27.314668655395508
418,3923507327,0.44126442,0.5151368,-0.63541627,0.36900693,-0.1277647465467453,1.193392276763916,3.0067763328552246,177.8111572265625,-105.50997161865234, 24.015975952148438
419,3923523994,0.4221759,0.52486914,-0.6395437,0.3704915,11.651002883911133,9.2172212600708,-1.2498853206634521,93.14891052246094,-115.02691650390625, 24.961223602294922
420,3923540661,0.41218224,0.5286947,-0.64504266,0.3667532,10.418554306030273,2.6780459880828857,-0.768474817276001,16.774166107177734,-82.89807891845703, 17.808204650878906
421,3923557328,0.4037341,0.5331347,-0.64563084,0.3686831,15.222935676574707,-0.7344059944152832,0.07677356153726578,50.43886947631836,-43.16167068481445, 9.470375061035156
422,3923573995,0.4021119,0.53431666,-0.6443397,0.3709963,11.544400215148926,-0.14517241716384888,-0.9536908864974976,22.835512161254883,1.8517823219299316, 0.7947315573692322
423,3923590662,0.4090923,0.5301965,-0.64306605,0.37148523,10.600366592407227,0.046439748257398605,-1.468876600265503,-31.556095123291016,46.64141082763672, -2.638355255126953
424,3923607329,0.42224768,0.5220742,-0.64150095,0.37097475,12.313642501831055,0.6182075142860413,0.3579518795013428,-69.00462341308594,81.27742004394531, -4.590683937072754
425,3923623996,0.43754926,0.5128194,-0.6390512,0.37037903,9.906583786010742,2.8053226470947266,3.339412212371826,-78.1196060180664,95.76915740966797, -8.486715316772461
426,3923640663,0.45496938,0.50234294,-0.6374189,0.36653996,6.318300247192383,3.887636661529541,5.890313148498535,-105.59319305419922,94.12322998046875, -15.336402893066406
427,3923657330,0.47639382,0.48960173,-0.63433754,0.36187714,2.7114877700805664,4.31286096572876,10.134302139282227,-126.4610595703125,118.87741088867188, -23.024988174438477
428,3923673997,0.49447006,0.4773681,-0.6338711,0.3547209,-7.5596747398376465,-0.5911957621574402,0.6225736141204834,-130.8968963623047,85.77763366699219, -16.216047286987305
429,3923690664,0.4942932,0.48135945,-0.6274831,0.36087713,-9.464851379394531,-9.700023651123047,-7.457249164581299,56.63490295410156,30.575721740722656, -16.63126564025879
430,3923707331,0.4845364,0.49609667,-0.61216426,0.37995723,-8.006989479064941,0.9422345757484436,-0.6480809450149536,202.77151489257812,36.052940368652344, -25.102691650390625
431,3923723998,0.4883373,0.49933645,-0.6033988,0.38483715,-13.243464469909668,12.591236114501953,6.2917704582214355,41.311458587646484,53.00041580200195, -37.03410720825195
432,3923740665,0.5067575,0.48871556,-0.60375774,0.37393913,-13.768503189086914,4.483554363250732,4.856596946716309,-145.00315856933594,65.45992279052734, -39.54188919067383
433,3923757332,0.5211334,0.48016953,-0.6022493,0.36763194,-11.47336196899414,-3.7474169731140137,1.3731560707092285,-100.31732177734375,65.2293472290039, -27.951744079589844
434,3923773999,0.5232509,0.48257133,-0.5955735,0.3723248,-8.658940315246582,-5.724756240844727,-5.813699245452881,37.98166275024414,41.68739318847656, -20.062578201293945
435,3923790666,0.51544505,0.49283102,-0.588442,0.38101202,-9.997014999389648,-3.96087384223938,-9.3458833694458,116.6826400756836,-3.917294979095459, -14.131088256835938
436,3923807333,0.5008466,0.5067616,-0.5858115,0.38622582,-10.845759391784668,-6.630465984344482,-16.567968368530273,126.8434829711914,-68.39594268798828, -8.350095748901367
437,3923824000,0.4783384,0.52540463,-0.5870561,0.3879531,-2.4507110118865967,-1.3988115787506104,-5.7377610206604,146.2620391845703,-137.7408447265625, -5.021341800689697
438,3923840667,0.45692056,0.5372174,-0.5942199,0.38668346,4.14602518081665,-4.607434272766113,7.0643839836120605,91.95051574707031,-145.25601196289062, 31.11475372314453
439,3923857334,0.4374058,0.54486954,-0.60374373,0.38378012,4.233609199523926,-1.2192806005477905,3.8275694847106934,58.901248931884766,-140.1177520751953, 46.510406494140625
440,3923874001,0.42079616,0.54895073,-0.6140244,0.38020757,14.394915580749512,3.26511812210083,3.6515839099884033,32.50125503540039,-123.57290649414062, 54.46524429321289
441,3923890668,0.40773943,0.55274844,-0.62046725,0.3784685,14.08971118927002,4.685974597930908,-1.5791043043136597,36.068721771240234,-90.05379486083984, 37.28730392456055
442,3923907335,0.39708626,0.5577827,-0.6221655,0.3796196,13.198953628540039,3.0685172080993652,-2.6282079219818115,55.10726547241211,-58.83815383911133, 15.961526870727539
443,3923924002,0.3926519,0.5604792,-0.62167776,0.3810571,10.183788299560547,0.2517951726913452,-2.8717172145843506,31.82893180847168,-19.137582778930664, 2.2195751667022705
444,3923940669,0.39705792,0.55878174,-0.62001425,0.38169417,7.786914825439453,-1.4876453876495361,-2.75264835357666,-14.438102722167969,30.219758987426758, -8.842025756835938
445,3923957336,0.40916488,0.5533243,-0.616259,0.3829378,6.430471420288086,-2.2440555095672607,-4.033613681793213,-46.22401809692383,80.95352172851562, -19.444334030151367
446,3923974003,0.42902043,0.54269767,-0.61119634,0.3845257,7.36250638961792,0.27061209082603455,-0.1755777895450592,-85.3639907836914,132.4400634765625, -22.012557983398438
447,3923990670,0.45277074,0.52954173,-0.60628796,0.38340482,6.026379585266113,2.7217867374420166,1.4894757270812988,-119.1507797241211,144.87583923339844, -29.09635353088379
448,3924007337,0.4825639,0.5109925,-0.6024017,0.3783269,5.394797325134277,4.064560890197754,5.658864974975586,-177.14048767089844,166.62013244628906, -31.086530685424805
449,3924024004,0.51445764,0.48673692,-0.6023381,0.36825174,-3.217107057571411,2.6528468132019043,3.0750303268432617,-234.1058807373047,159.73416137695312, -15.992476463317871
450,3924040671,0.53417635,0.47113407,-0.60191953,0.3610834,-10.24388599395752,-6.572004795074463,-6.213586807250977,-149.76719665527344,98.29864501953125, -11.8688383102417
451,3924057338,0.53770417,0.46922094,-0.59951496,0.36233643,-8.450770378112793,-8.003844261169434,-13.762953758239746,-7.267515182495117,32.13375473022461, -4.006801605224609
452,3924074005,0.5343848,0.47225055,-0.60073286,0.3612929,-8.745038986206055,-1.5474448204040527,-6.876720905303955,14.572393417358398,-28.7440242767334, -4.329676151275635
453,3924090672,0.52805555,0.47851515,-0.60132927,0.3613638,-12.752904891967773,-2.5095505714416504,-2.3491477966308594,42.35740280151367,-43.07340621948242, -8.158649444580078
454,3924107339,0.51894796,0.48773727,-0.5982736,0.3672527,-13.833552360534668,0.05331970751285553,4.114468097686768,95.35319519042969,-29.39333724975586, -4.4193196296691895
455,3924124006,0.51295584,0.49273783,-0.5986718,0.36834475,-12.402888298034668,1.7659106254577637,3.332899570465088,41.39229202270508,-34.3955192565918, -0.4214484393596649
456,3924140673,0.5092366,0.49384564,-0.60411155,0.3631031,-10.009112358093262,0.08895572274923325,0.19614830613136292,-18.871442794799805,-54.462860107421875, 4.6670026779174805
457,3924157340,0.50328803,0.49664816,-0.6088249,0.35968602,-10.774678230285645,-3.5323636531829834,1.5754125118255615,4.02038049697876,-59.17441177368164, 7.142813205718994
458,3924174007,0.49141994,0.5046768,-0.6115276,0.3603357,-8.912652015686035,-5.940914154052734,-9.683123588562012,64.30780792236328,-76.02589416503906, 7.037508964538574
459,3924190674,0.46749684,0.5213862,-0.6092675,0.37201706,4.334657192230225,3.1829211711883545,1.725311517715454,194.13296508789062,-92.869873046875, 20.29727554321289
460,3924207341,0.45213133,0.5288176,-0.61451346,0.37189072,7.739593505859375,6.145723819732666,9.101202011108398,64.96179962158203,-99.86209106445312, 26.30365562438965
461,3924224008,0.44048795,0.53212434,-0.6233348,0.36642593,7.5209879875183105,2.9702632427215576,5.135265827178955,6.949690341949463,-104.46578979492188, 30.789878845214844
462,3924240675,0.42885154,0.53693354,-0.62856275,0.36427724,17.62381935119629,3.9321038722991943,2.4075119495391846,34.76221466064453,-85.4301986694336, 21.311893463134766
463,3924257342,0.4180634,0.54374874,-0.6288349,0.36623362,16.237018585205078,3.779012441635132,1.4966990947723389,67.72968292236328,-57.26917266845703, 4.431663990020752
464,3924274009,0.41482097,0.5473841,-0.6279833,0.3659664,12.049076080322266,2.255549192428589,-1.6828389167785645,23.62383460998535,-21.924726486206055, -11.309320449829102
465,3924290676,0.4181232,0.5478157,-0.62476015,0.36707765,7.332341194152832,-1.1131564378738403,-3.3173654079437256,1.790494441986084,26.27726173400879, -18.883773803710938
466,3924307343,0.4272501,0.5448994,-0.6204473,0.3682219,7.293076515197754,-1.1071388721466064,-0.8970314860343933,-26.890396118164062,63.03647994995117, -23.25490379333496
467,3924324010,0.442564,0.5379007,-0.6164388,0.36715564,9.294195175170898,-0.5978660583496094,1.9528928995132446,-72.27056884765625,90.55960845947266, -26.90461540222168
468,3924340677,0.46714017,0.52337813,-0.6133944,0.362771,7.152992248535156,0.36592015624046326,7.261542320251465,-145.93179321289062,133.48895263671875, -24.9759578704834
469,3924357344,0.4901067,0.50709516,-0.61478096,0.35312098,-1.6148234605789185,-0.6301584243774414,1.1959500312805176,-179.04322814941406,97.66706848144531, -14.540754318237305
470,3924374011,0.50501746,0.4978486,-0.6123021,0.34955746,-6.461607933044434,-4.386332988739014,-3.7552616596221924,-92.110107421875,80.78780364990234, -17.74460220336914
471,3924390678,0.51173556,0.49438664,-0.6084959,0.35134232,-8.629859924316406,-4.484472274780273,-9.014298439025879,-18.294466018676758,55.505531311035156, -8.494297981262207
472,3924407345,0.51304835,0.49223652,-0.6088776,0.35178518,-8.114758491516113,-1.344301462173462,-6.411881446838379,-11.06989574432373,10.7745361328125, 8.486936569213867
473,3924424012,0.51187027,0.49032795,-0.61444926,0.3464388,-9.54574966430664,-1.656172752380371,-6.726778984069824,-38.60047149658203,-37.883907318115234, 10.631464958190918
474,3924440679,0.5056925,0.49239236,-0.6211228,0.3406339,-9.551006317138672,0.2956252098083496,-3.063710927963257,-12.351228713989258,-73.63131713867188, 7.842387676239014
475,3924457346,0.49613944,0.4970509,-0.6295906,0.3322678,-8.939101219177246,-0.1244586631655693,-0.15981896221637726,-7.060091495513916,-108.88420867919922, 1.8768815994262695
476,3924474013,0.48174334,0.5056181,-0.63674164,0.32685494,-8.71795654296875,-2.296560764312744,4.019219398498535,38.609676361083984,-124.13411712646484, 1.6178650856018066
477,3924490680,0.46435258,0.51836866,-0.637903,0.32977346,-9.35103702545166,-0.7197880148887634,10.903542518615723,112.81005859375,-97.89787292480469, -3.237520694732666
478,3924507347,0.44970718,0.53088856,-0.6328918,0.33966002,-13.023667335510254,2.038424491882324,8.47269058227539,146.86358642578125,-41.02046203613281, -8.200310707092285
479,3924524014,0.42937204,0.545877,-0.6297931,0.34787744,-7.9767961502075195,2.240723133087158,-23.369468688964844,163.56341552734375,-83.66253662109375, -3.7517592906951904
480,3924540681,0.40988275,0.5575237,-0.6324431,0.34810847,13.554899215698242,2.802832841873169,4.1750640869140625,102.14447784423828,-118.22299194335938, 6.738071918487549
481,3924557348,0.39470667,0.56514937,-0.6353649,0.3480295,0.7458791136741638,-1.6322190761566162,7.389679431915283,72.31072235107422,-92.09984588623047, 14.128944396972656
482,3924574015,0.38067317,0.5713748,-0.6388371,0.34713972,14.931066513061523,6.1628499031066895,4.798660755157471,59.21271896362305,-88.6264419555664, 17.402170181274414
483,3924590682,0.37352368,0.5738311,-0.6419613,0.34508514,13.98578929901123,5.485707759857178,-1.9137263298034668,18.081735610961914,-53.397071838378906, 13.28011703491211
484,3924607349,0.3673237,0.5780582,-0.6404766,0.34743616,13.454540252685547,2.4828755855560303,-0.5082401037216187,49.31642150878906,-24.333208084106445, -3.5120508670806885
485,3924624016,0.36507887,0.5808554,-0.63715804,0.3512181,13.884688377380371,1.0499526262283325,0.8611779808998108,40.69432067871094,6.651576995849609, -10.272358894348145
486,3924640683,0.37122256,0.57894224,-0.6347918,0.35222042,11.80087947845459,-1.3053410053253174,0.3660077154636383,-19.09323501586914,41.079647064208984, -13.043444633483887
487,3924657350,0.38420776,0.5736178,-0.63164884,0.35265726,8.050905227661133,-0.6217970848083496,0.5434026122093201,-55.63307189941406,78.78314208984375, -19.305627822875977
488,3924674017,0.40168506,0.56673914,-0.62689465,0.3527874,4.6677565574646,0.10226386040449142,0.19451133906841278,-74.88764953613281,105.0167236328125, -30.65636444091797
489,3924690684,0.42513114,0.5564324,-0.61955696,0.35467693,1.71669602394104,0.5523422956466675,4.800686359405518,-93.76995086669922,153.02935791015625, -35.597434997558594
490,3924707351,0.44727677,0.543397,-0.6171197,0.35188988,-5.225279808044434,-3.342094659805298,-3.105778217315674,-128.64480590820312,121.80937957763672, -15.741130828857422
491,3924724018,0.4600735,0.5357173,-0.6130371,0.3542952,-8.662619590759277,-6.51961088180542,-9.331999778747559,-51.250770568847656,93.82379150390625, -6.142801761627197
492,3924740685,0.4666514,0.53026706,-0.61046386,0.35831165,-7.497818470001221,-1.7090555429458618,-7.2328362464904785,-18.235889434814453,63.728614807128906, 10.094425201416016
493,3924757352,0.47564265,0.52092254,-0.6148149,0.35271317,-8.271537780761719,2.065809488296509,-1.6108242273330688,-96.97467041015625,26.477611541748047, 14.855284690856934
494,3924774019,0.48145235,0.5125922,-0.6221999,0.34397706,-10.668573379516602,-2.8977274894714355,-1.3685089349746704,-102.88633728027344,-10.465614318847656, 18.962095260620117
495,3924790686,0.47837114,0.5110884,-0.62689096,0.34199083,-10.049211502075195,-5.012595176696777,3.3820455074310303,-13.723522186279297,-31.799821853637695, 23.578550338745117
496,3924807353,0.4686378,0.5150063,-0.6292556,0.34523103,-9.27322769165039,-1.2421876192092896,2.5150318145751953,55.46743392944336,-47.211605072021484, 24.754610061645508
497,3924824020,0.4584382,0.5201826,-0.63082,0.3482967,-10.241100311279297,3.1879513263702393,3.288834810256958,62.31351852416992,-50.24604415893555, 17.009201049804688
498,3924840687,0.45241433,0.52316725,-0.6334146,0.3469918,-10.919740676879883,4.286213397979736,6.433597087860107,19.062145233154297,-45.764671325683594, 6.529266357421875
499,3924857354,0.44850132,0.5237853,-0.6389464,0.34094435,-12.216573715209961,1.4347106218338013,-12.707685470581055,-23.529157638549805,-57.19606399536133, 7.744355201721191
500,3924874021,0.42923835,0.5348515,-0.64161843,0.34353194,4.03611421585083,1.7928675413131714,-13.101205825805664,108.59815979003906,-108.73526763916016, 14.198152542114258
501,3924890688,0.41209024,0.54296213,-0.6453677,0.34478164,6.50519323348999,-0.17246922850608826,15.228073120117188,83.64564514160156,-100.22747039794922, 22.276208877563477
502,3924907355,0.3932056,0.5518695,-0.6453277,0.3526778,10.56019115447998,-0.5501089096069336,4.023538112640381,130.89051818847656,-74.79379272460938, 27.524229049682617
503,3924924022,0.3865609,0.5512281,-0.6520885,0.34856683,24.251163482666016,5.869377136230469,5.479175567626953,-11.137431144714355,-61.525299072265625, 33.5403938293457
504,3924940689,0.38371697,0.551135,-0.6550205,0.34635222,15.020478248596191,0.4822971522808075,-0.9832763671875,-6.353880882263184,-28.9079532623291, 12.670694351196289
505,3924957356,0.3815401,0.55346376,-0.65323806,0.34840345,15.066719055175781,4.994551181793213,0.24665701389312744,27.953306198120117,-3.231205701828003, -6.416628360748291
506,3924974023,0.38629752,0.5531781,-0.649721,0.35018694,11.616762161254883,3.6348302364349365,-0.9697005152702332,-2.297678232192993,37.51520538330078, -18.44813346862793
507,3924990690,0.39640084,0.5509522,-0.6442963,0.35242116,6.9047393798828125,0.6893600225448608,-0.9231340289115906,-21.150638580322266,72.74434661865234, -28.621870040893555
508,3925007357,0.4112444,0.5461614,-0.6381329,0.35407925,5.899251937866211,-0.4123111069202423,2.1921441555023193,-46.86430740356445,99.7542953491211, -33.11379623413086
509,3925024024,0.43091232,0.53788173,-0.63251275,0.3534479,3.596465587615967,2.2132675647735596,4.689340591430664,-86.22312927246094,119.18083190917969, -34.028934478759766
510,3925040691,0.45338607,0.52808577,-0.6250577,0.35336903,-1.615305781364441,1.829967975616455,6.819131851196289,-94.22460174560547,142.40834045410156, -39.38473129272461
511,3925057358,0.46906874,0.5176586,-0.6231793,0.3516416,-9.691112518310547,-5.810075759887695,-4.897731781005859,-92.15962982177734,91.23612976074219, -5.05422306060791
512,3925074025,0.4652924,0.5213895,-0.61747503,0.36108246,-8.105499267578125,-6.590744972229004,-6.433160305023193,79.82366943359375,26.00391960144043, 3.5637052059173584
513,3925090692,0.4561413,0.5289542,-0.61272305,0.36974722,-8.162817001342773,2.7128117084503174,0.7978015542030334,105.65544128417969,-11.854452133178711, 1.4018197059631348
514,3925107359,0.4546122,0.5311635,-0.61120725,0.37097043,-11.26771068572998,6.269813537597656,6.166687488555908,21.56569480895996,-3.2588119506835938, -6.894567012786865
515,3925124026,0.46284986,0.5274672,-0.6084597,0.3705745,-14.997526168823242,4.71449089050293,9.110991477966309,-36.20248794555664,50.734188079833984, -16.375347137451172
516,3925140693,0.4767961,0.5196423,-0.6040132,0.37122166,-13.317767143249512,0.825337290763855,8.7221097946167,-61.33964157104492,94.22232055664062, -16.371843338012695
517,3925157360,0.48939928,0.51204014,-0.5989407,0.37359524,-11.059877395629883,0.17857299745082855,3.054579734802246,-47.04365539550781,96.18395233154297, -10.439393043518066
518,3925174027,0.49658915,0.50949377,-0.595915,0.37242544,-8.479742050170898,0.004122454673051834,-11.078205108642578,-30.83401107788086,41.56975173950195, -22.076393127441406
519,3925190694,0.48613152,0.5169339,-0.6010514,0.3676859,-5.892838478088379,-16.736600875854492,-43.39409637451172,29.529277801513672,-96.26326751708984, -1.4137049913406372
520,3925207361,0.44840306,0.5436235,-0.59991485,0.3788277,7.779535293579102,3.002289295196533,4.009092330932617,272.2447814941406,-178.94630432128906, 18.262453079223633
521,3925224028,0.42678154,0.55511105,-0.6052338,0.37868363,0.07176503539085388,10.372832298278809,23.064420700073242,101.74893951416016,-135.1649932861328, 28.386137008666992
522,3925240695,0.41413483,0.55616665,-0.6233621,0.36137328,10.890983581542969,0.07140898704528809,-7.467811107635498,-67.815673828125,-174.45315551757812, 47.23090362548828
523,3925257362,0.39488167,0.5644325,-0.62914795,0.36007965,7.707641124725342,-5.61226224899292,-0.5143845081329346,77.3042984008789,-124.19327545166016, 31.133399963378906
524,3925274029,0.37771112,0.56862277,-0.6351483,0.361371,11.70058536529541,1.226933479309082,1.4230300188064575,68.77631378173828,-95.71837615966797, 51.29764175415039
525,3925290696,0.37427315,0.56627023,-0.6437146,0.3533966,10.679638862609863,0.8017114400863647,-2.2898943424224854,-48.726505279541016,-62.56983184814453, 31.74836540222168
526,3925307363,0.37394536,0.5648591,-0.6462202,0.35142398,8.075716018676758,-0.4928663969039917,-5.912459373474121,-17.117197036743164,-12.207191467285156, 11.896080017089844
527,3925324030,0.37764478,0.56354064,-0.64491266,0.35198593,11.709382057189941,0.9986551403999329,-2.966794729232788,-12.047211647033691,25.161073684692383, -6.554846286773682
528,3925340697,0.38747978,0.55971974,-0.6421451,0.35245287,14.641745567321777,1.4935904741287231,1.0098317861557007,-39.1976203918457,61.76869201660156, -16.18284797668457
529,3925357364,0.40525058,0.54957193,-0.6418355,0.34898394,14.556975364685059,2.577606201171875,6.206051826477051,-109.92048645019531,90.22869873046875, -8.472494125366211
530,3925374031,0.42813236,0.53506607,-0.6419247,0.34400576,9.20918083190918,3.627621650695801,7.768558502197266,-148.98184204101562,116.08954620361328, -4.169618606567383
531,3925390698,0.4535286,0.51858276,-0.64394987,0.33273453,-0.3777572512626648,6.564187049865723,9.254820823669434,-196.39865112304688,102.71338653564453, -12.76218318939209
532,3925407365,0.46802604,0.51171553,-0.6412211,0.3285335,-11.99715518951416,-4.733370304107666,-4.867031097412109,-85.30756378173828,72.25605010986328, -25.195383071899414
533,3925424032,0.466315,0.52146983,-0.62402964,0.34814733,-14.2350492477417,-7.827727794647217,-9.568414688110352,162.8495635986328,93.91124725341797, -36.22537612915039
534,3925440699,0.46578208,0.5302442,-0.603808,0.3705459,-8.058969497680664,2.6287081241607666,5.42093563079834,174.63502502441406,121.47872924804688, -36.943580627441406
535,3925457366,0.4773127,0.5283461,-0.5926884,0.37648845,-10.948840141296387,2.309154987335205,-0.15630729496479034,4.9603400230407715,109.54029083251953, -42.787742614746094
536,3925474033,0.48991698,0.5216886,-0.59014785,0.37356162,-9.209672927856445,-4.494723320007324,-3.5244343280792236,-72.91934204101562,65.97430419921875, -24.04645538330078
537,3925490700,0.4939381,0.51653343,-0.59443915,0.36859262,-8.112791061401367,-8.419278144836426,-12.792128562927246,-62.926876068115234,-2.8590328693389893, 9.405073165893555
538,3925507367,0.48344547,0.520676,-0.59929365,0.36881474,-10.326587677001953,-6.643575191497803,-11.02132797241211,39.93077850341797,-68.76941680908203, 27.596214294433594
539,3925524034,0.4684182,0.5291063,-0.6040767,0.368405,-9.815488815307617,0.0670209750533104,-0.355954110622406,67.94834899902344,-99.96086120605469, 18.905555725097656
540,3925540701,0.45556635,0.53756046,-0.60601074,0.36910564,-13.73593807220459,0.8820515275001526,1.3898383378982544,71.93162536621094,-77.70063018798828, 6.522512912750244
541,3925557368,0.44429332,0.54541117,-0.6078611,0.36828682,-5.002741813659668,8.622167587280273,-9.241795539855957,58.08317947387695,-74.8839340209961, 0.0006851614452898502
542,3925574035,0.43521264,0.5489866,-0.6143372,0.36303386,8.311822891235352,-2.789292573928833,-0.4795076549053192,6.566650867462158,-85.37396240234375, 16.355422973632812
543,3925590702,0.42215624,0.5577394,-0.6119646,0.36906695,1.8114267587661743,-2.7774155139923096,9.29029655456543,106.82089233398438,-46.116722106933594, 4.687470436096191
544,3925607369,0.4158812,0.55753005,-0.61808825,0.36629233,19.484210968017578,4.958010673522949,8.637259483337402,-3.8053178787231445,-53.585086822509766, 32.122840881347656
545,3925624036,0.41316408,0.55719936,-0.62256986,0.3622584,20.345518112182617,2.8489532470703125,2.881225824356079,-18.951370239257812,-38.7731819152832, 13.914205551147461
546,3925640703,0.40970144,0.5587921,-0.62284255,0.36326766,14.977957725524902,7.163414478302002,-0.5156657099723816,21.46849822998047,-15.797248840332031, 5.812182903289795
547,3925657370,0.40903002,0.56032276,-0.62048715,0.36568952,11.327609062194824,6.228122711181641,-0.46367087960243225,23.22834587097168,8.985718727111816, -6.821959018707275
548,3925674037,0.41286638,0.5597899,-0.6162402,0.36935768,7.043954372406006,2.5503199100494385,-0.9087179899215698,10.168607711791992,43.41976547241211, -12.978334426879883
549,3925690704,0.42360118,0.5559508,-0.6107275,0.37214634,3.810671091079712,-1.0603842735290527,-2.3879308700561523,-26.274974822998047,81.21761322021484, -23.805984497070312
550,3925707371,0.4416026,0.5477321,-0.6045664,0.3734655,2.9827816486358643,-2.562988758087158,1.429531455039978,-71.3412094116211,119.2573471069336, -30.822664260864258
551,3925724038,0.46831688,0.5301828,-0.6020528,0.37029463,-0.6542822122573853,-3.2021737098693848,1.4387797117233276,-160.5524139404297,151.41085815429688, -14.413176536560059
552,3925740705,0.4891389,0.51516235,-0.6001924,0.3675867,-4.381162166595459,-5.361876010894775,-4.537898063659668,-130.6811065673828,120.13910675048828, -6.127662181854248
553,3925757372,0.5006385,0.50631565,-0.5976696,0.36850628,-8.203933715820312,-6.090539455413818,-11.361541748046875,-60.269161224365234,81.32635498046875, 1.6519572734832764
554,3925774039,0.50630414,0.4991379,-0.6009329,0.36523584,-8.809340476989746,-1.4392157793045044,-12.092355728149414,-66.13103485107422,19.029626846313477, 15.142010688781738
555,3925790706,0.50673264,0.49435717,-0.6102731,0.3555275,-10.223044395446777,-0.7780028581619263,-9.517008781433105,-81.70919036865234,-51.46403121948242, 16.822240829467773
556,3925807373,0.49798378,0.4964798,-0.62116367,0.345942,-9.408927917480469,-3.5004515647888184,-6.158384799957275,-29.764707565307617,-111.502685546875, 16.002111434936523
557,3925824040,0.47965246,0.50628275,-0.63038903,0.34091198,-8.520758628845215,-1.4889583587646484,-0.3322215676307678,52.63986587524414,-149.23143005371094, 15.83503532409668
558,3925840707,0.4571883,0.5205171,-0.63694674,0.33814186,-7.149059295654297,3.1226143836975098,2.045889139175415,97.6786880493164,-160.83224487304688, 4.450167179107666
559,3925857374,0.43786773,0.5329046,-0.6428172,0.33327284,-8.581876754760742,6.383840084075928,9.365545272827148,73.04052734375,-148.1473846435547, -3.7532496452331543
560,3925874041,0.4267921,0.54058164,-0.6479631,0.32521367,-12.428340911865234,3.703295946121216,9.510990142822266,16.244911193847656,-110.61457061767578, -13.905028343200684
561,3925890708,0.4095497,0.55132097,-0.6470671,0.33108738,-9.727117538452148,-1.7693936824798584,-0.7959062457084656,123.77713012695312,-75.55472564697266, 4.7646684646606445
562,3925907375,0.38746408,0.5654629,-0.6434745,0.3406815,8.490544319152832,2.736563205718994,-5.64251708984375,174.4011688232422,-83.02886962890625, 0.8366913199424744
563,3925924042,0.370472,0.5757585,-0.63984525,0.3490711,7.698146343231201,1.7905821800231934,9.383333206176758,139.1197509765625,-56.053993225097656, 2.60056734085083
564,3925940709,0.361707,0.577792,-0.6435721,0.348051,10.664843559265137,-2.699058771133423,8.60911750793457,26.477436065673828,-56.39124298095703, 24.39250373840332
565,3925957376,0.3575561,0.57663965,-0.6471071,0.34769666,16.383943557739258,-1.7575693130493164,2.454167127609253,3.621936559677124,-25.615802764892578, 28.272611618041992
566,3925974043,0.35715762,0.5755029,-0.6476043,0.3490614,9.594419479370117,3.080641031265259,-2.4725732803344727,3.6867778301239014,5.022557735443115, 11.385589599609375
567,3925990710,0.35795507,0.575789,-0.6449913,0.35259262,10.979942321777344,5.127051830291748,-2.267890214920044,19.58878517150879,23.073366165161133, -4.716837406158447
568,3926007377,0.36258098,0.5744706,-0.64261574,0.35434997,11.746684074401855,2.276379108428955,-1.0293066501617432,-7.914198398590088,36.241729736328125, -10.165693283081055
569,3926024044,0.3702747,0.57271445,-0.6391405,0.35551995,11.273975372314453,2.6836466789245605,-1.4970077276229858,-21.018156051635742,51.15412902832031, -21.451528549194336
570,3926040711,0.3833009,0.56798893,-0.63626575,0.3544502,8.216289520263672,2.3849425315856934,-1.0177028179168701,-60.86772155761719,71.39258575439453, -24.710813522338867
571,3926057378,0.40353668,0.5588607,-0.6321633,0.35383955,7.555613994598389,3.67154860496521,3.7882039546966553,-95.62080383300781,118.62459564208984, -26.566043853759766
572,3926074045,0.4281877,0.5448945,-0.6324397,0.34607142,0.29751983284950256,2.024500846862793,1.420483946800232,-167.7659912109375,109.74716186523438, -19.265464782714844
573,3926090712,0.44657215,0.5353484,-0.6293438,0.34336835,-3.7887091636657715,-2.8716695308685303,-2.5620296001434326,-101.21827697753906,100.85041046142578, -21.290557861328125
574,3926107379,0.45706266,0.5310553,-0.6242932,0.34544474,-7.588875770568848,-5.36501932144165,-9.571407318115234,-30.761547088623047,78.02696228027344, -18.00943374633789
575,3926124046,0.46066898,0.52850366,-0.6241725,0.34478533,-5.777326583862305,-4.778944492340088,-10.737543106079102,-23.65959358215332,19.240880966186523, 0.12120609730482101
576,3926140713,0.45990545,0.52657294,-0.63192046,0.33449155,-7.256133556365967,-3.2200987339019775,-10.798772811889648,-65.85948944091797,-60.53609848022461, 5.762041091918945
577,3926157380,0.45427406,0.5262178,-0.6452535,0.31682485,-8.571272850036621,-4.1923651695251465,-5.607112407684326,-88.17771911621094,-129.29031372070312, 6.947027206420898
578,3926174047,0.44099987,0.53215057,-0.65575635,0.30383992,-9.495881080627441,-3.3199684619903564,4.055840492248535,-13.984818458557129,-150.87513732910156, -0.0024334031622856855
579,3926190714,0.4234825,0.5436902,-0.6587669,0.30181098,-10.891597747802734,1.1546130180358887,10.11552906036377,83.5752182006836,-118.927978515625, -10.677888870239258
580,3926207381,0.40738663,0.55536467,-0.654926,0.31093106,-12.526066780090332,2.625474214553833,16.24908447265625,143.4011688232422,-51.28888702392578, -7.346490859985352
581,3926224048,0.4011184,0.5598407,-0.651987,0.31716803,-13.068180084228516,1.627034306526184,12.832228660583496,70.837646484375,-5.44621467590332, -0.48266711831092834
582,3926240715,0.39536655,0.5628961,-0.6525106,0.3179048,-11.275382041931152,-2.3129186630249023,-25.759199142456055,32.75300598144531,-30.906923294067383, 2.9756853580474854
583,3926257382,0.37961882,0.57266116,-0.6529376,0.31878075,14.241140365600586,0.690630316734314,0.16903002560138702,90.4452133178711,-88.79086303710938, -5.337784290313721
584,3926274049,0.35880706,0.5824572,-0.65029615,0.33032727,3.7869985103607178,-6.236410140991211,11.95555305480957,165.12347412109375,-61.81450271606445, 21.384071350097656
585,3926290716,0.34230483,0.5889574,-0.65068793,0.33550283,12.942935943603516,7.088528633117676,4.139238357543945,104.31355285644531,-68.43354797363281, 22.599563598632812
586,3926307383,0.33765215,0.5887908,-0.6560031,0.3301161,20.000797271728516,5.761985778808594,2.4271066188812256,-17.896467208862305,-54.71173095703125, 20.362394332885742
587,3926324050,0.33329025,0.59077615,-0.6560801,0.33084783,15.851675033569336,2.36739182472229,1.2842979431152344,25.475534439086914,-21.733755111694336, 3.1567327976226807
588,3926340717,0.33158165,0.5926127,-0.65386015,0.33366278,16.886219024658203,3.868396759033203,3.053828716278076,29.011228561401367,4.030344009399414, -6.689391613006592
589,3926357384,0.33803165,0.59078825,-0.6523224,0.33343583,13.186029434204102,1.9137005805969238,2.9908840656280518,-27.769508361816406,34.835411071777344, -12.996172904968262
590,3926374051,0.34839243,0.58802205,-0.6492373,0.33368275,7.551749229431152,0.5812312960624695,1.9860848188400269,-40.14711380004883,59.80777359008789, -22.886083602905273
591,3926390718,0.3638113,0.58346635,-0.64464056,0.33413634,3.4404661655426025,0.6720721125602722,3.1075003147125244,-60.48562240600586,90.828857421875, -32.132347106933594
592,3926407385,0.38306302,0.57826334,-0.63602006,0.33816093,-0.9840614199638367,0.7716827392578125,5.989433765411377,-52.40320587158203,133.62008666992188, -45.293296813964844
593,3926424052,0.3999184,0.5690441,-0.6356543,0.33495936,-9.212374687194824,-8.083921432495117,-7.007827281951904,-104.23835754394531,81.91544342041016, -8.396044731140137
594,3926440719,0.3990387,0.5705312,-0.63028044,0.34352463,-8.108954429626465,-8.747505187988281,-8.642803192138672,57.470767974853516,39.9251823425293, -1.8036390542984009
595,3926457386,0.39888108,0.57004696,-0.6280812,0.3485033,-8.022265434265137,2.9329798221588135,6.339600563049316,26.106185913085938,25.315160751342773, 7.433194160461426
596,3926474053,0.410204,0.56195664,-0.6318264,0.34166187,-11.973551750183105,5.586262226104736,9.034177780151367,-105.01888275146484,30.4553279876709, 3.7255306243896484
597,3926490720,0.42639247,0.55084777,-0.6323794,0.33889917,-12.96649169921875,-0.3285507559776306,9.422877311706543,-107.0819320678711,83.38560485839844, 4.703239440917969
598,3926507387,0.4430947,0.5383231,-0.62953967,0.34286323,-11.159659385681152,-0.47450363636016846,12.680845260620117,-76.02591705322266,124.28377532958984, 16.508821487426758
599,3926524054,0.456006,0.52730685,-0.62777615,0.3462705,-8.617968559265137,0.07832875847816467,-3.8291714191436768,-62.33876037597656,98.79383850097656, 21.180570602416992
600,3926540721,0.46262243,0.52231157,-0.62813497,0.3444093,-7.653756618499756,2.777540922164917,-8.5552339553833,-48.45195007324219,31.76628875732422, 1.3515788316726685
601,3926557388,0.45930606,0.5239918,-0.6322026,0.3388075,-9.192378044128418,-3.2662222385406494,-14.57616138458252,-16.501384735107422,-51.82368087768555, -2.4615347385406494
602,3926574055,0.43777755,0.5361577,-0.6382899,0.3368558,-1.4677503108978271,-3.629462957382202,-21.55366325378418,93.34740447998047,-148.13134765625, 13.1119966506958
603,3926590722,0.41214356,0.55018604,-0.64264864,0.33828357,8.812602043151855,8.172211647033691,9.607118606567383,132.87034606933594,-152.19224548339844, 18.139179229736328
604,3926607389,0.3908451,0.55763,-0.6518176,0.3338005,5.9112372398376465,4.9800944328308105,-2.472235679626465,60.566226959228516,-154.09060668945312, 38.80264663696289
605,3926624056,0.3728766,0.5640601,-0.6588822,0.3296565,12.71575927734375,1.7789446115493774,-0.5288662910461426,51.462860107421875,-129.89581298828125, 28.664941787719727
606,3926640723,0.36084497,0.5660653,-0.66571766,0.3258544,14.382694244384766,-1.88910710811615,1.5897722244262695,19.19113540649414,-91.22627258300781, 35.2711296081543
607,3926657390,0.35690135,0.56386334,-0.67344564,0.318042,16.554967880249023,-0.8147206902503967,2.807204008102417,-43.09305953979492,-62.85890197753906, 29.881046295166016
608,3926674057,0.35806772,0.56185293,-0.67668545,0.31337804,11.83642292022705,0.7978053092956543,-1.7848232984542847,-38.043190002441406,-16.72136878967285, 8.11883544921875
609,3926690724,0.36258742,0.5624213,-0.67322326,0.31461585,6.425988674163818,1.2368134260177612,-3.2939932346343994,-2.7372567653656006,32.49734878540039, -22.45332908630371
610,3926707391,0.371804,0.5629218,-0.6659358,0.31845,4.318279266357422,-0.6317710876464844,-1.6902967691421509,-0.765224277973175,73.96993255615234, -40.5905647277832
611,3926724058,0.38741612,0.55992705,-0.6584656,0.3206456,3.825105667114258,-1.524307131767273,2.094865083694458,-41.56442642211914,105.03813171386719, -43.51090621948242
612,3926740725,0.40894133,0.55283946,-0.6513243,0.32079953,2.2302987575531006,-0.13404539227485657,4.00012731552124,-85.20929718017578,132.0184783935547, -42.25430679321289
613,3926757392,0.43565384,0.53889525,-0.648436,0.31516427,-3.243452548980713,-0.016427457332611084,4.541112899780273,-159.52186584472656,136.3084259033203, -23.142045974731445
614,3926774059,0.44625175,0.5328662,-0.64681965,0.31390694,-7.575756549835205,-7.587677955627441,-7.616718292236328,-59.319236755371094,59.65980529785156, -5.71080207824707
615,3926790726,0.43834597,0.5406576,-0.6403241,0.3248499,-6.962634563446045,-2.837736129760742,-3.501110315322876,115.60810089111328,7.553536891937256, -7.866661071777344
616,3926807393,0.42826107,0.5515299,-0.6308797,0.3382282,-9.868152618408203,2.4553945064544678,6.5715155601501465,150.28094482421875,9.22098159790039, -20.22735023498535
617,3926824060,0.4244303,0.5598384,-0.61484706,0.35833365,-16.329721450805664,3.5549840927124023,13.296876907348633,163.54818725585938,87.18162536621094, -28.718923568725586
618,3926840727,0.43265286,0.5584018,-0.5997836,0.37584376,-12.744300842285156,-0.22622054815292358,13.208587646484375,75.37592315673828,149.176025390625, -20.918766021728516
619,3926857394,0.4496716,0.54737455,-0.5925354,0.38350827,-8.917741775512695,1.6606460809707642,4.125792503356934,-47.72145462036133,148.97894287109375, -3.3658761978149414
620,3926874061,0.4707807,0.53163975,-0.59623015,0.37447858,-7.934150218963623,-0.3399008810520172,-10.68661880493164,-174.5446014404297,81.38645935058594, -5.385428428649902
621,3926890728,0.47895843,0.5246798,-0.60225403,0.3641431,-9.003440856933594,-0.43060243129730225,-19.086891174316406,-110.2454833984375,-6.137310028076172, -3.8008828163146973
622,3926907395,0.46344963,0.5331943,-0.6089609,0.36067295,-2.558288335800171,-11.056224822998047,-24.500137329101562,52.82482147216797,-119.807861328125, 16.494802474975586
623,3926924062,0.4364204,0.55472326,-0.60618454,0.36655116,4.052469730377197,17.75237274169922,10.706483840942383,199.1244354248047,-135.12181091308594, -14.737890243530273
624,3926940729,0.42151403,0.5621775,-0.61392474,0.35969266,4.628336429595947,5.754571914672852,1.6020005941390991,31.126497268676758,-129.6230010986328, 15.734720230102539
625,3926957396,0.40453494,0.5699602,-0.62089884,0.3549387,10.414007186889648,-3.365251302719116,1.2868413925170898,50.918827056884766,-128.94515991210938, 22.747215270996094
626,3926974063,0.38633242,0.5769881,-0.62550235,0.35577962,11.275469779968262,-5.554816722869873,5.250008583068848,83.28922271728516,-103.97264099121094, 35.11024475097656
627,3926990730,0.37902516,0.5769467,-0.63333356,0.34980178,12.740541458129883,-0.5463139414787292,0.4134824872016907,-15.949028015136719,-75.73632049560547, 33.390602111816406
628,3927007397,0.3799986,0.573992,-0.63917667,0.3429101,7.307061195373535,-0.2803823947906494,-5.388288497924805,-55.57997131347656,-31.303020477294922, 15.870950698852539
629,3927024064,0.38382873,0.5725088,-0.6387646,0.34189016,7.902146339416504,1.3233497142791748,-5.633265972137451,-22.462505340576172,17.344322204589844, -6.6874566078186035
630,3927040731,0.39431408,0.56795436,-0.6362436,0.34225488,13.316808700561523,2.5303268432617188,-0.7360157370567322,-45.72026443481445,64.85118865966797, -13.460050582885742
631,3927057398,0.4127978,0.55858386,-0.6337927,0.34042498,13.150330543518066,2.255582809448242,3.545393466949463,-99.75923919677734,102.24864196777344, -16.83496856689453
632,3927074065,0.43388477,0.5485266,-0.6288632,0.3396968,7.430152416229248,2.7159504890441895,7.194766044616699,-101.08132934570312,126.19718933105469, -26.29701042175293
633,3927090732,0.45758092,0.5325724,-0.63011694,0.33157107,0.309567928314209,1.7513214349746704,6.709108352661133,-174.9283447265625,104.62367248535156, -5.611706733703613
634,3927107399,0.47246304,0.5220369,-0.6298441,0.32795212,-6.659942150115967,-2.89125657081604,-3.144204616546631,-102.5650863647461,75.20380401611328, -0.4061253070831299
635,3927124066,0.47374526,0.52392495,-0.6224924,0.3370038,-9.781450271606445,-4.323507785797119,-11.514778137207031,57.41175842285156,56.97057342529297, -7.86653470993042
636,3927140733,0.4704621,0.5287582,-0.6150516,0.34755087,-10.35019302368164,0.8059787750244141,-4.668159008026123,90.00080871582031,36.75570297241211, -5.436554431915283
637,3927157400,0.46898827,0.5321266,-0.610551,0.35230517,-12.261409759521484,0.16644036769866943,-3.9740331172943115,47.13981246948242,17.59170150756836, -11.570274353027344
638,3927174067,0.4675244,0.5349974,-0.60935813,0.3519678,-12.262036323547363,-2.401292324066162,-5.03066349029541,16.090335845947266,-10.213814735412598, -13.796656608581543
639,3927190734,0.46372446,0.53835124,-0.6125911,0.3462222,-10.700030326843262,-1.3447823524475098,-4.547029495239258,-7.163504123687744,-55.02621078491211, -11.319570541381836
640,3927207401,0.45678335,0.5417004,-0.6205619,0.3358761,-9.063446044921875,-4.44907283782959,-3.9730074405670166,-26.23257064819336,-100.15483856201172, -0.9672873616218567
641,3927224068,0.44122258,0.5495746,-0.6275052,0.33094957,-8.725303649902344,-7.940391540527344,-1.4569497108459473,45.547584533691406,-123.77967071533203, 12.72130298614502
642,3927240735,0.4156523,0.5644296,-0.62799096,0.3380532,-9.24929141998291,-5.707559585571289,2.8825762271881104,171.11483764648438,-117.69929504394531, 17.25701332092285
643,3927257402,0.3853099,0.584079,-0.62042177,0.35421035,-9.49309253692627,6.217255592346191,6.734434604644775,261.1639099121094,-91.3191146850586, 2.0709805488586426
644,3927274069,0.372577,0.5919319,-0.6233543,0.34961784,-2.8890573978424072,10.26005744934082,-7.423182487487793,45.08528518676758,-98.7096939086914, -3.12557053565979
645,3927290736,0.355367,0.5978744,-0.6278156,0.3494398,6.677212238311768,-0.8179017901420593,1.1581671237945557,73.72298431396484,-99.05165100097656, 33.630741119384766
646,3927307403,0.33958355,0.6037871,-0.6272552,0.35591492,1.684524416923523,-2.16634202003479,4.659820079803467,108.57817077636719,-53.36989974975586, 25.907550811767578
647,3927324070,0.3272711,0.6071162,-0.6286912,0.3592371,15.767328262329102,3.4705910682678223,4.717358589172363,69.65005493164062,-50.00779342651367, 29.4052734375
648,3927340737,0.31892446,0.6099611,-0.63073754,0.35833606,35.87859344482422,3.9525952339172363,5.21176290512085,32.293514251708984,-51.07658386230469, 14.864154815673828
649,3927357404,0.32262006,0.60724825,-0.63191533,0.35755986,10.400726318359375,10.2990083694458,-1.1027415990829468,-27.64478874206543,16.525100708007812, 6.097184181213379
650,3927374071,0.32241264,0.6097105,-0.6255607,0.36466047,-0.2226208597421646,-1.8561220169067383,-10.05084228515625,52.97223663330078,36.306678771972656, -20.480398178100586
651,3927390738,0.34007996,0.60166764,-0.61916006,0.3728038,2.872145175933838,-1.8015176057815552,0.003840286284685135,-40.684608459472656,144.3008270263672, -18.056713104248047
652,3927407405,0.37253693,0.5847166,-0.62129,0.3651322,1.9544862508773804,-3.603685140609741,-7.89354944229126,-211.965576171875,144.70619201660156, -19.7962589263916
653,3927424072,0.39949167,0.5722592,-0.61563206,0.36595514,8.667428970336914,-6.3454718589782715,-6.257588863372803,-122.50495147705078,164.20339965820312, -34.85452651977539
654,3927440739,0.4203579,0.56122166,-0.60849184,0.3715741,-1.3217315673828125,-3.43635630607605,-5.135162830352783,-70.6541519165039,157.86392211914062, -18.383975982666016
655,3927457406,0.44006073,0.54307103,-0.61728334,0.36108458,-4.976821422576904,-5.624468803405762,-14.864578247070312,-194.87001037597656,63.13654327392578, 29.181358337402344
656,3927474073,0.4411035,0.5341699,-0.631212,0.34880027,-4.591395854949951,-2.636192798614502,-21.333675384521484,-117.604248046875,-60.77336502075195, 49.86671447753906
657,3927490740,0.42436537,0.53805846,-0.64786863,0.33267608,-5.054366111755371,0.22530442476272583,-17.575586318969727,-36.76645278930664,-190.338623046875, 35.34648895263672
658,3927507407,0.39574692,0.54984766,-0.66637444,0.31144378,0.6228498220443726,3.086361885070801,-7.9862260818481445,3.233119487762451,-285.1431884765625, 19.298471450805664
659,3927524074,0.36140308,0.56641066,-0.68054765,0.2922704,-1.9677164554595947,5.353628158569336,5.919426918029785,56.58500671386719,-301.88641357421875, -0.9876723885536194
660,3927540741,0.3302076,0.5842478,-0.68555146,0.28219992,-10.40343189239502,9.026732444763184,17.78748321533203,108.58235931396484,-231.62762451171875, -26.273191452026367
661,3927557408,0.3096649,0.597525,-0.6844732,0.28030017,-12.846183776855469,10.403959274291992,31.521116256713867,105.84671783447266,-126.20918273925781, -31.129980087280273
662,3927574075,0.309506,0.6019504,-0.68138415,0.2785274,-20.719646453857422,2.6302618980407715,25.857257843017578,7.870393753051758,-8.96780776977539, -36.51384735107422
663,3927590742,0.31324226,0.6023154,-0.67618203,0.2861354,-13.474685668945312,-7.020188808441162,-17.376131057739258,31.127628326416016,60.1557731628418, -13.697453498840332
664,3927607409,0.29510328,0.6111631,-0.6689902,0.30306125,31.312620162963867,-10.453910827636719,-3.96260404586792,187.10751342773438,-14.667984962463379, 1.4986122846603394
665,3927624076,0.27955404,0.6174222,-0.6595748,0.3249626,-0.5739920735359192,-7.049283027648926,21.515153884887695,198.39193725585938,27.475440979003906, 8.46200180053711
666,3927640743,0.28471985,0.6093228,-0.6708212,0.3125047,13.587030410766602,5.121674537658691,8.243918418884277,-119.2410888671875,-32.61638259887695, 48.770931243896484
667,3927657410,0.2840256,0.6058726,-0.6782489,0.30368793,18.724470138549805,5.159925937652588,3.1517844200134277,-60.513816833496094,-47.38791275024414, 31.208187103271484
668,3927674077,0.27269444,0.6108133,-0.67558914,0.31003916,12.977168083190918,10.834030151367188,-1.4673895835876465,92.05718231201172,-32.0823974609375, 2.065316915512085
669,3927690744,0.26424667,0.6173573,-0.66905653,0.3184449,10.827014923095703,5.396711349487305,-3.4013471603393555,100.91226196289062,-6.419003963470459, -23.613679885864258
670,3927707411,0.26309857,0.6208968,-0.66252184,0.3260848,8.833685874938965,-4.788253307342529,-1.6950619220733643,61.031341552734375,30.393352508544922, -26.99806022644043
671,3927724078,0.27071422,0.6190317,-0.6599202,0.32866225,10.13507080078125,-5.72742223739624,2.548621892929077,-18.098379135131836,53.60788345336914, -14.501840591430664
672,3927740745,0.28871256,0.61135113,-0.66200876,0.3234801,9.620412826538086,-0.6832680702209473,5.129317760467529,-119.0005874633789,71.8781509399414, -6.221302032470703
673,3927757412,0.31124,0.6027124,-0.66158795,0.31963918,7.784505844116211,3.171994209289551,7.879634857177734,-128.2673797607422,104.97065734863281, -19.88549041748047
674,3927774079,0.33483833,0.5926686,-0.66276187,0.31204805,-0.9971597194671631,2.5264344215393066,5.334733009338379,-156.24017333984375,93.67633056640625, -17.25705909729004
675,3927790746,0.34798717,0.5878532,-0.6603133,0.31196207,-7.155618667602539,-3.131059408187866,-2.5840468406677246,-59.60749816894531,73.7027587890625, -16.15108871459961
676,3927807413,0.3518982,0.5876528,-0.6550825,0.3189027,-9.606852531433105,-4.804535388946533,-6.4957122802734375,26.592763900756836,57.19623565673828, -11.817781448364258
677,3927824080,0.35593215,0.5859214,-0.652478,0.3229258,-9.141376495361328,0.2254498302936554,0.4654059112071991,3.4280202388763428,43.37582778930664, -1.7694140672683716
678,3927840747,0.36641708,0.5795808,-0.6557748,0.3158865,-11.592870712280273,1.9590848684310913,2.4604179859161377,-96.5804672241211,23.737722396850586, 1.278432011604309
679,3927857414,0.3766395,0.5726366,-0.6605695,0.3063954,-10.54033374786377,-3.161289930343628,1.3608119487762451,-111.35607147216797,10.489867210388184, 4.387411594390869
680,3927874081,0.3790552,0.5704697,-0.6615268,0.3053913,-9.81974983215332,-3.456627368927002,4.411417484283447,-21.6541690826416,8.501760482788086, 5.908777713775635
681,3927890748,0.37571087,0.57279634,-0.6595087,0.30950624,-9.54387378692627,0.19338738918304443,7.565879821777344,42.146446228027344,0.7766906023025513, -0.8450193405151367
682,3927907415,0.3730387,0.57512677,-0.65931827,0.30882174,-9.207295417785645,2.433201313018799,1.5516126155853271,13.863908767700195,-19.826629638671875, -7.468410015106201
683,3927924082,0.35145158,0.58480155,-0.66360605,0.30678362,-4.525240898132324,-10.099287033081055,-38.5318603515625,91.87326049804688,-137.87794494628906, 13.723433494567871
684,3927940749,0.32187995,0.6002077,-0.6636214,0.30943608,4.785241603851318,12.314887046813965,8.547992706298828,168.08364868164062,-156.09713745117188, -1.703893780708313
685,3927957416,0.29902798,0.60725665,-0.6676474,0.30994955,-5.690704345703125,2.2038307189941406,-1.2019710540771484,103.70169830322266,-125.68476867675781, 34.2773323059082
686,3927974083,0.28154835,0.6120661,-0.6717035,0.30809113,8.701814651489258,8.361193656921387,0.6617171764373779,65.73478698730469,-106.07508087158203, 28.396718978881836
687,3927990750,0.2706573,0.61441517,-0.6752852,0.3053339,10.6016845703125,-1.1543527841567993,-4.731280326843262,30.214357376098633,-73.5050277709961, 22.29517936706543
688,3928007417,0.26525298,0.6144085,-0.67751366,0.30515313,14.027963638305664,-5.787343502044678,2.9322426319122314,17.457094192504883,-29.799415588378906, 20.763803482055664
689,3928024084,0.2675059,0.6115695,-0.6811617,0.30073604,22.924959182739258,-4.635262966156006,7.2711100578308105,-42.84366226196289,-9.045475959777832, 16.04030990600586
690,3928040751,0.2752385,0.6066718,-0.6866947,0.29093578,21.77843475341797,-0.23821759223937988,9.624412536621094,-98.83847045898438,-5.891421794891357, 12.285990715026855
691,3928057418,0.2852251,0.60329074,-0.6896729,0.28113773,16.60492515563965,6.040008544921875,7.0742878913879395,-100.24037170410156,5.883352756500244, -10.053603172302246
692,3928074085,0.29726958,0.60506356,-0.6820399,0.28346178,7.565030574798584,10.465578079223633,9.476585388183594,-20.560434341430664,76.28849792480469, -58.57648849487305
693,3928090752,0.3068921,0.6077714,-0.67504376,0.28416088,-6.872555732727051,-2.4719038009643555,-4.897312641143799,-17.254735946655273,54.725013732910156, -58.652835845947266
694,3928107419,0.2994636,0.61848295,-0.65871733,0.30641785,-10.377878189086914,-12.628382682800293,-6.85469388961792,189.17230224609375,70.10327911376953, -56.02396774291992
