PacketCounter,SampleTimeFine,Quat_W,Quat_X,Quat_Y,Quat_Z,Acc_X,Acc_Y,Acc_Z,Gyr_X,Gyr_Y,Gyr_Z 
1,3920226128,0.7717714,0.23349766,-0.53977054,0.24185885,0.09749355912208557,-0.14500129222869873,0.1887233853340149,-0.02088850736618042,0.5148681402206421, -0.33367934823036194
2,3920242795,0.77271587,0.23401667,-0.53851163,0.24114653,14.734862327575684,1.6905169486999512,4.805229187011719,0.9451661705970764,2.8380727767944336, 1.3041409254074097
3,3920259462,0.77328986,0.23436336,-0.5379428,0.24023868,15.001005172729492,1.7850068807601929,4.957785606384277,-0.9127854108810425,2.4353387355804443, 1.7371878623962402
4,3920276129,0.77373254,0.23486549,-0.5373337,0.23968548,14.84986400604248,1.6826287508010864,4.867321491241455,0.08582175523042679,2.2876429557800293, 1.9554462432861328
5,3920292796,0.77404386,0.23473054,-0.53717923,0.23915774,15.055220603942871,1.522881269454956,4.880853176116943,-1.1629061698913574,2.032745361328125, 2.0819857120513916
6,3920309463,0.7740758,0.23415793,-0.53742903,0.239055,14.770069122314453,1.7495057582855225,4.9247822761535645,-0.5655667781829834,1.7459087371826172, 2.2647836208343506
7,3920326130,0.77417916,0.23382607,-0.5374481,0.23900135,14.873321533203125,1.467679500579834,4.78682804107666,-0.9684673547744751,1.4963386058807373, 1.9912528991699219
8,3920342797,0.7742058,0.23309398,-0.53778124,0.23888083,14.884554862976074,1.5388703346252441,4.836360454559326,-2.2622416019439697,1.2625588178634644, 1.9755778312683105
9,3920359464,0.77419156,0.23261344,-0.53796643,0.23897852,14.961305618286133,1.569680094718933,4.7840962409973145,-1.6233841180801392,1.714341163635254, 1.1274006366729736
10,3920376131,0.7741706,0.23235056,-0.5380383,0.23914063,15.118196487426758,1.3752464056015015,4.920738220214844,1.240864872932434,2.61311674118042, 1.1031711101531982
11,3920392798,0.7741168,0.23207648,-0.5380865,0.2394721,14.817469596862793,1.7481812238693237,4.796276569366455,0.8681361079216003,2.5121641159057617, 0.7963180541992188
12,3920409465,0.7741468,0.23190935,-0.53803855,0.23964484,14.933162689208984,1.4436094760894775,4.703588962554932,0.8760632276535034,2.8549647331237793, 0.6673581004142761
13,3920426132,0.7741791,0.2316852,-0.5380053,0.23983113,14.825815200805664,1.689371943473816,4.855922222137451,0.45214733481407166,3.236426591873169, 0.6527332067489624
14,3920442799,0.7743068,0.23129521,-0.53801507,0.23977415,14.775432586669922,1.6185252666473389,4.703336238861084,-0.6732041835784912,3.002916097640991, 0.864358127117157
15,3920459466,0.7743237,0.23114988,-0.53792197,0.24006782,14.960312843322754,1.6118162870407104,4.826176166534424,0.17362210154533386,3.17048716545105, 1.4566646814346313
16,3920476133,0.7743258,0.23099905,-0.5378647,0.24033476,14.792935371398926,1.803285002708435,4.90195369720459,0.32373812794685364,2.8367538452148438, 1.6831066608428955
17,3920492800,0.7744061,0.23083767,-0.53776926,0.24044403,15.07752799987793,1.6350784301757812,4.939116477966309,0.06744463741779327,2.827993869781494, 1.4035694599151611
18,3920509467,0.77453387,0.23073563,-0.5375786,0.24055658,14.92872428894043,1.5797983407974243,4.844727993011475,-0.13267378509044647,3.2094058990478516, 0.8038609623908997
19,3920526134,0.7747094,0.23058768,-0.5373818,0.24057347,15.30177116394043,1.401031732559204,4.835811614990234,0.05520176142454147,3.3897318840026855, 0.6244183778762817
20,3920542801,0.77485144,0.23068799,-0.5370036,0.24086474,14.688760757446289,1.5692473649978638,4.742966651916504,1.5787990093231201,4.273575782775879, 0.20087401568889618
21,3920559468,0.7750944,0.23048234,-0.5367582,0.24082617,14.887893676757812,1.7051494121551514,4.823556900024414,-0.680580735206604,3.999558210372925, -0.007799067068845034
22,3920576135,0.77528214,0.230522,-0.5364219,0.24093345,15.195252418518066,1.474433422088623,4.960949897766113,1.0331330299377441,4.0405120849609375, -0.13755299150943756
23,3920592802,0.7754455,0.23052648,-0.5361237,0.24106745,15.059797286987305,1.6361610889434814,4.899540901184082,0.8222766518592834,3.776010274887085, 0.04395780712366104
24,3920609469,0.77554226,0.2306392,-0.53582245,0.24131776,14.810434341430664,1.5887706279754639,4.878683567047119,2.3340022563934326,3.568495988845825, 0.554726243019104
25,3920626136,0.775616,0.23051666,-0.5356854,0.24150212,15.003194808959961,1.7409007549285889,4.912960052490234,-0.1377066671848297,2.7429726123809814, 1.1347514390945435
26,3920642803,0.7756281,0.23048119,-0.5355158,0.24187326,15.190558433532715,1.4119881391525269,4.866508960723877,1.2896827459335327,2.823115348815918, 2.0278282165527344
27,3920659470,0.77564734,0.23060918,-0.53523785,0.24230403,14.912568092346191,1.772107481956482,4.93651008605957,2.9135665893554688,3.3307337760925293, 1.5187373161315918
28,3920676137,0.77569836,0.23056462,-0.5350697,0.24255383,14.890181541442871,1.654721975326538,4.820219039916992,1.1959401369094849,2.8095145225524902, 1.489436149597168
29,3920692804,0.7757734,0.2305642,-0.5348524,0.24279359,15.270505905151367,1.725387454032898,4.977357864379883,1.2835612297058105,3.0643224716186523, 1.1475704908370972
30,3920709471,0.7758351,0.23049068,-0.53466344,0.24308258,15.00800609588623,1.6242866516113281,4.918179988861084,0.8593893647193909,2.572200298309326, 1.6082279682159424
31,3920726138,0.7759836,0.23031032,-0.53441745,0.24332024,14.819253921508789,1.6195913553237915,4.653262615203857,0.7113735675811768,2.8692948818206787, 1.5824742317199707
32,3920742805,0.7761242,0.23023519,-0.534064,0.24371809,15.273078918457031,1.4569426774978638,4.899145603179932,1.4922281503677368,3.281198740005493, 1.6552146673202515
33,3920759472,0.77623516,0.23030084,-0.5336844,0.24413458,15.100214004516602,1.8053369522094727,5.057401180267334,2.9066123962402344,3.099411964416504, 1.3920950889587402
34,3920776139,0.77638435,0.23022321,-0.5333795,0.24439986,14.966598510742188,1.5377888679504395,4.832520008087158,1.0656483173370361,2.7805209159851074, 1.0581564903259277
35,3920792806,0.7765628,0.23022595,-0.53303385,0.24458367,15.259493827819824,1.8328518867492676,4.969219207763672,1.5294941663742065,2.869307279586792, 0.31654092669487
36,3920809473,0.77677596,0.23028271,-0.5325876,0.24482581,15.342901229858398,1.495604157447815,4.905800819396973,2.02022123336792,3.5193586349487305, 0.17362213134765625
37,3920826140,0.7769604,0.2304254,-0.532112,0.24514055,14.949740409851074,1.9069433212280273,4.970307350158691,2.7588272094726562,3.5333809852600098, 0.21512748301029205
38,3920842807,0.7772622,0.23016857,-0.5317608,0.2451866,15.181121826171875,1.6698508262634277,4.792978286743164,-0.5581391453742981,3.564103603363037, 0.3157597780227661
39,3920859474,0.7774748,0.23022857,-0.53127074,0.24551864,14.989261627197266,1.8059890270233154,4.893927574157715,2.1667511463165283,3.8618381023406982, 0.4787334203720093
40,3920876141,0.77776897,0.22995014,-0.5309786,0.24547999,15.019953727722168,1.7789019346237183,4.973154544830322,-1.0848515033721924,3.124115228652954, 0.04333028197288513
41,3920892808,0.77794963,0.23002045,-0.5305535,0.24576007,15.279165267944336,1.396124243736267,4.844459056854248,2.3256776332855225,3.3329994678497314, 0.44952207803726196
42,3920909475,0.77808696,0.23013465,-0.53014153,0.24610755,15.09559154510498,1.8700706958770752,4.896758556365967,2.6608712673187256,3.120683193206787, 0.6691637635231018
43,3920926142,0.7783385,0.23009375,-0.5297227,0.24625233,15.179354667663574,1.6067110300064087,4.962056636810303,1.1327024698257446,3.538285732269287, 0.02554226480424404
44,3920942809,0.7785899,0.23003662,-0.52929485,0.24643067,14.971504211425781,1.8708165884017944,4.874483108520508,1.0942963361740112,3.6577823162078857, 0.21676671504974365
45,3920959476,0.7789067,0.22981857,-0.5288849,0.24651335,15.175985336303711,1.6154701709747314,4.818913459777832,-0.04171028733253479,3.942979574203491, 0.2871248126029968
46,3920976143,0.7792097,0.22966813,-0.52840704,0.24672018,14.829086303710938,1.783142328262329,4.859853267669678,0.691754162311554,4.319869518280029, 0.542342483997345
47,3920992810,0.77961457,0.22919041,-0.5280434,0.24666387,15.245512008666992,1.5900276899337769,4.89583158493042,-2.356470823287964,4.218443393707275, 0.33781227469444275
48,3921009477,0.77986956,0.22916089,-0.5275353,0.24697231,15.24986743927002,1.7958698272705078,5.037807941436768,1.8757143020629883,4.2684526443481445, 0.6989898085594177
49,3921026144,0.78017753,0.22910418,-0.5270006,0.24719372,15.111948013305664,1.514466404914856,4.98038387298584,1.336861491203308,4.507893085479736, 0.1875426173210144
50,3921042811,0.7804473,0.22897035,-0.5266203,0.24727626,14.985318183898926,1.7800726890563965,4.952981472015381,0.18828535079956055,3.4508564472198486, 0.01641133800148964
51,3921059478,0.78073263,0.22896528,-0.52614975,0.24738252,15.281668663024902,1.433691143989563,4.908295631408691,1.2025741338729858,3.8215882778167725, -0.44786372780799866
52,3921076145,0.7809935,0.22892794,-0.52575016,0.24744296,15.103775024414062,1.8102999925613403,5.057605743408203,0.7952934503555298,3.3404018878936768, -0.42323702573776245
53,3921092812,0.78124106,0.22888532,-0.52537775,0.2474923,14.901509284973145,1.9066383838653564,4.900293827056885,0.7176358103752136,3.138676166534424, -0.38777628540992737
54,3921109479,0.7814587,0.22877064,-0.5250403,0.24762762,15.099897384643555,1.6675033569335938,4.885638236999512,0.7348090410232544,3.1145105361938477, 0.4848676025867462
55,3921126146,0.7816583,0.22873072,-0.5246403,0.2478815,15.133830070495605,1.7650678157806396,5.001809597015381,1.6863212585449219,3.446080446243286, 0.7790167331695557
56,3921142813,0.78188527,0.2284791,-0.5243603,0.2479907,14.969971656799316,1.892075538635254,4.829044342041016,-0.15518733859062195,3.041616916656494, 0.9330385327339172
57,3921159480,0.78209364,0.2283549,-0.52398825,0.24823381,15.224272727966309,1.530730962753296,4.97373104095459,1.062587857246399,3.451228141784668, 1.034311294555664
58,3921176147,0.7823676,0.2280073,-0.52372783,0.24823935,15.105834007263184,1.9524176120758057,5.055777549743652,-1.1745983362197876,3.1091701984405518, 0.6633881330490112
59,3921192814,0.782578,0.22795558,-0.5233396,0.24844225,15.14628791809082,1.6581417322158813,4.902079105377197,1.5240646600723267,3.3810622692108154, 0.6029293537139893
60,3921209481,0.78287554,0.22774668,-0.522959,0.248498,15.1314058303833,1.697739839553833,4.911597728729248,-0.19000780582427979,3.6726109981536865, 0.16679629683494568
61,3921226148,0.7831394,0.22766474,-0.5225337,0.24863657,14.91528606414795,1.7508697509765625,4.864218711853027,0.9741598963737488,3.7095577716827393, 0.16322334110736847
62,3921242815,0.7834223,0.22745356,-0.52217007,0.24870233,15.262794494628906,1.8174521923065186,5.0980939865112305,-0.1131184995174408,3.5514252185821533, 0.30224907398223877
63,3921259482,0.7837024,0.22729193,-0.5217654,0.24881724,14.787219047546387,1.804024577140808,4.9098968505859375,0.5594518780708313,3.76818585395813, 0.38994699716567993
64,3921276149,0.7840332,0.22681728,-0.5215237,0.24871485,15.121946334838867,1.6971240043640137,4.858349800109863,-2.3141462802886963,3.2616560459136963, 0.492538720369339
65,3921292816,0.7842403,0.22676492,-0.52110624,0.24898426,14.943777084350586,1.7756950855255127,5.017241477966309,1.8481546640396118,3.6311826705932617, 0.9425665140151978
66,3921309483,0.7845256,0.2264349,-0.5208192,0.24898668,15.062080383300781,1.6681982278823853,4.852001190185547,-1.1430691480636597,3.2467875480651855, 0.4939344823360443
67,3921326150,0.78471977,0.22648431,-0.5203789,0.24925025,14.968559265136719,1.769402265548706,4.980194091796875,2.510767936706543,3.5338029861450195, 0.5647023916244507
68,3921342817,0.7850175,0.22619492,-0.5200685,0.24922304,14.968189239501953,1.7040730714797974,4.933504104614258,-0.7893450856208801,3.3271734714508057, 0.21604955196380615
69,3921359484,0.7852695,0.22605084,-0.51972204,0.24928258,15.068761825561523,1.7484800815582275,4.883127689361572,0.369764119386673,3.2381813526153564, 0.16087977588176727
70,3921376151,0.7855108,0.22602068,-0.51930106,0.24942726,15.066427230834961,1.8347439765930176,5.080217361450195,1.5549792051315308,3.5547678470611572, 0.1650930941104889
71,3921392818,0.7857965,0.22575933,-0.5189934,0.24940395,14.723715782165527,1.7644565105438232,4.810849189758301,-0.547842800617218,3.2381558418273926, 0.1889384686946869
72,3921409485,0.7860667,0.22552611,-0.518633,0.24951369,14.923089027404785,1.6823015213012695,4.861152172088623,0.2996494174003601,3.638444423675537, 0.7963564991950989
73,3921426152,0.78631085,0.22523214,-0.51836056,0.24957658,14.922100067138672,1.8201937675476074,4.916146755218506,-0.4804173707962036,3.0872840881347656, 0.8717858195304871
74,3921442819,0.7865449,0.2251353,-0.51794165,0.24979533,14.844035148620605,1.494989037513733,4.904201984405518,1.5720113515853882,3.763869285583496, 0.8706204295158386
75,3921459486,0.78680444,0.22480705,-0.51768714,0.24980195,15.167774200439453,1.81702721118927,4.959605693817139,-0.7889479398727417,3.033740997314453, 0.742006242275238
76,3921476153,0.7870281,0.22475508,-0.51726985,0.25000793,14.820361137390137,1.7743946313858032,4.95216178894043,1.8100558519363403,3.6289029121398926, 0.674708902835846
77,3921492820,0.78733945,0.22442652,-0.51694274,0.24999939,15.028115272521973,1.611748218536377,4.8936591148376465,-0.8902334570884705,3.5824804306030273, 0.42819952964782715
78,3921509487,0.78760576,0.22425893,-0.51657736,0.2500662,15.112611770629883,1.750245451927185,5.079732418060303,0.5420607328414917,3.4894933700561523, 0.3453424274921417
79,3921526154,0.7878809,0.22408573,-0.51620054,0.25013298,14.906839370727539,1.7159392833709717,4.869762420654297,0.4108276963233948,3.5830113887786865, 0.29075533151626587
80,3921542821,0.78818125,0.22388963,-0.51578546,0.25021866,15.012235641479492,1.5916612148284912,4.93528938293457,0.49506157636642456,3.963226795196533, 0.42049017548561096
81,3921559488,0.7884827,0.22349986,-0.5155275,0.2501486,14.968156814575195,1.8052815198898315,5.007628440856934,-1.4148966073989868,3.2084450721740723, 0.48795390129089355
82,3921576155,0.78871214,0.22337197,-0.5151498,0.25031775,14.770613670349121,1.66775643825531,4.965088844299316,1.329292893409729,3.537466526031494, 0.8664970397949219
83,3921592822,0.7889891,0.22305763,-0.51487815,0.25028458,15.252795219421387,1.6688568592071533,4.988885879516602,-0.8046612739562988,3.1271121501922607, 0.4492659568786621
84,3921609489,0.7892103,0.22295399,-0.5145388,0.25037703,14.906851768493652,1.6186035871505737,4.965939521789551,1.2258814573287964,3.1560800075531006, 0.4774142801761627
85,3921626156,0.7894868,0.22274332,-0.5141943,0.25040045,15.177064895629883,1.7051700353622437,4.988529205322266,0.07719027251005173,3.436103582382202, 0.27549663186073303
86,3921642823,0.78972936,0.22259858,-0.5138693,0.25043198,14.673402786254883,1.9327449798583984,4.89976167678833,0.635956883430481,3.12900710105896, 0.24103471636772156
87,3921659490,0.79001445,0.22242929,-0.51348364,0.25047323,15.463000297546387,1.5310059785842896,5.027162551879883,0.3820838928222656,3.6491503715515137, 0.13953159749507904
88,3921676157,0.7902713,0.22226171,-0.51316386,0.25046808,15.030757904052734,1.957338809967041,5.079511642456055,0.46349382400512695,3.1543896198272705, 0.1572427600622177
89,3921692824,0.79054755,0.22206433,-0.5128043,0.250507,15.063984870910645,1.6499464511871338,4.919576644897461,0.1572427898645401,3.5253899097442627, 0.27112963795661926
90,3921709491,0.790816,0.22170368,-0.51257324,0.25045198,15.31818962097168,1.9019070863723755,5.080865859985352,-1.003300666809082,2.966904401779175, 0.6587650179862976
91,3921726158,0.791027,0.22169407,-0.51214653,0.2506672,14.860642433166504,1.7544313669204712,5.003349781036377,2.3399569988250732,3.6401731967926025, 0.7201203107833862
92,3921742825,0.79131496,0.22128567,-0.511911,0.2506005,15.11993408203125,1.7128548622131348,4.84177827835083,-1.4640733003616333,3.1068267822265625, 0.6659238934516907
93,3921759492,0.7915165,0.22122991,-0.5115184,0.25081506,15.062813758850098,1.7653053998947144,5.08585262298584,1.7947523593902588,3.4732680320739746, 0.8427795767784119
94,3921776159,0.7918013,0.2209061,-0.51124173,0.2507651,15.05460262298584,1.7050539255142212,4.919824600219727,-0.7873855233192444,3.2054483890533447, 0.43674132227897644
95,3921792826,0.7920259,0.22075918,-0.51092476,0.25083157,15.363986015319824,1.7546963691711426,5.154134750366211,0.6883732676506042,3.0804197788238525, 0.4661446809768677
96,3921809493,0.79228145,0.22054978,-0.5106085,0.25085223,14.932329177856445,1.9514175653457642,5.005361557006836,0.21391087770462036,3.2303056716918945, 0.41746780276298523
97,3921826160,0.7925386,0.22032164,-0.51027733,0.25091428,15.069507598876953,1.4938075542449951,4.781636714935303,0.16023942828178406,3.400271415710449, 0.6353421807289124
98,3921842827,0.7927986,0.22013846,-0.50990313,0.25101423,15.037652015686035,1.8250064849853516,5.071478843688965,0.5587090253829956,3.6241137981414795, 0.5884838700294495
99,3921859494,0.79305303,0.2199212,-0.5095929,0.25103116,14.874937057495117,1.8758879899978638,5.017667770385742,0.2530854642391205,3.2167434692382812, 0.48546940088272095
100,3921876161,0.79328257,0.21973327,-0.5092521,0.2511618,15.202962875366211,1.5852410793304443,4.928650856018066,0.8847970962524414,3.416829824447632, 0.9963276982307434
101,3921892828,0.7935656,0.2194185,-0.50896597,0.2511234,14.932429313659668,1.8635772466659546,5.061498641967773,-0.7042211294174194,3.259798526763916, 0.449227511882782
102,3921909495,0.7937869,0.21917184,-0.50870895,0.25116044,14.990038871765137,1.6156251430511475,4.891801357269287,0.04382973164319992,2.8895158767700195, 0.8081254959106445
103,3921926162,0.7940125,0.21905988,-0.5083397,0.25129244,15.131426811218262,1.6440410614013672,5.012286186218262,1.2058266401290894,3.422503709793091, 0.6362643241882324
104,3921942829,0.79424506,0.21882054,-0.5080611,0.25132993,14.89653205871582,1.7909960746765137,4.985744953155518,0.05792953073978424,3.0374677181243896, 0.7104642987251282
105,3921959496,0.7945184,0.21856685,-0.5077397,0.25133586,14.732901573181152,1.6677061319351196,4.825720310211182,-0.26699957251548767,3.378859281539917, 0.388743132352829
106,3921976163,0.7947636,0.21831803,-0.5074566,0.25134853,15.049988746643066,1.7022178173065186,4.983387470245361,-0.0647745206952095,3.09541654586792, 0.5960012078285217
107,3921992830,0.7949819,0.2182131,-0.50711024,0.25144875,14.801159858703613,1.8232336044311523,4.979832649230957,1.0026154518127441,3.21658992767334, 0.44571852684020996
108,3922009497,0.79517806,0.21809211,-0.50680166,0.2515556,15.010814666748047,1.7565081119537354,4.9479827880859375,1.114261269569397,2.9945664405822754, 0.7326832413673401
109,3922026164,0.79542357,0.21777254,-0.5065806,0.2515005,14.99632453918457,1.6539794206619263,4.929826259613037,-0.9757030010223389,2.772350788116455, 0.4879923164844513
110,3922042831,0.7956092,0.21762717,-0.5063357,0.25153276,14.771953582763672,1.860780119895935,4.915642261505127,0.6780129671096802,2.554821729660034, 0.5507306456565857
111,3922059498,0.7957995,0.21742694,-0.50610334,0.25157133,14.859984397888184,1.5254638195037842,4.766232490539551,0.16262145340442657,2.5905263423919678, 0.694610059261322
112,3922076165,0.7959933,0.2171374,-0.50591713,0.2515826,14.482893943786621,1.7618438005447388,4.759932994842529,-0.5594838261604309,2.465817928314209, 0.8919559121131897
113,3922092832,0.79619306,0.21685208,-0.50570405,0.25162557,14.76074504852295,1.5888559818267822,4.73658561706543,-0.14929641783237457,2.701364755630493, 1.1163870096206665
114,3922109499,0.79640055,0.21656783,-0.50551975,0.25158352,14.904556274414062,1.7126998901367188,4.935742378234863,-0.5720340609550476,2.442356586456299, 0.6427186727523804
115,3922126166,0.7965829,0.21648136,-0.50521344,0.25169626,15.071881294250488,1.5188695192337036,4.898604869842529,1.298467755317688,2.9160377979278564, 0.6676013469696045
116,3922142833,0.79681313,0.21625711,-0.5049608,0.25166714,14.787643432617188,1.8151684999465942,4.806576728820801,0.012018758803606033,2.8350117206573486, 0.42408865690231323
117,3922159500,0.79702115,0.21619752,-0.50458515,0.25181317,14.808511734008789,1.4737393856048584,4.720433235168457,1.6069473028182983,3.3981971740722656, 0.596001148223877
118,3922176167,0.7972878,0.21592359,-0.5043062,0.25176322,14.93006420135498,1.8602938652038574,4.883511543273926,-0.5175173282623291,3.158538818359375, 0.29813820123672485
119,3922192834,0.7974602,0.21599518,-0.50384736,0.25207403,14.760083198547363,1.6173431873321533,4.791861057281494,3.183255195617676,3.772040367126465, 1.0304821729660034
120,3922209501,0.7977054,0.2156217,-0.5036238,0.25206465,14.847769737243652,1.7288204431533813,4.825743198394775,-0.9646767377853394,3.0262746810913086, 1.0004384517669678
121,3922226168,0.79786897,0.21540959,-0.5034013,0.2521729,14.77722454071045,1.7625280618667603,4.92396879196167,0.5644718408584595,2.644351005554199, 1.2894777059555054
122,3922242835,0.7980738,0.21511444,-0.50316274,0.25225306,14.91108226776123,1.5366934537887573,4.739827632904053,-0.24438358843326569,2.9533944129943848, 1.2203363180160522
123,3922259502,0.7982741,0.21478404,-0.50297886,0.25226736,15.000093460083008,1.7517210245132446,4.896437168121338,-0.6040627360343933,2.6161386966705322, 1.1406936645507812
124,3922276169,0.7984512,0.2145762,-0.5027213,0.252397,14.54259204864502,1.6542727947235107,4.69912576675415,0.44128769636154175,2.878298044204712, 1.1901901960372925
125,3922292836,0.7987008,0.21424487,-0.50248086,0.2523676,14.881932258605957,1.4738409519195557,4.7348809242248535,-0.6020520329475403,3.04415225982666, 0.8035022616386414
126,3922309503,0.7988937,0.21405442,-0.5022434,0.25239077,14.786089897155762,1.7812098264694214,4.897637367248535,0.22778014838695526,2.6469638347625732, 0.604017972946167
127,3922326170,0.79906887,0.21399087,-0.501947,0.25248,14.871872901916504,1.6796255111694336,4.7727532386779785,1.3756133317947388,2.7942240238189697, 0.523645281791687
128,3922342837,0.7993017,0.2137656,-0.5016786,0.25246775,15.043742179870605,1.5959535837173462,4.853455543518066,-0.03374473378062248,2.969606876373291, 0.44801095128059387
129,3922359504,0.79948026,0.2135408,-0.50147325,0.25250024,14.619194030761719,1.812462329864502,4.668210506439209,0.10309750586748123,2.5043392181396484, 0.8839902281761169
130,3922376171,0.7996846,0.21327107,-0.5012588,0.25250685,14.609938621520996,1.6421926021575928,4.654234886169434,-0.02916005626320839,2.7073583602905273, 0.9590227007865906
131,3922392838,0.79986614,0.21301381,-0.5010848,0.25249416,14.761754989624023,1.6584631204605103,4.802426815032959,-0.18728007376194,2.349011182785034, 0.8469800353050232
132,3922409505,0.80000347,0.21283455,-0.500937,0.25250384,14.601763725280762,1.7156602144241333,4.740694999694824,0.263112872838974,1.9464693069458008, 0.7791447043418884
133,3922426172,0.8001482,0.21263158,-0.5007994,0.25248924,14.763154983520508,1.5229588747024536,4.6560893058776855,0.23683425784111023,1.9443433284759521, 0.8442778587341309
134,3922442839,0.8003099,0.21235096,-0.50070196,0.25240642,14.712172508239746,1.6341601610183716,4.693246841430664,-0.516121506690979,1.823425531387329, 0.7667993307113647
135,3922459506,0.8004185,0.21224053,-0.5005725,0.25241178,14.5535249710083,1.6880137920379639,4.612985134124756,0.6642205119132996,1.6380280256271362, 0.6128285527229309
136,3922476173,0.8005988,0.21207689,-0.5003873,0.25234383,14.685023307800293,1.4830126762390137,4.632081508636475,0.3079223036766052,2.2005984783172607, 0.29302847385406494
137,3922492840,0.8007494,0.21198285,-0.5001771,0.2523623,14.514363288879395,1.731379747390747,4.602909088134766,1.0568503141403198,2.2465732097625732, 0.5341207981109619
138,3922509507,0.8009301,0.21192387,-0.4999044,0.25237876,14.679192543029785,1.493654489517212,4.602823734283447,1.0845506191253662,2.6160361766815186, 0.14634457230567932
139,3922526174,0.8011006,0.21180184,-0.499716,0.25231335,14.583463668823242,1.578336238861084,4.628296375274658,0.5402999520301819,2.134690523147583, 0.1662520319223404
140,3922542841,0.80119866,0.21196677,-0.49939215,0.25250417,14.616847038269043,1.549553394317627,4.600677967071533,3.21559739112854,2.5025782585144043, 0.45436927676200867
141,3922559508,0.8014121,0.21168622,-0.49923488,0.25237286,14.347034454345703,1.6800494194030762,4.5104475021362305,-0.8754549026489258,2.286669969558716, 0.21320649981498718
142,3922576175,0.8015534,0.21152535,-0.4990725,0.2523801,14.445143699645996,1.6022276878356934,4.5272955894470215,0.6547694206237793,2.0938830375671387, 0.8395394086837769
143,3922592842,0.8017114,0.2112957,-0.49892506,0.2523627,14.357842445373535,1.6194419860839844,4.531991958618164,-0.029505830258131027,2.1445322036743164, 0.8429460525512695
144,3922609509,0.80185497,0.21103147,-0.49881074,0.2523537,14.219714164733887,1.6314359903335571,4.4549784660339355,-0.11191469430923462,2.003098726272583, 1.1471351385116577
145,3922626176,0.80194485,0.21085483,-0.49871716,0.25240046,14.457514762878418,1.570978045463562,4.538821697235107,0.5140661597251892,1.6334948539733887, 1.231746792793274
146,3922642843,0.802021,0.21070276,-0.49862128,0.25247484,14.25471019744873,1.7251591682434082,4.589990139007568,0.7237188816070557,1.6012612581253052, 1.2979300022125244
147,3922659510,0.80208105,0.21044157,-0.49860254,0.2525392,14.370514869689941,1.4657514095306396,4.377033710479736,0.017423037439584732,1.305652141571045, 1.783930778503418
148,3922676177,0.8021393,0.21017225,-0.49861392,0.25255617,14.397729873657227,1.617147445678711,4.528367519378662,-0.41395241022109985,1.0749841928482056, 1.5005263090133667
149,3922692844,0.80212855,0.21013379,-0.4985353,0.2527776,14.01582145690918,1.3439112901687622,4.277475833892822,1.8778527975082397,1.2442073822021484, 1.863740086555481
150,3922709511,0.8021942,0.20982,-0.49858803,0.25272584,14.077479362487793,1.521474003791809,4.366629123687744,-0.8798986673355103,0.8758838176727295, 1.3750113248825073
151,3922726178,0.8021877,0.20979515,-0.49854589,0.2528497,14.44365119934082,1.406290888786316,4.4989013671875,1.508453607559204,0.8987689018249512, 1.2997742891311646
152,3922742845,0.8022512,0.20966531,-0.49850568,0.25283515,14.148218154907227,1.463817834854126,4.356541156768799,0.33988693356513977,1.109958291053772, 0.7687587738037109
153,3922759512,0.80232054,0.20941758,-0.49855626,0.25272083,14.070032119750977,1.5109549760818481,4.161218643188477,-0.759224534034729,0.6940593719482422, 0.7762249112129211
154,3922776179,0.8023953,0.20941333,-0.49841928,0.25275713,14.235298156738281,1.4603826999664307,4.276398181915283,1.3775086402893066,1.5390480756759644, 0.47083190083503723
155,3922792846,0.8024631,0.20939463,-0.49829063,0.25281107,13.979660034179688,1.6268593072891235,4.241347312927246,1.2968541383743286,1.5155353546142578, 0.6087306141853333
156,3922809513,0.8025865,0.20929615,-0.4981783,0.25272274,14.040876388549805,1.5185567140579224,4.313877105712891,0.47257354855537415,1.5661334991455078, 0.14882901310920715
157,3922826180,0.802636,0.20927216,-0.49813354,0.25267303,14.124981880187988,1.5484058856964111,4.338491439819336,0.7883651852607727,0.8487087488174438, 0.2091597020626068
158,3922842847,0.8026811,0.20916574,-0.49816066,0.25256473,14.0875244140625,1.5824002027511597,4.206274032592773,0.11692836880683899,0.503731369972229, 0.3401942551136017
159,3922859514,0.80267954,0.20920764,-0.49812362,0.25260752,14.206584930419922,1.4348359107971191,4.19376802444458,1.443282127380371,0.6460868120193481, 0.5478876829147339
160,3922876181,0.8026787,0.2090794,-0.49818283,0.25259942,13.812854766845703,1.702476978302002,4.244917869567871,0.32761842012405396,0.3578798174858093, 1.0815794467926025
161,3922892848,0.8027156,0.20861033,-0.49843648,0.25236985,13.944631576538086,1.4860477447509766,4.113000392913818,-2.883862257003784,-0.3261009156703949, 1.1419103145599365
162,3922909515,0.8026735,0.2083555,-0.49860638,0.25237864,14.097068786621094,1.6085171699523926,4.24342679977417,-0.6003744006156921,-0.15710827708244324, 1.7554621696472168
163,3922926182,0.8026928,0.20770468,-0.49900988,0.25205618,13.68989086151123,1.484101414680481,4.149538516998291,-4.493005275726318,-1.0249561071395874, 1.470085620880127
164,3922942849,0.80259717,0.20743637,-0.49927106,0.25206447,13.980960845947266,1.4769119024276733,3.9798922538757324,-0.8845090270042419,-0.8246649503707886, 1.9518606662750244
165,3922959516,0.8025018,0.2071362,-0.49956003,0.25204247,13.837719917297363,1.4951403141021729,4.143369197845459,-1.3481885194778442,-0.9656243920326233, 1.854429841041565
166,3922976183,0.8023508,0.20699175,-0.49987748,0.25201246,13.923391342163086,1.5042446851730347,4.137998104095459,-0.1854359358549118,-1.5682401657104492, 1.591707706451416
167,3922992850,0.80222946,0.2066564,-0.5003186,0.25179818,13.821327209472656,1.5414438247680664,4.077550888061523,-2.4275331497192383,-2.0950675010681152, 1.18082857131958
168,3923009517,0.80212176,0.20628335,-0.5008097,0.25147086,13.661026954650879,1.3452720642089844,3.9678711891174316,-3.003307342529297,-2.403419256210327, 0.8130817413330078
169,3923026184,0.8019876,0.20592658,-0.50137955,0.25105548,13.921204566955566,1.3625164031982422,4.03666353225708,-3.3273208141326904,-3.0752787590026855, 0.42100244760513306
170,3923042851,0.801839,0.2056903,-0.5018981,0.25068748,13.839113235473633,1.1765612363815308,3.8193037509918213,-2.378638744354248,-2.9726359844207764, 0.22544941306114197
171,3923059518,0.8016578,0.20555145,-0.5024211,0.25033334,13.722138404846191,1.3902077674865723,3.841779947280884,-1.953019618988037,-3.2588961124420166, -0.09378090500831604
172,3923076185,0.8013818,0.2056372,-0.50295025,0.25008357,13.855815887451172,1.3897705078125,3.988755226135254,-0.22233107686042786,-3.8491156101226807, -0.11479613929986954
173,3923092852,0.80111897,0.20553742,-0.50364566,0.24960832,13.552031517028809,1.5034350156784058,3.9392096996307373,-2.229982614517212,-4.70451545715332, -0.44285643100738525
174,3923109519,0.8008573,0.20535979,-0.5044,0.24906984,13.79822826385498,1.3989591598510742,3.750246047973633,-3.239546060562134,-4.989584922790527, -0.5894635915756226
175,3923126186,0.8005481,0.20536138,-0.5051188,0.24860549,13.763399124145508,1.4118236303329468,3.7251877784729004,-1.7445833683013916,-5.139687538146973, -0.6962684392929077
176,3923142853,0.8002079,0.20558076,-0.50572157,0.2482938,13.584744453430176,1.2579773664474487,3.603163957595825,0.09149497002363205,-4.7610673904418945, -0.8004480600357056
177,3923159520,0.7999385,0.20553046,-0.50647163,0.24767385,13.612287521362305,1.7795978784561157,3.7591631412506104,-2.7445414066314697,-5.283310413360596, -1.4299570322036743
178,3923176187,0.7996751,0.20541885,-0.50725317,0.24701713,13.756983757019043,1.408470630645752,3.7058911323547363,-3.2726502418518066,-5.3728413581848145, -1.372610330581665
179,3923192854,0.7994323,0.20509791,-0.508144,0.24623677,13.43026065826416,1.5101184844970703,3.570080518722534,-5.022459030151367,-5.705332279205322, -1.1730873584747314
180,3923209521,0.79926467,0.20453121,-0.5091261,0.24522227,13.746917724609375,1.6633696556091309,3.476590633392334,-7.62003755569458,-5.859777927398682, -1.6929103136062622
181,3923226188,0.7991264,0.20432207,-0.5097631,0.24452218,13.841194152832031,0.9438728094100952,3.146610736846924,-4.092986583709717,-4.016302585601807, -1.7899694442749023
182,3923242855,0.79889745,0.20472506,-0.5100572,0.24431998,13.40696907043457,1.3709076642990112,3.3627490997314453,1.5547869205474854,-2.777031183242798, -1.6366513967514038
183,3923259522,0.79877526,0.20469584,-0.5105632,0.24368675,13.550139427185059,1.7993335723876953,3.571551561355591,-2.7233855724334717,-3.440899610519409, -2.3024792671203613
184,3923276189,0.79865634,0.20469697,-0.51103264,0.24309012,13.450772285461426,1.2974629402160645,3.27065110206604,-2.5565576553344727,-3.241466999053955, -2.3619139194488525
185,3923292856,0.7984661,0.20486453,-0.51148564,0.24262124,13.53826904296875,1.6653122901916504,3.3469150066375732,-1.0120090246200562,-3.496760845184326, -2.1201424598693848
186,3923309523,0.79825866,0.20518439,-0.5118261,0.24231519,13.391609191894531,1.3966984748840332,3.1889126300811768,0.5975379347801208,-2.9644269943237305, -1.8915876150131226
187,3923326190,0.79800045,0.20556128,-0.51216966,0.24212018,13.172188758850098,1.719475507736206,3.2838797569274902,1.3532278537750244,-3.097791910171509, -1.402974009513855
188,3923342857,0.7977401,0.20577264,-0.512603,0.24188145,13.350348472595215,1.7895022630691528,3.2687292098999023,0.14117079973220825,-3.385319948196411, -0.9241830110549927
189,3923359524,0.79745793,0.20576625,-0.51315916,0.24163805,13.174302101135254,1.6003522872924805,3.2018909454345703,-1.3555779457092285,-3.7850069999694824, -0.02772575244307518
190,3923376191,0.79711175,0.20557682,-0.51387596,0.24141774,12.910058975219727,1.6846919059753418,3.1840767860412598,-2.4934864044189453,-4.555360317230225, 1.0602314472198486
191,3923392858,0.79681426,0.20503974,-0.5147725,0.24094595,13.145752906799316,1.8200857639312744,3.176394462585449,-5.497472286224365,-5.139163494110107, 1.1797147989273071
192,3923409525,0.79649645,0.20463838,-0.51552856,0.24072129,13.159244537353516,1.2508703470230103,2.8421359062194824,-3.7144434452056885,-4.318570613861084, 1.8446202278137207
193,3923426192,0.79603195,0.20464826,-0.51614237,0.24093486,12.835433006286621,1.6154446601867676,3.0816006660461426,0.6786021590232849,-4.106484889984131, 2.906881809234619
194,3923442859,0.7955493,0.20461076,-0.5168226,0.24110213,12.860944747924805,1.5751250982284546,3.1208548545837402,0.08958683162927628,-4.521141529083252, 2.9052040576934814
195,3923459526,0.79506916,0.20429851,-0.5176793,0.24111262,12.617976188659668,1.6940793991088867,2.9897472858428955,-2.2419564723968506,-5.238655090332031, 3.286909818649292
196,3923476193,0.7946301,0.2038888,-0.5185582,0.24101827,13.109795570373535,1.4145399332046509,2.831378698348999,-3.3399603366851807,-5.198751449584961, 2.979647397994995
197,3923492860,0.7942047,0.203989,-0.51906693,0.2412405,12.572608947753906,1.2485086917877197,2.705503225326538,1.1394387483596802,-3.517853260040283, 2.3352444171905518
198,3923509527,0.7938008,0.204227,-0.51952875,0.24137478,12.522398948669434,1.412507176399231,2.7553396224975586,1.6931849718093872,-3.524909496307373, 1.2968028783798218
199,3923526194,0.79335004,0.20486315,-0.51981604,0.24169861,12.553691864013672,1.0343711376190186,2.7102530002593994,4.806024551391602,-3.1288347244262695, 0.6954296231269836
200,3923542861,0.79262966,0.20605427,-0.5200748,0.2424921,12.223480224609375,1.096714973449707,2.875821590423584,10.106513023376465,-4.182965278625488, 1.764504313468933
201,3923559528,0.7919052,0.20755234,-0.5203167,0.24306145,12.119685173034668,2.0886728763580322,3.3461241722106934,10.876840591430664,-4.936478614807129, -0.6462215185165405
202,3923576195,0.791203,0.20849939,-0.5210613,0.2429425,11.923738479614258,1.8299272060394287,3.077280044555664,4.709311485290527,-7.6575703620910645, -1.6326943635940552
203,3923592862,0.79025817,0.20901304,-0.5224215,0.24265508,11.745247840881348,1.804612398147583,3.1077473163604736,0.8966048359870911,-11.3999605178833, 0.21882858872413635
204,3923609529,0.7894125,0.20855051,-0.52432984,0.24168749,11.880284309387207,2.419036865234375,2.9220054149627686,-7.807384490966797,-13.370748519897461, 0.718801736831665
205,3923626196,0.7885898,0.20725524,-0.52665305,0.24043314,11.983959197998047,1.603227138519287,2.425851821899414,-14.45123291015625,-14.574416160583496, 2.5705904960632324
206,3923642863,0.7876905,0.20662776,-0.52849716,0.23987392,11.776143074035645,1.6870086193084717,2.457822322845459,-7.358367919921875,-12.35065746307373, 3.4033985137939453
207,3923659530,0.78692347,0.20584863,-0.5302216,0.23925512,11.842890739440918,1.5289833545684814,2.4190008640289307,-8.575636863708496,-11.049633979797363, 3.166839599609375
208,3923676197,0.7858544,0.20557569,-0.5321381,0.23874825,11.577037811279297,1.1640403270721436,2.3007452487945557,-5.212085247039795,-13.848206520080566, 2.7582271099090576
209,3923692864,0.7845452,0.20487462,-0.5347279,0.23786855,11.475615501403809,1.247612476348877,2.196300983428955,-9.736028671264648,-18.177051544189453, 3.623004674911499
210,3923709531,0.7832654,0.20311731,-0.53810436,0.23597126,11.56545639038086,0.9518156051635742,1.9668432474136353,-20.553770065307617,-22.004348754882812, 3.06657338142395
211,3923726198,0.78155446,0.20268404,-0.54140157,0.23447032,11.3232421875,0.25666671991348267,2.037181854248047,-11.431631088256836,-24.75002670288086, 0.8078715205192566
212,3923742865,0.7794377,0.20365764,-0.5445926,0.2332805,11.168660163879395,0.16645345091819763,2.081204652786255,-1.9417171478271484,-27.51048469543457, -2.2425386905670166
213,3923759532,0.77701014,0.20539884,-0.5479692,0.23194017,11.510144233703613,0.6176708340644836,2.1921489238739014,1.7172927856445312,-31.103931427001953, -5.182671070098877
214,3923776199,0.7743284,0.20750585,-0.55163884,0.23032916,10.791892051696777,1.0190128087997437,1.8246732950210571,2.42060923576355,-34.58945083618164, -7.225861072540283
215,3923792866,0.7714734,0.20984888,-0.55556184,0.22834915,10.913900375366211,1.0896720886230469,1.7047948837280273,2.0991313457489014,-37.49155044555664, -9.43209171295166
216,3923809533,0.7680628,0.21317764,-0.55967104,0.22672331,10.979196548461914,1.1525590419769287,1.916286826133728,9.185537338256836,-41.6339111328125, -10.148881912231445
217,3923826200,0.76443887,0.21571381,-0.56451964,0.22454135,10.342241287231445,1.946244716644287,1.5725165605545044,1.9222157001495361,-45.943267822265625, -8.61767578125
218,3923842867,0.7609577,0.21707939,-0.56985855,0.22154315,10.80831527709961,1.9265426397323608,0.8124326467514038,-8.384668350219727,-47.37092590332031, -7.800963401794434
219,3923859534,0.75716144,0.21981329,-0.57455355,0.21971987,10.974372863769531,1.0762009620666504,0.533846914768219,4.737303256988525,-45.54975128173828, -7.461343288421631
220,3923876201,0.7530112,0.22359635,-0.57888085,0.21880554,10.586531639099121,1.6135531663894653,0.8929253220558167,14.886896133422852,-45.22228240966797, -6.859790325164795
221,3923892868,0.7489976,0.22682294,-0.58335996,0.21735959,10.554905891418457,1.568731665611267,0.3219601511955261,9.42214584350586,-45.440189361572266, -7.32580041885376
222,3923909535,0.74503756,0.22989684,-0.5878009,0.21577013,10.552781105041504,1.600583791732788,0.12097634375095367,8.041495323181152,-45.006717681884766, -7.541433811187744
223,3923926202,0.7414593,0.23209529,-0.5921952,0.2137172,10.843887329101562,1.5499197244644165,-0.23425373435020447,1.0958786010742188,-42.64067840576172, -6.976049423217773
224,3923942869,0.73803854,0.23446172,-0.59611106,0.21208152,10.524806022644043,1.770855188369751,-0.11652791500091553,4.10685920715332,-39.11488342285156, -6.4797539710998535
225,3923959536,0.73506624,0.2367797,-0.5993763,0.21062051,10.28277587890625,1.626420259475708,-0.7634366750717163,4.827905178070068,-33.60470962524414, -7.043201446533203
226,3923976203,0.732177,0.23929156,-0.60212654,0.21000077,10.53235149383545,0.84579998254776,-0.892224907875061,9.784079551696777,-29.541893005371094, -4.511295795440674
227,3923992870,0.72973675,0.24150456,-0.6043845,0.20947371,10.5419282913208,1.9798085689544678,-0.6353570222854614,8.6710786819458,-24.5855770111084, -4.243843078613281
228,3924009537,0.7275669,0.24359575,-0.6062769,0.20913129,9.919107437133789,1.6982288360595703,-0.8523156642913818,8.798331260681152,-21.126493453979492, -3.7573771476745605
229,3924026204,0.725213,0.24616681,-0.60794765,0.20944661,9.45944881439209,1.489227533340454,1.2010886669158936,14.612662315368652,-20.344816207885742, -2.529477834701538
230,3924042871,0.7234649,0.24640945,-0.61040694,0.20804906,9.919890403747559,2.472829580307007,-0.5340685248374939,-6.385871887207031,-21.333993911743164, -0.8319787383079529
231,3924059538,0.7219046,0.24667636,-0.61234933,0.20744373,9.673089981079102,1.3356603384017944,-1.2320009469985962,-2.5023763179779053,-16.64983558654785, 1.9322562217712402
232,3924076205,0.7206599,0.24680498,-0.61376023,0.20744908,9.572564125061035,1.5433833599090576,-0.8487820625305176,-0.40427109599113464,-11.412219047546387, 4.226872444152832
233,3924092872,0.72020423,0.2454744,-0.61501616,0.20689006,10.208415031433105,1.5482465028762817,-1.3536721467971802,-11.109604835510254,-6.165313243865967, 6.235025405883789
234,3924109539,0.72001845,0.24459922,-0.6153783,0.20749545,9.502238273620605,1.6324689388275146,-1.1935796737670898,-3.137171983718872,0.7615233659744263, 8.218649864196777
235,3924126206,0.7205698,0.24310623,-0.6152734,0.20764697,9.303217887878418,0.8631237149238586,-1.0089811086654663,-8.727827072143555,6.344058036804199, 6.789821624755859
236,3924142873,0.721396,0.24228272,-0.61448383,0.20807815,9.176334381103516,0.32463333010673523,-0.6292418241500854,-3.7129719257354736,10.439414024353027, 3.8161463737487793
237,3924159540,0.72232896,0.24264233,-0.6129526,0.20893736,9.188968658447266,-0.40143558382987976,-0.4870283603668213,4.820832252502441,13.603408813476562, -0.4528328478336334
238,3924176207,0.72358346,0.24285194,-0.61146015,0.2087256,8.598695755004883,1.3760337829589844,0.21385549008846283,-1.090653419494629,13.20195198059082, -5.558420181274414
239,3924192874,0.7249779,0.24353576,-0.60970086,0.20823644,8.495759963989258,-0.028996624052524567,-0.581181526184082,0.29574376344680786,13.962206840515137, -9.560731887817383
240,3924209541,0.7261414,0.24490039,-0.6077085,0.20840578,8.51174545288086,1.6914743185043335,-0.17060571908950806,7.02688455581665,14.28763198852539, -9.18224048614502
241,3924226208,0.7271678,0.24515307,-0.60633236,0.2085383,7.929092884063721,2.909766674041748,0.34059980511665344,0.6793836355209351,12.173806190490723, -3.453029155731201
242,3924242875,0.72841096,0.24283357,-0.6058565,0.2082961,7.960544586181641,3.3548996448516846,-0.45121005177497864,-15.440086364746094,11.616125106811523, 6.693253993988037
243,3924259542,0.7292165,0.2410738,-0.60497266,0.21008298,8.296591758728027,1.638375997543335,-0.6878440976142883,-2.881817102432251,14.443425178527832, 14.563217163085938
244,3924276209,0.72998565,0.23937018,-0.6036811,0.21305437,8.180853843688965,2.21132755279541,-0.720848560333252,2.9076952934265137,18.252696990966797, 19.68975257873535
245,3924292876,0.73072636,0.23785573,-0.6021421,0.21653768,8.02728271484375,1.0800142288208008,-0.24660757184028625,6.337324619293213,19.984386444091797, 21.167198181152344
246,3924309543,0.73131675,0.23637196,-0.6007906,0.21989822,7.420186519622803,1.3630797863006592,-0.34275269508361816,5.919937610626221,18.202503204345703, 20.968055725097656
247,3924326210,0.73114425,0.23566031,-0.6000234,0.22330336,7.2048563957214355,0.8226592540740967,0.512440025806427,10.409273147583008,11.056175231933594, 20.106761932373047
248,3924342877,0.729691,0.23569334,-0.6004866,0.22675054,5.420881271362305,1.8294143676757812,2.2005882263183594,14.374833106994629,-1.4904577732086182, 21.25652313232422
249,3924359544,0.7278562,0.23353551,-0.60292226,0.22841008,6.880731105804443,3.678898811340332,0.982906699180603,-6.409212112426758,-12.510713577270508, 25.17322540283203
250,3924376211,0.72600096,0.2289455,-0.6068099,0.2286669,9.675980567932129,3.0656685829162598,-1.6251602172851562,-26.611356735229492,-18.305816650390625, 30.722942352294922
251,3924392878,0.7226946,0.2292263,-0.6085613,0.2341391,8.639718055725098,2.90590763092041,-0.9648943543434143,25.111474990844727,-13.03028392791748, 35.450599670410156
252,3924409545,0.7200066,0.22804195,-0.61065114,0.23810229,6.352909564971924,4.830931186676025,-0.1493455469608307,9.929675102233887,-12.05698013305664, 33.739315032958984
253,3924426212,0.71602666,0.22860625,-0.613728,0.24162623,7.561066627502441,-2.2102928161621094,-2.6931161880493164,17.141986846923828,-25.87990951538086, 28.06525421142578
254,3924442879,0.7100058,0.23464479,-0.61727595,0.24454874,9.495516777038574,9.864943504333496,-2.274639844894409,44.000701904296875,-46.704742431640625, 6.045307159423828
255,3924459546,0.7064175,0.2424762,-0.6222564,0.2344709,7.165233612060547,14.544025421142578,-8.476017951965332,-8.909710884094238,-67.2535171508789, -66.35240936279297
256,3924476213,0.6974142,0.26501396,-0.62454444,0.23092312,7.8704729080200195,11.176548957824707,-8.464879035949707,103.74043273925781,-89.83714294433594, -92.72276306152344
257,3924492880,0.68804693,0.28558367,-0.63025796,0.21865082,5.525456428527832,9.89373779296875,-6.820024490356445,51.92066192626953,-120.2697982788086, -118.80670166015625
258,3924509547,0.67771834,0.30575037,-0.63641506,0.2054032,5.216652870178223,0.9226191639900208,-5.392101764678955,46.90142059326172,-127.64009094238281, -118.89221954345703
259,3924526214,0.6647458,0.32839775,-0.6409176,0.19872764,3.4820637702941895,-2.4577362537384033,-4.703220367431641,95.19766998291016,-121.0240707397461, -98.88986206054688
260,3924542881,0.65201956,0.34621117,-0.64672023,0.19173296,2.10113787651062,-3.3299639225006104,-3.3323490619659424,69.57769775390625,-119.83747100830078, -76.72354888916016
261,3924559548,0.6410995,0.3574514,-0.65416497,0.18245047,0.4909088909626007,-5.247777938842773,-1.039370059967041,23.50094985961914,-115.88463592529297, -56.359928131103516
262,3924576215,0.6326394,0.36211762,-0.66261864,0.17197418,0.23549066483974457,-8.01879596710205,1.3935998678207397,-18.16962242126465,-104.01896667480469, -32.773162841796875
263,3924592882,0.62678,0.36005372,-0.6719403,0.16125838,0.4395618438720703,-7.449586868286133,0.8452529907226562,-56.11416244506836,-88.78012084960938, -4.177888870239258
264,3924609549,0.6230855,0.35353586,-0.68080014,0.15260422,3.1163136959075928,-6.56174373626709,1.3810861110687256,-70.75968933105469,-66.93221282958984, 21.739599227905273
265,3924626216,0.6206257,0.34488806,-0.6890677,0.14512695,4.31741189956665,-2.4701621532440186,-0.3045610189437866,-76.66047668457031,-53.701934814453125, 33.767276763916016
266,3924642883,0.6190418,0.3328906,-0.69824463,0.1357421,5.997039794921875,-2.9213178157806396,-0.3604520857334137,-102.85765838623047,-54.725379943847656, 42.6661262512207
267,3924659550,0.61593264,0.32275456,-0.706988,0.12893605,5.49289608001709,-2.9427332878112793,1.407071590423584,-78.4662857055664,-56.126461029052734, 44.859066009521484
268,3924676217,0.61442494,0.31453353,-0.712653,0.12520632,8.441848754882812,-1.6862635612487793,12.745952606201172,-56.04605484008789,-30.320541381835938, 40.03147888183594
269,3924692884,0.6168726,0.30630013,-0.7147719,0.12144782,11.977272987365723,2.711632490158081,9.97060489654541,-60.57571792602539,3.6739232540130615, 27.10191535949707
270,3924709551,0.619821,0.29709148,-0.7179625,0.109948546,14.59910774230957,3.9877336025238037,-3.4669981002807617,-104.57070922851562,-14.509653091430664, 0.9262108206748962
271,3924726218,0.61969817,0.29857346,-0.71773016,0.10812726,8.821708679199219,-3.7342512607574463,-1.5784912109375,-2.3655784130096436,-3.4065053462982178, -15.22165584564209
272,3924742885,0.61923575,0.3037148,-0.71590436,0.108560495,5.891644477844238,-0.008108033798635006,-2.5016345977783203,26.197227478027344,3.567142963409424, -26.946908950805664
273,3924759552,0.6201462,0.3076217,-0.71363837,0.1072749,6.526177883148193,-0.9755797982215881,-3.7605507373809814,9.929147720336914,9.548591613769531, -30.17603874206543
274,3924776219,0.6229353,0.3103312,-0.71007633,0.106948,6.1840128898620605,0.16327975690364838,-5.646821022033691,6.4812164306640625,27.265485763549805, -24.427515029907227
275,3924792886,0.62661767,0.31156817,-0.7059932,0.108855,7.7814531326293945,1.8380088806152344,-1.7518576383590698,9.523788452148438,39.845279693603516, -9.467191696166992
276,3924809553,0.63145685,0.30966127,-0.7021362,0.11125283,9.609933853149414,5.24416971206665,-0.48643791675567627,-4.259336948394775,47.83589553833008, 7.556685924530029
277,3924826220,0.63761497,0.30484205,-0.6982078,0.11412414,8.777522087097168,3.0467309951782227,-2.494272470474243,-17.31397247314453,57.63539123535156, 22.663896560668945
278,3924842887,0.64384866,0.30109492,-0.6928396,0.12154896,8.828695297241211,1.9296200275421143,-1.861072301864624,10.236899375915527,73.00315856933594, 34.46144485473633
279,3924859554,0.6520076,0.29460815,-0.6868764,0.12764394,8.421419143676758,0.5390771627426147,-1.8018337488174438,-11.69381046295166,84.3152847290039, 38.79677963256836
280,3924876221,0.6604537,0.28819,-0.68008757,0.13501233,9.157805442810059,-1.7689765691757202,-0.11954236775636673,-5.213896751403809,91.87376403808594, 42.22331237792969
281,3924892888,0.66878885,0.28365254,-0.67212737,0.14320506,7.193549156188965,-1.2728979587554932,0.22983646392822266,7.1912055015563965,95.77894592285156, 37.050575256347656
282,3924909555,0.6769435,0.2843842,-0.661067,0.15447818,4.971390724182129,-1.6492863893508911,3.3986384868621826,48.9845085144043,109.95452117919922, 20.95928955078125
283,3924926222,0.68285745,0.29131198,-0.6484793,0.16827875,-3.304652214050293,-1.7027980089187622,3.7434136867523193,94.9599609375,104.96391296386719, 4.375694751739502
284,3924942889,0.6825622,0.29371306,-0.647039,0.17082852,-7.523651123046875,4.301235198974609,2.9347944259643555,22.823862075805664,7.422389507293701, 1.6057466268539429
285,3924959556,0.6795959,0.29216298,-0.6524288,0.16470212,-5.18629789352417,2.38690185546875,2.171715497970581,-36.79140853881836,-49.45869827270508, -4.531383037567139
286,3924976223,0.67338187,0.29569638,-0.6587459,0.15866537,-4.883206367492676,2.733553647994995,-0.5299059152603149,-7.038019180297852,-74.00764465332031, -21.300329208374023
287,3924992890,0.665191,0.30635828,-0.6632729,0.15406086,-7.532355785369873,1.7009105682373047,-3.888186454772949,38.42774963378906,-79.54513549804688, -48.14438247680664
288,3925009557,0.6542401,0.32230034,-0.6673227,0.15090655,-9.39513111114502,1.5088872909545898,-7.430917739868164,75.50521850585938,-92.35576629638672, -63.369388580322266
289,3925026224,0.64006346,0.33959886,-0.6727716,0.14956562,-12.152985572814941,1.8169687986373901,-3.193342685699463,95.54912567138672,-110.598388671875, -54.51996994018555
290,3925042891,0.6299826,0.34453,-0.6826638,0.13561484,1.4289873838424683,3.3932645320892334,0.8740001320838928,-31.292795181274414,-127.84929656982422, -46.25568389892578
291,3925059558,0.6220886,0.34325266,-0.6936707,0.11834154,13.534180641174316,-3.308255434036255,-0.1967497169971466,-79.75575256347656,-124.6319351196289, -30.901199340820312
292,3925076225,0.6120492,0.34398782,-0.7044604,0.10394136,16.860857009887695,0.6587753891944885,2.472315788269043,-51.916114807128906,-128.88299560546875, -27.554668426513672
293,3925092892,0.6034956,0.34148243,-0.71524274,0.08723938,15.702308654785156,-0.12643975019454956,-1.9730570316314697,-79.99022674560547,-125.0417251586914, -22.86882209777832
294,3925109559,0.59617466,0.3409672,-0.72266287,0.07794654,6.083067417144775,0.17528116703033447,-6.667286396026611,-35.26193618774414,-87.86429595947266, -13.963417053222656
295,3925126226,0.5938165,0.33938244,-0.72590375,0.07256305,1.6188063621520996,5.10101318359375,-8.143431663513184,-29.671092987060547,-36.18663024902344, -5.119121551513672
296,3925142893,0.5953981,0.33910593,-0.72451776,0.07471514,5.015019416809082,5.354936122894287,-3.968181610107422,6.36344051361084,19.51302146911621, 6.5002121925354
297,3925159560,0.60214156,0.33506373,-0.7201669,0.08073277,8.931794166564941,3.111616849899292,-6.669459819793701,-0.2950513958930969,68.3576889038086, 31.625110626220703
298,3925176227,0.61262834,0.32600716,-0.7143209,0.09028683,11.336669921875,2.911607503890991,-4.661458969116211,-11.359395027160645,104.11145782470703, 65.57496643066406
299,3925192894,0.62715816,0.3111506,-0.70691574,0.10063893,12.560643196105957,2.43741774559021,-4.163751125335693,-39.965911865234375,135.9506378173828, 91.4029769897461
300,3925209561,0.64330024,0.29852337,-0.695517,0.11534642,13.570245742797852,0.7268271446228027,-1.4538038969039917,-9.861163139343262,168.7987060546875, 89.65633392333984
301,3925226228,0.65834737,0.2944624,-0.6794923,0.13476256,10.510890007019043,-4.982363224029541,1.7942731380462646,55.23662185668945,185.68670654296875, 63.990989685058594
302,3925242895,0.6710717,0.3081578,-0.65329576,0.16705208,6.095180034637451,-5.150773048400879,6.6157145500183105,209.49923706054688,230.34469604492188, 21.200937271118164
303,3925259562,0.674757,0.3155031,-0.6404456,0.18705758,-7.570631980895996,2.3533270359039307,1.684180736541748,128.22341918945312,109.06543731689453, 32.34933853149414
304,3925276229,0.67449623,0.31433108,-0.6426328,0.18241185,-7.5196146965026855,7.37467622756958,-10.369665145874023,-30.25017738342285,-20.37248992919922, -7.514251708984375
305,3925292896,0.6624752,0.32307246,-0.6525963,0.17569566,-4.591403484344482,1.3025786876678467,-14.213314056396484,21.93397331237793,-125.17578887939453, -28.413469314575195
306,3925309563,0.6439419,0.3353947,-0.66752094,0.1651222,-6.849010944366455,0.5756626725196838,-9.63540267944336,29.488805770874023,-189.52328491210938, -42.86804962158203
307,3925326230,0.61799765,0.35808134,-0.68017143,0.16499628,-6.20863151550293,-8.87807846069336,-5.141266822814941,143.21192932128906,-200.84515380859375, -40.739219665527344
308,3925342897,0.5884404,0.38274625,-0.6908913,0.17295325,-10.664030075073242,-6.3715901374816895,4.957045078277588,200.86355590820312,-191.5070037841797, -16.76296043395996
309,3925359564,0.5691127,0.391229,-0.7031392,0.16925195,-14.920341491699219,-7.069247245788574,14.670881271362305,51.65785217285156,-160.38539123535156, 3.975726366043091
310,3925376231,0.56386024,0.38223848,-0.7155603,0.15469022,-16.25978660583496,-7.755437850952148,20.85430335998535,-106.37205505371094,-101.73008728027344, 26.11412239074707
311,3925392898,0.57254225,0.3587385,-0.7241536,0.13821724,-11.373469352722168,-10.215846061706543,17.740930557250977,-204.5226287841797,-8.362496376037598, 65.14234161376953
312,3925409565,0.5724596,0.3472173,-0.73108685,0.1313097,-10.217495918273926,15.768439292907715,-54.944583892822266,-87.30756378173828,-34.749794006347656, 52.34716033935547
313,3925426232,0.5765789,0.3140871,-0.7491575,0.08757353,46.81830978393555,21.705331802368164,22.052047729492188,-377.7908020019531,-124.53929138183594, 38.95646286010742
314,3925442899,0.571942,0.32134232,-0.7505835,0.07903192,-1.5974270105361938,14.90822982788086,8.757794380187988,-6.342562675476074,-51.701873779296875, -64.60504913330078
315,3925459566,0.56125563,0.3431874,-0.74776465,0.089793034,42.03131103515625,6.137918949127197,5.088795185089111,166.49099731445312,-31.72559356689453, -69.72969818115234
316,3925476233,0.55654794,0.35534468,-0.74520284,0.09304423,4.796847820281982,-16.440385818481445,-6.849984169006348,76.30892181396484,-14.25130558013916, -52.148414611816406
317,3925492900,0.557202,0.35334364,-0.74584377,0.09160469,12.731552124023438,-17.989707946777344,-9.069905281066895,-17.232858657836914,-1.271659255027771, 6.377025604248047
318,3925509567,0.56265897,0.34160587,-0.74758655,0.08851489,6.482387542724609,-0.1316007524728775,-3.700103282928467,-75.55475616455078,21.396953582763672, 49.106292724609375
319,3925526234,0.5726647,0.33041766,-0.74474615,0.09073407,6.433787822723389,8.777615547180176,-3.712812900543213,-54.04298400878906,74.69974517822266, 53.26917266845703
320,3925542901,0.58222103,0.32948673,-0.7354004,0.10790583,7.260987281799316,12.190180778503418,0.27344661951065063,68.0489730834961,125.6341323852539, 45.33197021484375
321,3925559568,0.59231937,0.33170006,-0.72234213,0.13173816,6.610174655914307,5.83519983291626,1.0602420568466187,115.2179183959961,154.57838439941406, 52.37803268432617
322,3925576235,0.60419005,0.33836305,-0.70313394,0.16145426,1.7424253225326538,3.1622073650360107,4.338562965393066,163.66616821289062,197.72360229492188, 39.805179595947266
323,3925592902,0.614413,0.33601648,-0.6921386,0.17473875,-7.862109184265137,6.8336968421936035,-2.973430633544922,41.119972229003906,127.37811279296875, 36.45711135864258
324,3925609569,0.62295985,0.32991275,-0.68863505,0.1698845,-7.396463871002197,5.4072585105896,-10.44546127319336,-66.27657318115234,50.575157165527344, -3.181968927383423
325,3925626236,0.62356097,0.33479762,-0.685631,0.17027223,-5.689559459686279,-4.409901142120361,-6.371272087097168,22.908170700073242,10.14499282836914, -22.051145553588867
326,3925642903,0.6206699,0.34212357,-0.68381774,0.1735326,-11.368956565856934,-4.451566219329834,0.6066303253173828,53.58637237548828,-7.353025913238525, -14.75749683380127
327,3925659570,0.619414,0.34373438,-0.68460774,0.17171302,-12.434308052062988,-4.440761089324951,6.164169788360596,-1.4976271390914917,-15.751708984375, -5.927821159362793
328,3925676237,0.61918885,0.34047708,-0.6875965,0.16700844,-9.645129203796387,-9.389894485473633,6.827016353607178,-40.82305908203125,-21.522289276123047, 8.72523307800293
329,3925692904,0.61907405,0.335242,-0.6912984,0.16268656,-9.227632522583008,-4.7766337394714355,4.989494800567627,-48.50496292114258,-21.1190128326416, 21.16856575012207
330,3925709571,0.62040544,0.3281847,-0.6946201,0.15778244,-9.1117582321167,-4.957131862640381,3.466543674468994,-61.98333740234375,-12.172967910766602, 25.06778335571289
331,3925726238,0.6187024,0.32785144,-0.69684666,0.15532407,-11.162192344665527,3.2042200565338135,-19.836395263671875,-13.577085494995117,-23.88844108581543, 4.193508148193359
332,3925742905,0.60730976,0.3282251,-0.70973915,0.14040606,12.568326950073242,7.812703609466553,-9.61240291595459,-59.76130676269531,-143.9351043701172, -17.684246063232422
333,3925759572,0.5993745,0.33414924,-0.71564585,0.13017535,2.077273368835449,0.5395419597625732,20.071178436279297,-14.579325675964355,-92.58039093017578, -44.09479904174805
334,3925776239,0.5876226,0.34616688,-0.7204024,0.12605052,17.32474136352539,5.775116443634033,-2.182371139526367,50.65562057495117,-98.70528411865234, -47.96097946166992
335,3925792906,0.58045244,0.35391977,-0.7240236,0.11664327,12.654034614562988,-0.10842600464820862,5.104986667633057,-2.4760754108428955,-80.39177703857422, -54.616844177246094
336,3925809573,0.57109874,0.3634286,-0.72684425,0.11603276,20.01541519165039,-3.876171350479126,-3.277594566345215,54.989559173583984,-66.80998992919922, -34.65271759033203
337,3925826240,0.56723976,0.36518055,-0.7293423,0.113763936,10.329944610595703,-2.3085715770721436,-5.264840126037598,2.7363522052764893,-36.121185302734375, -7.8116021156311035
338,3925842907,0.5679858,0.3635654,-0.72933644,0.11524292,7.9871344566345215,0.22901016473770142,-6.641945838928223,-1.2501953840255737,8.843484878540039, 13.692228317260742
339,3925859574,0.5718892,0.3614773,-0.7265327,0.120113626,8.849089622497559,4.321811676025391,-4.086152076721191,8.201992988586426,44.5733528137207, 19.789215087890625
340,3925876241,0.5771814,0.36233068,-0.72026503,0.12960158,10.546818733215332,5.499357223510742,1.4712191820144653,41.73020935058594,72.74919891357422, 20.105323791503906
341,3925892908,0.5824992,0.36407298,-0.7122988,0.14413911,10.817734718322754,3.6765503883361816,3.564168930053711,71.64017486572266,91.45836639404297, 31.21302604675293
342,3925909575,0.5897983,0.36320072,-0.7031265,0.16073807,6.223799705505371,0.6910728216171265,5.196600437164307,67.49444580078125,113.895263671875, 46.25551223754883
343,3925926242,0.5976856,0.3647007,-0.690463,0.1817311,-2.3866493701934814,2.1755270957946777,3.7557315826416016,100.80354309082031,139.41769409179688, 41.95305633544922
344,3925942909,0.6056329,0.35546663,-0.68754023,0.18477279,-10.579231262207031,11.463272094726562,-6.478353500366211,-40.290748596191406,68.53484344482422, 40.22163009643555
345,3925959576,0.6140335,0.34561715,-0.6876864,0.17492674,-7.054269313812256,6.822769641876221,-5.573991775512695,-109.17683410644531,27.172761917114258, -1.5911705493927002
346,3925976243,0.61478007,0.35277253,-0.6817822,0.18102501,-7.597832679748535,-7.365450382232666,-1.8656744956970215,63.23630142211914,34.01738739013672, -18.82390594482422
347,3925992910,0.6102706,0.36762056,-0.67440945,0.1938989,-9.839838027954102,0.7736799120903015,-0.05837149918079376,142.653076171875,23.02840232849121, -26.095443725585938
348,3926009577,0.6069964,0.37547195,-0.672836,0.19459674,-11.078983306884766,1.427420973777771,2.408825159072876,46.67135238647461,-16.58852195739746, -34.781982421875
349,3926026244,0.60705596,0.3734372,-0.6777742,0.18069343,-10.920686721801758,-2.1065306663513184,3.6321942806243896,-79.40834045410156,-52.765052795410156, -37.87651824951172
350,3926042911,0.6071294,0.36879343,-0.68396664,0.1660573,-9.817852973937988,-9.769068717956543,3.0902748107910156,-95.8495101928711,-56.93328094482422, -23.01914405822754
351,3926059578,0.6052776,0.36826983,-0.6871007,0.16096282,-10.497708320617676,-7.950325965881348,4.842360496520996,-25.741212844848633,-34.04791259765625, -6.559698581695557
352,3926076245,0.6044162,0.36723983,-0.68855053,0.16035622,-9.152082443237305,-4.446683406829834,9.126644134521484,-7.366153240203857,-10.596417427062988, 9.487430572509766
353,3926092912,0.60341924,0.3678959,-0.689792,0.15724197,-13.836766242980957,5.507551670074463,-34.65414047241211,-11.659256935119629,-18.812040328979492, -9.083370208740234
354,3926109579,0.5949278,0.35690373,-0.70864874,0.12844314,22.228464126586914,5.514653205871582,-11.348384857177734,-182.04519653320312,-178.76034545898438, -7.72441291809082
355,3926126246,0.59108955,0.35657904,-0.7145639,0.11341573,-3.9989943504333496,-3.847348690032959,18.450164794921875,-71.53724670410156,-79.54932403564453, -35.77389144897461
356,3926142913,0.5810984,0.36209494,-0.7209378,0.10705644,33.216773986816406,5.756918430328369,-2.5430986881256104,10.088810920715332,-94.20906066894531, -28.568593978881836
357,3926159580,0.5789596,0.36588764,-0.7211908,0.103999816,12.548646926879883,-0.8706817626953125,1.3899602890014648,4.571406841278076,-21.58005142211914, -27.950763702392578
358,3926176247,0.57483935,0.36731327,-0.7239609,0.10257464,26.13798713684082,-5.243457794189453,-2.5389461517333984,6.440464973449707,-35.791507720947266, -2.0825910568237305
359,3926192914,0.5736089,0.36689907,-0.72501796,0.10347439,16.0601806640625,-0.16998514533042908,1.007275938987732,4.625367641448975,-7.653630256652832, 9.602943420410156
360,3926209581,0.5769387,0.36457074,-0.72273105,0.10904101,9.047779083251953,-3.659501552581787,-4.216014862060547,11.239163398742676,41.22257995605469, 25.76787567138672
361,3926226248,0.5846607,0.36034292,-0.71675545,0.12077516,-1.3077540397644043,0.22247380018234253,-6.040155410766602,26.073841094970703,94.61271667480469, 47.019775390625
362,3926242915,0.5962434,0.3532172,-0.7083904,0.13384604,-0.1185782179236412,2.6811439990997314,-3.760345220565796,13.010659217834473,127.87823486328125, 62.87312316894531
363,3926259582,0.6079974,0.35414195,-0.69293416,0.1573696,0.7394507527351379,3.754047155380249,0.7989857792854309,102.84222412109375,176.0605926513672, 48.89799880981445
364,3926276249,0.6171819,0.35963327,-0.6761528,0.18046597,-5.402355670928955,7.539477825164795,-2.965797185897827,127.8617172241211,164.0574951171875, 22.15993309020996
365,3926292916,0.623425,0.35880494,-0.6697033,0.1846562,-7.993680477142334,8.741100311279297,-5.286292552947998,8.372772216796875,68.48900604248047, -3.4147422313690186
366,3926309583,0.6241169,0.3606642,-0.6687572,0.18210803,-8.804075241088867,-1.126504898071289,-7.51196813583374,-4.605222702026367,-0.6405876278877258, -22.970561981201172
367,3926326250,0.62107116,0.3641431,-0.6698099,0.18172888,-9.5103759765625,-5.353726863861084,3.950772285461426,19.16524887084961,-22.685991287231445, -12.12362289428711
368,3926342917,0.6226044,0.36332166,-0.66883105,0.1817316,-13.587997436523438,-7.753596305847168,10.06903076171875,-6.478518962860107,13.200788497924805, -0.9847704768180847
369,3926359584,0.6272942,0.36250117,-0.6640538,0.18473688,-11.47840404510498,-5.5797200202941895,8.985878944396973,4.225910186767578,51.20043182373047, -1.5711231231689453
370,3926376251,0.6333555,0.35920915,-0.659747,0.18591309,-9.289314270019531,-5.160078048706055,1.426260232925415,-18.43868064880371,54.0245246887207, -0.135812908411026
371,3926392918,0.63522047,0.35885414,-0.6568984,0.19027168,-8.985520362854004,-4.175378322601318,-3.590641975402832,17.188749313354492,32.65653991699219, 9.839136123657227
372,3926409585,0.6332191,0.35851896,-0.65906376,0.19008626,-8.724191665649414,-0.993690013885498,-6.817383289337158,-0.26662856340408325,-17.780601501464844, 7.188604354858398
373,3926426252,0.62326646,0.36125877,-0.6694155,0.18142271,-5.558895111083984,5.630894660949707,-12.551772117614746,-16.53867530822754,-114.17398071289062, -12.810914993286133
374,3926442919,0.6123028,0.36008188,-0.6852046,0.16100045,6.881744861602783,0.7704686522483826,4.789247512817383,-92.14091491699219,-166.34237670898438, -28.691974639892578
375,3926459586,0.6028071,0.3640096,-0.6948878,0.1457797,5.3792829513549805,6.445037841796875,8.754638671875,-43.38081741333008,-127.33613586425781, -44.550899505615234
376,3926476253,0.5923542,0.37227705,-0.70202863,0.13297413,15.3270263671875,10.67941665649414,3.594099760055542,-8.714741706848145,-120.0220947265625, -60.56391525268555
377,3926492920,0.58121973,0.38336962,-0.7065248,0.12662634,15.254122734069824,-0.45056113600730896,3.1821014881134033,38.30256271362305,-98.84368133544922, -53.75627517700195
378,3926509587,0.5742161,0.38944408,-0.7094405,0.12370598,11.262800216674805,-1.7600560188293457,-8.268702507019043,25.562177658081055,-58.63806915283203, -26.482707977294922
379,3926526254,0.5725779,0.38762435,-0.71216416,0.12134394,7.1415863037109375,-6.840285778045654,-9.738168716430664,-17.148435592651367,-23.35557746887207, 9.046210289001465
380,3926542921,0.57590955,0.3835557,-0.71169317,0.12127008,7.977442264556885,-0.8104242086410522,-4.653898239135742,-25.481399536132812,21.742101669311523, 16.232717514038086
381,3926559588,0.58166456,0.38024294,-0.70798475,0.12585442,9.1175537109375,0.016202494502067566,-3.1399130821228027,-3.4100306034088135,58.124977111816406, 20.366779327392578
382,3926576255,0.5890359,0.3780299,-0.7010419,0.13663967,8.597005844116211,2.7385060787200928,-3.691115617752075,29.74307632446289,94.18858337402344, 29.913175582885742
383,3926592922,0.59824127,0.3749278,-0.6917501,0.15171835,7.942122459411621,1.9463049173355103,-0.4764004349708557,44.23074722290039,124.39347076416016, 44.5908203125
384,3926609589,0.60837054,0.37722418,-0.6759598,0.17511658,7.397267818450928,0.1467946469783783,3.1317434310913086,110.4793472290039,171.43263244628906, 34.7544059753418
385,3926626256,0.6147227,0.38027784,-0.66193676,0.19835438,-2.4912636280059814,-2.712589740753174,3.205057144165039,121.21833038330078,145.58319091796875, 35.81733322143555
386,3926642923,0.6185384,0.37703034,-0.65770066,0.20661171,-9.665433883666992,5.777101993560791,-2.703674554824829,19.95943260192871,62.0145263671875, 29.465641021728516
387,3926659590,0.62005377,0.37127185,-0.6615645,0.20005777,-4.662485122680664,4.535871982574463,-10.278496742248535,-63.28062438964844,-17.54191780090332, 2.6059975624084473
388,3926676257,0.6149164,0.36983514,-0.6701215,0.18983452,-6.774047374725342,0.33980903029441833,-8.73983097076416,-51.2496452331543,-82.80846405029297, -10.80135726928711
389,3926692924,0.60554904,0.37122568,-0.68012184,0.18148346,-9.79317855834961,-5.454095363616943,-3.2315311431884766,-22.207368850708008,-107.27896118164062, -4.96511697769165
390,3926709591,0.5942227,0.37653786,-0.68724316,0.18115054,-11.799363136291504,-8.321473121643066,3.6665985584259033,39.97227478027344,-88.95154571533203, 6.347226142883301
391,3926726258,0.5837616,0.3821442,-0.6920979,0.18490247,-10.857075691223145,-6.13303804397583,5.7336835861206055,61.064823150634766,-65.43795013427734, 14.339191436767578
392,3926742925,0.5762332,0.3826497,-0.69784725,0.1858597,-9.777234077453613,-2.0013859272003174,6.665713787078857,18.48244857788086,-56.00853729248047, 25.482898712158203
393,3926759592,0.576398,0.37285185,-0.7050609,0.17786504,-12.521516799926758,-0.02303827553987503,9.037697792053223,-87.38216400146484,-35.41254806518555, 33.420326232910156
394,3926776259,0.581694,0.362412,-0.70888776,0.16663733,-12.618865966796875,2.8377270698547363,-3.134706735610962,-114.72403717041016,-5.176031589508057, 11.361617088317871
395,3926792926,0.5771933,0.36181766,-0.7152819,0.15590954,4.690418720245361,9.67439079284668,-20.855377197265625,-51.528011322021484,-73.4261703491211, -14.882217407226562
396,3926809593,0.57354116,0.36283723,-0.7204634,0.14259176,11.860268592834473,12.721353530883789,23.297937393188477,-58.67987823486328,-72.23270416259766, -36.125274658203125
397,3926826260,0.5677763,0.37134078,-0.7225216,0.13303654,11.714362144470215,2.265752077102661,-0.1079574003815651,-1.89054536819458,-69.25405883789062, -63.74708557128906
398,3926842927,0.55953807,0.3835253,-0.72257805,0.1330666,19.314584732055664,-1.964819073677063,3.7274999618530273,68.35165405273438,-52.68960189819336, -47.514984130859375
399,3926859594,0.5558289,0.3862069,-0.7251085,0.12694988,16.52596664428711,-9.254490852355957,-4.823404788970947,-13.030752182006836,-46.72848129272461, -25.833843231201172
400,3926876261,0.5546561,0.38551533,-0.72673726,0.124850795,12.116957664489746,-5.949169158935547,-3.805591344833374,-11.913496971130371,-17.056076049804688, 1.4488422870635986
401,3926892928,0.5578866,0.380953,-0.72686064,0.12373807,8.688008308410645,-0.015391627326607704,-3.508453607559204,-32.17622375488281,16.613367080688477, 16.603403091430664
402,3926909595,0.56357265,0.37675697,-0.72382545,0.12851821,5.736052989959717,2.733969211578369,-5.201335906982422,-5.079862117767334,56.147377014160156, 26.983137130737305
403,3926926262,0.57013726,0.37504965,-0.71717954,0.14119117,5.27955436706543,4.857282638549805,-0.9354984760284424,44.751304626464844,92.86463165283203, 35.099693298339844
404,3926942929,0.5768793,0.37938306,-0.70445395,0.16438909,5.736030578613281,4.601317882537842,3.2816965579986572,125.78829193115234,138.3309783935547, 33.78472137451172
405,3926959596,0.58330333,0.3855978,-0.6889892,0.19069818,-1.2970830202102661,3.166851282119751,3.199908971786499,152.35479736328125,154.09877014160156, 26.752790451049805
406,3926976263,0.589273,0.38388112,-0.6813364,0.2029127,-7.729339122772217,7.197456359863281,-3.2980105876922607,45.04231643676758,93.85610961914062, 26.060588836669922
407,3926992930,0.59591764,0.37813908,-0.67976636,0.19952634,-8.344437599182129,6.073842525482178,-5.853340148925781,-54.556373596191406,36.98505401611328, -2.943751096725464
408,3927009597,0.59732485,0.37682587,-0.6800195,0.19692355,-8.3128662109375,-4.720848083496094,-3.53098726272583,-21.687978744506836,1.2301098108291626, -7.884448528289795
409,3927026264,0.5942643,0.37899485,-0.6810922,0.19830869,-10.127933502197266,-3.1468722820281982,-0.9347608685493469,21.584060668945312,-17.33478355407715, 1.1576906442642212
410,3927042931,0.5912842,0.37929043,-0.68352854,0.1982694,-10.451844215393066,-4.494653224945068,2.787738084793091,5.151410102844238,-23.614309310913086, 7.5768866539001465
411,3927059598,0.5895628,0.37735566,-0.6871172,0.19464967,-10.313419342041016,-2.429396152496338,4.441555023193359,-25.636554718017578,-28.725372314453125, 4.969844341278076
412,3927076265,0.58847374,0.37362826,-0.6921304,0.1872332,-9.307003021240234,-1.6724474430084229,6.017819404602051,-54.42555618286133,-39.05747604370117, 1.2418321371078491
413,3927092932,0.58744746,0.36912885,-0.6980601,0.17709264,-8.10677433013916,-2.6179819107055664,2.6106998920440674,-72.0002670288086,-48.83991622924805, -1.7369457483291626
414,3927109599,0.5839172,0.36899835,-0.70239586,0.17181714,-7.472128868103027,-5.451447010040283,-0.6915396451950073,-22.754966735839844,-47.55276107788086, -3.123704195022583
415,3927126266,0.57331276,0.37554348,-0.70842916,0.16854672,-2.7739627361297607,4.415708065032959,-16.007780075073242,29.652587890625,-91.3206787109375, -14.211833000183105
416,3927142933,0.56715876,0.36799535,-0.7227261,0.14344853,8.629576683044434,4.874831199645996,5.761739730834961,-153.31292724609375,-141.79342651367188, -15.26231575012207
417,3927159600,0.5628685,0.36623037,-0.7302618,0.12558767,1.386435866355896,-3.592825412750244,-0.5690873265266418,-92.59180450439453,-94.40160369873047, -32.08732604980469
418,3927176267,0.5522358,0.37451676,-0.73458266,0.123131186,17.929214477539062,9.032289505004883,4.7313232421875,42.20156478881836,-82.83692169189453, -30.160905838012695
419,3927192934,0.5480283,0.37886402,-0.7366436,0.11611848,13.639615058898926,-0.7553719878196716,-0.16451793909072876,-10.295906066894531,-50.54863357543945, -38.769107818603516
420,3927209601,0.5426494,0.3838367,-0.7378072,0.11765111,14.411091804504395,-2.3391005992889404,-3.263089895248413,39.11673355102539,-31.497379302978516, -11.242118835449219
421,3927226268,0.5419117,0.3817898,-0.7395559,0.11672788,12.876293182373047,-1.4018199443817139,-2.488675832748413,-12.275864601135254,-11.01689624786377, 12.866847038269043
422,3927242935,0.544314,0.37851754,-0.7389348,0.12009256,11.919231414794922,0.30336782336235046,-2.4213716983795166,-1.3935422897338867,25.93878746032715, 26.236948013305664
423,3927259602,0.5481015,0.37779528,-0.73458576,0.13129821,9.067221641540527,3.3515400886535645,1.4497321844100952,47.45719909667969,65.16448211669922, 31.73209571838379
424,3927276269,0.5538153,0.38143265,-0.7244581,0.15152034,6.208281517028809,2.785198926925659,4.426080226898193,109.6828842163086,116.02982330322266, 26.978614807128906
425,3927292936,0.55913866,0.38389185,-0.71418977,0.17298643,-1.9195388555526733,2.5838916301727295,1.3049582242965698,112.60655212402344,118.93205261230469, 37.673988342285156
426,3927309603,0.5646713,0.37941533,-0.71018714,0.18117599,-7.146312236785889,8.05862808227539,-3.9267661571502686,12.74384593963623,69.0687026977539, 37.23903274536133
427,3927326270,0.57217866,0.37058806,-0.7099093,0.17693204,-7.835834503173828,2.2066473960876465,0.22842487692832947,-74.65706634521484,37.45130920410156, 17.766891479492188
428,3927342937,0.57630587,0.369472,-0.7064437,0.17972067,-8.552290916442871,-3.128732204437256,-0.7702213525772095,2.452514886856079,41.92918395996094, 5.439793586730957
429,3927359604,0.5802736,0.37119302,-0.7000938,0.18806136,-9.442859649658203,-4.639461040496826,5.787964344024658,44.63261795043945,63.5167236328125, 4.726969242095947
430,3927376271,0.58661187,0.37111378,-0.6935655,0.19268683,-11.446897506713867,0.7847281694412231,5.405590534210205,13.802095413208008,68.5077896118164, -6.068828582763672
431,3927392938,0.59423745,0.36839652,-0.6888724,0.19136518,-9.918990135192871,-2.696998119354248,5.0605316162109375,-30.872589111328125,55.52057647705078, -14.54715347290039
432,3927409605,0.59886867,0.36749142,-0.68546003,0.19092195,-8.675851821899414,-4.466404438018799,-1.389116644859314,-13.376678466796875,35.90282440185547, -12.52470588684082
433,3927426272,0.5992948,0.36840844,-0.6844036,0.19160609,-9.325531005859375,-3.406339406967163,-3.9078726768493652,6.933533191680908,6.950834274291992, -4.881628513336182
434,3927442939,0.59577,0.37063655,-0.68619454,0.19189574,-8.239874839782715,-2.8811399936676025,-3.058424711227417,16.717920303344727,-25.87209129333496, -0.563775897026062
435,3927459606,0.58959967,0.3731771,-0.6906227,0.19013564,-9.268386840820312,-0.630462110042572,-4.602980136871338,11.533838272094727,-54.65242004394531, -0.105141282081604
436,3927476273,0.5794645,0.37210372,-0.7037572,0.17460126,-4.872848033905029,4.016013145446777,-17.492340087890625,-69.7778549194336,-139.1332244873047, -11.685772895812988
437,3927492940,0.56355655,0.3758749,-0.7176466,0.16157241,9.528286933898926,-0.6493029594421387,0.35737890005111694,-24.638742446899414,-169.318359375, -12.517520904541016
438,3927509607,0.5567966,0.37737393,-0.7250181,0.14803874,2.9546613693237305,3.2666354179382324,8.827091217041016,-52.21630859375,-97.93539428710938, -29.69281005859375
439,3927526274,0.548858,0.3792968,-0.7325286,0.13524371,20.020734786987305,4.277070999145508,-1.441511869430542,-44.02988815307617,-102.84783935546875, -30.064546585083008
440,3927542941,0.54262036,0.3839805,-0.7353944,0.1315957,9.84750747680664,-0.511417806148529,-1.0872647762298584,12.378867149353027,-55.661956787109375, -23.171491622924805
441,3927559608,0.5390689,0.38479683,-0.7380553,0.12888224,13.689021110534668,-2.160856246948242,-5.28773832321167,-4.228650093078613,-35.44182586669922, -3.166243553161621
442,3927576275,0.53905004,0.3827074,-0.73909074,0.12924789,10.144267082214355,-2.2403438091278076,-4.085391521453857,-7.310038089752197,-0.7912154793739319, 15.458745002746582
443,3927592942,0.5431629,0.3787066,-0.7373996,0.13340671,10.014747619628906,-1.7880980968475342,-4.651957988739014,-3.591188907623291,41.97742462158203, 28.2991943359375
444,3927609609,0.55059916,0.37522304,-0.7316489,0.14400822,8.093780517578125,0.16805778443813324,-3.4503698348999023,26.053979873657227,90.29895782470703, 36.04911804199219
445,3927626276,0.56080365,0.37171054,-0.72263354,0.15852879,6.45959997177124,0.6807515025138855,-0.5214272737503052,41.750587463378906,126.73174285888672, 39.84547424316406
446,3927642943,0.5729683,0.37428525,-0.7057692,0.18305162,4.1214680671691895,-0.1540493369102478,2.761868953704834,118.52232360839844,185.43121337890625, 27.789575576782227
447,3927659610,0.5820809,0.37526694,-0.6916295,0.20495217,-4.118185043334961,3.5680251121520996,-1.1909992694854736,104.00727844238281,155.31434631347656, 32.521297454833984
448,3927676277,0.59181505,0.369239,-0.68521106,0.20953123,-7.052583694458008,9.179292678833008,-6.149538040161133,-18.729480743408203,92.67745208740234, 14.21423053741455
449,3927692944,0.59709156,0.3665343,-0.6824825,0.20821168,-6.44984245300293,-2.197211265563965,-7.5131659507751465,-26.992176055908203,37.136592864990234, -8.908370018005371
450,3927709611,0.5944272,0.37166274,-0.6808089,0.21218483,-9.351997375488281,-2.8356363773345947,-2.7448785305023193,48.49749755859375,-2.048201560974121, -10.201665878295898
451,3927726278,0.59181315,0.37269077,-0.682624,0.21185723,-11.422445297241211,-2.5890274047851562,2.1206302642822266,6.3913984298706055,-20.956823348999023, -0.12049517035484314
452,3927742945,0.59175545,0.37064812,-0.68507993,0.20763187,-12.803290367126465,-2.660623788833618,4.763309478759766,-31.931964874267578,-17.108915328979492, -3.260256052017212
453,3927759612,0.59297925,0.36784476,-0.6872582,0.20184627,-11.31540298461914,-3.211095094680786,3.3990626335144043,-45.2886848449707,-12.922618865966797, -8.053812026977539
454,3927776279,0.59274346,0.3661851,-0.6894016,0.19821483,-9.714546203613281,-4.761595726013184,0.07811944931745529,-26.811237335205078,-15.927837371826172, -1.5111416578292847
455,3927792946,0.58936226,0.367517,-0.69145185,0.19869009,-9.504080772399902,-3.333125114440918,-0.11246854066848755,12.837355613708496,-24.176057815551758, 5.500475883483887
456,3927809613,0.5847568,0.36867353,-0.694573,0.19926806,-9.945443153381348,-2.4082329273223877,0.7334684729576111,14.245671272277832,-33.77382278442383, 10.848320007324219
457,3927826280,0.5758586,0.3729818,-0.70091504,0.19490981,-10.839035034179688,6.818068504333496,-6.54226541519165,9.800751686096191,-84.01979064941406, -10.204078674316406
458,3927842947,0.5706145,0.36759198,-0.7144771,0.1696993,8.219542503356934,4.276007175445557,-4.933221817016602,-148.20603942871094,-135.2357177734375, -31.73102378845215
459,3927859614,0.5667369,0.3659187,-0.7220157,0.1536429,7.279738426208496,-2.538583278656006,9.37503719329834,-85.01216125488281,-86.41754150390625, -27.049148559570312
460,3927876281,0.55756706,0.37581027,-0.7244634,0.15178494,11.289606094360352,8.937483787536621,4.238125801086426,49.37200927734375,-69.8063735961914, -36.05125045776367
461,3927892948,0.5554401,0.37917185,-0.72659355,0.14063114,17.721214294433594,5.576156139373779,5.574347972869873,-39.72755813598633,-50.8960075378418, -47.885066986083984
462,3927909615,0.5502633,0.38501087,-0.727697,0.13940513,15.189781188964844,-9.011686325073242,-4.424224853515625,28.164276123046875,-38.779945373535156, -25.05736541748047
463,3927926282,0.54976135,0.3843107,-0.72878045,0.13764787,10.58720874786377,-3.965080499649048,-6.5075531005859375,-11.646129608154297,-10.496874809265137, 0.891815721988678
464,3927942949,0.55398715,0.379763,-0.7279653,0.13764007,10.130361557006836,-3.4610981941223145,-4.558403015136719,-28.16701316833496,28.70916748046875, 17.188730239868164
465,3927959616,0.56007046,0.37683308,-0.723462,0.14463991,8.88071060180664,0.7877839803695679,-2.059722900390625,11.6796236038208,68.8429183959961, 24.30408477783203
466,3927976283,0.5664581,0.37646332,-0.71589744,0.15777026,6.828378200531006,1.6884602308273315,1.7645673751831055,54.29837417602539,95.45181274414062, 26.930591583251953
467,3927992950,0.57248014,0.3787666,-0.7052501,0.17727084,4.325946807861328,-0.6125733256340027,2.5420033931732178,100.39314270019531,119.13130187988281, 31.015403747558594
468,3928009617,0.5792112,0.38365236,-0.6905226,0.2012559,-2.3605213165283203,-1.5690429210662842,2.5931878089904785,135.48410034179688,147.09310913085938, 23.769704818725586
469,3928026284,0.5849517,0.37974593,-0.684239,0.21317127,-9.510540962219238,2.8907384872436523,-1.4123255014419556,34.25813293457031,89.04901123046875, 38.80276107788086
470,3928042951,0.5916386,0.3699262,-0.68467313,0.21057379,-10.33858585357666,3.625969886779785,-6.490118503570557,-70.0510482788086,37.4094352722168, 24.348974227905273
471,3928059618,0.59312046,0.36673594,-0.6860657,0.20742959,-6.5069050788879395,2.135093927383423,-7.172305107116699,-33.91609191894531,-1.68345308303833, 2.210660457611084
472,3928076285,0.5886994,0.3698203,-0.6883541,0.2069655,-8.549226760864258,-2.2335898876190186,-7.0952606201171875,17.805091857910156,-35.125858306884766, -4.784926414489746
473,3928092952,0.5780734,0.37886843,-0.69145924,0.2101761,-9.8135347366333,-1.3044151067733765,-4.566073417663574,73.90568542480469,-66.6806869506836, -7.4650068283081055
474,3928109619,0.5654562,0.38602686,-0.69823986,0.20905478,-10.381780624389648,0.503187358379364,0.8434979319572449,45.63957595825195,-99.13804626464844, -3.8939340114593506
475,3928126286,0.5552938,0.3866354,-0.7090229,0.19861695,-9.200613975524902,-1.0900864601135254,3.9423320293426514,-36.88115310668945,-118.20275115966797, -1.549959421157837
476,3928142953,0.5464581,0.38521722,-0.71985424,0.18655121,-6.872270584106445,-4.324436187744141,5.46604585647583,-56.14796829223633,-113.53681182861328, 2.488356590270996
477,3928159620,0.54106456,0.38317227,-0.7278056,0.17529239,-8.532937049865723,-1.9058257341384888,7.739957332611084,-59.854286193847656,-82.88848114013672, -2.1664655208587646
478,3928176287,0.53827363,0.3802188,-0.73481166,0.16045919,-4.538749694824219,0.4025929570198059,-6.207037448883057,-86.89154052734375,-74.80642700195312, -17.849916458129883
479,3928192954,0.52701306,0.38063496,-0.7459144,0.14486581,12.339744567871094,9.724316596984863,0.04509393870830536,-60.67277526855469,-138.24171447753906, -17.585176467895508
480,3928209621,0.52615213,0.37789795,-0.7513352,0.12590687,1.116004467010498,3.7396135330200195,4.857901096343994,-110.84571075439453,-70.1636962890625, -38.71859359741211
481,3928226288,0.51953757,0.3846202,-0.75334966,0.1208826,16.922103881835938,2.596740484237671,0.9221020340919495,13.311219215393066,-59.71776580810547, -41.00050354003906
482,3928242955,0.51523405,0.39422274,-0.7509225,0.123441875,9.86968994140625,1.7144408226013184,-0.5905833840370178,60.5026969909668,-14.495616912841797, -42.553863525390625
483,3928259622,0.5150948,0.39651495,-0.7498861,0.12298108,10.912374496459961,-5.738104820251465,-6.47037410736084,6.565097332000732,-0.02757209539413452, -15.3019380569458
484,3928276289,0.5174642,0.3952568,-0.7485077,0.12545748,12.39482307434082,-2.382535696029663,-3.356151819229126,2.521096706390381,25.155227661132812, 10.210920333862305
485,3928292956,0.52292943,0.39191055,-0.7458011,0.1293514,13.35390853881836,2.7720587253570557,-0.1407349705696106,-4.898508071899414,51.3850212097168, 19.624746322631836
486,3928309623,0.5286763,0.39140645,-0.7399237,0.14076748,10.630891799926758,0.5487299561500549,0.2947106957435608,45.988468170166016,81.79472351074219, 23.28667449951172
487,3928326290,0.5344001,0.39336097,-0.7310974,0.15868355,6.153595447540283,0.6423892378807068,2.241910934448242,90.93143463134766,107.37277221679688, 26.4669189453125
488,3928342957,0.5417168,0.39952073,-0.7159792,0.18520267,0.44201475381851196,-0.4487186074256897,4.881962299346924,152.224609375,157.0657958984375, 18.196285247802734
489,3928359624,0.54723835,0.3957305,-0.70960337,0.2009743,-8.851519584655762,2.5572726726531982,-0.6302529573440552,56.054229736328125,98.66536712646484, 53.464576721191406
490,3928376291,0.5559933,0.3843509,-0.7098297,0.1982116,-11.2930269241333,7.051639556884766,-6.4770097732543945,-80.86319732666016,49.805152893066406, 34.32657241821289
491,3928392958,0.56216544,0.37593964,-0.7107549,0.19356446,-5.171335220336914,-0.7485801577568054,-4.7292656898498535,-72.8595199584961,25.843097686767578, 17.900835037231445
492,3928409625,0.56079024,0.3782321,-0.708835,0.2000195,-8.61771297454834,-3.7385616302490234,-3.1150002479553223,46.03453826904297,14.616943359375, 12.616945266723633
493,3928426292,0.5595413,0.37860167,-0.70960003,0.20010565,-10.75035285949707,2.821455240249634,2.248258352279663,3.5180649757385254,-8.854849815368652, 2.50693941116333
494,3928442959,0.56135,0.37315977,-0.71425074,0.18837216,-10.901555061340332,-0.892989993095398,6.420126438140869,-89.80120086669922,-31.626319885253906, -8.506402969360352
495,3928459626,0.5599337,0.36935616,-0.7201636,0.17724274,-7.824012756347656,-6.092675685882568,-0.6748509407043457,-73.80309295654297,-53.06626892089844, -4.175337314605713
496,3928476293,0.5541613,0.369997,-0.72509474,0.17391124,-8.355224609375,-6.742325305938721,0.5684876441955566,-5.787665843963623,-56.42951583862305, 7.497760772705078
497,3928492960,0.548796,0.37133887,-0.7287785,0.17266357,-9.541462898254395,-1.182438850402832,4.796530246734619,7.754016876220703,-45.127647399902344, 8.464824676513672
498,3928509627,0.5446039,0.3745444,-0.73124087,0.16855288,-10.753772735595703,3.0125527381896973,-15.57039737701416,-1.06191086769104,-44.20106887817383, -16.297475814819336
499,3928526294,0.5382056,0.36886343,-0.74344534,0.14684571,11.117180824279785,3.1293601989746094,-7.6901631355285645,-128.37989807128906,-126.28129577636719, -9.376744270324707
500,3928542961,0.53536403,0.3680663,-0.74853903,0.13267289,-3.366246223449707,2.1949093341827393,9.399860382080078,-73.96707153320312,-67.37073516845703, -31.671958923339844
501,3928559628,0.52829224,0.37263474,-0.75228536,0.12695405,21.146190643310547,5.618654727935791,1.6475789546966553,1.2835791110992432,-67.94776916503906, -27.69460105895996
502,3928576295,0.5257862,0.3781052,-0.7516279,0.12506372,13.110408782958984,2.3340814113616943,2.1922225952148438,16.572654724121094,-19.659740447998047, -33.74525451660156
503,3928592962,0.52190477,0.38312942,-0.751336,0.12775636,19.66120719909668,-2.520998001098633,-0.2401493340730667,41.94508361816406,-16.039091110229492, -12.777992248535156
504,3928609629,0.5216393,0.38179767,-0.7521011,0.12832372,16.024789810180664,-1.4946118593215942,-1.6420533657073975,-2.2869465351104736,-1.4376161098480225, 11.89941692352295
505,3928626296,0.5244055,0.37923402,-0.75050634,0.13386837,11.976618766784668,-0.8130921125411987,-1.3113142251968384,13.15458869934082,36.686954498291016, 27.15676498413086
506,3928642963,0.52877116,0.37874216,-0.7452462,0.14684534,7.64415168762207,2.80369234085083,1.3244588375091553,58.179019927978516,75.5169677734375, 32.1806640625
507,3928659630,0.5348168,0.38138038,-0.7350575,0.1679598,4.726561546325684,3.227238893508911,4.409483909606934,111.8900375366211,119.9601058959961, 31.233556747436523
508,3928676297,0.5399619,0.3860128,-0.7224753,0.19355805,-4.002079010009766,4.725229740142822,2.2667019367218018,147.1734161376953,133.51889038085938, 34.06312942504883
509,3928692964,0.54331017,0.38527206,-0.71777004,0.20294333,-9.026803970336914,11.903613090515137,-3.7069435119628906,40.7907829284668,59.40396499633789, 21.110950469970703
510,3928709631,0.54813564,0.38110325,-0.7172326,0.19971299,-8.497781753540039,3.069119691848755,-0.12697269022464752,-43.97625732421875,22.723968505859375, -0.18176208436489105
511,3928726298,0.5512569,0.38135278,-0.7138049,0.20290029,-9.930238723754883,-4.525971412658691,2.1298437118530273,12.781064987182617,36.105525970458984, -2.410615921020508
512,3928742965,0.557183,0.38190573,-0.7055325,0.21428801,-11.80293083190918,-8.0859956741333,10.359493255615234,53.56513595581055,89.31097412109375, 9.516039848327637
513,3928759632,0.56979436,0.3767859,-0.69633234,0.22020048,-12.274497032165527,1.151658296585083,8.615554809570312,-10.828018188476562,118.98661041259766, 2.274400472640991
514,3928776299,0.58525574,0.37014598,-0.68694794,0.22038649,-8.705955505371094,-1.6083705425262451,4.74758768081665,-51.149986267089844,120.69293975830078, -17.87973976135254
515,3928792966,0.59617853,0.3666379,-0.6787795,0.22227603,-7.7367448806762695,-4.43940544128418,-5.442538738250732,-20.686134338378906,93.9390869140625, -15.694578170776367
516,3928809633,0.59846276,0.36955056,-0.67319125,0.22822838,-9.008316993713379,-2.559394598007202,-9.590886116027832,42.5155029296875,43.696895599365234, -9.882805824279785
517,3928826300,0.59450114,0.37490422,-0.6731733,0.22989784,-9.608136177062988,1.238250970840454,-11.181242942810059,39.822505950927734,-22.501323699951172, -14.83107852935791
518,3928842967,0.58173186,0.38286024,-0.6826262,0.22142223,-6.330711841583252,2.202467918395996,-20.417390823364258,11.10824966430664,-131.857177734375, -30.04308319091797
519,3928859634,0.5617255,0.39002845,-0.69923085,0.20837213,7.918644905090332,-1.8857449293136597,4.78696346282959,-5.669597148895264,-204.54661560058594, -13.874022483825684
520,3928876301,0.55008096,0.39113864,-0.7131349,0.18936837,5.673247337341309,2.4082350730895996,15.053289413452148,-76.36968231201172,-161.3417205810547, -25.816267013549805
521,3928892968,0.5407852,0.39323792,-0.72415847,0.16884845,14.229655265808105,1.4493170976638794,-3.839858293533325,-82.51671600341797,-144.7299041748047, -45.28737258911133
522,3928909635,0.53009665,0.39728343,-0.7323927,0.15736729,9.782135963439941,-5.646078109741211,-2.0863802433013916,-23.260969161987305,-119.15558624267578, -27.318906784057617
523,3928926302,0.52357376,0.39847997,-0.7381037,0.1492894,6.226251602172852,0.2511168420314789,-8.56902027130127,-25.18107795715332,-76.66315460205078, -12.090438842773438
524,3928942969,0.5220872,0.3943792,-0.74257094,0.14310324,3.957045316696167,-0.694713830947876,-7.43780517578125,-47.210243225097656,-35.83536911010742, 13.02087688446045
525,3928959636,0.52458626,0.38961026,-0.74330026,0.14324066,7.904322147369385,3.53698468208313,-5.6015400886535645,-24.48925018310547,15.889989852905273, 25.064891815185547
526,3928976303,0.5291954,0.38809842,-0.7389087,0.15279427,12.672646522521973,3.871328830718994,-2.505039930343628,34.7752571105957,67.20465850830078, 26.614112854003906
527,3928992970,0.53460944,0.38929293,-0.7305715,0.17002691,13.421175956726074,0.4584420323371887,-1.1589634418487549,85.6622543334961,103.19466400146484, 29.43642234802246
528,3929009637,0.54135597,0.38990203,-0.7205354,0.18904729,10.558494567871094,-0.7475964426994324,1.7281354665756226,90.92721557617188,121.4594955444336, 32.79757308959961
529,3929026304,0.54947317,0.38871932,-0.709844,0.20760101,4.998836517333984,-2.6268773078918457,3.360400915145874,79.14142608642578,131.58554077148438, 36.355438232421875
530,3929042971,0.5577991,0.3904638,-0.69524443,0.23029004,-1.8887758255004883,-2.1669905185699463,4.586466312408447,115.42259216308594,154.09506225585938, 26.901155471801758
531,3929059638,0.5636836,0.38682503,-0.68921435,0.2400225,-10.688591957092285,6.714183807373047,-2.750133991241455,26.016929626464844,82.61917877197266, 25.357690811157227
532,3929076305,0.5695775,0.37976626,-0.69001967,0.235015,-8.13590145111084,5.709341049194336,-9.508475303649902,-68.32563018798828,22.823312759399414, 2.8350257873535156
533,3929092972,0.569591,0.37813693,-0.6920236,0.23169409,-7.76872444152832,-2.0835375785827637,-5.389016628265381,-25.724042892456055,-13.60496997833252, -2.505211591720581
534,3929109639,0.5645896,0.3811174,-0.6947476,0.23089795,-10.585336685180664,-1.1503392457962036,-4.347438335418701,16.134246826171875,-40.74507522583008, -3.8342604637145996
535,3929126306,0.55602026,0.38598347,-0.69963205,0.22885148,-10.736191749572754,-0.3560108542442322,-1.9084465503692627,23.350061416625977,-72.28653717041016, -6.62571907043457
536,3929142973,0.54809415,0.3874446,-0.70831513,0.21856196,-11.045628547668457,1.2679569721221924,3.9870731830596924,-37.080631256103516,-100.08238983154297, -12.479002952575684
537,3929159640,0.54571605,0.38016036,-0.7201499,0.19762674,-11.118389129638672,-1.7225143909454346,6.167283535003662,-141.4176025390625,-99.92626953125, -7.485284805297852
538,3929176307,0.5462473,0.37194172,-0.728565,0.18018448,-11.062045097351074,-8.386357307434082,6.219539165496826,-130.49166870117188,-62.280487060546875, -0.7275823354721069
539,3929192974,0.5454393,0.3723375,-0.72954684,0.1778268,-13.451912879943848,-3.5157523155212402,-9.94842529296875,-10.029458045959473,-13.376002311706543, -6.5758490562438965
540,3929209641,0.535917,0.37609503,-0.7364904,0.17008105,2.7470273971557617,10.209968566894531,-15.072599411010742,-9.498259544372559,-96.9144287109375, -17.722612380981445
541,3929226308,0.5363875,0.37088105,-0.7430516,0.15036751,8.33350658416748,9.185697555541992,16.89354705810547,-128.57408142089844,-64.97005462646484, -28.86764144897461
542,3929242975,0.53552586,0.3721487,-0.74441636,0.14339384,4.951563835144043,-7.979590892791748,-3.000850200653076,-30.67595100402832,-27.48740005493164, -26.792713165283203
543,3929259642,0.5287664,0.38264593,-0.74217683,0.15218978,20.226932525634766,6.125912189483643,6.964962005615234,102.61701965332031,-13.161102294921875, -19.528884887695312
544,3929276309,0.53089225,0.37975806,-0.7440882,0.14237255,16.807636260986328,-6.547187805175781,1.4332764148712158,-68.65666198730469,-18.363759994506836, -17.28672218322754
545,3929292976,0.52846456,0.38123393,-0.7447748,0.14386265,17.796865463256836,-6.118401050567627,-2.2153897285461426,18.20323944091797,-12.214744567871094, 2.7453722953796387
546,3929309643,0.53144956,0.37718612,-0.7449638,0.14255214,11.207219123840332,-2.804926633834839,-2.673027276992798,-29.922836303710938,15.260775566101074, 14.035778045654297
547,3929326310,0.53615654,0.37404937,-0.74206126,0.14821795,7.0304741859436035,-0.31547531485557556,-3.30884051322937,7.689389705657959,52.51615905761719, 25.078201293945312
548,3929342977,0.542336,0.37098792,-0.7368509,0.15902963,4.385496139526367,2.2146239280700684,-0.4212045669555664,32.779823303222656,81.71342468261719, 36.213165283203125
549,3929359644,0.54953045,0.3676555,-0.72982717,0.17377692,1.8487757444381714,2.321490526199341,0.6045719981193542,51.11764907836914,103.92643737792969, 46.5584602355957
550,3929376311,0.5574737,0.368749,-0.71735066,0.19660942,-0.017815373837947845,1.2177252769470215,3.043999671936035,113.05821990966797,143.42041015625, 40.26609420776367
551,3929392978,0.56437445,0.36624417,-0.70812273,0.21426402,-7.589136600494385,2.9473495483398438,0.3226856589317322,71.9729232788086,117.59807586669922, 49.506324768066406
552,3929409645,0.5709421,0.3572573,-0.70733553,0.21463637,-12.21891975402832,7.6407012939453125,-5.4833197593688965,-48.919559478759766,49.232601165771484, 34.52760314941406
553,3929426312,0.5736129,0.35218024,-0.709544,0.20853004,-8.545891761779785,3.397474527359009,-12.1282958984375,-60.016273498535156,-2.7377126216888428, 5.326645374298096
554,3929442979,0.57025003,0.35463238,-0.7120842,0.20490712,-8.116767883300781,-2.7659943103790283,-7.628366470336914,-4.097375392913818,-37.82377624511719, -12.065043449401855
555,3929459646,0.5610511,0.36425906,-0.7141643,0.20617078,-10.326478004455566,-1.502077341079712,-4.231907367706299,62.81863784790039,-62.434417724609375, -20.45209312438965
556,3929476313,0.54943097,0.3741895,-0.71826535,0.20543373,-9.862049102783203,-0.8492817878723145,-0.018244877457618713,57.3966064453125,-87.43128967285156, -22.52229881286621
557,3929492980,0.5383179,0.38089803,-0.72473943,0.19970861,-8.755099296569824,-1.928849220275879,3.9205362796783447,15.949211120605469,-102.14806365966797, -20.609886169433594
558,3929509647,0.528,0.38482946,-0.7323786,0.19168712,-6.752297878265381,-5.601100921630859,2.6225168704986572,-9.393278121948242,-104.70120239257812, -12.7907075881958
559,3929526314,0.5160556,0.3910299,-0.7377916,0.19090797,-5.339956283569336,-6.834202289581299,5.801910400390625,42.4439697265625,-88.83879852294922, -3.262157917022705
560,3929542981,0.5086127,0.394339,-0.7428049,0.1845288,-5.771464824676514,5.475522518157959,7.3299336433410645,-7.814831256866455,-75.98385620117188, -15.541245460510254
561,3929559648,0.50182253,0.39395592,-0.7518603,0.16637036,4.747237205505371,3.6538784503936768,-8.511322021484375,-87.73690032958984,-114.21185302734375, -27.650848388671875
562,3929576315,0.49610534,0.39480495,-0.75789475,0.15363763,7.970819473266602,-0.919681191444397,3.182345151901245,-54.894386291503906,-84.79207611083984, -24.646848678588867
563,3929592982,0.4893985,0.39937788,-0.7608666,0.14855541,8.985620498657227,4.918187141418457,3.165879011154175,3.6148362159729004,-62.90167236328125, -25.26381492614746
564,3929609649,0.48818836,0.4016358,-0.7616356,0.14238082,13.366411209106445,4.3473920822143555,2.187469959259033,-22.67591094970703,-27.611385345458984, -28.46218490600586
565,3929626316,0.4888013,0.4034188,-0.76033425,0.14219218,8.17885971069336,-2.8221583366394043,-9.16230583190918,4.1243205070495605,5.60243034362793, -13.380993843078613
566,3929642983,0.49198955,0.40388048,-0.75706226,0.14725474,9.173091888427734,-1.1317921876907349,-4.207520008087158,21.866329193115234,41.67491149902344, 3.134103298187256
567,3929659650,0.49857667,0.40210912,-0.75241834,0.1536116,12.823383331298828,-0.4893036484718323,-2.3400821685791016,12.987250328063965,69.83675384521484, 11.841100692749023
568,3929676317,0.50663495,0.39911646,-0.74637127,0.16418613,10.140825271606445,-1.113821268081665,-2.9725403785705566,28.04046630859375,95.08085632324219, 27.13695526123047
569,3929692984,0.5160092,0.39513558,-0.73884207,0.17808641,8.224526405334473,-1.0870139598846436,-2.906649351119995,39.72334671020508,117.18338775634766, 38.1995849609375
570,3929709651,0.52630717,0.39037576,-0.7298656,0.19468926,5.933988571166992,-1.853467583656311,-0.34090888500213623,49.94713592529297,135.28659057617188, 46.65252685546875
571,3929726318,0.5370978,0.3918097,-0.71352273,0.22112566,3.7803611755371094,-1.0959244966506958,4.201697826385498,130.2647247314453,182.47747802734375, 30.694799423217773
572,3929742985,0.5442695,0.38728154,-0.70520633,0.23762977,-7.515491008758545,1.2513706684112549,-1.2953804731369019,57.05724334716797,116.57474517822266, 46.940208435058594
573,3929759652,0.5495531,0.38191587,-0.70304227,0.24054828,-9.848567008972168,7.582949161529541,-10.098808288574219,-16.89812660217285,49.66748809814453, 19.583913803100586
574,3929776319,0.547039,0.38363284,-0.70398253,0.24079639,-4.9453444480896,4.059231281280518,-9.028288841247559,12.29396915435791,-18.020204544067383, -3.2658936977386475
575,3929792986,0.53370804,0.3929139,-0.70800096,0.24394514,-8.38752555847168,0.6207226514816284,-9.911354064941406,78.16389465332031,-86.64767456054688, -3.2820537090301514
576,3929809653,0.51592463,0.40403655,-0.7146268,0.24471456,-8.643052101135254,1.1345422267913818,0.6086273789405823,80.85519409179688,-127.1885757446289, -6.677010536193848
577,3929826320,0.50039357,0.41013932,-0.72437483,0.23806082,-9.00699234008789,-3.264766216278076,5.485116004943848,15.147150039672852,-138.4165802001953, 0.3572383224964142
578,3929842987,0.49079022,0.41167632,-0.73443687,0.22416572,-9.086190223693848,0.7163192629814148,10.026697158813477,-53.86287307739258,-123.00575256347656, -10.665590286254883
579,3929859654,0.48830855,0.40601304,-0.745398,0.20270728,-9.05215835571289,-2.544370412826538,10.338208198547363,-137.8772430419922,-100.6043701171875, -8.221497535705566
580,3929876321,0.48717546,0.400778,-0.751784,0.19198437,-9.646799087524414,-8.832291603088379,11.806160926818848,-78.78541564941406,-49.14848327636719, 10.963565826416016
581,3929892988,0.48351833,0.40137252,-0.7546375,0.1887661,-13.004687309265137,2.966500997543335,-16.238683700561523,-8.86870002746582,-37.584129333496094, -0.5421468615531921
582,3929909655,0.47323638,0.40091902,-0.7649195,0.17380902,11.732928276062012,11.716758728027344,-0.7606989145278931,-64.67131805419922,-127.04974365234375, -4.946307182312012
583,3929926322,0.48033187,0.39120424,-0.7718593,0.14308752,0.6258741021156311,8.685603141784668,7.019059181213379,-221.57115173339844,-57.37776184082031, -37.361541748046875
584,3929942989,0.4757491,0.39447626,-0.77390784,0.13826925,16.7684268951416,-6.642665863037109,-2.4070804119110107,-4.874411582946777,-46.528892517089844, -22.289020538330078
585,3929959656,0.47147718,0.40443283,-0.76969147,0.14737187,17.04142951965332,7.656685829162598,3.495753049850464,96.1456298828125,6.799665451049805, -29.76578712463379
586,3929976323,0.47193903,0.40502152,-0.76916945,0.14700247,19.31797981262207,-8.183985710144043,-1.2028261423110962,-1.1701289415359497,2.652982473373413, -5.38445520401001
587,3929992990,0.47234613,0.40361485,-0.76889426,0.15095036,18.442893981933594,-5.033565044403076,0.14715231955051422,15.053595542907715,15.328291893005371, 19.74543571472168
588,3930009657,0.47564724,0.39985815,-0.7677575,0.1562748,14.031898498535156,-1.0946851968765259,1.637215256690979,7.5484700202941895,39.39985275268555, 31.122676849365234
589,3930026324,0.48015478,0.39627,-0.76483375,0.16568428,8.31402587890625,-0.41167035698890686,3.6307122707366943,28.274763107299805,62.42018508911133, 37.33511734008789
590,3930042991,0.4838731,0.39494315,-0.7594472,0.18200785,3.8943822383880615,2.454256534576416,5.375838279724121,77.0645523071289,82.46903991699219, 42.45344924926758
591,3930059658,0.48775062,0.3987637,-0.7485856,0.20665625,-3.325401782989502,2.41027569770813,5.311978816986084,144.11236572265625,117.52043914794922, 28.278839111328125
592,3930076325,0.48710653,0.39901507,-0.74608463,0.21649942,-11.604546546936035,10.867841720581055,-3.963634490966797,56.455501556396484,30.62250518798828, 26.426881790161133
593,3930092992,0.49087912,0.39095935,-0.75157505,0.2032822,-8.793292999267578,4.709069728851318,0.7632814645767212,-113.6478042602539,-24.071094512939453, 7.311987400054932
594,3930109659,0.49340618,0.38566422,-0.7546154,0.1958795,-12.028970718383789,-2.7616593837738037,3.013866662979126,-67.49636840820312,-10.33675479888916, 7.869332313537598
595,3930126326,0.4981949,0.38357556,-0.750427,0.20379165,-12.009318351745605,-11.243942260742188,7.979962348937988,26.551816940307617,62.32767105102539, 20.941242218017578
596,3930142993,0.5067514,0.38322455,-0.7401266,0.22035117,-11.554638862609863,-3.0473265647888184,8.575843811035156,76.1067886352539,123.88121795654297, 23.94668960571289
597,3930159660,0.5212549,0.37891427,-0.7300993,0.22731537,-10.249455451965332,4.502558708190918,5.832253932952881,-2.941418409347534,133.2816925048828, -0.3087676465511322
598,3930176327,0.5353251,0.37271345,-0.7240032,0.2243461,-7.222315311431885,0.5025815963745117,-1.5621453523635864,-64.66796875,93.72535705566406, -16.955141067504883
599,3930192994,0.5402414,0.36963055,-0.72346246,0.21935038,-7.00880241394043,-2.8997912406921387,-9.637099266052246,-48.360591888427734,18.25654411315918, -9.690864562988281
600,3930209661,0.5337858,0.3748215,-0.726461,0.21641625,-7.27598237991333,0.897798478603363,-9.885374069213867,16.162216186523438,-58.2286262512207, -16.704782485961914
601,3930226328,0.519409,0.38419133,-0.73431736,0.20830163,-5.514735221862793,1.8123066425323486,-18.242834091186523,18.823898315429688,-134.81883239746094, -32.38816452026367
602,3930242995,0.5056204,0.38601357,-0.7490543,0.18509205,10.620312690734863,2.170205593109131,-3.506559371948242,-95.9030532836914,-185.28213500976562, -32.629188537597656
603,3930259662,0.49763474,0.38532773,-0.7600823,0.16173233,4.180952072143555,-3.7361245155334473,0.9782536029815674,-116.06499481201172,-139.75521850585938, -37.43672561645508
604,3930276329,0.48795182,0.38608688,-0.7684399,0.14946622,15.118254661560059,3.3659164905548096,-4.5991058349609375,-45.680419921875,-111.80045318603516, -12.271655082702637
605,3930292996,0.48169205,0.3888955,-0.7718043,0.14509079,12.85141372680664,3.449056386947632,-1.5702862739562988,-1.048878788948059,-58.230735778808594, -13.392716407775879
606,3930309663,0.4761314,0.39256918,-0.7730544,0.14688547,17.16765785217285,1.1532667875289917,0.32466018199920654,34.82817459106445,-32.05016326904297, -3.897477149963379
607,3930326330,0.47390237,0.3935664,-0.7732383,0.15041596,14.3516206741333,-0.7991729974746704,0.22269462049007416,27.406368255615234,-3.753129720687866, 9.725279808044434
608,3930342997,0.47716907,0.3906651,-0.77157515,0.15608437,8.5186128616333,-4.628008842468262,-5.016234397888184,13.119921684265137,41.06613540649414, 26.681135177612305
609,3930359664,0.48307908,0.38698074,-0.76732457,0.16761176,4.905182361602783,-1.859542727470398,-2.5339653491973877,37.26927185058594,80.17166900634766, 40.1977424621582
610,3930376331,0.49168107,0.38298038,-0.76033527,0.18293785,2.496509552001953,0.4504448175430298,-0.20765253901481628,52.239742279052734,113.95291900634766, 44.06782150268555
611,3930392998,0.5006703,0.38477033,-0.74707824,0.20773876,-1.5551470518112183,2.8572044372558594,0.6792224645614624,128.22760009765625,154.82647705078125, 28.85472869873047
612,3930409665,0.5056895,0.38524187,-0.7394805,0.22143982,-7.808268070220947,9.679740905761719,-2.1351640224456787,69.09337615966797,87.46940612792969, 18.112430572509766
613,3930426332,0.51010025,0.38239864,-0.7383731,0.21994181,-9.445586204528809,3.7924551963806152,0.8939895033836365,-27.89352798461914,26.948522567749023, 1.0963252782821655
614,3930442999,0.5124127,0.3805671,-0.7382082,0.21829084,-10.182050704956055,-2.261972665786743,3.993532419204712,-20.938383102416992,11.451273918151855, 2.3417418003082275
615,3930459666,0.5187982,0.3769324,-0.7342872,0.22269475,-11.374906539916992,-7.82243537902832,10.986671447753906,-1.6279168128967285,63.85028076171875, 16.59968376159668
616,3930476333,0.53232247,0.36989877,-0.7258514,0.23010336,-10.720473289489746,-3.1228673458099365,12.00843334197998,-10.241971015930176,128.7554168701172, 21.532033920288086
617,3930493000,0.5502731,0.36126506,-0.7159769,0.23251699,-9.155345916748047,1.51091468334198,6.337867259979248,-50.05502700805664,145.39401245117188, -0.7370540499687195
618,3930509667,0.5636595,0.35602707,-0.70794976,0.23310982,-8.285968780517578,-2.7100718021392822,-7.939194679260254,-37.82411193847656,106.14472961425781, -11.336809158325195
619,3930526334,0.5668379,0.357577,-0.703409,0.23674755,-9.519246101379395,-3.991408348083496,-14.482562065124512,22.713544845581055,39.60969161987305, -8.785286903381348
620,3930543001,0.55182505,0.37200835,-0.70663714,0.24033926,-9.595300674438477,3.742210865020752,-31.822847366333008,104.76030731201172,-99.340576171875, -23.21027374267578
621,3930559668,0.53110415,0.38400003,-0.7202697,0.22734158,5.994700908660889,0.4597378373146057,13.486266136169434,12.219121932983398,-204.25265502929688, -39.44316482543945
622,3930576335,0.52290636,0.38526973,-0.7328044,0.2028151,1.862385869026184,0.18105964362621307,13.307082176208496,-115.4061279296875,-152.206787109375, -50.170753479003906
623,3930593002,0.5083432,0.39136884,-0.7438757,0.18726109,13.773043632507324,0.18587245047092438,-7.664470672607422,-33.849586486816406,-162.19204711914062, -36.31361770629883
624,3930609669,0.49716207,0.39786515,-0.7510547,0.1744997,6.681832790374756,0.9720135927200317,3.498872995376587,-22.281538009643555,-124.23980712890625, -43.4261474609375
625,3930626336,0.48403186,0.40767977,-0.7552639,0.17054902,14.649255752563477,1.87906813621521,1.9985648393630981,43.48244094848633,-104.24066925048828, -36.23335647583008
626,3930643003,0.4790672,0.40860978,-0.75927085,0.16444032,-0.013551712036132812,-3.028397560119629,-11.9743070602417,-19.902210235595703,-57.07622146606445, -7.432377338409424
627,3930659670,0.47957212,0.40197197,-0.76338136,0.16024446,1.0290186405181885,1.937928557395935,-9.622209548950195,-50.39753341674805,-14.585835456848145, 32.456459045410156
628,3930676337,0.48618948,0.39474514,-0.7625081,0.16241153,8.392669677734375,7.958569526672363,-3.882889986038208,-30.368513107299805,52.4124755859375, 36.05805587768555
629,3930693004,0.49353197,0.3930745,-0.7553272,0.17719983,14.734465599060059,2.4594600200653076,-0.20174169540405273,59.49693298339844,105.31196594238281, 31.272247314453125
630,3930709671,0.49917927,0.39541018,-0.74497724,0.19869521,15.032912254333496,-0.39187222719192505,4.183579444885254,116.40487670898438,120.28004455566406, 26.71571922302246
631,3930726338,0.5049851,0.3958719,-0.73540545,0.21784054,9.597708702087402,-5.874709129333496,6.5598554611206055,96.4681167602539,114.24252319335938, 30.113750457763672
632,3930743005,0.51085144,0.39820135,-0.72225463,0.24251805,2.6891417503356934,-6.300627708435059,8.658721923828125,136.13255310058594,138.92665100097656, 29.971492767333984
633,3930759672,0.51741,0.39106134,-0.7180102,0.25262505,-10.084589004516602,0.6564791202545166,1.45149564743042,13.75108528137207,86.6902847290039, 48.980384826660156
634,3930776339,0.5280628,0.37350896,-0.723501,0.24122053,-11.394137382507324,5.120480537414551,-7.880527019500732,-157.45530700683594,31.738649368286133, 40.24923324584961
635,3930793006,0.5352694,0.3613333,-0.7275223,0.23159564,-7.798471927642822,-1.9286669492721558,-7.302484035491943,-117.7531967163086,17.216829299926758, 25.930877685546875
636,3930809673,0.5376836,0.35927042,-0.72613245,0.23356563,-11.88772964477539,-1.808340311050415,-3.581501007080078,-2.042811393737793,26.55780792236328, 13.630806922912598
637,3930826340,0.5364282,0.3625159,-0.7234594,0.23965295,-12.864253044128418,1.8574799299240112,-4.040383815765381,49.23076629638672,14.709735870361328, 4.416983604431152
638,3930843007,0.5328741,0.3670276,-0.72261655,0.24323148,-12.809127807617188,1.7627146244049072,-1.559656023979187,44.131473541259766,-11.807490348815918, -3.6834535598754883
639,3930859674,0.52752733,0.3705917,-0.72544086,0.24106483,-10.416709899902344,1.6533210277557373,-1.7025349140167236,10.509625434875488,-47.137176513671875, -8.530919075012207
640,3930876341,0.52002424,0.37383637,-0.7313952,0.23426959,-8.161764144897461,0.7256379127502441,-1.4887672662734985,-13.429086685180664,-80.40868377685547, -12.25693130493164
641,3930893008,0.5120263,0.3761181,-0.73910904,0.22379048,-7.314533233642578,-1.0650322437286377,-0.1588803082704544,-36.91688537597656,-96.69627380371094, -14.261981964111328
642,3930909675,0.50368154,0.3781659,-0.7471283,0.21235546,-6.619457244873047,-2.7097420692443848,1.965318202972412,-42.096500396728516,-101.37037658691406, -14.358392715454102
643,3930926342,0.49580723,0.3803519,-0.7536739,0.20367496,0.9592597484588623,-3.608205795288086,-2.9862477779388428,-26.39496421813965,-86.58934020996094, -8.977744102478027
644,3930943009,0.48571452,0.38513306,-0.7603751,0.19386569,6.395196437835693,10.256718635559082,0.23431363701820374,-17.77470588684082,-105.2013931274414, -22.89903450012207
645,3930959676,0.48365813,0.3845684,-0.7665846,0.17472894,8.332643508911133,3.5086264610290527,7.80122184753418,-105.3383560180664,-80.15621948242188, -40.95770263671875
646,3930976343,0.481061,0.38824618,-0.7677436,0.16856842,17.380048751831055,0.5101192593574524,0.6074556112289429,-15.284817695617676,-37.3879280090332, -32.838645935058594
647,3930993010,0.4756218,0.39159265,-0.7691371,0.1699041,23.441186904907227,-5.305119514465332,-1.0899574756622314,30.528779983520508,-33.08246612548828, -2.4117982387542725
648,3931009677,0.4802635,0.385605,-0.77018726,0.16573353,4.971227169036865,0.7404404282569885,-9.632342338562012,-55.858680725097656,17.07860565185547, 16.123062133789062
649,3931026344,0.48984256,0.3791815,-0.7667568,0.16840425,2.8830833435058594,-3.732112407684326,-10.328655242919922,-29.078838348388672,76.85862731933594, 23.52527618408203
650,3931043011,0.50045466,0.37730965,-0.756221,0.18791606,2.9322948455810547,1.9950218200683594,-6.022599220275879,80.52593994140625,145.136962890625, 36.48680877685547
651,3931059678,0.51484245,0.3784522,-0.7379275,0.21719635,9.541204452514648,3.406423330307007,0.3430745005607605,141.9419403076172,213.0648956298828, 29.43687629699707
652,3931076345,0.52646285,0.3746307,-0.72464734,0.23953128,4.488507270812988,0.7424569129943848,0.39495348930358887,88.85711669921875,170.43882751464844, 47.2379150390625
653,3931093012,0.5359311,0.37052932,-0.71597135,0.25074127,-5.36863899230957,3.9009082317352295,-3.226811170578003,30.38450050354004,114.53179931640625, 23.107942581176758
654,3931109679,0.53906596,0.3723169,-0.7112728,0.25471407,-6.225991725921631,3.6684770584106445,-12.695096015930176,25.770288467407227,40.042701721191406, -11.997871398925781
655,3931126346,0.531564,0.38026255,-0.7133268,0.25299224,-4.535457134246826,3.870767831802368,-15.519478797912598,36.15403747558594,-62.259864807128906, -28.144542694091797
656,3931143013,0.5155862,0.38978603,-0.72345006,0.24260643,-4.352596759796143,-1.2444303035736084,-14.277395248413086,7.464258670806885,-158.2052001953125, -31.591123580932617
657,3931159680,0.49151114,0.40248314,-0.7373755,0.22956851,-3.8679702281951904,-2.4264745712280273,-9.233460426330566,20.824674606323242,-223.15347290039062, -31.141571044921875
658,3931176347,0.4648858,0.41299978,-0.7536764,0.21280134,-4.194867134094238,-4.495926856994629,1.1273438930511475,-2.1975226402282715,-250.72264099121094, -22.12751579284668
659,3931193014,0.44045028,0.4198992,-0.76921207,0.19493869,-5.657970905303955,-5.178635597229004,6.681268215179443,-24.571237564086914,-234.76707458496094, -12.292522430419922
660,3931209681,0.4205807,0.42453885,-0.7817151,0.17832631,-6.597326278686523,-4.8107757568359375,10.899362564086914,-33.942359924316406,-194.93215942382812, -11.455495834350586
661,3931226348,0.40424216,0.42961675,-0.7898236,0.16791879,-8.21861457824707,-3.619307041168213,12.640813827514648,-4.251466274261475,-145.8907470703125, -13.051260948181152
662,3931243015,0.3929627,0.43315214,-0.7942561,0.1646712,-10.446538925170898,-6.430833339691162,18.020832061767578,19.644878387451172,-85.48807525634766, -1.4962064027786255
663,3931259682,0.39468852,0.4295493,-0.7957099,0.16295494,-8.63634967803955,-3.6284658908843994,12.087514877319336,-26.638856887817383,5.934887886047363, 17.973363876342773
664,3931276349,0.3991727,0.41979688,-0.8022877,0.14410594,4.492005825042725,14.114302635192871,-22.425264358520508,-150.95021057128906,-36.74800491333008, 17.16706657409668
665,3931293016,0.40543985,0.40703827,-0.8097469,0.11936691,19.273256301879883,4.684406757354736,13.39292049407959,-197.66200256347656,-42.93033981323242, 18.598285675048828
666,3931309683,0.4094815,0.40279537,-0.81092185,0.111743726,9.463017463684082,7.25885534286499,8.27964973449707,-67.09288787841797,2.2917773723602295, 3.1431186199188232
667,3931326350,0.41268617,0.4046187,-0.80775857,0.11618974,20.47130584716797,4.420979976654053,-0.9664686322212219,23.035032272338867,38.160037994384766, -8.03661823272705
668,3931343017,0.41756564,0.40662053,-0.8027509,0.12605557,8.977167129516602,-6.023936748504639,-3.9030370712280273,50.51991653442383,67.21062469482422, -0.13836325705051422
669,3931359684,0.42577597,0.40303063,-0.7992202,0.1323954,15.852978706359863,-5.033303737640381,-3.5576374530792236,4.359269618988037,76.2701187133789, 21.75181770324707
670,3931376351,0.43538773,0.39693043,-0.7955658,0.14127554,14.803013801574707,-2.5145533084869385,0.8434845805168152,7.168048858642578,93.44309997558594, 41.26466369628906
671,3931393018,0.4445204,0.39172158,-0.79101336,0.15249144,12.966181755065918,0.47185584902763367,5.409183502197266,24.792694091796875,98.72437286376953, 41.33211898803711
672,3931409685,0.45153973,0.39302158,-0.7816628,0.17507,7.1460089683532715,0.4820757508277893,9.779984474182129,117.2454605102539,125.31336975097656, 29.956968307495117
673,3931426352,0.45459753,0.39499986,-0.774135,0.1950163,-3.798269748687744,0.8397512435913086,6.554664611816406,113.74150848388672,90.06412506103516, 27.880859375
674,3931443019,0.4578037,0.39038992,-0.77398765,0.19736923,-10.546265602111816,6.380697727203369,-1.2999159097671509,-10.795587539672852,28.771059036254883, 27.84502410888672
675,3931459686,0.4638788,0.3828388,-0.7764726,0.18799293,-8.586044311523438,2.187069892883301,-0.4756731390953064,-93.7318115234375,8.536425590515137, 9.821442604064941
676,3931476353,0.4656977,0.38417327,-0.77332866,0.1936481,-9.643574714660645,-5.438190460205078,0.8714637756347656,33.332496643066406,32.058841705322266, 1.0361247062683105
677,3931493020,0.46417084,0.3919698,-0.7658852,0.21053569,-10.274182319641113,-0.8141800165176392,2.7550361156463623,128.27243041992188,49.29005813598633, -4.296151161193848
678,3931509687,0.46309584,0.3985281,-0.76000035,0.22162414,-11.024213790893555,3.087580442428589,1.629967212677002,90.29649353027344,32.98491668701172, -12.710890769958496
679,3931526354,0.4627708,0.40175527,-0.75854486,0.22146276,-9.086471557617188,-0.33408060669898987,0.8349565267562866,12.111236572265625,-2.7904574871063232, -20.075668334960938
680,3931543021,0.46060383,0.4028668,-0.76132566,0.2143031,-7.841873645782471,-2.032200574874878,0.08548905700445175,-32.48890686035156,-41.83637619018555, -16.811307907104492
681,3931559688,0.45746955,0.40173793,-0.76699936,0.20258404,-7.905601501464844,-2.627892017364502,1.675374984741211,-65.05384826660156,-65.24085235595703, -10.12043571472168
682,3931576355,0.4541682,0.3997683,-0.7735506,0.18851082,-6.932339668273926,-2.3181185722351074,-1.8354732990264893,-80.8955078125,-74.11149597167969, -10.474185943603516
683,3931593022,0.44150874,0.4032296,-0.78180087,0.17681463,-3.723310947418213,-1.09625244140625,-27.915647506713867,-27.803150177001953,-129.5088653564453, -15.165128707885742
684,3931609689,0.42870006,0.40352377,-0.79294664,0.15691009,9.219600677490234,2.1137609481811523,1.4099599123001099,-84.75271606445312,-157.1380615234375, -14.838181495666504
685,3931626356,0.42337564,0.4043419,-0.79881895,0.13838004,-0.5739967226982117,2.8869144916534424,1.2710988521575928,-90.75390625,-97.77819061279297, -36.32402038574219
686,3931643023,0.41761893,0.40632442,-0.8026358,0.12755696,20.20663833618164,-1.6866774559020996,-3.6716554164886475,-41.85005569458008,-73.89067077636719, -25.541717529296875
687,3931659690,0.40989912,0.4149265,-0.80090666,0.13552663,12.230055809020996,2.628958225250244,0.10312624275684357,91.22325134277344,-22.441253662109375, -21.96144676208496
688,3931676357,0.40830076,0.41682974,-0.80060023,0.13631986,18.11815071105957,1.4410338401794434,-0.5245320796966553,14.080795288085938,-7.242152214050293, -6.944340705871582
689,3931693024,0.40851054,0.41616395,-0.7999435,0.14148267,15.919686317443848,-2.7640509605407715,1.099410057067871,26.11101722717285,18.252225875854492, 16.73782730102539
690,3931709691,0.41260463,0.41253078,-0.79860705,0.1476576,10.909546852111816,-0.5210245847702026,0.9167706966400146,12.89570140838623,46.95649337768555, 30.110698699951172
691,3931726358,0.41808265,0.40876386,-0.7952988,0.16005939,5.242082118988037,-0.34587347507476807,2.364501476287842,44.791934967041016,77.72157287597656, 41.49481201171875
692,3931743025,0.42528263,0.4086262,-0.7865237,0.1831396,-1.6561435461044312,1.3304369449615479,2.76889967918396,114.80250549316406,128.74240112304688, 35.108734130859375
693,3931759692,0.4268884,0.4067588,-0.7843238,0.19274302,-10.841801643371582,9.800238609313965,-4.704139232635498,44.29597091674805,43.56473922729492, 30.623119354248047
694,3931776359,0.43174815,0.40124,-0.7865016,0.1844329,-6.53764009475708,4.393231391906738,0.6646584868431091,-77.88722229003906,3.378880739212036, 5.798001289367676
695,3931793026,0.43623838,0.40031755,-0.7844985,0.18440203,-10.426742553710938,-2.1618216037750244,9.858574867248535,-13.130889892578125,30.93433952331543, -5.49495792388916
