PacketCounter,SampleTimeFine,Quat_W,Quat_X,Quat_Y,Quat_Z,Acc_X,Acc_Y,Acc_Z,Gyr_X,Gyr_Y,Gyr_Z 
1,3061019972,0.5961392,0.28913414,-0.16764702,0.7300096,0.23566941916942596,-0.04619608074426651,-0.01877453923225403,-0.0852319747209549,0.7109501957893372, -0.05439459905028343
2,3061036639,0.5958489,0.28803894,-0.17018841,0.7300915,9.263873100280762,1.0926777124404907,11.192032814025879,0.2053818255662918,1.9495939016342163, 0.292580246925354
3,3061053306,0.5945591,0.28757283,-0.17394082,0.7304423,9.218160629272461,1.2308357954025269,11.129310607910156,0.4566808044910431,1.824718952178955, 0.29607638716697693
4,3061069973,0.5936318,0.28790438,-0.17622906,0.7305174,9.157723426818848,1.1435444355010986,11.303092956542969,0.4323103725910187,2.093447685241699, 0.3906513452529907
5,3061086640,0.5931544,0.2875006,-0.17731273,0.7308021,9.210426330566406,1.2178258895874023,11.167384147644043,0.28082409501075745,2.026495933532715, 0.4551697373390198
6,3061103307,0.5930045,0.2873315,-0.17784356,0.73086107,9.18225383758545,1.1942640542984009,11.188199996948242,0.12488112598657608,2.3341305255889893, 0.743376612663269
7,3061119974,0.59287983,0.28720057,-0.17801635,0.7309716,9.171010971069336,1.169650673866272,11.118155479431152,0.034634776413440704,2.298771858215332, 0.6049912571907043
8,3061136641,0.5928183,0.2871118,-0.17806885,0.7310435,9.128913879394531,1.088018536567688,11.203058242797852,0.43780431151390076,2.3705129623413086, 0.7282907366752625
9,3061153308,0.5927422,0.28690842,-0.17808609,0.73118085,9.196121215820312,1.3773555755615234,11.106579780578613,0.3108421266078949,2.0948946475982666, 0.521916389465332
10,3061169975,0.5928704,0.28679252,-0.17799138,0.7311456,9.186485290527344,1.1624521017074585,11.145524978637695,-0.6463107466697693,2.4213926792144775, 0.30405473709106445
11,3061186642,0.5928806,0.2867291,-0.17785726,0.7311948,9.042569160461426,1.1252491474151611,11.160072326660156,-0.051788877695798874,2.2485198974609375, 0.4437848627567291
12,3061203309,0.59283775,0.2866507,-0.17758274,0.731327,9.217631340026855,1.2603089809417725,11.22970962524414,0.8887543082237244,2.310194969177246, 0.3493892252445221
13,3061219976,0.5928869,0.2865758,-0.17735614,0.7313714,9.192296981811523,1.1903847455978394,11.002936363220215,0.4503929316997528,2.0903613567352295, 0.18234321475028992
14,3061236643,0.59295964,0.2865172,-0.17718695,0.73137647,9.02388858795166,1.1843175888061523,11.106614112854004,0.4698457717895508,2.2249815464019775, 0.3382093012332916
15,3061253310,0.59296554,0.28645745,-0.17689459,0.731466,9.09720516204834,1.3852490186691284,11.187740325927734,0.9363298416137695,2.444981813430786, 0.20529218018054962
16,3061269977,0.5929944,0.2863228,-0.17660835,0.7315643,9.12834644317627,1.2500669956207275,11.187986373901367,0.36456480622291565,2.671180486679077, 0.6827641129493713
17,3061286644,0.5931046,0.2862817,-0.17629677,0.7315663,9.121400833129883,1.4060736894607544,10.954384803771973,0.9008050560951233,2.1843345165252686, 0.02513246238231659
18,3061303311,0.59312904,0.28620684,-0.17595202,0.73165864,9.162809371948242,1.3080276250839233,11.29162311553955,0.5287421941757202,2.7556514739990234, 0.42291051149368286
19,3061319978,0.59309286,0.28611735,-0.17562716,0.73180103,9.136934280395508,1.2458127737045288,11.100926399230957,0.378254771232605,2.6063930988311768, 0.717110812664032
20,3061336645,0.5931888,0.28597504,-0.17537639,0.73183906,9.130990028381348,1.2276698350906372,11.068011283874512,0.007139539811760187,2.652982711791992, 0.3815331757068634
21,3061353312,0.59331363,0.28583995,-0.1751219,0.73185164,9.069779396057129,1.3148822784423828,11.173504829406738,0.5529717803001404,2.7541143894195557, 0.6352782249450684
22,3061369979,0.59334344,0.28574944,-0.17479861,0.73194015,9.066390037536621,1.3482636213302612,11.100505828857422,0.7633671760559082,2.6791839599609375, 0.491693377494812
23,3061386646,0.5934938,0.28553733,-0.17454284,0.73196214,9.195436477661133,1.2279775142669678,11.2490873336792,0.07306663691997528,3.083096981048584, 0.512747049331665
24,3061403313,0.59358793,0.28531998,-0.17428339,0.73203254,9.176419258117676,1.1743230819702148,11.1379976272583,0.20675210654735565,3.1371779441833496, 0.7439528703689575
25,3061419980,0.5936985,0.28519645,-0.17400573,0.7320568,8.984882354736328,1.3490533828735352,10.979164123535156,0.7227583527565002,2.729936122894287, 0.24257144331932068
26,3061436647,0.59380364,0.28505954,-0.17372555,0.7320915,9.033538818359375,1.3821033239364624,11.287201881408691,0.7036769986152649,2.8341028690338135, 0.39290523529052734
27,3061453314,0.59392935,0.28490537,-0.17351681,0.73209894,9.133387565612793,1.3396697044372559,11.073755264282227,0.3825704753398895,2.512624979019165, 0.6224589943885803
28,3061469981,0.594087,0.2846884,-0.17335337,0.7320941,9.078352928161621,1.1703592538833618,11.081337928771973,-0.1882789433002472,2.7233023643493652, 0.559528648853302
29,3061486648,0.59412616,0.28456548,-0.17305323,0.73218125,9.01883602142334,1.2671985626220703,11.150531768798828,0.9927418828010559,2.8268418312072754, 0.6681265234947205
30,3061503315,0.5942077,0.2844212,-0.17286351,0.7322158,9.088308334350586,1.177189826965332,11.10791301727295,0.33496931195259094,2.4092652797698975, 0.5779954195022583
31,3061519982,0.5942796,0.28420007,-0.17265327,0.73229295,9.130340576171875,1.3651313781738281,11.265868186950684,0.4106803834438324,2.709996461868286, 0.6765658259391785
32,3061536649,0.59434885,0.28392017,-0.17252058,0.7323766,9.169807434082031,1.2925281524658203,11.085493087768555,-0.17592082917690277,2.4052820205688477, 0.6757462024688721
33,3061553316,0.5944155,0.283637,-0.17228328,0.7324882,9.162458419799805,1.2175480127334595,11.24594497680664,0.5585425496101379,2.8357675075531006, 0.7108356952667236
34,3061569983,0.594513,0.28335178,-0.1721236,0.73255694,9.08796501159668,1.1548259258270264,11.011748313903809,0.1545790433883667,2.4574806690216064, 0.6252763867378235
35,3061586650,0.5946055,0.28313175,-0.17176941,0.73265004,9.143026351928711,1.4836057424545288,11.251351356506348,1.276517629623413,2.9346837997436523, 0.07667801529169083
36,3061603317,0.59467113,0.2828086,-0.17151028,0.7327825,9.0994873046875,1.372530221939087,11.279507637023926,0.45911407470703125,3.102062940597534, 0.6703804135322571
37,3061619984,0.59475666,0.2825476,-0.17126514,0.7328708,9.191058158874512,1.3465076684951782,11.131433486938477,0.6588034629821777,2.6807467937469482, 0.4788230061531067
38,3061636651,0.5948249,0.28223538,-0.17105864,0.732984,9.01892375946045,1.2465020418167114,11.083172798156738,0.14412906765937805,2.787001132965088, 0.5826184749603271
39,3061653318,0.5948929,0.2818909,-0.1708901,0.7331008,9.063674926757812,1.3317782878875732,11.192726135253906,-0.005224991124123335,2.8233072757720947, 0.9227167367935181
40,3061669985,0.5949667,0.28154352,-0.17076005,0.73320466,9.041020393371582,1.3902376890182495,11.12465763092041,-0.18556401133537292,2.6685423851013184, 0.9863770008087158
41,3061686652,0.5949965,0.28122467,-0.17060685,0.73333836,9.050005912780762,1.2577786445617676,11.079440116882324,0.085117407143116,2.6144611835479736, 1.1496323347091675
42,3061703319,0.5950402,0.28086475,-0.17044884,0.7334777,9.046130180358887,1.454211711883545,11.223437309265137,-0.1552385836839676,2.8591649532318115, 1.0428019762039185
43,3061719986,0.595047,0.2805004,-0.1702528,0.733657,9.214617729187012,0.9955068230628967,11.225549697875977,0.13568967580795288,3.070136547088623, 1.3285882472991943
44,3061736653,0.5951146,0.28020433,-0.16998525,0.73377764,9.181742668151855,1.4258184432983398,11.19710922241211,0.5271926522254944,2.9696197509765625, 0.473943829536438
45,3061753320,0.59513175,0.27979344,-0.16973764,0.7339776,9.195144653320312,1.080670714378357,11.382315635681152,0.12124411761760712,3.5596723556518555, 1.199474811553955
46,3061769987,0.59521717,0.27953073,-0.16954023,0.73405397,9.076125144958496,1.4112212657928467,11.00583267211914,0.43971240520477295,2.48030161857605, 0.5770605206489563
47,3061786654,0.59532785,0.2791386,-0.16937628,0.7341514,9.094830513000488,1.3844977617263794,11.358288764953613,-0.29665908217430115,3.0680363178253174, 0.7415837049484253
48,3061803321,0.59535164,0.2787551,-0.16922532,0.7343127,9.230263710021973,1.210372805595398,11.347408294677734,-0.24011901021003723,2.9696576595306396, 1.2608554363250732
49,3061819988,0.5954034,0.27838704,-0.16906354,0.7344475,9.14273452758789,1.2436002492904663,11.148436546325684,-0.13095775246620178,2.9293441772460938, 1.0676718950271606
50,3061836655,0.5954403,0.27801874,-0.16889493,0.73459595,9.030014991760254,1.2677347660064697,11.273605346679688,-0.05924218147993088,2.9688384532928467, 1.1787796020507812
51,3061853322,0.59542006,0.27772042,-0.16867542,0.7347755,9.05062484741211,1.1587562561035156,11.227617263793945,0.5503721237182617,2.80452036857605, 1.3142964839935303
52,3061869989,0.59547913,0.27735302,-0.16851956,0.7349023,9.235880851745605,1.2126541137695312,11.308253288269043,-0.193900927901268,2.8943822383880615, 0.9919989705085754
53,3061886656,0.59549093,0.27699777,-0.16834557,0.7350664,9.21678352355957,1.1138285398483276,11.397588729858398,0.1572171449661255,2.9363229274749756, 1.4347658157348633
54,3061903323,0.5954924,0.27674305,-0.16807967,0.7352221,9.222335815429688,1.2210801839828491,11.240939140319824,0.8404487371444702,2.749478816986084, 0.8934542536735535
55,3061919990,0.5955481,0.27638048,-0.16795734,0.7353412,9.158076286315918,1.24208402633667,11.36834716796875,-0.39181026816368103,2.713927984237671, 0.9744799733161926
56,3061936657,0.5955586,0.276019,-0.16780269,0.7355038,9.329974174499512,1.1533797979354858,11.4517240524292,0.015169120393693447,2.885302782058716, 1.4564470052719116
57,3061953324,0.5956096,0.27566305,-0.16761903,0.73563796,9.215678215026855,1.346095323562622,11.296581268310547,-0.0234100092202425,2.9575817584991455, 0.9433221220970154
58,3061969991,0.5956363,0.2752262,-0.16750942,0.73580486,9.117140769958496,1.1308237314224243,11.274105072021484,-0.7585328817367554,3.0838522911071777, 1.2898234128952026
59,3061986658,0.59570116,0.27476326,-0.1673848,0.7359537,9.044527053833008,1.0401757955551147,11.406534194946289,-0.6666730046272278,3.3168129920959473, 1.3086105585098267
60,3062003325,0.5957187,0.2744315,-0.16712381,0.73612255,9.11198902130127,1.118328332901001,11.384834289550781,0.6618257164955139,3.191591739654541, 1.202932357788086
61,3062019992,0.595752,0.27402413,-0.16693078,0.7362911,9.185715675354004,1.238019585609436,11.434024810791016,-0.13418494164943695,3.2974367141723633, 1.1877697706222534
62,3062036659,0.59576494,0.273639,-0.16670941,0.7364739,9.238724708557129,1.0795193910598755,11.356847763061523,0.11453360319137573,3.2978978157043457, 1.2196704149246216
63,3062053326,0.5957836,0.2732116,-0.16654901,0.73665386,9.186279296875,0.845749020576477,11.449261665344238,-0.2286830097436905,3.284719944000244, 1.5459378957748413
64,3062069993,0.59580916,0.2729246,-0.16627374,0.7368018,9.218542098999023,1.2965517044067383,11.456819534301758,0.7756741642951965,2.976163625717163, 0.8578525185585022
65,3062086660,0.5958875,0.27252933,-0.1661665,0.736909,9.206424713134766,1.1675437688827515,11.421847343444824,-0.6422384977340698,2.823486566543579, 0.9005361199378967
66,3062103327,0.59594786,0.27214858,-0.16598186,0.73704255,9.276933670043945,1.0456196069717407,11.52613639831543,0.051513541489839554,3.120452880859375, 1.181315302848816
67,3062119994,0.5959941,0.271833,-0.16572621,0.73717904,9.304840087890625,1.102596402168274,11.478391647338867,0.63550865650177,3.061300277709961, 0.9577420353889465
68,3062136661,0.59604585,0.27145958,-0.16548459,0.7373289,9.36054801940918,1.079342246055603,11.506933212280273,0.19532883167266846,3.3112926483154297, 0.8918533325195312
69,3062153328,0.5960933,0.27108034,-0.16526516,0.7374792,9.340413093566895,1.1548978090286255,11.539304733276367,0.19910670816898346,3.2655999660491943, 1.1425504684448242
70,3062169995,0.5961611,0.27068236,-0.16509868,0.73760813,9.25555419921875,1.004714846611023,11.41196346282959,-0.13961482048034668,3.137446880340576, 1.1687650680541992
71,3062186662,0.59621865,0.2703455,-0.16485183,0.7377403,9.192146301269531,1.2409650087356567,11.553174018859863,0.4958554208278656,3.14621901512146, 0.9507881999015808
72,3062203329,0.596295,0.2698932,-0.16470164,0.73787767,9.217571258544922,0.9903568029403687,11.587648391723633,-0.4430869221687317,3.3736088275909424, 1.2666442394256592
73,3062219996,0.59636855,0.26956108,-0.16448548,0.737988,9.30656909942627,1.085302710533142,11.552804946899414,0.3501448333263397,2.979570150375366, 0.8976163268089294
74,3062236663,0.5964475,0.26923248,-0.16425243,0.7380961,9.319923400878906,1.1494673490524292,11.560745239257812,0.3661271333694458,3.025404214859009, 0.7273686528205872
75,3062253330,0.5965284,0.26892358,-0.16399464,0.73820055,9.346884727478027,1.1468095779418945,11.618416786193848,0.5613727569580078,3.0240979194641113, 0.6328834295272827
76,3062269997,0.596627,0.26859286,-0.16379803,0.7382849,9.29023551940918,0.9481019973754883,11.509352684020996,0.09149496257305145,2.866349220275879, 0.5798266530036926
77,3062286664,0.5967182,0.26830631,-0.1635705,0.7383657,9.219027519226074,1.1659594774246216,11.598053932189941,0.49101462960243225,2.763129949569702, 0.5645231008529663
78,3062303331,0.59679127,0.26804808,-0.16322608,0.73847675,9.32701587677002,1.2576203346252441,11.681208610534668,1.3006449937820435,3.139150381088257, 0.5824136137962341
79,3062319998,0.5968838,0.26762444,-0.16306913,0.7385902,9.527179718017578,1.0274474620819092,11.720446586608887,-0.32492268085479736,3.24299693107605, 1.0835387706756592
80,3062336665,0.59694254,0.26726326,-0.16287349,0.73871666,9.351983070373535,1.0154621601104736,11.518165588378906,0.09828232228755951,3.059788942337036, 1.0149863958358765
81,3062353332,0.5970716,0.26683637,-0.16268621,0.7388079,9.35484504699707,1.0716661214828491,11.749268531799316,-0.26965051889419556,3.3913843631744385, 0.7606139779090881
82,3062369999,0.5971455,0.26646465,-0.16245991,0.73893213,9.364521026611328,1.0671846866607666,11.705870628356934,0.2668651044368744,3.2671236991882324, 1.0059195756912231
83,3062386666,0.5972088,0.26610932,-0.1622155,0.7390627,9.27614974975586,0.9807600975036621,11.639492988586426,0.3370823562145233,3.2446489334106445, 0.8707485795021057
84,3062403333,0.5973493,0.26572403,-0.16202861,0.7391289,9.419275283813477,1.0993967056274414,11.722168922424316,-0.17949378490447998,3.144733428955078, 0.5103009939193726
85,3062420000,0.59746444,0.2653747,-0.16181311,0.7392085,9.368969917297363,0.9972918033599854,11.80228042602539,0.38321080803871155,3.1069164276123047, 0.9038657546043396
86,3062436667,0.5975914,0.26503932,-0.16155961,0.73928165,9.382834434509277,0.8305562138557434,11.66887092590332,0.5395123362541199,3.185880422592163, 0.637532114982605
87,3062453334,0.597713,0.26476917,-0.16131268,0.739334,9.411149024963379,1.0839977264404297,11.754165649414062,0.7138964533805847,2.780085802078247, 0.4458979070186615
88,3062470001,0.597834,0.26442322,-0.16104782,0.7394178,9.499826431274414,0.9555313587188721,11.843006134033203,0.629912257194519,3.3119330406188965, 0.7787477374076843
89,3062486668,0.5979816,0.2640995,-0.1607822,0.73947203,9.524991035461426,1.1682536602020264,11.825185775756836,0.6466630697250366,3.1814239025115967, 0.49899303913116455
90,3062503335,0.5981269,0.26373276,-0.16063924,0.73951626,9.421981811523438,1.035406470298767,11.653347969055176,-0.21244452893733978,2.8728036880493164, 0.6703547239303589
91,3062520002,0.598244,0.26327354,-0.16048433,0.7396189,9.475120544433594,1.0129295587539673,11.951028823852539,-0.43446826934814453,3.4665703773498535, 1.1094205379486084
92,3062536669,0.5983622,0.2629918,-0.16024584,0.7396753,9.379308700561523,1.078446865081787,11.608687400817871,0.7496516704559326,2.834064245223999, 0.6891416907310486
93,3062553336,0.5984862,0.26258475,-0.16004544,0.73976284,9.296525001525879,1.1014848947525024,11.923437118530273,0.009585551917552948,3.3701508045196533, 0.9189131855964661
94,3062570003,0.59862006,0.262119,-0.1599137,0.7398483,9.50388240814209,0.8742197155952454,11.77682113647461,-0.5406712889671326,3.3968520164489746, 1.1435108184814453
95,3062586670,0.598763,0.2617462,-0.15971184,0.73990816,9.415268898010254,0.886790931224823,11.677840232849121,0.20153993368148804,3.183485746383667, 0.8323551416397095
96,3062603337,0.5988471,0.26141348,-0.1593881,0.74002755,9.476764678955078,0.9412319660186768,11.738332748413086,0.6218570470809937,3.453622579574585, 0.3056555390357971
97,3062620004,0.5990005,0.26106942,-0.15914363,0.74007744,9.341483116149902,0.9278907179832458,11.857916831970215,0.46900054812431335,3.2036936283111572, 0.5741661787033081
98,3062636671,0.59918046,0.26081893,-0.15873858,0.740107,9.48370361328125,1.080548882484436,11.953134536743164,1.6271042823791504,3.3834311962127686, 0.0051161362789571285
99,3062653338,0.59938,0.26045737,-0.15854275,0.74011487,9.549184799194336,1.1584004163742065,11.862348556518555,0.030011681839823723,3.0685489177703857, 0.2934383153915405
100,3062670005,0.59953964,0.26012135,-0.15833633,0.7401479,9.311976432800293,1.0802866220474243,11.776213645935059,0.2701307535171509,2.984424114227295, 0.5323280096054077
101,3062686672,0.59966874,0.2597779,-0.15801078,0.7402335,9.434064865112305,0.9087465405464172,11.950407981872559,0.945358395576477,3.572657585144043, 0.6845442056655884
102,3062703339,0.59964293,0.25946054,-0.15773492,0.7404246,9.407795906066895,1.0351852178573608,11.734756469726562,0.7498054504394531,3.1973681449890137, 1.2819477319717407
103,3062720006,0.59967744,0.25917038,-0.15736502,0.74057686,9.435822486877441,1.0553003549575806,11.693129539489746,1.1907280683517456,3.44565749168396, 0.617259681224823
104,3062736673,0.59972215,0.25882894,-0.1570951,0.74071735,9.385560989379883,0.8970288038253784,11.822632789611816,0.4390464425086975,3.2883052825927734, 0.7505481243133545
105,3062753340,0.5997723,0.25852105,-0.15670073,0.7408679,9.482763290405273,0.9589702486991882,11.900164604187012,1.214266300201416,3.656437635421753, 0.5054603219032288
106,3062770007,0.59984916,0.2582303,-0.15636298,0.7409783,9.46866226196289,1.0367239713668823,11.83799934387207,0.9064013361930847,3.2958483695983887, 0.285024493932724
107,3062786674,0.59995717,0.25796264,-0.15602857,0.74105465,9.414209365844727,1.146205186843872,11.84076976776123,0.8924808502197266,3.1409170627593994, -0.03310440853238106
108,3062803341,0.60005045,0.25761458,-0.1557678,0.74115497,9.446115493774414,0.9629083871841431,11.85041332244873,0.235784113407135,3.2765750885009766, 0.35852015018463135
109,3062820008,0.60014486,0.2572736,-0.1555357,0.74124587,9.350484848022461,0.9367489218711853,11.83871078491211,0.10822006314992905,3.1100285053253174, 0.3560229539871216
110,3062836675,0.6002503,0.25692692,-0.15531121,0.7413277,9.31758975982666,1.054690957069397,11.836904525756836,0.017948100343346596,3.1057894229888916, 0.28069600462913513
111,3062853342,0.600439,0.2565981,-0.15511423,0.74132997,9.416672706604004,0.891377329826355,11.751317024230957,0.3274391293525696,2.9364380836486816, 0.5446604490280151
112,3062870009,0.6005145,0.25626394,-0.15483879,0.741442,9.339444160461426,0.969093382358551,11.851250648498535,0.4242807924747467,3.281761884689331, 0.4661319851875305
113,3062886676,0.60057545,0.25602773,-0.1544721,0.74155086,9.453075408935547,0.9815733432769775,11.783252716064453,1.3161534070968628,3.1412501335144043, 0.2608461081981659
114,3062903343,0.6006898,0.25576445,-0.154165,0.7416129,9.344860076904297,1.1183260679244995,11.790279388427734,0.75728440284729,3.0126492977142334, -0.07226624339818954
115,3062920010,0.60076994,0.25552672,-0.15379636,0.7417065,9.512310028076172,1.0619992017745972,11.902874946594238,1.2687571048736572,3.159780979156494, 0.09850003570318222
116,3062936677,0.6008983,0.25524035,-0.15353058,0.7417562,9.533738136291504,1.0029104948043823,11.780061721801758,0.4118073880672455,2.9622175693511963, -0.0968928411602974
117,3062953344,0.6010132,0.25493428,-0.15315886,0.7418452,9.564537048339844,1.0386964082717896,12.043254852294922,0.9364451766014099,3.561657428741455, -0.03228481113910675
118,3062970011,0.6011399,0.2546678,-0.15288931,0.7418897,9.568748474121094,1.1368085145950317,11.735069274902344,0.5115945339202881,2.8767480850219727, -0.14021672308444977
119,3062986678,0.6012478,0.25428668,-0.15261887,0.7419884,9.526602745056152,1.0364136695861816,12.048547744750977,0.13074642419815063,3.5484540462493896, 0.29948291182518005
120,3063003345,0.60132957,0.25391614,-0.15242815,0.7420884,9.530376434326172,1.0964455604553223,11.813153266906738,-0.18433460593223572,3.1438114643096924, 0.5655219554901123
121,3063020012,0.60142124,0.2535716,-0.15218577,0.74218154,9.410093307495117,1.0224922895431519,11.837498664855957,0.1617249995470047,3.2280519008636475, 0.36944398283958435
122,3063036679,0.6015148,0.25321326,-0.1519464,0.74227715,9.521316528320312,0.8445408344268799,11.869670867919922,0.08865194767713547,3.2921087741851807, 0.3889736235141754
123,3063053346,0.6015789,0.25295493,-0.15163979,0.7423761,9.487222671508789,1.0164905786514282,11.84029769897461,0.9030588865280151,3.0349321365356445, 0.330218106508255
124,3063070013,0.6016852,0.25268504,-0.15135802,0.74243927,9.535371780395508,1.1153067350387573,11.904720306396484,0.6172853708267212,2.9725143909454346, 0.0218796506524086
125,3063086680,0.6018032,0.25237378,-0.15109953,0.7425023,9.578192710876465,1.0241998434066772,11.890413284301758,0.3056427836418152,3.0986695289611816, 0.04687764495611191
126,3063103347,0.60192555,0.25204423,-0.1508166,0.7425724,9.549542427062988,0.9449843764305115,11.948206901550293,0.35431969165802,3.31093430519104, 0.030178163200616837
127,3063120014,0.60204583,0.25176546,-0.15051691,0.7426303,9.61616325378418,0.9646580815315247,11.779342651367188,0.6420527100563049,3.0977728366851807, -0.09243623167276382
128,3063136681,0.60213625,0.25139037,-0.15024132,0.74274,9.611841201782227,0.9926359057426453,11.996272087097168,0.22633305191993713,3.551527738571167, 0.41494497656822205
129,3063153348,0.6021914,0.25111076,-0.14994176,0.7428503,9.601025581359863,0.8292351961135864,11.813665390014648,0.8058203458786011,3.1293530464172363, 0.45716750621795654
130,3063170015,0.6023018,0.25076893,-0.14971933,0.7429212,9.579117774963379,1.1009668111801147,11.8817777633667,0.020586207509040833,3.120312213897705, 0.2068033367395401
131,3063186682,0.6023793,0.2504089,-0.14949821,0.74302423,9.464055061340332,0.9202055931091309,11.856922149658203,0.026707643643021584,3.2324187755584717, 0.5297538638114929
132,3063203349,0.60242623,0.25010723,-0.14921859,0.74314415,9.4986572265625,0.8420297503471375,11.859651565551758,0.6388383507728577,3.175981044769287, 0.5948485136032104
133,3063220016,0.6025649,0.24979928,-0.14902562,0.7431737,9.531747817993164,1.152010202407837,11.561516761779785,-0.07851572334766388,2.7911376953125, -0.0947541818022728
134,3063236683,0.6026769,0.24945454,-0.14877118,0.7432497,9.525946617126465,0.8503970503807068,11.936614036560059,0.173545241355896,3.2929160594940186, 0.16739818453788757
135,3063253350,0.60281,0.2491745,-0.14848663,0.7432927,9.502910614013672,0.9127580523490906,11.793479919433594,0.528101921081543,3.0548460483551025, -0.19724340736865997
136,3063270017,0.6029426,0.24896972,-0.14811839,0.7433274,9.55018138885498,0.8369362354278564,11.71889591217041,1.2612526416778564,3.0067451000213623, -0.4497333765029907
137,3063286684,0.6030982,0.24876124,-0.14777595,0.7433391,9.486560821533203,1.1271864175796509,11.726922035217285,1.0531622171401978,2.9092764854431152, -0.6170612573623657
138,3063303351,0.6032198,0.24852625,-0.14746226,0.7433812,9.426553726196289,1.0364574193954468,11.67558479309082,0.8829785585403442,2.948374032974243, -0.24059291183948517
139,3063320018,0.6033315,0.24824232,-0.14715056,0.7434473,9.364429473876953,1.1360338926315308,11.765840530395508,0.7103362083435059,3.226655960083008, -0.03707438334822655
140,3063336685,0.6034486,0.24793196,-0.14690782,0.7435037,9.414006233215332,1.1271826028823853,11.668824195861816,0.22726790606975555,3.068279981613159, 0.039910994470119476
141,3063353352,0.6035457,0.24760488,-0.14666103,0.74358267,9.480250358581543,1.0325982570648193,11.660239219665527,0.23400402069091797,3.1946780681610107, 0.24652864038944244
142,3063370019,0.60367054,0.2472317,-0.14641587,0.7436538,9.49870777130127,0.9746181964874268,11.705001831054688,-0.02045173943042755,3.4452600479125977, 0.12096237391233444
143,3063386686,0.6037876,0.24688552,-0.14617686,0.7437207,9.357523918151855,0.9066041707992554,11.676995277404785,0.07010835409164429,3.2747695446014404, 0.12502197921276093
144,3063403353,0.60392106,0.2466655,-0.14587557,0.7437447,9.362117767333984,1.0548303127288818,11.620152473449707,0.8434325456619263,2.8371634483337402, -0.3711792230606079
145,3063420020,0.60404557,0.24638925,-0.14555687,0.7437974,9.503342628479004,1.0177671909332275,11.801162719726562,0.7424033284187317,3.243624448776245, -0.1795065999031067
146,3063436687,0.60416555,0.24617259,-0.14521852,0.74383795,9.532928466796875,1.046125888824463,11.640730857849121,1.086061716079712,3.00276255607605, -0.30144864320755005
147,3063453354,0.604351,0.24593602,-0.14493285,0.7438212,9.461512565612793,1.2139167785644531,11.561763763427734,0.5659701824188232,2.8638265132904053, -0.7659990191459656
148,3063470021,0.6044925,0.2456281,-0.14463185,0.7438665,9.49898624420166,1.191834568977356,11.778878211975098,0.48091042041778564,3.3634657859802246, -0.23696869611740112
149,3063486688,0.60462046,0.24538323,-0.14432247,0.74390346,9.475058555603027,1.1312001943588257,11.53881549835205,0.798392653465271,3.0564208030700684, -0.27907595038414
150,3063503355,0.60475194,0.24508329,-0.14405085,0.7439483,9.368165016174316,1.1144146919250488,11.647369384765625,0.3771405816078186,3.2082018852233887, -0.14655587077140808
151,3063520022,0.6048459,0.24479693,-0.14378364,0.7440178,9.521475791931152,1.049891710281372,11.66802978515625,0.4986088275909424,3.1298141479492188, 0.14206722378730774
152,3063536689,0.6049255,0.24459715,-0.14350276,0.74407274,9.48427963256836,1.107264518737793,11.507655143737793,0.9385837912559509,2.7094714641571045, 0.044559694826602936
153,3063553356,0.60502976,0.24434343,-0.1432224,0.7441256,9.547774314880371,1.1151310205459595,11.747373580932617,0.6674734354019165,3.006924867630005, -0.03492291644215584
154,3063570023,0.6051319,0.2440725,-0.14301346,0.7441715,9.576513290405273,1.1165595054626465,11.616000175476074,0.22684526443481445,2.784132480621338, 0.0831836387515068
155,3063586690,0.6052697,0.2438753,-0.14267549,0.74418914,9.599525451660156,1.1253715753555298,11.662817001342773,1.105796217918396,2.9330062866210938, -0.5050055980682373
156,3063603357,0.60540813,0.24358295,-0.14235061,0.7442343,9.676259994506836,1.1088746786117554,11.728650093078613,0.6682674288749695,3.4133856296539307, -0.2783588767051697
157,3063620024,0.60555875,0.24329478,-0.14200796,0.7442716,9.781700134277344,1.1432700157165527,11.712039947509766,0.7484351396560669,3.467197895050049, -0.4077286124229431
158,3063636691,0.60574377,0.24301592,-0.14171572,0.7442678,9.64007568359375,1.2824268341064453,11.56212043762207,0.43104249238967896,3.1789138317108154, -0.6795177459716797
159,3063653358,0.605869,0.24274904,-0.14133361,0.7443256,9.673905372619629,1.1973559856414795,11.893150329589844,1.097779631614685,3.5403733253479004, -0.2775648534297943
160,3063670025,0.6059842,0.24246699,-0.14108957,0.7443702,9.739855766296387,1.173750877380371,11.678044319152832,0.3315372169017792,3.012802839279175, -0.035499200224876404
161,3063686692,0.60608643,0.24229294,-0.14080837,0.74439675,9.646394729614258,1.303118109703064,11.70803451538086,0.9749665856361389,2.578014373779297, -0.21203473210334778
162,3063703359,0.60618454,0.24202198,-0.1406337,0.7444379,9.768017768859863,1.4098131656646729,11.923741340637207,0.044662147760391235,2.65466046333313, 0.1421440839767456
163,3063720026,0.6062162,0.24181561,-0.1403969,0.7445239,9.867279052734375,1.2470532655715942,11.993010520935059,0.7825767993927002,2.598132848739624, 0.5052937269210815
164,3063736693,0.60631114,0.24160445,-0.14023419,0.7445459,9.937567710876465,1.3161075115203857,11.731278419494629,0.21601112186908722,2.2747855186462402, 0.04242103546857834
165,3063753360,0.60642254,0.2413097,-0.14013936,0.74456847,9.948781967163086,1.1652135848999023,11.843639373779297,-0.5083096623420715,2.4470181465148926, 0.15439976751804352
166,3063770027,0.6065022,0.24104401,-0.13994856,0.7446257,9.82808780670166,1.0903599262237549,11.768454551696777,0.1910131275653839,2.734520673751831, 0.27221816778182983
167,3063786694,0.60660505,0.24076326,-0.13967977,0.74468327,9.890373229980469,1.1017186641693115,11.878487586975098,0.4912963807582855,3.1683101654052734, 0.03774671256542206
168,3063803361,0.6066997,0.24052611,-0.13940573,0.74473417,9.931419372558594,1.2984013557434082,11.878172874450684,0.7092861533164978,2.95658278465271, -0.0004098032368347049
169,3063820028,0.60681444,0.2402774,-0.13918109,0.74476284,9.916515350341797,1.196121335029602,11.79243278503418,0.3514510691165924,2.8022279739379883, -0.10325759649276733
170,3063836695,0.6069344,0.24003693,-0.13892482,0.7447906,9.819928169250488,1.2387745380401611,11.9163818359375,0.5385645627975464,2.905958890914917, -0.19457966089248657
171,3063853362,0.6070539,0.23978107,-0.13877586,0.7448032,9.86707592010498,1.164454460144043,11.704703330993652,-0.08950357139110565,2.519540309906006, -0.06460803747177124
172,3063870029,0.6071324,0.23957735,-0.13857342,0.7448426,9.79985237121582,1.2550374269485474,11.907746315002441,0.4954584538936615,2.492685556411743, 0.11779920756816864
173,3063886696,0.60719895,0.23934683,-0.1384131,0.7448922,9.93150806427002,1.1293975114822388,11.796931266784668,0.19644299149513245,2.46809720993042, 0.31600308418273926
174,3063903363,0.6073099,0.23908278,-0.13832988,0.74490196,9.840394973754883,1.1500325202941895,11.736312866210938,-0.44804295897483826,2.3072752952575684, 0.07914964854717255
175,3063920030,0.6073785,0.23882446,-0.13823994,0.7449456,9.715059280395508,1.135520339012146,11.729450225830078,-0.2872336208820343,2.3334386348724365, 0.41945281624794006
176,3063936697,0.60738826,0.23863396,-0.13809125,0.7450263,9.738248825073242,1.1814466714859009,11.819748878479004,0.4295826256275177,2.2457921504974365, 0.7134993672370911
177,3063953364,0.60741776,0.2385042,-0.13806805,0.7450481,9.581167221069336,1.1809557676315308,11.41592025756836,-0.047946978360414505,1.3429572582244873, 0.5131696462631226
178,3063970031,0.6074571,0.23830138,-0.13813087,0.74506915,9.583023071289062,0.9733091592788696,11.70262336730957,-0.8112054467201233,1.378021001815796, 0.6692534685134888
179,3063986698,0.6073994,0.23826459,-0.13809644,0.74513453,9.72666072845459,0.9898403882980347,11.652412414550781,0.5849748253822327,0.9235234260559082, 1.0311352014541626
180,3064003365,0.60736585,0.23829755,-0.13813187,0.74514467,9.820876121520996,1.139588713645935,11.565092086791992,0.4294033646583557,0.21932800114154816, 0.7221181392669678
181,3064020032,0.60737807,0.2383719,-0.13836491,0.7450677,9.628561973571777,1.2710094451904297,11.425742149353027,-0.5681921243667603,-0.903974711894989, 0.4075300991535187
182,3064036699,0.6072977,0.23849887,-0.13864994,0.74503976,9.384581565856934,1.1451064348220825,11.525397300720215,-0.41956162452697754,-1.3928569555282593, 1.1231874227523804
183,3064053366,0.6072325,0.23856805,-0.1390336,0.74499905,9.607758522033691,1.0709476470947266,11.310338020324707,-1.2033613920211792,-1.518564224243164, 1.209540605545044
184,3064070033,0.60712326,0.23871508,-0.13933764,0.7449844,9.5789213180542,0.9999141693115234,11.311466217041016,-0.3728824853897095,-1.5825190544128418, 1.3387821912765503
185,3064086700,0.6070151,0.23890337,-0.13957697,0.7449672,9.589676856994629,1.0586328506469727,11.396081924438477,0.1283772587776184,-1.5268754959106445, 1.1755396127700806
186,3064103367,0.60696566,0.23912461,-0.13972336,0.7449091,9.438989639282227,1.1101857423782349,11.07550048828125,0.6070658564567566,-1.3201297521591187, 0.5196753144264221
187,3064120034,0.60699457,0.23921128,-0.13980722,0.744842,9.466907501220703,1.1715154647827148,11.319296836853027,0.22712700068950653,-0.31000328063964844, 0.10833532363176346
188,3064136701,0.60716766,0.23915966,-0.14013152,0.74465644,9.552998542785645,1.0391128063201904,10.914898872375488,-1.9339253902435303,-0.6635482311248779, -0.5943171381950378
189,3064153368,0.607249,0.23912652,-0.14032906,0.7445636,9.313019752502441,0.8104363679885864,11.054567337036133,-0.9680959582328796,-0.1605532020330429, 0.03453231602907181
190,3064170035,0.60729486,0.23919512,-0.140406,0.74448967,9.498291969299316,1.1075375080108643,11.162851333618164,0.154976025223732,-0.18205507099628448, -0.004341352265328169
191,3064186702,0.6072857,0.23928359,-0.1406363,0.7444253,9.473258972167969,1.314714789390564,11.098860740661621,-0.44791483879089355,-0.9596309065818787, 0.5519728064537048
192,3064203369,0.6071983,0.23941292,-0.14104976,0.7443768,9.302546501159668,1.4210257530212402,11.148725509643555,-1.0760023593902588,-1.9800665378570557, 1.283151388168335
193,3064220036,0.6070739,0.23944084,-0.14156911,0.74437076,9.46311092376709,1.134255051612854,10.962821006774902,-1.9457838535308838,-1.8694708347320557, 1.9248391389846802
194,3064236703,0.607015,0.23950651,-0.14219534,0.7442782,9.316319465637207,1.1630549430847168,10.991629600524902,-2.5271413326263428,-2.5813891887664795, 1.3699531555175781
195,3064253370,0.606974,0.23966822,-0.14270046,0.7441629,9.351583480834961,1.1434948444366455,11.02751636505127,-1.5567913055419922,-2.5837838649749756, 0.8988458514213562
196,3064270037,0.6069686,0.23981817,-0.14308201,0.7440456,9.371731758117676,0.8860315680503845,10.855470657348633,-1.039120078086853,-1.9727413654327393, 0.5068689584732056
197,3064286704,0.6068591,0.24015118,-0.14308628,0.7440268,9.363767623901367,0.7743465304374695,10.934342384338379,1.9260175228118896,-1.2681490182876587, 0.6434870958328247
198,3064303371,0.6065988,0.24060543,-0.14280254,0.7441469,9.302848815917969,0.9464335441589355,10.999428749084473,4.293847560882568,-0.5996061563491821, 1.3916724920272827
199,3064320038,0.6063333,0.24117066,-0.14239495,0.7442584,9.21530818939209,1.4541040658950806,10.678154945373535,5.393784999847412,-0.6654820442199707, 1.0690933465957642
200,3064336705,0.60614514,0.2418546,-0.14189288,0.7442856,9.103713989257812,1.460319995880127,10.560079574584961,6.14661979675293,-0.9366694092750549, 0.045225631445646286
201,3064353372,0.6058935,0.24290344,-0.14078926,0.7443584,9.111817359924316,1.1033252477645874,10.376959800720215,10.905821800231934,-0.2722759544849396, -0.7564586400985718
202,3064370039,0.60541147,0.24457914,-0.13878395,0.7445785,9.034984588623047,1.1526910066604614,10.255349159240723,18.64849281311035,0.30724388360977173, -1.0978001356124878
203,3064386706,0.6047065,0.24697542,-0.13579156,0.74491215,9.03089427947998,1.7242017984390259,10.378271102905273,27.19603729248047,0.7186749577522278, -1.8074672222137451
204,3064403373,0.60375553,0.25014192,-0.13190638,0.7453248,8.998424530029297,1.6231982707977295,10.199121475219727,35.4375114440918,0.39262521266937256, -2.498145580291748
205,3064420040,0.60210574,0.2547957,-0.12611607,0.7460848,9.101631164550781,1.6791774034500122,9.932103157043457,52.88816452026367,0.6562998294830322, -2.0921170711517334
206,3064436707,0.59938526,0.2612841,-0.11761976,0.747418,8.922830581665039,2.208041191101074,9.954285621643066,76.74960327148438,2.547344446182251, -0.5255835056304932
207,3064453374,0.5960717,0.26891464,-0.107250534,0.74891996,8.63041877746582,3.2192161083221436,10.501811027526855,92.25730895996094,4.223411560058594, -1.1169778108596802
208,3064470041,0.5924239,0.27676535,-0.09661244,0.75040054,8.625263214111328,2.458934783935547,10.385333061218262,95.12440490722656,3.9047231674194336, -0.13890208303928375
209,3064486708,0.5878465,0.28593823,-0.08446078,0.7520255,8.568673133850098,3.024632215499878,9.680747032165527,110.18426513671875,2.904930830001831, 1.4718903303146362
210,3064503375,0.5831282,0.29546058,-0.07233232,0.75328124,8.794252395629883,4.257806301116943,9.089159965515137,111.53054809570312,0.20471207797527313, 0.5391389727592468
211,3064520042,0.57889086,0.30401382,-0.062378842,0.7540359,8.965380668640137,3.5041286945343018,8.525140762329102,95.12380981445312,-4.257875919342041, 0.9400351047515869
212,3064536709,0.5737096,0.31490517,-0.05144848,0.75435096,10.220492362976074,3.8918089866638184,6.326526165008545,111.27200317382812,-13.794625282287598, 1.0234968662261963
213,3064553376,0.5683483,0.32803056,-0.040547248,0.7534799,11.089034080505371,5.819646835327148,3.4337100982666016,119.88063049316406,-28.06275177001953, -3.4737606048583984
214,3064570043,0.5654665,0.3401524,-0.034449667,0.7505712,11.611801147460938,6.551647186279297,2.4164891242980957,84.83560180664062,-45.43112564086914, -13.175405502319336
215,3064586710,0.5636252,0.35367614,-0.03127721,0.7458296,11.50161075592041,4.385955810546875,1.8442212343215942,72.2361831665039,-67.96390533447266, -19.162111282348633
216,3064603377,0.56330025,0.36790976,-0.031392798,0.7391549,11.551180839538574,6.291683673858643,2.7991819381713867,53.97966384887695,-88.6198501586914, -26.614564895629883
217,3064620044,0.5644221,0.38171202,-0.035797752,0.7310557,10.666836738586426,4.233079433441162,3.7907679080963135,26.479045867919922,-106.25908660888672, -28.533538818359375
218,3064636711,0.5650154,0.39826992,-0.038691763,0.721555,9.495424270629883,7.614211082458496,5.623763561248779,45.79831314086914,-118.02857971191406, -35.974674224853516
219,3064653378,0.5695231,0.40908056,-0.050278608,0.7111742,9.7362699508667,3.433791160583496,6.883743762969971,-30.655418395996094,-124.68157958984375, -33.42348098754883
220,3064670045,0.57227564,0.42201295,-0.059683003,0.70060265,9.503068923950195,2.46573805809021,5.549168109893799,-6.7624359130859375,-127.697998046875, -32.466854095458984
221,3064686712,0.5717176,0.4379947,-0.0651557,0.6906913,9.128325462341309,3.6619186401367188,4.726980686187744,33.266456604003906,-127.02876281738281, -27.57891845703125
222,3064703379,0.5705003,0.45394415,-0.06963477,0.68089306,9.769055366516113,5.521934509277344,4.999203205108643,38.40144348144531,-124.1072998046875, -28.536195755004883
223,3064720046,0.56860954,0.46869788,-0.07504283,0.6718438,9.394248008728027,2.228506565093994,5.629730224609375,30.014951705932617,-121.54103088378906, -20.530805587768555
224,3064736713,0.56542045,0.48365602,-0.079684645,0.6633453,9.509064674377441,3.12387752532959,5.107522487640381,38.722862243652344,-118.53439331054688, -14.786162376403809
225,3064753380,0.5630727,0.49645886,-0.085927844,0.65505284,9.535778045654297,4.1689453125,5.97044038772583,19.877220153808594,-114.1979751586914, -11.417664527893066
226,3064770047,0.5622606,0.5068851,-0.094432,0.6465394,9.370450019836426,3.099494218826294,6.717182636260986,-0.12850426137447357,-108.52091217041016, -6.247056484222412
227,3064786714,0.5613299,0.5162767,-0.10317934,0.63853055,9.612512588500977,3.147810935974121,6.442808151245117,-4.417178630828857,-103.25104522705078, -2.268038749694824
228,3064803381,0.56110203,0.5236495,-0.11302648,0.6310157,9.877243041992188,3.3446006774902344,6.250286102294922,-19.13687515258789,-96.44198608398438, 1.8709115982055664
229,3064820048,0.5609205,0.5297227,-0.12284304,0.624237,9.90080451965332,2.664334774017334,6.075146675109863,-23.573135375976562,-88.0550308227539, 5.394314765930176
230,3064836715,0.5599489,0.5357332,-0.13149524,0.61818784,9.845105171203613,3.0214157104492188,6.248549938201904,-15.281559944152832,-81.35901641845703, 7.381804943084717
231,3064853382,0.5588731,0.54107606,-0.13991046,0.6126358,10.196321487426758,3.588020086288452,5.85980749130249,-15.973073959350586,-75.93024444580078, 9.449644088745117
232,3064870049,0.5581786,0.54499286,-0.14824206,0.6078192,10.56163501739502,3.1787188053131104,5.755824089050293,-21.784435272216797,-66.54578399658203, 11.72122573852539
233,3064886716,0.5572378,0.548138,-0.15605336,0.60388595,10.607172966003418,3.082014322280884,5.875208854675293,-20.718420028686523,-58.308135986328125, 14.95671558380127
234,3064903383,0.5562377,0.5503259,-0.16362002,0.6008075,10.372862815856934,2.8638627529144287,6.093763828277588,-22.20029640197754,-50.28268814086914, 18.5620174407959
235,3064920050,0.5547565,0.5519441,-0.17081079,0.59868765,10.11767864227295,2.349360466003418,5.991812705993652,-19.89473533630371,-43.45902633666992, 23.41302490234375
236,3064936717,0.5525855,0.55300206,-0.17769718,0.59771377,10.08386516571045,1.6780836582183838,5.184161186218262,-16.7806453704834,-36.506736755371094, 30.099246978759766
237,3064953384,0.54997104,0.55353945,-0.18413657,0.5976787,9.919694900512695,1.8517231941223145,4.671189308166504,-14.059473991394043,-29.676687240600586, 34.387210845947266
238,3064970051,0.5474052,0.5534714,-0.19064175,0.5980576,9.699187278747559,2.05497145652771,3.994163751602173,-16.25933074951172,-25.82618522644043, 36.74242401123047
239,3064986718,0.54596335,0.55223465,-0.19802669,0.5981191,9.354371070861816,2.8570303916931152,3.6348588466644287,-28.958375930786133,-24.078306198120117, 35.78851318359375
240,3065003385,0.5454984,0.5502034,-0.20613502,0.5976757,9.269699096679688,2.810713052749634,3.253796100616455,-39.312801361083984,-24.11825942993164, 33.71337890625
241,3065020052,0.54626006,0.5472796,-0.21491405,0.5965711,9.327095985412598,3.0879898071289062,2.7201085090637207,-50.998291015625,-23.72575569152832, 30.005239486694336
242,3065036719,0.5476865,0.543566,-0.22456436,0.59510213,9.423515319824219,2.3576276302337646,2.7254574298858643,-60.59000778198242,-24.130828857421875, 30.373868942260742
243,3065053386,0.5483798,0.54009074,-0.23379521,0.59407204,9.715110778808594,1.7293202877044678,1.9882782697677612,-54.562416076660156,-23.002071380615234, 33.093544006347656
244,3065070053,0.5454393,0.53913695,-0.24017525,0.59509933,10.412372589111328,0.6978798508644104,0.9711571931838989,-16.615726470947266,-20.72087287902832, 41.04115295410156
245,3065086720,0.54027665,0.539399,-0.24501012,0.5975951,9.889862060546875,0.31663188338279724,0.8674043416976929,4.925565719604492,-18.06993865966797, 47.865535736083984
246,3065103387,0.5345194,0.53988194,-0.2503583,0.6001143,9.285551071166992,0.857868492603302,1.032527208328247,5.883142948150635,-21.749855041503906, 51.887393951416016
247,3065120054,0.53044075,0.53913635,-0.2579644,0.60118127,8.659972190856934,1.8235427141189575,0.9675194025039673,-16.682016372680664,-27.44194221496582, 50.103553771972656
248,3065136721,0.52858746,0.5369798,-0.26805967,0.60032666,7.732547283172607,2.1565449237823486,1.4995757341384888,-43.78651428222656,-33.82935333251953, 45.64459228515625
249,3065153388,0.52891904,0.5334451,-0.28012002,0.5976737,7.274868011474609,1.9249284267425537,1.5763567686080933,-68.30072784423828,-37.88127899169922, 39.92333221435547
250,3065170055,0.5298891,0.5295535,-0.2920661,0.594549,6.875287055969238,1.19677734375,1.8794766664505005,-72.3897705078125,-36.4915885925293, 35.88908767700195
251,3065186722,0.5310641,0.5255992,-0.30435565,0.5908334,6.834383487701416,2.1199846267700195,1.2595176696777344,-75.95696258544922,-39.231224060058594, 34.2951545715332
252,3065203389,0.5314769,0.5227251,-0.31427747,0.5878099,7.0903191566467285,1.6527132987976074,0.9156265258789062,-58.20441436767578,-34.05738067626953, 29.148054122924805
253,3065220056,0.5297683,0.52228916,-0.31922787,0.5870719,6.9437031745910645,1.7859407663345337,0.563038170337677,-16.64980125427246,-22.09827423095703, 22.969024658203125
254,3065236723,0.5273003,0.52320665,-0.3218571,0.5870412,6.733380317687988,1.7020677328109741,-0.3580411374568939,1.9160584211349487,-18.21210289001465, 17.337575912475586
255,3065253390,0.5265489,0.52324766,-0.32476303,0.5860778,6.935968399047852,2.8520917892456055,1.8605778217315674,-10.63209056854248,-15.189813613891602, 9.993597030639648
256,3065270057,0.5280058,0.52122253,-0.3305419,0.5833345,5.447958469390869,2.2202725410461426,2.782386302947998,-41.621429443359375,-18.7572078704834, 9.66435432434082
257,3065286724,0.52978635,0.5188876,-0.33601058,0.5806715,5.8968305587768555,1.9387458562850952,3.153684377670288,-42.484519958496094,-15.422636032104492, 8.30127239227295
258,3065303391,0.53175354,0.51594996,-0.3408711,0.57865447,5.874292850494385,1.147801160812378,3.1186628341674805,-41.426185607910156,-8.129497528076172, 9.169309616088867
259,3065320058,0.533748,0.51222473,-0.3463784,0.5768543,6.970504283905029,1.9620674848556519,0.8519506454467773,-46.4619140625,-6.5881667137146, 14.006288528442383
260,3065336725,0.5346548,0.5097767,-0.34907725,0.57655627,8.903243064880371,4.201425075531006,-0.36246347427368164,-23.23967170715332,1.3722482919692993, 10.934361457824707
261,3065353392,0.53487515,0.50823206,-0.35065094,0.5767609,7.370615482330322,2.210040807723999,-1.4072612524032593,-11.880755424499512,2.1132993698120117, 9.484589576721191
262,3065370059,0.5292938,0.51114565,-0.34731522,0.581335,7.051445007324219,-1.8635796308517456,-0.08485318720340729,54.77028274536133,3.860386610031128, 20.689659118652344
263,3065386726,0.51805174,0.51802635,-0.34004915,0.58960813,7.476445198059082,-1.6183239221572876,-0.6327618956565857,113.67384338378906,1.8297659158706665, 33.39297103881836
264,3065403393,0.50948715,0.5223222,-0.33668718,0.5951842,7.003833293914795,0.7439978718757629,0.32846131920814514,72.81685638427734,-4.88596248626709, 32.790035247802734
265,3065420060,0.5055653,0.5228748,-0.33927342,0.5965732,5.805472373962402,0.7615525126457214,1.204298734664917,8.99889850616455,-14.670514106750488, 29.144851684570312
266,3065436727,0.50743693,0.52013946,-0.3476095,0.59256256,4.772997856140137,4.626887321472168,1.4274876117706299,-59.435035705566406,-27.081668853759766, 14.962646484375
267,3065453394,0.51258,0.51511735,-0.35899848,0.5856927,4.621795177459717,-0.19269393384456635,1.8671464920043945,-98.42240905761719,-30.852542877197266, 8.186389923095703
268,3065470061,0.51523167,0.5125873,-0.36628073,0.5810588,4.759562969207764,1.051263451576233,1.7908843755722046,-58.74589920043945,-24.689613342285156, 5.387548923492432
269,3065486728,0.51884377,0.50940526,-0.37316942,0.57623976,4.591306209564209,0.15326310694217682,2.0016140937805176,-63.335777282714844,-18.96534538269043, 1.1734319925308228
270,3065503395,0.52248025,0.50600976,-0.38048223,0.57114065,4.0986151695251465,0.5996348261833191,1.40388023853302,-66.57540893554688,-20.60037612915039, 2.103651762008667
271,3065520062,0.5254708,0.50285894,-0.38665196,0.5670216,4.504942417144775,1.593011498451233,0.8924399018287659,-56.39592361450195,-15.765410423278809, 3.5546956062316895
272,3065536729,0.5268397,0.50159764,-0.38886562,0.56535256,5.759459972381592,1.6431899070739746,-0.29213109612464905,-22.03614044189453,-4.688374042510986, 0.06845645606517792
273,3065553396,0.5264863,0.5027701,-0.38692263,0.5659728,4.281180381774902,3.705237865447998,1.8719948530197144,14.983386039733887,4.241640090942383, -5.750005722045898
274,3065570063,0.5260757,0.5040636,-0.3847477,0.56668663,4.701746463775635,1.426792025566101,0.4281080961227417,16.74123191833496,4.737414360046387, -6.203647613525391
275,3065586730,0.52472013,0.5062247,-0.3819416,0.567914,4.682194232940674,1.110782504081726,0.18583470582962036,26.962038040161133,2.932283878326416, -5.121720314025879
276,3065603397,0.52376646,0.50795466,-0.3803646,0.56830776,5.222628593444824,0.626814603805542,0.1527048498392105,17.012948989868164,-1.6429152488708496, -4.275531768798828
277,3065620064,0.5233496,0.50911283,-0.38002062,0.56788534,5.330383777618408,0.4128281772136688,1.1833970546722412,6.126026630401611,-5.2701592445373535, -3.5168163776397705
278,3065636731,0.5237392,0.50963104,-0.38068897,0.56661224,5.159050941467285,0.977816104888916,1.4881070852279663,-5.171449184417725,-7.298661708831787, -4.523895740509033
279,3065653398,0.52447176,0.5098254,-0.38198113,0.56488764,4.6277031898498535,0.9394397735595703,0.8512934446334839,-11.152302742004395,-8.995941162109375, -4.44443416595459
280,3065670065,0.52512324,0.50994325,-0.3835506,0.56310976,4.3785600662231445,0.8795680403709412,0.6629555821418762,-12.36346435546875,-10.104767799377441, -3.1388261318206787
281,3065686732,0.5256312,0.510208,-0.38507634,0.5613519,4.378573894500732,1.2358540296554565,0.8841016888618469,-11.109977722167969,-10.825011253356934, -3.0437004566192627
282,3065703399,0.52593195,0.5110581,-0.38592798,0.55970967,4.327049255371094,1.7671855688095093,0.6859154105186462,-5.3654022216796875,-10.800662994384766, -5.718191623687744
283,3065720066,0.5261675,0.5121424,-0.38600937,0.5584397,3.5514028072357178,1.4513040781021118,0.3048465847969055,-0.34988248348236084,-7.784061908721924, -7.409795761108398
284,3065736733,0.5263903,0.51305425,-0.38613406,0.5573054,2.8692426681518555,0.6022149324417114,0.3887040317058563,-0.745509147644043,-6.82658052444458, -6.228292942047119
285,3065753400,0.526082,0.5141158,-0.3862172,0.5565601,2.778630256652832,-0.13932670652866364,0.11335426568984985,2.8615598678588867,-7.288671016693115, -3.328882932662964
286,3065770067,0.5260002,0.5148752,-0.38674122,0.5555707,3.036001682281494,0.5942162871360779,0.11771076172590256,-1.3618786334991455,-7.97874116897583, -2.7449519634246826
287,3065786734,0.5265769,0.5150823,-0.38767153,0.55418223,3.645723581314087,0.12585049867630005,0.43970319628715515,-8.304728507995605,-6.99060583114624, -3.7960214614868164
288,3065803401,0.5270806,0.51573396,-0.38806942,0.5528171,4.151971817016602,0.3173307180404663,0.6817999482154846,-4.341098308563232,-6.8674845695495605, -6.523211479187012
289,3065820068,0.5285814,0.51556355,-0.38943914,0.5505754,3.960073232650757,1.4263761043548584,0.6928669214248657,-16.88546371459961,-7.7190632820129395, -7.863801002502441
290,3065836735,0.53106415,0.51437485,-0.39160496,0.5477545,2.822434663772583,1.983607530593872,0.3976750075817108,-28.639650344848633,-6.189662456512451, -8.105229377746582
291,3065853402,0.5338377,0.51272213,-0.39342573,0.54529774,2.4505293369293213,1.735300064086914,0.3622358739376068,-29.100547790527344,-1.1165505647659302, -7.7816996574401855
292,3065870069,0.5377569,0.5100563,-0.39557326,0.54238534,4.452238082885742,2.390240430831909,1.3930424451828003,-39.33062744140625,2.968714475631714, -9.806492805480957
293,3065886736,0.5414597,0.5076674,-0.39719102,0.5397542,5.580204486846924,1.5230573415756226,2.4289793968200684,-34.826297760009766,4.254641532897949, -10.504124641418457
294,3065903403,0.5446021,0.5053778,-0.39874163,0.5375939,4.62418270111084,-0.17690548300743103,1.0581626892089844,-30.969310760498047,4.174468040466309, -7.15527868270874
295,3065920070,0.54707617,0.5029558,-0.40095225,0.5357058,4.311075687408447,-1.180172085762024,-0.14659994840621948,-30.82453727722168,1.287420392036438, -1.0526087284088135
296,3065936737,0.54905814,0.50036615,-0.40339842,0.53426486,3.476166009902954,0.7198073863983154,0.49859923124313354,-29.36799430847168,1.2436988353729248, 3.636841297149658
297,3065953404,0.5515774,0.49669108,-0.4065321,0.53272146,3.082864284515381,1.9348770380020142,0.24202454090118408,-38.12666320800781,3.773160457611084, 6.656819820404053
298,3065970071,0.55380315,0.492683,-0.4095934,0.53178847,3.1740951538085938,0.7729158997535706,0.48305729031562805,-36.436302185058594,6.540806770324707, 10.790143013000488
299,3065986738,0.55518055,0.4892858,-0.4118755,0.5317262,3.491880178451538,-0.5917973518371582,0.9198326468467712,-25.93990707397461,7.833316326141357, 12.855751991271973
300,3066003405,0.55586344,0.48661798,-0.4132977,0.53235686,3.1815834045410156,-0.33759912848472595,-0.06680991500616074,-15.698744773864746,8.795193672180176, 13.029621124267578
301,3066020072,0.55578846,0.48444164,-0.41403973,0.53384143,3.291105270385742,-0.3674297630786896,0.7491162419319153,-6.359512805938721,10.327494621276855, 15.355286598205566
302,3066036739,0.55532664,0.48274037,-0.41397715,0.53590775,3.91568922996521,0.3275966942310333,1.456462025642395,1.3665993213653564,12.483319282531738, 14.920755386352539
303,3066053406,0.55420643,0.4820398,-0.41252998,0.538806,3.4962117671966553,-0.23568838834762573,1.686867594718933,14.847362518310547,14.932639122009277, 13.061284065246582
304,3066070073,0.55225694,0.48284966,-0.40932912,0.5425111,4.287465572357178,-0.03865332156419754,1.984449028968811,32.149742126464844,16.291547775268555, 9.069911003112793
305,3066086740,0.5474631,0.48740685,-0.4019722,0.5487597,5.977481842041016,1.4142370223999023,3.9623281955718994,78.49418640136719,18.483156204223633, 4.959750175476074
306,3066103407,0.542463,0.49312693,-0.39397922,0.5543826,7.012672424316406,5.050504207611084,4.5949602127075195,84.23004150390625,13.705035209655762, -1.9412362575531006
307,3066120074,0.5360233,0.50032145,-0.38563573,0.5600381,7.228335857391357,-1.9387192726135254,3.986560344696045,95.98450469970703,5.485426425933838, -1.3530604839324951
308,3066136741,0.5286272,0.50798166,-0.37900627,0.5646788,6.587362766265869,-2.1672141551971436,4.212247371673584,91.75178527832031,-8.736650466918945, 3.1235175132751465
309,3066153408,0.5206996,0.51577586,-0.37441558,0.5680318,5.745160102844238,-2.3449885845184326,6.461358070373535,82.87657165527344,-22.647239685058594, 7.155972003936768
310,3066170075,0.51297164,0.5228096,-0.37233344,0.5699983,2.459925651550293,0.4700658917427063,6.335495471954346,66.13600158691406,-33.25462341308594, 12.153153419494629
311,3066186742,0.5048876,0.5294775,-0.3713345,0.5717106,0.34121835231781006,1.0626580715179443,3.014537811279297,61.24045181274414,-37.66170883178711, 17.499300003051758
312,3066203409,0.4966641,0.5361451,-0.37016296,0.5734568,-0.9191262722015381,1.08151113986969,1.9410126209259033,62.50239944458008,-37.3493537902832, 17.5854434967041
313,3066220076,0.48724818,0.54465127,-0.3663624,0.57595414,-1.2335275411605835,3.1532044410705566,1.4878095388412476,85.44242095947266,-35.89884948730469, 10.534488677978516
314,3066236743,0.47634467,0.5538809,-0.35920435,0.58076155,1.0043857097625732,4.105093955993652,-0.9114133715629578,112.52055358886719,-22.601078033447266, 9.897729873657227
315,3066253410,0.46318835,0.5645753,-0.35304368,0.5848688,0.7858092784881592,4.539439678192139,-1.6808817386627197,120.14330291748047,-39.82451629638672, 16.922250747680664
316,3066270077,0.4484473,0.57740426,-0.34714144,0.5873604,-2.5423312187194824,5.42241096496582,2.194976806640625,128.09249877929688,-59.20611572265625, 14.111732482910156
317,3066286744,0.43666047,0.58862054,-0.3384465,0.590176,-3.3877155780792236,8.11294937133789,10.769843101501465,123.4140625,-35.76786422729492, -3.8866851329803467
318,3066303411,0.4423952,0.58893377,-0.33613533,0.58690447,-4.542052745819092,11.501554489135742,15.97880744934082,-20.31258773803711,5.090735912322998, -41.80812454223633
319,3066320078,0.46333563,0.5779689,-0.33814293,0.58045816,-5.226996421813965,5.594463348388672,15.158309936523438,-140.97174072265625,59.18800354003906, -68.98772430419922
320,3066336745,0.4866618,0.56358725,-0.3333538,0.57827765,-4.187546730041504,4.553394794464111,15.292377471923828,-124.25961303710938,116.47315216064453, -83.95738220214844
321,3066353412,0.50942713,0.5465661,-0.32280815,0.58098567,1.1959874629974365,5.6661553382873535,8.375373840332031,-96.78446960449219,163.43634033203125, -81.6409683227539
322,3066370079,0.5295526,0.52831393,-0.30620164,0.5888114,7.024652004241943,3.32124662399292,0.9664759039878845,-55.62522888183594,202.82620239257812, -73.20469665527344
323,3066386746,0.54610914,0.5115582,-0.2843758,0.59933597,9.050082206726074,2.5664830207824707,-3.8898274898529053,-10.44367790222168,218.25820922851562, -71.10650634765625
324,3066403413,0.562109,0.49492174,-0.26365587,0.6079241,10.058545112609863,0.06611467152833939,-10.925753593444824,-16.454919815063477,206.08563232421875, -72.51470184326172
325,3066420080,0.57705235,0.480276,-0.2470097,0.61264324,8.106943130493164,-1.6456642150878906,-15.061400413513184,-29.288917541503906,167.5210418701172, -72.95956420898438
326,3066436747,0.59114605,0.4679415,-0.23684874,0.6127642,6.1596879959106445,-1.649725317955017,-17.544673919677734,-52.521270751953125,116.07095336914062, -70.3162612915039
327,3066453414,0.6036983,0.45672032,-0.23534894,0.6095619,4.904573917388916,-6.222260475158691,-18.731395721435547,-85.03950500488281,63.617462158203125, -51.42143249511719
328,3066470081,0.6140307,0.44638035,-0.24158992,0.6044381,5.0027174949646,-5.283469200134277,-19.269681930541992,-109.98346710205078,18.785696029663086, -27.422386169433594
329,3066486748,0.62112844,0.44070914,-0.24829179,0.5986034,3.27665638923645,-3.795076847076416,-18.769250869750977,-83.47179412841797,-9.522005081176758, -23.468198776245117
330,3066503415,0.6245874,0.44072554,-0.25196072,0.59343696,1.5936059951782227,-5.820833683013916,-17.16537857055664,-34.5844612121582,-23.64650535583496, -24.624549865722656
331,3066520082,0.6239847,0.44609505,-0.2541587,0.589106,1.129097580909729,-5.990155220031738,-15.855052947998047,8.163274765014648,-43.2629280090332, -18.326648712158203
332,3066536749,0.6204059,0.45412597,-0.2589704,0.584637,-0.04276356101036072,-7.488925933837891,-13.364781379699707,17.898752212524414,-70.543212890625, -3.6373655796051025
333,3066553416,0.6146816,0.4628725,-0.26927057,0.5791451,1.2239289283752441,-6.389548301696777,-13.205486297607422,3.8318536281585693,-103.62184143066406, 16.3325138092041
334,3066570083,0.6066493,0.4734817,-0.28290722,0.5724993,0.2968968451023102,-6.0723748207092285,-10.22710132598877,3.675142526626587,-132.86354064941406, 27.696048736572266
335,3066586750,0.5969367,0.4865244,-0.29893693,0.56355774,1.7660528421401978,-3.5856857299804688,-9.895724296569824,5.466822147369385,-163.05999755859375, 27.690176010131836
336,3066603417,0.5902199,0.49573177,-0.32209492,0.54967755,0.4439125657081604,-2.6326181888580322,-4.471262454986572,-58.062347412109375,-187.70916748046875, 27.5235652923584
337,3066620084,0.58710593,0.4999066,-0.3510319,0.5312032,-1.3137261867523193,-3.558415651321411,-1.1472399234771729,-122.76444244384766,-199.88937377929688, 26.17031478881836
338,3066636751,0.5840934,0.5048444,-0.37918836,0.5100816,1.3712191581726074,-3.004664182662964,-22.680326461791992,-123.52256774902344,-208.54766845703125, 10.648313522338867
339,3066653418,0.589864,0.5110402,-0.42063388,0.4625642,24.432249069213867,15.474515914916992,-38.116180419921875,-264.64599609375,-334.7119140625, -83.19773864746094
340,3066670085,0.5743361,0.53596437,-0.44405013,0.43092898,-1.2662880420684814,-3.4714839458465576,19.518695831298828,-10.731626510620117,-325.81494140625, -67.97090148925781
341,3066686752,0.5689004,0.55193377,-0.46577284,0.3934173,10.259292602539062,1.4729772806167603,0.4854450523853302,-96.12956237792969,-284.3189697265625, -100.01988220214844
342,3066703419,0.5525722,0.57688946,-0.47444737,0.369814,8.68702220916748,11.046172142028809,5.849925518035889,60.227535247802734,-239.91285705566406, -94.43244171142578
343,3066720086,0.5374622,0.5981886,-0.48023355,0.35025793,8.535592079162598,6.521327018737793,2.868711233139038,62.07463836669922,-199.99607849121094, -81.48576354980469
344,3066736753,0.5207978,0.6179193,-0.48332277,0.33666697,7.264702796936035,1.232815146446228,1.6245145797729492,88.91140747070312,-167.13694763183594, -61.56946563720703
345,3066753420,0.50583535,0.6335961,-0.4863448,0.32581505,6.760433673858643,-2.8842239379882812,-1.5675983428955078,76.46376037597656,-140.45184326171875, -42.61406326293945
346,3066770087,0.49243972,0.64524543,-0.48968706,0.3183837,8.54185676574707,-3.2238993644714355,-1.405900478363037,66.36456298828125,-112.53909301757812, -19.555255889892578
347,3066786754,0.47683573,0.6561636,-0.49149764,0.31702903,10.651984214782715,-1.6070053577423096,-0.2515068054199219,97.51700592041016,-86.38797760009766, 1.3098030090332031
348,3066803421,0.45945653,0.66620225,-0.4908108,0.32276818,12.6067476272583,-0.17592445015907288,7.299263954162598,132.0972137451172,-50.49101257324219, 19.954219818115234
349,3066820088,0.44073242,0.6751573,-0.48918098,0.33259517,16.071517944335938,-1.4806629419326782,9.257534980773926,150.82028198242188,-31.361024856567383, 35.04056930541992
350,3066836755,0.42233106,0.68240863,-0.48883018,0.34205276,11.468017578125,-1.5018656253814697,10.65660285949707,140.07943725585938,-32.489036560058594, 44.67790985107422
351,3066853422,0.4089333,0.686532,-0.49258947,0.34467813,8.843574523925781,0.6702661514282227,15.455849647521973,74.95712280273438,-52.78296661376953, 42.772247314453125
352,3066870089,0.39714214,0.68969405,-0.49705705,0.3457379,7.439406394958496,-0.06591850519180298,23.300334930419922,57.77702331542969,-54.990604400634766, 41.16592788696289
353,3066886756,0.3762579,0.69901603,-0.5024167,0.34261394,9.263480186462402,4.9281134605407715,7.594761848449707,101.3967056274414,-123.70429992675781, 34.55640411376953
354,3066903423,0.34937623,0.7098954,-0.5102873,0.3370338,13.692178726196289,4.09297513961792,0.9364091753959656,119.90025329589844,-166.68902587890625, 49.169166564941406
355,3066920090,0.30997804,0.72370934,-0.5115216,0.34424445,7.195545196533203,4.151273727416992,21.172000885009766,248.35250854492188,-139.2242889404297, 66.36197662353516
356,3066936757,0.26717365,0.7376115,-0.5136689,0.34740728,8.727127075195312,4.221512794494629,17.169849395751953,249.1531524658203,-174.09579467773438, 70.283203125
357,3066953424,0.23751748,0.7481205,-0.51619375,0.3427031,7.778659343719482,14.88063907623291,19.544673919677734,147.5306396484375,-160.57289123535156, 38.544952392578125
358,3066970091,0.22872996,0.7525331,-0.5235032,0.3275993,4.380838394165039,9.454384803771973,22.53337860107422,-17.791889190673828,-133.90403747558594, 19.022563934326172
359,3066986758,0.22894862,0.7552582,-0.52890456,0.31213453,4.711982250213623,5.780900478363037,20.557783126831055,-63.921287536621094,-97.01338958740234, -5.489332675933838
360,3067003425,0.23530164,0.7564638,-0.5316651,0.29954675,4.763599395751953,5.884762763977051,18.988445281982422,-81.94715118408203,-52.74921798706055, -22.305604934692383
361,3067020092,0.2471622,0.7550732,-0.5328574,0.29127064,3.9356045722961426,2.615795373916626,16.943288803100586,-95.70417785644531,-2.6480603218078613, -25.354961395263672
362,3067036759,0.2580668,0.75233155,-0.53037596,0.29342818,5.332252502441406,0.5314739942550659,12.605293273925781,-47.41264724731445,56.72123336791992, -19.90093994140625
363,3067053426,0.27194685,0.7470463,-0.52503884,0.30381095,3.9795424938201904,2.8518590927124023,10.825101852416992,-31.56926155090332,120.1695556640625, -16.87224006652832
364,3067070093,0.29242316,0.7376896,-0.5180873,0.31919992,4.574644088745117,0.5822288990020752,7.310418605804443,-51.61525344848633,181.1606903076172, -14.888410568237305
365,3067086760,0.31783998,0.7242832,-0.508966,0.33962515,4.802360534667969,2.192782163619995,4.4367852210998535,-62.15785217285156,237.57969665527344, -12.256059646606445
366,3067103427,0.34909704,0.7056576,-0.4980913,0.36343327,4.810812950134277,2.058773994445801,2.326106309890747,-86.76419067382812,290.9906921386719, -9.014927864074707
367,3067120094,0.38100854,0.68439394,-0.48236474,0.39212474,4.201440334320068,2.8900444507598877,0.40904009342193604,-67.46827697753906,335.32672119140625, -13.481498718261719
368,3067136761,0.41217914,0.6616785,-0.45999002,0.42508727,4.288589000701904,4.176249980926514,-1.3459330797195435,-35.728092193603516,374.5361328125, -26.754352569580078
369,3067153428,0.44474936,0.6363253,-0.4328586,0.45817205,3.7148513793945312,3.9379985332489014,-3.2541120052337646,-35.32699203491211,400.9936218261719, -43.73827362060547
370,3067170095,0.47772273,0.60871524,-0.40364504,0.48817784,3.4279093742370605,0.4986283779144287,-6.973465919494629,-46.6599006652832,402.50537109375, -56.769065856933594
371,3067186762,0.51006716,0.5782354,-0.37426162,0.51517344,3.535346031188965,-2.8509976863861084,-10.094876289367676,-61.311100006103516,398.7568054199219, -57.340450286865234
372,3067203429,0.54049337,0.54456025,-0.34570152,0.5401959,4.312066078186035,-6.3818206787109375,-12.235918045043945,-72.94784545898438,394.8915710449219, -46.098724365234375
373,3067220096,0.56358695,0.5139121,-0.31731957,0.5635356,6.218202590942383,-3.9455742835998535,-17.164949417114258,-38.90369415283203,359.73944091796875, -31.827964782714844
374,3067236763,0.5818186,0.48478362,-0.29700544,0.58160114,9.140992164611816,3.87949538230896,-26.71730613708496,-58.6623420715332,293.9423828125, -8.346390724182129
375,3067253430,0.5933725,0.46059996,-0.2803763,0.5976169,5.793033599853516,0.8620617389678955,-25.970495223999023,-35.748435974121094,239.84381103515625, 12.382552146911621
376,3067270097,0.5897549,0.4574794,-0.2536809,0.61526245,3.9657082557678223,-4.151418685913086,-30.174530029296875,142.6041259765625,171.0775604248047, 8.872800827026367
377,3067286764,0.5833163,0.46256536,-0.23281915,0.62575614,2.186798572540283,1.4268693923950195,-29.785818099975586,147.4946746826172,86.12162017822266, -4.305566310882568
378,3067303431,0.58125395,0.4682579,-0.22846492,0.62504584,-0.654104471206665,2.6084396839141846,-26.16349220275879,46.83481216430664,-10.578831672668457, -16.580402374267578
379,3067320098,0.5798161,0.47840416,-0.2353475,0.6160798,-0.020898669958114624,1.0262118577957153,-24.988557815551758,1.148829460144043,-99.65930938720703, -23.03559112548828
380,3067336765,0.5762697,0.49340776,-0.24919398,0.60196716,-0.02435097098350525,-3.224048614501953,-21.008317947387695,-10.558724403381348,-167.8271484375, -19.526456832885742
381,3067353432,0.57282734,0.5089604,-0.2708917,0.5826198,-0.35445159673690796,-2.3437726497650146,-15.333974838256836,-50.28650665283203,-218.40011596679688, -14.98996353149414
382,3067370099,0.5689875,0.52625144,-0.294103,0.55929977,4.73252010345459,2.708710193634033,-26.007381439208984,-55.56355667114258,-245.7404022216797, -26.915367126464844
383,3067386766,0.57119566,0.5407331,-0.33791783,0.51687014,19.388885498046875,3.0869226455688477,-38.7381706237793,-206.61642456054688,-372.06390380859375, -44.440128326416016
384,3067403433,0.5642339,0.5585451,-0.3746962,0.47882158,0.2866659164428711,-11.65147876739502,21.590259552001953,-124.40188598632812,-360.2096252441406, -28.18951416015625
385,3067420100,0.55984,0.5731261,-0.40413725,0.44133762,16.984573364257812,-1.029006838798523,-3.701490879058838,-120.850830078125,-313.1838073730469, -54.38777542114258
386,3067436767,0.5533725,0.5850237,-0.4271282,0.4112029,10.667864799499512,-3.9924144744873047,4.817610263824463,-82.92662811279297,-257.0473327636719, -37.721710205078125
387,3067453434,0.5442351,0.59728277,-0.44231156,0.38912976,11.999608039855957,-2.641880989074707,-0.1778576821088791,-24.926424026489258,-204.10348510742188, -32.06267547607422
388,3067470101,0.5351752,0.6084852,-0.45353606,0.3709964,10.90359115600586,-1.3711684942245483,0.46848264336586,-6.555942058563232,-170.24166870117188, -30.700536727905273
389,3067486768,0.52325886,0.62075657,-0.4601559,0.35933012,8.245468139648438,-0.6575573086738586,0.7119215130805969,41.2978515625,-138.09263610839844, -22.3454647064209
390,3067503435,0.51153535,0.63208807,-0.46358958,0.35196787,8.197783470153809,0.5463624000549316,-1.3104952573776245,58.62929916381836,-105.53862762451172, -18.086074829101562
391,3067520102,0.49774563,0.6427483,-0.4643602,0.3514166,7.6431450843811035,1.8351446390151978,2.610373020172119,93.44002532958984,-71.68780517578125, 1.3206232786178589
392,3067536769,0.48393613,0.65181124,-0.46452323,0.35378867,8.950966835021973,1.0806491374969482,0.8497791290283203,98.9346923828125,-53.164981842041016, 13.695578575134277
393,3067553436,0.4672829,0.6604401,-0.46365413,0.3612348,10.3993558883667,-1.3065561056137085,7.54241418838501,129.02403259277344,-35.2481803894043, 34.13571548461914
394,3067570103,0.4494475,0.6670151,-0.46260342,0.37294233,9.960001945495605,-1.3389933109283447,6.902573108673096,141.94696044921875,-14.42188835144043, 56.300941467285156
395,3067586770,0.43157768,0.67204785,-0.46360406,0.38361937,6.264016151428223,-0.36935824155807495,7.723125457763672,128.901123046875,-22.049989700317383, 67.36886596679688
396,3067603437,0.4156447,0.6769312,-0.46394843,0.39211687,4.9088358879089355,5.722776889801025,15.21534538269043,114.3707275390625,-23.986190795898438, 53.171897888183594
397,3067620104,0.40515968,0.67801225,-0.47463414,0.38841692,2.0691769123077393,2.3825931549072266,11.215431213378906,11.461153030395508,-83.24391174316406, 64.018310546875
398,3067636771,0.3916565,0.6835341,-0.48867023,0.37495053,3.6991379261016846,2.3424739837646484,5.456057548522949,-2.8647027015686035,-160.20191955566406, 46.07315444946289
399,3067653438,0.37561962,0.6937115,-0.5021173,0.3543339,10.437124252319336,3.6789586544036865,5.067740440368652,-0.9039533734321594,-212.96237182617188, 14.9971284866333
400,3067670105,0.35813013,0.70586014,-0.5138501,0.33085123,6.701776027679443,1.2988429069519043,17.717056274414062,5.430279731750488,-232.31492614746094, -3.7938477993011475
401,3067686772,0.33183402,0.7226743,-0.5215323,0.30924454,8.735852241516113,5.172188758850098,21.48223876953125,75.57559204101562,-255.545654296875, -15.262266159057617
402,3067703439,0.30946964,0.7367266,-0.52875125,0.2861548,7.181110858917236,5.4113898277282715,24.851032257080078,45.5108642578125,-242.53196716308594, -19.29047966003418
403,3067720106,0.29102927,0.74780875,-0.53457314,0.26517156,5.692294120788574,0.2716713547706604,24.52996063232422,29.854074478149414,-209.4201202392578, -18.694597244262695
404,3067736773,0.27094412,0.75842595,-0.53609395,0.2529483,5.809274196624756,0.37987253069877625,23.12175750732422,77.50408935546875,-161.5170440673828, -18.555755615234375
405,3067753440,0.25251344,0.76665044,-0.5358004,0.24779461,5.7520976066589355,0.6950656175613403,20.632465362548828,93.70263671875,-111.48462677001953, -8.84495735168457
406,3067770107,0.23542204,0.7727386,-0.53418237,0.2492005,5.447581768035889,-0.15992772579193115,17.68705940246582,109.40680694580078,-66.41824340820312, 1.2453548908233643
407,3067786774,0.21968748,0.7767262,-0.531249,0.25731003,6.65035343170166,-0.044892966747283936,13.635485649108887,125.68550872802734,-20.378061294555664, 10.605631828308105
408,3067803441,0.2100936,0.77738196,-0.5279042,0.26991734,6.165915012359619,1.6148157119750977,11.253280639648438,104.9976806640625,32.36874771118164, 16.62415313720703
409,3067820108,0.21500398,0.77280146,-0.52654994,0.28159657,5.150589466094971,0.8136739730834961,8.113255500793457,12.828922271728516,86.73614501953125, 18.10030746459961
410,3067836775,0.23154369,0.76398766,-0.5254958,0.29421917,4.6777215003967285,0.5944164991378784,5.527735710144043,-52.43101501464844,141.53024291992188, 13.880779266357422
411,3067853442,0.25845957,0.7510962,-0.5236993,0.30788356,3.9043681621551514,2.0172500610351562,4.104433059692383,-108.21762084960938,193.92051696777344, 5.286042213439941
412,3067870109,0.29235163,0.7341539,-0.5202096,0.32393,3.8537447452545166,1.7869617938995361,2.241830348968506,-139.31967163085938,242.97560119628906, 0.4825422465801239
413,3067886776,0.32848102,0.7141897,-0.51303303,0.34471774,3.3047561645507812,2.9773833751678467,0.9092458486557007,-131.5414581298828,289.15020751953125, -2.8927290439605713
414,3067903443,0.36438635,0.69208044,-0.5004097,0.37126493,2.6233577728271484,2.582005739212036,-0.10179176926612854,-102.05973815917969,334.1761169433594, -8.594034194946289
415,3067920110,0.3984826,0.66930723,-0.4809059,0.40245375,2.189310073852539,2.6741206645965576,-1.4975768327713013,-61.56698989868164,369.15887451171875, -22.823774337768555
416,3067936777,0.43452528,0.6434836,-0.45848876,0.43232495,2.765209436416626,0.10314920544624329,-3.4565224647521973,-75.18572235107422,386.17755126953125, -35.13378143310547
417,3067953444,0.4680421,0.61604697,-0.43308765,0.46244776,2.8302340507507324,-4.752352714538574,-6.366647243499756,-59.15816116333008,393.29449462890625, -35.03520584106445
418,3067970111,0.4968218,0.58806777,-0.40540332,0.49294296,2.4163618087768555,-3.9313268661499023,-7.40511417388916,-32.4463996887207,390.170166015625, -26.951339721679688
419,3067986778,0.52376914,0.55835116,-0.37911144,0.519793,3.342144012451172,-2.2652037143707275,-10.310323715209961,-45.84400939941406,371.7998352050781, -22.80284881591797
420,3068003445,0.54429895,0.5324631,-0.35111666,0.54492104,5.312441349029541,-1.294198989868164,-17.532672882080078,-5.8078227043151855,341.3215637207031, -22.614999771118164
421,3068020112,0.5588278,0.5105024,-0.32432076,0.5673756,5.187282562255859,3.3099148273468018,-20.15850257873535,19.87013053894043,298.47845458984375, -15.221409797668457
422,3068036779,0.5696796,0.49174955,-0.30385497,0.5842259,3.371772289276123,1.8354284763336182,-23.643463134765625,7.765349864959717,234.45936584472656, -7.254987716674805
423,3068053446,0.57447356,0.4814894,-0.28489536,0.5974805,1.8585562705993652,-1.2564665079116821,-25.12784194946289,47.79936599731445,170.3968048095703, -9.614023208618164
424,3068070113,0.57321686,0.4812216,-0.26723742,0.6069863,0.5006328821182251,-0.3717821538448334,-27.099977493286133,94.48607635498047,100.70408630371094, -14.864646911621094
425,3068086780,0.5692715,0.48855343,-0.2552718,0.6099853,-1.672313928604126,2.6596717834472656,-26.99526023864746,97.45790100097656,20.839065551757812, -24.464311599731445
426,3068103447,0.566534,0.498011,-0.2554236,0.6048,-1.9942753314971924,5.025219440460205,-24.528837203979492,36.30814743041992,-60.20013427734375, -24.57451629638672
427,3068120114,0.5588312,0.5135003,-0.2624303,0.5959493,-1.3891949653625488,-4.923792362213135,-23.469680786132812,41.622901916503906,-132.69625854492188, -5.241381645202637
428,3068136781,0.5480604,0.5333127,-0.27423084,0.5830994,2.436861991882324,0.05069340765476227,-20.925710678100586,42.13588333129883,-187.96337890625, 0.9955613613128662
429,3068153448,0.54355216,0.55916584,-0.296254,0.55146927,15.36667251586914,29.78522491455078,-61.058204650878906,-34.63282775878906,-307.37139892578125, -68.7637939453125
430,3068170115,0.5609538,0.55873156,-0.36321196,0.49114865,12.244606971740723,-24.44643211364746,15.82225513458252,-447.3075866699219,-440.1619567871094, -31.745309829711914
431,3068186782,0.54899603,0.5838711,-0.3898766,0.4535353,14.909998893737793,0.5121238231658936,5.590350151062012,-42.01670455932617,-357.477294921875, -63.83486557006836
432,3068203449,0.5335804,0.6074902,-0.4107924,0.42130414,14.429919242858887,-5.9752936363220215,3.7495622634887695,-1.3739614486694336,-319.04461669921875, -51.72503662109375
433,3068220116,0.52274793,0.6230837,-0.4267794,0.39542466,11.092362403869629,-8.902947425842285,-4.231818199157715,-17.600187301635742,-238.5219268798828, -39.80099868774414
434,3068236783,0.511058,0.6371863,-0.43829712,0.37511218,9.992915153503418,-4.271616458892822,-0.7372502684593201,9.271690368652344,-197.1522216796875, -32.480613708496094
435,3068253450,0.50102776,0.6488558,-0.44567713,0.359624,9.517569541931152,0.5233151912689209,-0.2773689031600952,18.714540481567383,-150.4037628173828, -30.772010803222656
436,3068270117,0.48847,0.66032684,-0.44973996,0.35085553,8.160490989685059,1.862122893333435,-0.06858404725790024,58.146820068359375,-116.47907257080078, -15.647772789001465
437,3068286784,0.47608724,0.6691503,-0.45208406,0.3481366,7.296901226043701,3.3191020488739014,0.647947371006012,71.3658447265625,-76.53202056884766, 4.561701774597168
438,3068303451,0.46048725,0.67742145,-0.45180854,0.35344142,9.78348159790039,0.9095587730407715,0.5579804182052612,115.6462631225586,-39.94931411743164, 28.13697052001953
439,3068320118,0.44209948,0.6853929,-0.44790992,0.36628038,9.861185073852539,-0.7640800476074219,6.630725383758545,159.98341369628906,-1.5611937046051025, 42.66624450683594
440,3068336785,0.42146817,0.6924148,-0.44334957,0.38258004,10.24435806274414,-0.5504019856452942,6.735662460327148,180.1233367919922,11.82089614868164, 58.453819274902344
441,3068353452,0.40354028,0.6953549,-0.44310933,0.39659944,5.188884258270264,1.5560905933380127,9.109501838684082,137.21719360351562,7.0061163902282715, 77.60084533691406
442,3068370119,0.38815632,0.6978287,-0.44259354,0.4080206,4.534783363342285,7.131291389465332,13.761999130249023,116.69580841064453,3.9529454708099365, 63.54039001464844
443,3068386786,0.3765264,0.6988442,-0.45163506,0.4072721,4.284576892852783,5.517998218536377,6.318607330322266,31.047840118408203,-64.95752716064453, 70.98016357421875
444,3068403453,0.36499977,0.70127034,-0.46744767,0.39558542,1.6004230976104736,3.8414206504821777,1.1927456855773926,-18.6749210357666,-138.95704650878906, 70.6633529663086
445,3068420120,0.35383305,0.7083022,-0.48323578,0.37362203,5.19183874130249,2.96433687210083,1.1326448917388916,-41.8006477355957,-199.9097137451172, 29.07233428955078
446,3068436787,0.33955103,0.71917486,-0.4961773,0.34828264,4.5250468254089355,-0.874489426612854,12.822531700134277,-21.169631958007812,-229.7790069580078, 2.2954251766204834
447,3068453454,0.31162316,0.7354841,-0.5036244,0.329115,8.677263259887695,-0.25138288736343384,13.988112449645996,93.26809692382812,-246.46038818359375, 3.639129877090454
448,3068470121,0.2812122,0.75127757,-0.50910264,0.3119556,8.336402893066406,5.2687602043151855,18.980541229248047,116.17340850830078,-240.04025268554688, 5.383788585662842
449,3068486788,0.2523002,0.7642785,-0.51513946,0.2947109,6.116733551025391,4.803363800048828,21.18388557434082,101.624267578125,-230.93984985351562, 14.8115816116333
450,3068503455,0.22362135,0.7753306,-0.52048707,0.2791944,5.867443561553955,3.4152750968933105,19.825368881225586,104.62905883789062,-216.46896362304688, 20.76456642150879
451,3068520122,0.19411454,0.7849627,-0.5247677,0.26603016,5.842447757720947,5.382048606872559,19.460947036743164,117.39684295654297,-203.02197265625, 25.495176315307617
452,3068536789,0.1712902,0.7914664,-0.53005916,0.25155154,6.646590232849121,6.2927632331848145,19.30435562133789,70.63873291015625,-182.06373596191406, 28.425920486450195
453,3068553456,0.15519805,0.7954324,-0.53536,0.23788826,7.216508388519287,3.7036545276641846,17.46101951599121,34.05437469482422,-149.1272735595703, 27.182004928588867
454,3068570123,0.14117461,0.79880184,-0.53776497,0.22977051,8.395427703857422,3.1014745235443115,15.199462890625,47.298065185546875,-107.47508239746094, 16.155771255493164
455,3068586790,0.12861224,0.8011621,-0.5370811,0.23052613,10.568020820617676,4.093539714813232,12.794024467468262,76.01373291015625,-49.06002426147461, 9.326809883117676
456,3068603457,0.12322119,0.8014776,-0.53478366,0.23760724,9.194904327392578,6.794361114501953,10.66762924194336,60.65498352050781,16.624828338623047, 2.3575732707977295
457,3068620124,0.13476954,0.798375,-0.5333273,0.24494195,7.211187839508057,5.279293537139893,8.32544231414795,-35.96698760986328,84.94725036621094, -7.77012825012207
458,3068636791,0.15482238,0.79336727,-0.5293911,0.25757283,5.950802803039551,3.0622599124908447,5.460270881652832,-60.795528411865234,150.57774353027344, -23.79133415222168
459,3068653458,0.18204229,0.78636223,-0.5225032,0.27474645,3.6135001182556152,5.383520126342773,4.189998626708984,-80.26539611816406,208.09063720703125, -40.52640151977539
460,3068670125,0.21836412,0.7759328,-0.51379997,0.29369253,3.2145798206329346,4.790653705596924,2.3391733169555664,-123.96129608154297,259.17315673828125, -53.056785583496094
461,3068686792,0.260173,0.7621701,-0.5021146,0.31509978,2.2175745964050293,4.33119010925293,1.1549433469772339,-143.52696228027344,303.0017395019531, -64.65679168701172
462,3068703459,0.30497265,0.7446643,-0.48728645,0.33914417,1.521077275276184,0.9995718598365784,0.02601286768913269,-149.99171447753906,341.03424072265625, -70.05717468261719
463,3068720126,0.34979418,0.7236501,-0.4693091,0.36568236,1.494188666343689,-1.199721336364746,-0.5959983468055725,-141.7906036376953,368.85516357421875, -69.38542938232422
464,3068736793,0.3934662,0.69868517,-0.44910586,0.39411607,2.3722825050354004,-4.159451961517334,-1.981636643409729,-133.89527893066406,390.0755615234375, -60.41891098022461
465,3068753460,0.43037534,0.6721684,-0.4252653,0.4267508,2.054687023162842,-7.396860122680664,-3.815747022628784,-82.78197479248047,403.6446533203125, -43.57940673828125
466,3068770127,0.45985034,0.6452119,-0.39775842,0.4626312,2.438997268676758,-6.340065956115723,-4.958785057067871,-29.47451400756836,409.3358459472656, -27.99401092529297
467,3068786794,0.4831701,0.61763746,-0.36890188,0.49898112,3.1861414909362793,-5.777097225189209,-8.277395248413086,1.4502778053283691,401.1184387207031, -11.322808265686035
468,3068803461,0.5016303,0.59033954,-0.33875826,0.5339563,4.7730231285095215,-3.2723217010498047,-12.679596900939941,23.91831398010254,386.67279052734375, -5.454664707183838
469,3068820128,0.5124352,0.5676733,-0.30411962,0.5680392,6.804595947265625,-3.279660701751709,-19.386363983154297,85.35311889648438,364.234375, -9.466413497924805
470,3068836795,0.5239178,0.5454688,-0.27563715,0.59329426,5.559783458709717,0.43470293283462524,-22.1010799407959,41.70650863647461,308.37542724609375, -20.196596145629883
471,3068853462,0.53986424,0.52301884,-0.2611711,0.6056301,3.6462478637695312,1.9477925300598145,-27.10590171813965,-57.76387405395508,219.61863708496094, -31.934682846069336
472,3068870129,0.5539063,0.50576454,-0.2563514,0.60965085,2.5893402099609375,-1.3546417951583862,-32.61040115356445,-86.95431518554688,129.70706176757812, -29.516511917114258
473,3068886796,0.5542349,0.5058276,-0.25139543,0.6113612,1.395301342010498,-4.674431324005127,-37.17119598388672,22.967905044555664,26.412525177001953, -11.885553359985352
474,3068903463,0.54500043,0.5177703,-0.25290453,0.60903865,0.2673797011375427,-3.616511106491089,-33.98106384277344,67.1572036743164,-77.65137481689453, 14.760165214538574
475,3068920130,0.5304999,0.5374097,-0.2620768,0.60089654,-0.8104885816574097,-2.7563862800598145,-26.938369750976562,72.3639144897461,-167.57162475585938, 28.777929306030273
476,3068936797,0.52002114,0.5558498,-0.28207797,0.58398724,-1.2057161331176758,1.924992561340332,-17.600988388061523,-7.558460712432861,-226.60873413085938, 22.30714225769043
477,3068953464,0.530271,0.56748134,-0.32060662,0.54220784,14.50040054321289,36.26888656616211,-59.61817932128906,-234.05381774902344,-320.1294250488281, -65.61875915527344
478,3068970131,0.5385393,0.57470626,-0.3752332,0.4887618,17.430818557739258,-28.1152286529541,18.017553329467773,-329.10400390625,-410.8711242675781, -26.992185592651367
479,3068986798,0.53274757,0.5912453,-0.40051425,0.4540897,19.638242721557617,7.353602409362793,2.776029348373413,-91.20329284667969,-296.05462646484375, -50.47832489013672
480,3069003465,0.5210858,0.61017996,-0.41891825,0.42503852,13.938987731933594,-12.358375549316406,5.029305458068848,-21.536828994750977,-271.93280029296875, -45.93321228027344
481,3069020132,0.5066796,0.6269492,-0.43632787,0.3997857,11.225245475769043,-6.172428131103516,-1.6371021270751953,-3.736138343811035,-254.3753204345703, -22.542272567749023
482,3069036799,0.49547327,0.637921,-0.4508082,0.37991482,7.424543380737305,2.314194917678833,-1.6590584516525269,-13.430277824401855,-195.57797241210938, -7.990657806396484
483,3069053466,0.48664692,0.6459245,-0.46049786,0.36592084,8.467972755432129,0.9731040596961975,-2.2055397033691406,-3.1977696418762207,-138.50729370117188, -5.972798824310303
484,3069070133,0.47562972,0.6541615,-0.46568185,0.35915127,8.552388191223145,3.0067336559295654,-1.411346673965454,41.578277587890625,-99.0328140258789, 2.9041945934295654
485,3069086800,0.4634673,0.66164076,-0.46835396,0.35787445,10.250514030456543,0.6576510071754456,-0.29669392108917236,68.09932708740234,-68.10042572021484, 14.765274047851562
486,3069103467,0.44976276,0.6688656,-0.46739906,0.36313963,11.78089714050293,0.9873284697532654,2.166721820831299,104.3703384399414,-31.362306594848633, 23.57184410095215
487,3069120134,0.43468392,0.67484707,-0.4639849,0.3746322,12.72543716430664,0.3504563570022583,6.674948692321777,133.09353637695312,3.2394638061523438, 38.77061462402344
488,3069136801,0.4173717,0.6793093,-0.46071815,0.38997287,7.845346450805664,1.345871925354004,10.127799987792969,150.93663024902344,16.969974517822266, 61.369873046875
489,3069153468,0.3945237,0.68626505,-0.45376894,0.40924966,4.289470672607422,5.058326721191406,11.228659629821777,206.42478942871094,21.188724517822266, 62.29558181762695
490,3069170135,0.3774572,0.6905322,-0.45768934,0.41377738,4.056743621826172,5.191368579864502,3.5176920890808105,95.31949615478516,-52.7787971496582, 65.72434997558594
491,3069186802,0.36002916,0.69809943,-0.46747005,0.40559578,1.944285273551941,4.818130970001221,4.444682598114014,48.97722244262695,-139.09115600585938, 51.29972457885742
492,3069203469,0.3378258,0.71030253,-0.4756775,0.39379585,4.592874526977539,3.671452283859253,4.389338970184326,76.17507934570312,-181.0725860595703, 33.302452087402344
493,3069220136,0.31985763,0.7228296,-0.48578125,0.3731291,2.46528959274292,8.495125770568848,17.125160217285156,22.139612197875977,-216.05955505371094, 9.504964828491211
494,3069236803,0.3046604,0.7357284,-0.4971002,0.34464103,5.152023792266846,8.405233383178711,15.873284339904785,-19.973039627075195,-249.8916473388672, -9.821704864501953
495,3069253470,0.29192504,0.7474174,-0.5071765,0.3145144,4.5568952560424805,4.094252586364746,18.945323944091797,-37.51052474975586,-244.84156799316406, -21.08199691772461
496,3069270137,0.27432668,0.7599107,-0.51283365,0.29031423,3.566643476486206,1.1393216848373413,20.030349731445312,19.43555450439453,-224.77027893066406, -24.136241912841797
497,3069286804,0.25190264,0.77277106,-0.514023,0.27413568,4.425893306732178,0.2872159481048584,19.31769371032715,82.64234924316406,-192.6883544921875, -24.003433227539062
498,3069303471,0.22507085,0.7852671,-0.51172525,0.26615047,4.125346660614014,-0.30365076661109924,18.363792419433594,141.04739379882812,-158.4689483642578, -18.71662712097168
499,3069320138,0.19706362,0.7963144,-0.5075919,0.26343864,4.129717826843262,0.8698578476905823,16.904199600219727,167.12832641601562,-129.0285186767578, -13.15994644165039
500,3069336805,0.17395163,0.8046767,-0.5039586,0.2612705,4.499298572540283,2.7513606548309326,15.70261287689209,137.7277374267578,-105.10123443603516, -9.082906723022461
501,3069353472,0.16094682,0.80945677,-0.50249624,0.25763083,6.334378242492676,3.195996046066284,13.86071491241455,68.58089447021484,-74.6727294921875, -4.4707441329956055
502,3069370139,0.16063091,0.81040436,-0.50360984,0.25262564,6.9073309898376465,3.484715223312378,11.583084106445312,-15.50414752960205,-34.80105209350586, -0.8270637392997742
503,3069386806,0.17568156,0.80714923,-0.50715256,0.24585126,6.044826030731201,2.5162322521209717,10.142571449279785,-116.0719223022461,12.876897811889648, -1.4088045358657837
504,3069403473,0.19846448,0.8009767,-0.5097095,0.24340205,6.064601421356201,0.3883169889450073,8.249939918518066,-145.7451171875,69.72874450683594, -4.663527965545654
505,3069420140,0.22463675,0.7928906,-0.5090642,0.24842803,6.34725284576416,0.8850827813148499,6.457213401794434,-135.47557067871094,130.1648712158203, -11.223989486694336
506,3069436807,0.25294158,0.78279907,-0.5047096,0.2617527,6.751644134521484,0.6971315741539001,5.401109218597412,-114.81719970703125,191.8889923095703, -15.378183364868164
507,3069453474,0.28291067,0.7703304,-0.49718663,0.28170598,6.840162754058838,1.434069037437439,4.522904872894287,-99.2030029296875,243.0225372314453, -15.751307487487793
508,3069470141,0.31516474,0.7550028,-0.48655993,0.30643353,6.3255438804626465,1.3336117267608643,3.696960210800171,-94.52606964111328,287.6214599609375, -17.625408172607422
509,3069486808,0.3488335,0.7367916,-0.47301027,0.33423755,5.020020961761475,0.5844649076461792,2.4098358154296875,-91.65786743164062,320.7000427246094, -19.525983810424805
510,3069503475,0.3842334,0.71489215,-0.45761147,0.36316097,4.05600643157959,-1.2043688297271729,0.9719935655593872,-101.38613891601562,344.9469299316406, -18.25618553161621
511,3069520142,0.4171028,0.690816,-0.43845794,0.39566812,3.264329671859741,-3.686110496520996,-1.014824390411377,-74.03955078125,370.0604248046875, -14.15539264678955
512,3069536809,0.4489872,0.6635659,-0.41799647,0.4282172,2.1011672019958496,-3.815842628479004,-2.3937623500823975,-74.78687286376953,379.8568115234375, -8.099763870239258
513,3069553476,0.4754855,0.6372033,-0.39333162,0.46170992,2.693434715270996,-4.258978843688965,-5.562952041625977,-32.3658332824707,379.2674560546875, -11.1220064163208
514,3069570143,0.49484217,0.6144455,-0.3624001,0.4962403,3.534503698348999,-1.7440050840377808,-10.408312797546387,33.44278335571289,373.8656005859375, -22.28145980834961
515,3069586810,0.5131537,0.5904031,-0.3328683,0.5265893,2.9838852882385254,2.05222487449646,-12.229066848754883,18.243785858154297,353.6691589355469, -23.77564239501953
516,3069603477,0.5296229,0.5666015,-0.306712,0.55171585,4.906777381896973,0.1688268929719925,-17.804664611816406,2.282059669494629,315.94793701171875, -22.28144073486328
517,3069620144,0.5387523,0.55009854,-0.28128034,0.5727295,6.992305755615234,-1.9226629734039307,-26.829309463500977,45.90168762207031,254.76715087890625, -21.956804275512695
518,3069636811,0.5428373,0.54057527,-0.2612873,0.5872265,4.414830207824707,-1.9865429401397705,-29.580036163330078,56.62275314331055,173.6618194580078, -19.212026596069336
519,3069653478,0.53811234,0.5429164,-0.24679656,0.5956244,2.3066577911376953,-0.8104374408721924,-35.11415100097656,100.25299835205078,67.69082641601562, -7.3532867431640625
520,3069670145,0.52776974,0.55445796,-0.24237351,0.5960626,0.4077664017677307,-3.3434290885925293,-34.829681396484375,100.23223114013672,-45.419090270996094, 8.066368103027344
521,3069686812,0.5156718,0.57122666,-0.24997792,0.5876171,0.4727470874786377,-3.258218765258789,-28.868181228637695,61.53559875488281,-146.29473876953125, 20.0196475982666
522,3069703479,0.5062593,0.5900662,-0.2684646,0.5687269,4.599831581115723,0.33002158999443054,-32.459930419921875,-3.808865785598755,-228.89645385742188, 11.23552131652832
523,3069720146,0.51643646,0.6059002,-0.3104754,0.519407,19.968778610229492,35.77170181274414,-51.723655700683594,-242.4174346923828,-385.6744079589844, -70.18515014648438
524,3069736813,0.5304777,0.6093075,-0.36215317,0.46495482,4.94693660736084,-32.82054138183594,19.460439682006836,-349.03607177734375,-387.4927978515625, -34.253150939941406
525,3069753480,0.52089095,0.6312176,-0.3874561,0.42439917,16.615215301513672,15.326093673706055,-4.784292697906494,-62.82556915283203,-351.6471252441406, -64.86888885498047
526,3069770147,0.50852513,0.65120125,-0.40195718,0.39467683,7.287396430969238,-1.768756628036499,4.513321399688721,2.6972522735595703,-267.74462890625, -59.36985778808594
527,3069786814,0.49627927,0.6663371,-0.4143029,0.37155783,11.633770942687988,-6.359745502471924,-5.465132236480713,9.434416770935059,-217.48617553710938, -32.90147018432617
528,3069803481,0.48575613,0.6769575,-0.42490304,0.3538744,11.286344528198242,-5.637624263763428,-1.2825464010238647,6.153219699859619,-170.22958374023438, -14.078751564025879
529,3069820148,0.47545657,0.686318,-0.4320957,0.34088415,11.516916275024414,-2.68363094329834,-1.9771276712417603,23.001453399658203,-133.4793701171875, -11.328132629394531
530,3069836815,0.46315238,0.6951408,-0.43625316,0.33459312,11.604997634887695,-1.1179189682006836,-1.1960042715072632,57.79609680175781,-96.82638549804688, 2.367532730102539
531,3069853482,0.446768,0.7035598,-0.43788308,0.33713588,12.122100830078125,-0.3160937428474426,2.098156213760376,108.41365051269531,-58.08222961425781, 28.825031280517578
532,3069870149,0.428168,0.70990205,-0.43851456,0.3470108,15.01343822479248,-2.8910412788391113,3.460613250732422,137.274658203125,-21.722492218017578, 57.69826126098633
533,3069886816,0.4055733,0.71526855,-0.43654004,0.3651496,12.025053977966309,-4.473057746887207,9.25857162475586,185.2038116455078,16.17892837524414, 81.49440002441406
534,3069903483,0.38483816,0.7205369,-0.43270236,0.38143796,4.307598114013672,2.5177206993103027,9.968717575073242,175.07080078125,17.57229995727539, 62.525691986083984
535,3069920150,0.37510976,0.7208752,-0.4357705,0.38695726,4.456572532653809,6.077347755432129,9.09514045715332,57.45061492919922,-8.822516441345215, 54.03981399536133
536,3069936817,0.3689642,0.72092116,-0.4495754,0.3768556,3.601546287536621,10.20911979675293,4.8657965660095215,-36.34123611450195,-102.82403564453125, 58.45088195800781
537,3069953484,0.35989624,0.7222094,-0.4703102,0.3573467,2.439962863922119,-0.7203580737113953,-2.179205894470215,-65.69046020507812,-179.55593872070312, 72.91719818115234
538,3069970151,0.338832,0.7318077,-0.48481485,0.3385337,8.159603118896484,1.6509605646133423,0.8612954616546631,32.009361267089844,-219.90682983398438, 46.30241012573242
539,3069986818,0.30898705,0.7449957,-0.49515262,0.32300562,4.701414585113525,0.7729406356811523,12.19933032989502,105.23776245117188,-231.50839233398438, 41.468257904052734
540,3070003485,0.27246305,0.75990194,-0.50362575,0.3076915,8.10819149017334,3.1318862438201904,13.503007888793945,148.030029296875,-253.47789001464844, 41.37149429321289
541,3070020152,0.23813125,0.7727419,-0.51247185,0.28902623,6.302140235900879,8.30505657196045,21.04901885986328,120.35601043701172,-260.2521667480469, 39.631343841552734
542,3070036819,0.21248467,0.78170115,-0.52276903,0.26553038,4.801466941833496,5.958309650421143,22.8909854888916,48.038055419921875,-250.6041259765625, 36.04075622558594
543,3070053486,0.19039875,0.7886575,-0.531618,0.2432077,4.623293399810791,3.728534698486328,23.054779052734375,32.9212532043457,-226.30372619628906, 30.803119659423828
544,3070070153,0.17012832,0.7935928,-0.5392383,0.22469775,4.808425426483154,3.3665153980255127,23.259994506835938,36.48501205444336,-194.51966857910156, 33.569847106933594
545,3070086820,0.15346013,0.79609394,-0.54654497,0.20969759,6.080160617828369,2.243164539337158,21.13018035888672,27.526273727416992,-158.3576202392578, 39.50125503540039
546,3070103487,0.13885537,0.7972523,-0.55225784,0.20029852,6.948513507843018,1.0919851064682007,19.182106018066406,38.18000030517578,-116.7515640258789, 38.81269836425781
547,3070120154,0.12268123,0.79820174,-0.55501735,0.19944696,7.832973480224609,0.5587960481643677,17.038240432739258,83.10086059570312,-73.12836456298828, 33.80876541137695
548,3070136821,0.105375774,0.7987507,-0.5544641,0.20847748,9.85148811340332,3.002434730529785,14.139546394348145,131.2076416015625,-20.203256607055664, 27.161964416503906
549,3070153488,0.09571794,0.7973305,-0.5527652,0.22260499,9.586702346801758,6.3861985206604,11.280913352966309,108.85272979736328,40.27356719970703, 21.301889419555664
550,3070170155,0.10187287,0.7929737,-0.5524203,0.23589562,8.882994651794434,6.086527347564697,7.606594085693359,15.004573822021484,99.11858367919922, 15.326201438903809
551,3070186822,0.120995216,0.7859695,-0.55241114,0.24990836,7.4462971687316895,6.511122226715088,4.858330249786377,-55.348567962646484,156.17359924316406, 6.774518013000488
552,3070203489,0.1532166,0.77624476,-0.5520987,0.2629757,5.61641788482666,8.254583358764648,1.8940802812576294,-131.48275756835938,205.63531494140625, -7.836201190948486
553,3070220156,0.1941099,0.76338273,-0.5504463,0.27672565,4.078892230987549,7.672773838043213,0.10136833786964417,-176.06216430664062,249.27243041992188, -18.098005294799805
554,3070236823,0.23968817,0.74743706,-0.54610956,0.2926633,2.917872428894043,9.556682586669922,-1.569204568862915,-191.3873291015625,288.0035705566406, -26.621421813964844
555,3070253490,0.29112875,0.72696173,-0.5393236,0.30967852,2.138209104537964,7.167031764984131,-2.567193031311035,-220.02371215820312,328.8583068847656, -32.30778503417969
556,3070270157,0.33839345,0.70519537,-0.52559066,0.3345803,0.6674104928970337,4.6109395027160645,-3.880018472671509,-157.67333984375,369.6281433105469, -37.66022872924805
557,3070286824,0.38003135,0.68367785,-0.50428134,0.36587048,-0.22684577107429504,3.6128740310668945,-5.4365363121032715,-89.28392028808594,397.58563232421875, -47.53792953491211
558,3070303491,0.41594934,0.6614815,-0.47863868,0.4004168,-0.7929214835166931,0.3316906988620758,-6.9214348793029785,-41.996551513671875,406.4004211425781, -42.63801956176758
559,3070320158,0.44542515,0.6390705,-0.45009923,0.43657324,0.34522461891174316,-0.30939456820487976,-9.653247833251953,-0.07594672590494156,401.7459716796875, -32.7633056640625
560,3070336825,0.4699531,0.6166367,-0.42020214,0.4715226,2.3811886310577393,-1.5965255498886108,-12.817017555236816,21.865659713745117,385.757080078125, -27.493743896484375
561,3070353492,0.4890962,0.59709716,-0.3883205,0.5034554,3.1285858154296875,-0.4823712408542633,-17.09914779663086,51.698463439941406,354.9100341796875, -36.57943344116211
562,3070370159,0.5073156,0.5789573,-0.36029306,0.5269045,4.351348876953125,3.0309829711914062,-24.582942962646484,24.089277267456055,300.3819885253906, -49.837703704833984
563,3070386826,0.52823496,0.5594227,-0.34133884,0.53990936,1.9139206409454346,2.93520450592041,-24.26197052001953,-50.460384368896484,239.6997528076172, -56.46381378173828
564,3070403493,0.5435808,0.54523945,-0.3280806,0.5473548,-0.34173959493637085,-1.7723652124404907,-26.950326919555664,-43.963260650634766,165.43695068359375, -46.60152053833008
565,3070420160,0.54854727,0.54055446,-0.3174632,0.5532759,0.9585800766944885,-4.678847789764404,-31.02039337158203,16.915416717529297,91.52130889892578, -24.81484603881836
566,3070436827,0.5409656,0.54891455,-0.30684575,0.55847543,-1.1697394847869873,-6.483730792999268,-28.97071647644043,111.04251861572266,12.777249336242676, -8.40067195892334
567,3070453494,0.52471507,0.5668043,-0.29909676,0.56031084,-1.5621702671051025,-6.336854457855225,-25.9328670501709,161.00894165039062,-64.630615234375, 2.8943307399749756
568,3070470161,0.5093833,0.585407,-0.3017283,0.5538839,-1.6021445989608765,-4.480046272277832,-19.779373168945312,102.92992401123047,-134.42527770996094, 8.324579238891602
569,3070486828,0.49459606,0.609088,-0.30957335,0.5371693,8.507745742797852,8.4556884765625,-49.99766540527344,77.24443054199219,-211.82835388183594, -19.466218948364258
570,3070503495,0.50766313,0.6187089,-0.3629087,0.47725773,25.31903839111328,8.33190631866455,-23.84271240234375,-348.0517578125,-435.2336730957031, -48.4698486328125
571,3070520162,0.505125,0.63417697,-0.39292076,0.4339143,-3.9219841957092285,-7.53609561920166,29.55632781982422,-143.23130798339844,-340.63201904296875, -52.6290168762207
572,3070536829,0.4968232,0.65257555,-0.41458482,0.39424783,18.957990646362305,7.744777679443359,-5.144783973693848,-72.72356414794922,-321.0394592285156, -66.88877868652344
573,3070553496,0.48825616,0.6638914,-0.43228444,0.3660389,9.84836483001709,-6.998864650726318,-2.443326234817505,-52.25264358520508,-237.70689392089844, -24.43463706970215
574,3070570163,0.47519422,0.67551076,-0.4454774,0.3455803,13.317473411560059,-4.622224807739258,0.05465957522392273,3.7953405380249023,-201.4624786376953, -8.714958190917969
575,3070586830,0.4615731,0.68546593,-0.45659295,0.32956013,13.293882369995117,-3.8418242931365967,-0.6480516791343689,19.622943878173828,-172.07803344726562, 2.3757071495056152
576,3070603497,0.4481227,0.69360405,-0.4660247,0.31767994,11.513654708862305,-1.8101640939712524,-0.15084853768348694,29.98069953918457,-142.8206024169922, 12.698782920837402
577,3070620164,0.4346441,0.6999583,-0.47381073,0.3108801,11.383044242858887,0.8106800317764282,1.8955867290496826,44.597808837890625,-109.97130584716797, 26.11876678466797
578,3070636831,0.41915342,0.7068578,-0.477619,0.31071362,11.620835304260254,0.07701852917671204,2.0843698978424072,86.13037872314453,-74.20320892333984, 29.190654754638672
579,3070653498,0.40098748,0.71484995,-0.47613475,0.31858185,10.121405601501465,-0.8800917267799377,7.039312362670898,140.0749969482422,-31.35060691833496, 28.57028579711914
580,3070670165,0.37970135,0.72149146,-0.47366711,0.3330415,10.225104331970215,-2.2224066257476807,7.449342250823975,175.54208374023438,-3.940648317337036, 52.97065734863281
581,3070686832,0.35468042,0.7274049,-0.46930984,0.3533162,6.440176486968994,6.181570529937744,13.632942199707031,215.56146240234375,18.893579483032227, 69.50044250488281
582,3070703499,0.3380604,0.728895,-0.47330177,0.36112708,4.26038932800293,6.486854553222656,4.498388290405273,102.35565948486328,-26.51544952392578, 74.76554107666016
583,3070720166,0.32684115,0.7300489,-0.48669693,0.35118315,2.1180777549743652,5.8700385093688965,6.950883865356445,-6.5607075691223145,-119.1960678100586, 68.42310333251953
584,3070736833,0.3138426,0.7351561,-0.49970165,0.3336865,3.6513261795043945,4.062901020050049,-0.05432168394327164,-13.023398399353027,-172.0086669921875, 40.68400573730469
585,3070753500,0.30493775,0.74212784,-0.5123294,0.30623195,6.2848286628723145,4.689727306365967,10.164701461791992,-63.021663665771484,-211.85427856445312, 1.568170428276062
586,3070770167,0.28822455,0.75271046,-0.5229442,0.2772781,6.4735002517700195,-0.23191292583942413,10.971795082092285,-16.580904006958008,-250.8191680908203, -8.050304412841797
587,3070786834,0.26515275,0.7651609,-0.5307998,0.24994902,6.871419429779053,5.026866912841797,16.839265823364258,31.186824798583984,-263.77679443359375, -13.741052627563477
588,3070803501,0.2409918,0.7760929,-0.53788406,0.22424023,6.31903076171875,2.282020330429077,20.461170196533203,41.488765716552734,-255.73239135742188, -7.35909366607666
589,3070820168,0.21261156,0.7871916,-0.54132164,0.20517516,6.7646989822387695,0.9099100828170776,20.12239646911621,94.57191467285156,-230.63150024414062, -9.888875007629395
590,3070836835,0.1824229,0.7975119,-0.5417237,0.19295643,5.911710739135742,2.1848225593566895,20.55750274658203,133.0646514892578,-195.25296020507812, -10.823026657104492
591,3070853502,0.15429792,0.8057658,-0.54100317,0.18506585,5.21962308883667,2.7396841049194336,20.04608917236328,136.84483337402344,-160.10304260253906, -6.495245456695557
592,3070870169,0.13130385,0.8118825,-0.5398767,0.17927504,4.680222511291504,2.407233715057373,18.677522659301758,114.54749298095703,-126.58515167236328, -4.982733249664307
593,3070886836,0.11370432,0.8164642,-0.5380585,0.17592865,6.199127197265625,2.491652727127075,16.62443733215332,93.03141784667969,-90.68486785888672, -7.488767147064209
594,3070903503,0.10510278,0.819132,-0.53628385,0.17428677,7.254986763000488,4.135356903076172,14.936922073364258,47.328006744384766,-45.831207275390625, -9.634405136108398
595,3070920170,0.1125512,0.8194974,-0.5351507,0.17137666,6.2629828453063965,4.35651969909668,13.603286743164062,-50.103233337402344,8.208383560180664, -17.63321876525879
596,3070936837,0.13063002,0.817753,-0.5332826,0.17270106,5.5356574058532715,-0.24041345715522766,11.417435646057129,-95.12503051757812,73.9887924194336, -23.279722213745117
597,3070953504,0.15170515,0.81522423,-0.5278761,0.1836895,4.122344493865967,1.333357334136963,9.887029647827148,-73.03628540039062,143.24099731445312, -35.27096939086914
598,3070970171,0.17974016,0.810388,-0.52015215,0.2010144,3.79266619682312,1.2194195985794067,7.698751926422119,-88.50910949707031,209.244873046875, -42.125205993652344
599,3070986838,0.21155882,0.8027422,-0.51018417,0.22485583,4.198940277099609,0.3593671917915344,5.064189910888672,-86.63792419433594,265.68231201171875, -41.807586669921875
600,3071003505,0.24540645,0.79204935,-0.49746585,0.2548753,3.851731538772583,0.9609277844429016,3.3040878772735596,-76.3382797241211,315.5893249511719, -40.497772216796875
601,3071020172,0.28090903,0.77792263,-0.48249772,0.28830987,3.6262354850769043,0.6211445331573486,2.1604137420654297,-75.5162124633789,349.6802673339844, -38.173091888427734
602,3071036839,0.31801346,0.76000667,-0.46605182,0.32257283,3.704637289047241,-0.5117318630218506,0.6507899165153503,-85.73827362060547,369.832275390625, -35.10293197631836
603,3071053506,0.3573932,0.7372517,-0.44901004,0.3565391,4.0794997215271,-2.7402584552764893,-0.8663619756698608,-107.87117004394531,387.6979675292969, -28.46918296813965
604,3071070173,0.39410916,0.71096087,-0.43040565,0.39238223,3.809192180633545,-6.1817827224731445,-3.024498701095581,-93.45308685302734,401.622314453125, -14.435132026672363
605,3071086840,0.42490175,0.68327814,-0.40884393,0.43062297,2.9742627143859863,-5.6922454833984375,-3.912053108215332,-53.20133972167969,407.7811584472656, -2.426764488220215
606,3071103507,0.44846496,0.65571874,-0.38302606,0.47138435,2.695892333984375,-4.420212745666504,-6.040731430053711,0.8177449703216553,411.6140441894531, 5.9368109703063965
607,3071120174,0.46443725,0.63124955,-0.35213155,0.5116888,5.280425071716309,-1.1323431730270386,-13.446123123168945,59.819480895996094,395.4872741699219, -1.8855946063995361
608,3071136841,0.47775558,0.6080144,-0.32307395,0.5456111,7.802174091339111,2.5052595138549805,-19.948986053466797,53.26546096801758,351.61834716796875, -7.890054702758789
609,3071153508,0.49254295,0.58413136,-0.30370846,0.569169,7.140089988708496,2.9132211208343506,-23.249492645263672,-14.579658508300781,282.79534912109375, -5.450644016265869
610,3071170175,0.4991202,0.56971335,-0.28722352,0.5863519,3.571841239929199,-0.8185355067253113,-28.4254093170166,25.666589736938477,194.0116424560547, -3.1052675247192383
611,3071186842,0.49953836,0.5651973,-0.27566302,0.5958384,1.863011360168457,-1.1412122249603271,-32.92463302612305,48.52455520629883,95.80256652832031, -5.027465343475342
612,3071203509,0.49337813,0.5710212,-0.27027667,0.59788233,-1.163101077079773,-2.2548329830169678,-33.31031799316406,69.97998809814453,-8.13194465637207, 0.6470841765403748
613,3071220176,0.4835324,0.58406496,-0.2737783,0.59170103,-0.060389041900634766,-3.080235242843628,-30.003293991088867,56.904476165771484,-106.13394165039062, 9.2467679977417
614,3071236843,0.47338012,0.60098135,-0.2870417,0.57648915,2.5376579761505127,0.8173692226409912,-25.413965225219727,14.114333152770996,-190.35118103027344, 12.268701553344727
615,3071253510,0.47286123,0.62269384,-0.3118001,0.5398476,14.310611724853516,34.56623077392578,-64.78068542480469,-98.19974517822266,-315.7257995605469, -57.60215377807617
616,3071270177,0.4896088,0.6258198,-0.3720928,0.47977072,17.571632385253906,-33.19089889526367,8.538490295410156,-415.9532165527344,-424.2450256347656, -4.938369274139404
617,3071286844,0.4773299,0.6475249,-0.39715645,0.44174027,13.88100814819336,4.134228706359863,1.4305393695831299,-54.96393966674805,-346.33306884765625, -34.319679260253906
618,3071303511,0.4611351,0.6677134,-0.41894028,0.40743396,11.461240768432617,-7.06835412979126,4.267523765563965,-22.29286003112793,-325.3313293457031, -20.507844924926758
619,3071320178,0.44744256,0.6818669,-0.43500534,0.3816061,9.156981468200684,-9.443416595458984,-7.01649808883667,-12.31272029876709,-244.44468688964844, -9.624957084655762
620,3071336845,0.43713805,0.69162047,-0.4467784,0.3618849,10.19394302368164,-0.9945101141929626,-1.476686954498291,-12.149283409118652,-180.8994598388672, -6.865269184112549
621,3071353512,0.4270674,0.7006395,-0.45363042,0.34776044,10.107754707336426,-1.6395260095596313,-1.262238621711731,14.022550582885742,-137.1470184326172, -11.824325561523438
622,3071370179,0.41509035,0.70945644,-0.4565873,0.34044027,10.518569946289062,0.4569341838359833,0.1699579656124115,53.19932556152344,-98.6075210571289, -5.534419536590576
623,3071386846,0.40182567,0.71682364,-0.45785582,0.33921695,11.4746675491333,-0.39004793763160706,0.05898488312959671,78.4993896484375,-64.96444702148438, 11.08053207397461
624,3071403513,0.38537085,0.72281396,-0.4576928,0.34575576,13.140188217163086,-0.10919910669326782,6.838834285736084,118.27507781982422,-29.859678268432617, 37.08512878417969
625,3071420180,0.36700934,0.7264931,-0.45729047,0.35832602,13.470036506652832,-3.2852401733398438,6.484865665435791,141.3187255859375,-0.2488868087530136, 63.509403228759766
626,3071436847,0.34074312,0.7317461,-0.45093608,0.38091847,5.784426212310791,-0.4416190981864929,16.018312454223633,231.11460876464844,35.62303924560547, 73.36617279052734
627,3071453514,0.32380527,0.73388773,-0.45220283,0.3899636,-0.12644721567630768,6.863326072692871,1.3341368436813354,115.02506256103516,-13.966398239135742, 65.09513092041016
628,3071470181,0.3141546,0.7363186,-0.4641825,0.37904668,4.018728256225586,6.209374904632568,4.281782627105713,-11.86240291595459,-116.77307891845703, 54.416015625
629,3071486848,0.30476665,0.7405704,-0.48048517,0.3575011,3.8723881244659424,2.804802894592285,-2.720824718475342,-54.415931701660156,-184.0858612060547, 47.005226135253906
630,3071503515,0.29236513,0.74878573,-0.49449548,0.33063117,5.454429626464844,1.721114993095398,5.075695991516113,-42.718997955322266,-226.13661193847656, 18.568988800048828
631,3071520182,0.26862472,0.7609735,-0.504617,0.30679318,4.702780246734619,-0.6821334958076477,9.705751419067383,42.83087158203125,-250.5841522216797, 16.9534854888916
632,3071536849,0.23480885,0.7746951,-0.51165634,0.28795883,6.3496809005737305,2.5126492977142334,13.578022956848145,122.2862319946289,-257.2963562011719, 25.98794937133789
633,3071553516,0.19832438,0.7867502,-0.51832414,0.2702443,5.013823986053467,4.958154201507568,17.98476219177246,138.5375518798828,-257.3183898925781, 37.03329849243164
634,3071570183,0.16113201,0.79702663,-0.5236701,0.25407654,5.553769588470459,5.119837760925293,18.803190231323242,147.9809112548828,-246.888671875, 39.77613830566406
635,3071586850,0.12444015,0.8056367,-0.52757657,0.23901273,5.6115946769714355,6.608729362487793,20.27078628540039,149.94859313964844,-235.02940368652344, 38.394500732421875
636,3071603517,0.09340348,0.8116416,-0.53203976,0.22236846,5.794239044189453,7.0147857666015625,20.779630661010742,109.81267547607422,-219.92958068847656, 40.47129440307617
637,3071620184,0.06961255,0.8155304,-0.537111,0.20390193,6.463663101196289,6.076916217803955,19.98764419555664,60.494384765625,-201.177001953125, 39.521949768066406
638,3071636851,0.05263188,0.8179993,-0.54204834,0.18517832,7.4073286056518555,4.107948303222656,18.906949996948242,20.92853355407715,-175.80613708496094, 34.46762466430664
639,3071653518,0.03956154,0.8199136,-0.54548407,0.16918539,7.872163772583008,3.4675357341766357,17.439882278442383,10.863951683044434,-144.99319458007812, 24.1638240814209
640,3071670185,0.029643185,0.821505,-0.547198,0.15756014,8.852008819580078,4.252470016479492,14.0993070602417,11.425033569335938,-108.03489685058594, 13.241998672485352
641,3071686852,0.026729725,0.8223147,-0.548131,0.15045474,8.727715492248535,6.852594375610352,10.788633346557617,-10.399077415466309,-55.447139739990234, 5.165517807006836
642,3071703519,0.03706768,0.8216169,-0.5501683,0.14452259,5.515713691711426,6.271615028381348,8.752306938171387,-82.23622131347656,2.2187082767486572, 3.648763418197632
643,3071720186,0.05632884,0.8193775,-0.55198646,0.144079,4.301353931427002,2.8415603637695312,6.64203405380249,-112.00401306152344,68.42255401611328, 0.7477505207061768
644,3071736853,0.08097284,0.8156616,-0.5522875,0.15204658,2.5065019130706787,3.0495142936706543,4.895761966705322,-109.48268127441406,138.21524047851562, -4.355276584625244
645,3071753520,0.111389846,0.8100861,-0.5508484,0.16709013,1.771209955215454,2.9641129970550537,3.294529676437378,-114.21885681152344,202.7470245361328, -9.226369857788086
646,3071770187,0.14666653,0.8024125,-0.5471136,0.18785588,1.0935553312301636,4.524537563323975,1.9519752264022827,-118.60306549072266,257.25506591796875, -15.342645645141602
647,3071786854,0.18598615,0.7920247,-0.5408856,0.21342261,0.16933605074882507,4.022075176239014,1.2244322299957275,-122.37144470214844,305.07232666015625, -19.299592971801758
648,3071803521,0.2255148,0.77950567,-0.5310007,0.24403389,-0.45263049006462097,2.753736734390259,0.272896945476532,-102.1146011352539,341.2542419433594, -25.162670135498047
649,3071820188,0.2635849,0.76539725,-0.5169284,0.27834356,-0.8744639754295349,0.36459773778915405,-1.0516672134399414,-76.2460708618164,365.0672302246094, -33.63822555541992
650,3071836855,0.3004589,0.7496633,-0.4991585,0.3139591,-0.8758087754249573,-1.8854914903640747,-1.7884355783462524,-61.21261215209961,377.6880187988281, -42.690330505371094
651,3071853522,0.33613285,0.7312929,-0.48042348,0.3484521,-1.133739709854126,-4.796184062957764,-2.548715114593506,-62.28702163696289,375.6546630859375, -38.402427673339844
652,3071870189,0.36882335,0.7110162,-0.46007848,0.38308397,-0.973547637462616,-5.682463645935059,-4.375241756439209,-47.41133499145508,374.9989929199219, -32.8385009765625
653,3071886856,0.3950144,0.691229,-0.43580937,0.41980514,-0.6126713752746582,-6.645286560058594,-6.9745073318481445,2.5422251224517822,373.5751953125, -31.252233505249023
654,3071903523,0.4145555,0.6720899,-0.40821534,0.45803872,0.19038140773773193,-4.841723918914795,-9.280509948730469,50.02948760986328,368.3291320800781, -25.769662857055664
655,3071920190,0.4313497,0.6521255,-0.38193637,0.4927419,1.529585599899292,1.4055508375167847,-12.408489227294922,46.27901840209961,343.51519775390625, -18.824506759643555
656,3071936857,0.4499988,0.6301874,-0.36172557,0.5191532,3.825549602508545,3.8475027084350586,-16.688274383544922,-10.330222129821777,300.31201171875, -17.272634506225586
657,3071953524,0.468725,0.6086256,-0.34840515,0.53710866,3.3652312755584717,0.5206052660942078,-21.38851547241211,-55.28015899658203,241.73922729492188, -14.74870777130127
658,3071970191,0.48134235,0.5942943,-0.33721736,0.5490068,2.0962624549865723,-0.26975905895233154,-25.987445831298828,-28.93130874633789,168.8895721435547, -20.142261505126953
659,3071986858,0.48545387,0.58999956,-0.3271595,0.5560593,1.0965077877044678,-1.4506614208221436,-29.87504768371582,23.37940216064453,88.60601806640625, -22.773929595947266
660,3072003525,0.48039538,0.5956974,-0.3204028,0.55830735,-1.0902425050735474,-1.4940654039382935,-29.998088836669922,70.32457733154297,0.24310089647769928, -12.92884349822998
661,3072020192,0.4703202,0.60773474,-0.32153365,0.55323917,-1.412371277809143,-0.4699856638908386,-26.451581954956055,65.2336654663086,-90.22608947753906, 0.3983140289783478
662,3072036859,0.46135685,0.62131834,-0.33309788,0.5386645,-1.0793540477752686,1.5345081090927124,-21.180313110351562,4.714766502380371,-166.33956909179688, 5.557723522186279
663,3072053526,0.4533736,0.64346963,-0.34606922,0.51052463,11.009318351745605,24.165098190307617,-62.8313102722168,-8.754746437072754,-257.7144775390625, -54.667110443115234
664,3072070193,0.48383275,0.6380339,-0.40815568,0.4384377,20.86947250366211,-13.068425178527832,-3.6661932468414307,-543.3444213867188,-415.7806396484375, -42.804283142089844
665,3072086860,0.47114524,0.65887696,-0.42707,0.4018888,4.831109046936035,-0.7573228478431702,10.697718620300293,-35.6869010925293,-316.18475341796875, -57.36376190185547
666,3072103527,0.45635235,0.6792318,-0.4440651,0.36495593,14.882006645202637,-2.1487340927124023,3.6602158546447754,-23.407146453857422,-317.1585388183594, -59.98625183105469
667,3072120194,0.44613817,0.6907623,-0.45907757,0.33623835,15.379124641418457,-14.954071044921875,-5.64646053314209,-42.2701416015625,-236.8361358642578, -28.055971145629883
668,3072136861,0.43131417,0.70232666,-0.47108155,0.31430525,10.160738945007324,-4.48831844329834,-2.495459794998169,8.21899700164795,-210.15011596679688, -11.330498695373535
669,3072153528,0.42041263,0.71097034,-0.4792836,0.29675168,8.714743614196777,1.6152952909469604,-2.2030389308929443,3.091430187225342,-158.9108123779297, -15.869659423828125
670,3072170195,0.408955,0.71913874,-0.48381352,0.28551674,10.723719596862793,-0.038160935044288635,-0.8778006434440613,32.80484390258789,-118.4901351928711, -12.897945404052734
671,3072186862,0.3960522,0.7264547,-0.48683137,0.28000316,11.908910751342773,1.7008250951766968,1.7192615270614624,59.62316131591797,-89.37252807617188, 1.2514874935150146
672,3072203529,0.3807832,0.732829,-0.4885754,0.28153157,13.915409088134766,-0.2781425416469574,1.3271875381469727,95.00074005126953,-57.22265625, 21.634185791015625
673,3072220196,0.363917,0.7371646,-0.4891767,0.2913061,16.511383056640625,-3.5843682289123535,8.44023609161377,127.7342529296875,-14.500039100646973, 47.19773864746094
674,3072236863,0.34437138,0.73908323,-0.48886517,0.3101215,13.148965835571289,-3.8726696968078613,13.08588981628418,167.66445922851562,28.80171012878418, 78.40779113769531
675,3072253530,0.31876552,0.7435242,-0.48056674,0.33854985,1.9523919820785522,5.385839462280273,13.239873886108398,253.95703125,70.12440490722656, 64.7992172241211
676,3072270197,0.30479252,0.74503124,-0.4887516,0.3363808,3.8281402587890625,10.523881912231445,0.6665551662445068,48.636417388916016,-77.65390014648438, 64.68013000488281
677,3072286864,0.29649284,0.7468062,-0.5044638,0.31605223,2.9934778213500977,7.590420722961426,0.5822412967681885,-58.25790786743164,-168.17156982421875, 51.39140701293945
678,3072303531,0.28266412,0.75314367,-0.51859164,0.28972128,6.796775817871094,0.25282323360443115,-0.1805802583694458,-37.90325927734375,-224.99404907226562, 27.372127532958984
679,3072320198,0.26175815,0.763245,-0.5291464,0.26257187,7.406139850616455,0.30185699462890625,10.626066207885742,10.282480239868164,-255.20379638671875, 7.942989349365234
680,3072336865,0.23034035,0.7757592,-0.53703594,0.23818785,8.66358470916748,0.5743168592453003,13.094247817993164,84.72151184082031,-278.9700012207031, 9.119660377502441
681,3072353532,0.19693509,0.7874243,-0.5433797,0.21428512,5.852329254150391,6.045912742614746,21.30352783203125,98.33363342285156,-280.4231872558594, 8.037675857543945
682,3072370199,0.16750386,0.7966284,-0.5483478,0.19141741,4.469939708709717,1.7136602401733398,23.494110107421875,79.47654724121094,-255.04066467285156, 5.455578327178955
683,3072386866,0.13539027,0.80549943,-0.54907644,0.17707458,5.164309501647949,0.9275963306427002,22.896270751953125,131.57949829101562,-213.63340759277344, -3.09279203414917
684,3072403533,0.10351466,0.8128225,-0.54765385,0.16935098,4.317849159240723,4.736181735992432,23.346698760986328,156.4826202392578,-172.62937927246094, -3.200996160507202
685,3072420200,0.07883779,0.81753796,-0.54703313,0.16177505,4.141432285308838,5.106436729431152,21.89134407043457,114.0934066772461,-142.59996032714844, 2.9897570610046387
686,3072436867,0.061440554,0.8202627,-0.54758584,0.15344147,5.013988494873047,3.114589214324951,18.710527420043945,68.01360321044922,-118.20907592773438, 8.699637413024902
687,3072453534,0.048259247,0.8221773,-0.54791087,0.14659174,5.801801681518555,2.6379570960998535,16.120895385742188,49.76388168334961,-93.28712463378906, 6.724464416503906
688,3072470201,0.03961677,0.82371473,-0.5475506,0.1418208,5.770257949829102,2.9038844108581543,13.775506019592285,32.536624908447266,-64.07658386230469, 0.44611087441444397
689,3072486868,0.03610105,0.8247481,-0.5466534,0.1402057,6.353771686553955,2.5826239585876465,10.2680025100708,15.805244445800781,-26.47483253479004, -4.783046245574951
690,3072503535,0.039801877,0.8249998,-0.54549193,0.14223188,5.867165565490723,3.395190715789795,7.560699462890625,-11.339024543762207,21.925413131713867, -9.365509986877441
691,3072520202,0.053952653,0.8241548,-0.5443198,0.14688079,4.5665812492370605,2.4387574195861816,5.986011028289795,-61.031673431396484,76.92173767089844, -14.80375862121582
692,3072536869,0.07348725,0.82214344,-0.5418767,0.15827025,4.3328423500061035,0.7977191805839539,4.044379234313965,-65.45037841796875,136.83181762695312, -20.60924530029297
693,3072553536,0.095493555,0.81927085,-0.5369475,0.17709823,3.4618310928344727,2.6434898376464844,2.9275012016296387,-49.448829650878906,190.24044799804688, -30.431642532348633
694,3072570203,0.12318202,0.8148607,-0.5300104,0.19979343,3.3580431938171387,3.0027003288269043,2.0569708347320557,-65.73519897460938,236.20201110839844, -40.44965362548828
695,3072586870,0.15479769,0.8085601,-0.5208939,0.22569409,2.7071335315704346,3.3052620887756348,1.5671074390411377,-74.65247344970703,272.9412841796875, -48.46158981323242
696,3072603537,0.19012807,0.79992497,-0.5095238,0.25368664,1.8558557033538818,3.096592903137207,0.6548553109169006,-86.78951263427734,303.95166015625, -56.18425369262695
697,3072620204,0.22822359,0.7887057,-0.49579743,0.28291762,0.8931150436401367,1.104905366897583,0.16223646700382233,-96.92776489257812,328.1343078613281, -63.306339263916016
