PacketCounter,SampleTimeFine,Quat_W,Quat_X,Quat_Y,Quat_Z,Acc_X,Acc_Y,Acc_Z,Gyr_X,Gyr_Y,Gyr_Z 
1,3057195886,0.7864174,0.1644094,-0.3490915,0.4823406,-0.11205822229385376,-0.07101479172706604,-0.1810959279537201,-0.11515010893344879,0.4814816117286682, -0.2158551663160324
2,3057212553,0.78629684,0.16615815,-0.3490993,0.48193216,10.192831993103027,-1.0370643138885498,10.039200782775879,-0.4271686375141144,2.7830445766448975, 2.6122076511383057
3,3057229220,0.7863838,0.16683973,-0.349044,0.48159483,10.125872611999512,-1.21786630153656,9.865826606750488,-0.22051255404949188,2.5957255363464355, 2.9300739765167236
4,3057245887,0.7860841,0.16639425,-0.34965342,0.48179594,10.185522079467773,-1.1897683143615723,9.976033210754395,-0.6686452627182007,2.7309353351593018, 2.840353012084961
5,3057262554,0.7859017,0.16571045,-0.35009974,0.48200494,10.183267593383789,-1.069244384765625,10.007885932922363,0.2315068393945694,2.923081398010254, 2.7359299659729004
6,3057279221,0.78573394,0.16524656,-0.35019872,0.48236564,10.162728309631348,-1.1843926906585693,9.884686470031738,-0.38211581110954285,3.0667684078216553, 2.784503698348999
7,3057295888,0.78556013,0.16473868,-0.3503569,0.48270747,10.088294982910156,-1.2000646591186523,9.994904518127441,-0.2547054588794708,3.103523015975952, 3.0809836387634277
8,3057312555,0.7854571,0.16424364,-0.3503721,0.4830329,10.068622589111328,-1.0010548830032349,9.871472358703613,0.07959786802530289,2.7230076789855957, 2.5311942100524902
9,3057329222,0.7854004,0.16388403,-0.3502963,0.48330238,10.025729179382324,-1.1541023254394531,9.927970886230469,-0.5495845675468445,2.8198370933532715, 2.5935487747192383
10,3057345889,0.78529704,0.1636142,-0.3501194,0.4836895,10.095093727111816,-1.1908918619155884,9.903876304626465,0.2567096948623657,2.6788387298583984, 2.707537889480591
11,3057362556,0.7852078,0.16334888,-0.34996748,0.4840338,10.101201057434082,-1.0796128511428833,9.948123931884766,0.11882370710372925,2.635373830795288, 2.3119494915008545
12,3057379223,0.7851685,0.16312361,-0.34983456,0.48426938,10.108698844909668,-1.0378049612045288,9.840275764465332,0.2002848982810974,2.2990403175354004, 2.3688223361968994
13,3057395890,0.7851118,0.16299665,-0.34968215,0.48451415,9.985316276550293,-1.1072536706924438,9.82380485534668,0.6979780793190002,2.3111684322357178, 2.6723716259002686
14,3057412557,0.78511757,0.16274461,-0.34951547,0.48470974,10.159317016601562,-0.9893655180931091,9.966447830200195,-0.3909650444984436,2.8753392696380615, 2.2516186237335205
15,3057429224,0.78503025,0.16260259,-0.34927595,0.4850714,10.196249961853027,-1.1249748468399048,9.90890884399414,0.02568313665688038,2.9657397270202637, 2.7251980304718018
16,3057445891,0.78507715,0.16240719,-0.34911925,0.48517382,10.168971061706543,-0.9598488807678223,9.774436950683594,-0.03803486004471779,2.758084535598755, 2.2736968994140625
17,3057462558,0.7849744,0.16223337,-0.3489105,0.4855483,10.106179237365723,-1.0826337337493896,10.061600685119629,-0.5510187745094299,3.354616641998291, 2.879398822784424
18,3057479225,0.78490645,0.16217971,-0.34860206,0.48589742,10.129443168640137,-0.806850254535675,9.77198600769043,0.8885365724563599,3.2284233570098877, 2.7559075355529785
19,3057495892,0.78493696,0.16194725,-0.34838247,0.4860834,10.12185287475586,-1.0107569694519043,9.971278190612793,-0.519271969795227,3.495321035385132, 2.975421190261841
20,3057512559,0.784936,0.16170414,-0.34817812,0.486312,9.976177215576172,-1.1857234239578247,9.897175788879395,-0.5884262323379517,3.3489699363708496, 3.25470232963562
21,3057529226,0.7848975,0.1615863,-0.34794202,0.48658222,9.950111389160156,-0.9121045470237732,9.766634941101074,0.3280026316642761,2.9537909030914307, 2.9143216609954834
22,3057545893,0.7849101,0.16133562,-0.3476891,0.4868256,10.055930137634277,-1.0965149402618408,10.150519371032715,-0.5075797438621521,3.5703272819519043, 2.999420166015625
23,3057562560,0.7849537,0.16116595,-0.34740034,0.48701802,10.161197662353516,-1.0930484533309937,9.873767852783203,0.5155771970748901,3.231816530227661, 2.8955347537994385
24,3057579227,0.7850236,0.16095625,-0.34725565,0.48707762,9.953944206237793,-1.0637818574905396,9.738829612731934,-0.08896572142839432,2.5568456649780273, 2.680823564529419
25,3057595894,0.7850802,0.16080762,-0.34699157,0.48722392,9.994729042053223,-1.0274797677993774,10.208940505981445,0.5033984184265137,3.1429028511047363, 2.4730923175811768
26,3057612561,0.78515315,0.16066395,-0.3467695,0.4873118,10.02857780456543,-0.9489650130271912,9.702356338500977,0.5560581684112549,2.61899471282959, 2.469928741455078
27,3057629228,0.78515756,0.16056871,-0.34652844,0.4875073,10.078230857849121,-1.0919570922851562,9.973917007446289,0.3875649869441986,2.725377082824707, 2.358065128326416
28,3057645895,0.78516996,0.16046472,-0.34627828,0.48769918,10.06482982635498,-0.9259783029556274,9.923968315124512,0.5695304870605469,2.7830569744110107, 2.4527812004089355
29,3057662562,0.7852194,0.16028272,-0.34607768,0.48782235,10.021613121032715,-1.0494295358657837,9.825709342956543,0.12009155005216599,2.748351573944092, 2.6136927604675293
30,3057679229,0.7852408,0.15997118,-0.3458614,0.48804307,10.062307357788086,-1.0483661890029907,10.06589126586914,-0.12853732705116272,2.9979088306427, 2.975177764892578
31,3057695896,0.785241,0.15956432,-0.34565514,0.48832223,10.061230659484863,-1.0507721900939941,9.863995552062988,-0.37888863682746887,2.905562162399292, 3.0745418071746826
32,3057712563,0.78525215,0.15915827,-0.34541255,0.48860812,10.141566276550293,-0.9323602914810181,10.0314359664917,0.035800155252218246,2.993823766708374, 3.0902812480926514
33,3057729230,0.78521013,0.15876852,-0.3451895,0.48896012,9.97614574432373,-1.0868175029754639,9.827878952026367,0.028615791350603104,2.771390438079834, 3.303622007369995
34,3057745897,0.78522617,0.15829308,-0.3449383,0.48926565,10.036849975585938,-0.9480270743370056,10.12120246887207,-0.6159982681274414,3.300100564956665, 2.895176410675049
35,3057762564,0.78522724,0.15782073,-0.34470344,0.48958194,10.162750244140625,-1.1205211877822876,9.944089889526367,-0.29106274247169495,3.126805305480957, 3.339864492416382
36,3057779231,0.7852447,0.15748864,-0.34442565,0.48985645,10.143689155578613,-0.9490287899971008,9.998106002807617,0.48465001583099365,2.8827290534973145, 2.664278268814087
37,3057795898,0.7852415,0.15710334,-0.34417522,0.4901612,9.941568374633789,-0.987219512462616,9.921128273010254,0.20451100170612335,2.896469831466675, 3.0618255138397217
38,3057812565,0.78524184,0.15672703,-0.3439221,0.4904584,9.978689193725586,-1.146335244178772,10.011161804199219,0.21092696487903595,2.8827412128448486, 2.9557247161865234
39,3057829232,0.7852469,0.15626366,-0.34373033,0.49073258,10.047505378723145,-1.0116685628890991,9.830891609191895,-0.5416188836097717,2.8316309452056885, 3.068420648574829
40,3057845899,0.78523433,0.15588765,-0.34349373,0.4910379,10.093947410583496,-1.046615481376648,9.98093032836914,0.1351005882024765,2.7782671451568604, 3.004491090774536
41,3057862566,0.78524995,0.15531874,-0.34331337,0.49131912,10.130980491638184,-0.9284685254096985,10.040175437927246,-1.1857913732528687,3.166991710662842, 3.2943763732910156
42,3057879233,0.78521806,0.15487285,-0.34308594,0.49166974,10.14819049835205,-0.9098358750343323,9.877837181091309,-0.3053930103778839,2.9880993366241455, 3.3310275077819824
43,3057895900,0.78523064,0.15425448,-0.34293643,0.4919485,10.104357719421387,-1.0287494659423828,10.105962753295898,-1.759784460067749,3.186725378036499, 3.242522954940796
44,3057912567,0.78518957,0.153831,-0.34265637,0.49234134,10.153900146484375,-1.183203101158142,10.011200904846191,0.37320905923843384,3.1821792125701904, 3.7684412002563477
45,3057929234,0.78516984,0.15337636,-0.3424501,0.49265805,10.113398551940918,-0.9760748147964478,9.851248741149902,-0.4733099043369293,2.8912832736968994, 3.1980724334716797
46,3057945901,0.7851596,0.1528572,-0.34221193,0.4930012,10.013943672180176,-1.231189250946045,10.13036060333252,-0.6936688423156738,3.338776111602783, 3.397608518600464
47,3057962568,0.7851318,0.15245418,-0.34188595,0.49339604,10.191387176513672,-1.1431835889816284,10.029853820800781,0.3500424027442932,3.432377338409424, 3.3456270694732666
48,3057979235,0.7851459,0.15201858,-0.34162164,0.49369118,10.254073143005371,-1.041601538658142,10.008411407470703,-0.14399459958076477,3.181462526321411, 2.985832929611206
49,3057995902,0.78512627,0.15155618,-0.34138158,0.49403074,9.976693153381348,-1.1517199277877808,10.02712631225586,-0.4169235825538635,3.137831449508667, 3.237913131713867
50,3058012569,0.7850775,0.15130289,-0.3410973,0.49438208,10.037149429321289,-0.8348332047462463,9.884392738342285,1.0698487758636475,2.5868630409240723, 3.0217669010162354
51,3058029236,0.7850707,0.1507888,-0.34093422,0.4946623,10.080696105957031,-1.1444579362869263,10.208959579467773,-1.00704026222229,2.8510842323303223, 3.1929497718811035
52,3058045903,0.785016,0.15035556,-0.34072056,0.49502784,10.185553550720215,-1.2078211307525635,10.00382137298584,-0.0350894033908844,2.806044340133667, 3.6947412490844727
53,3058062570,0.784944,0.1500179,-0.34051412,0.49538648,10.205183029174805,-1.0106474161148071,9.931575775146484,0.09442123025655746,2.4518144130706787, 3.1128530502319336
54,3058079237,0.78490174,0.14949836,-0.34031427,0.4957479,10.126903533935547,-1.2878800630569458,10.182417869567871,-0.8310041427612305,3.0961148738861084, 3.5730364322662354
55,3058095904,0.7848607,0.14904323,-0.34000805,0.4961601,10.24974250793457,-1.2768126726150513,10.1052827835083,0.13695752620697021,3.48264217376709, 3.7297024726867676
56,3058112571,0.7848496,0.14851199,-0.33977714,0.49649456,10.190836906433105,-1.1215370893478394,10.020030975341797,-0.9387182593345642,3.3583567142486572, 3.2538695335388184
57,3058129238,0.78482556,0.14806972,-0.33950004,0.49685404,10.08103084564209,-1.2361900806427002,10.096979141235352,-0.048689745366573334,3.273258686065674, 3.3752224445343018
58,3058145905,0.784824,0.14753771,-0.33923665,0.4971947,10.166313171386719,-1.2819938659667969,10.151105880737305,-0.6368085741996765,3.5368642807006836, 3.4320571422576904
59,3058162572,0.78482115,0.14700083,-0.3389811,0.49753225,10.211023330688477,-1.0768567323684692,10.13687515258789,-0.743178129196167,3.5132105350494385, 3.388054132461548
60,3058179239,0.78477687,0.14643416,-0.3387823,0.49790472,10.087614059448242,-1.3285316228866577,10.053753852844238,-1.0830457210540771,3.26410174369812, 3.733876943588257
61,3058195906,0.78475416,0.1459834,-0.33852988,0.4982445,10.27060317993164,-1.14885413646698,10.193746566772461,-0.30280613899230957,3.161176919937134, 3.2300240993499756
62,3058212573,0.7846964,0.14553404,-0.33827278,0.49864116,10.238260269165039,-1.3022160530090332,10.111922264099121,-0.016507383435964584,3.139892578125, 3.754392385482788
63,3058229240,0.78466654,0.14506908,-0.33803982,0.49898157,10.205533027648926,-1.2389400005340576,10.089985847473145,-0.5672957301139832,3.1090681552886963, 3.1694371700286865
64,3058245907,0.7846351,0.14467514,-0.33776182,0.49933365,10.224213600158691,-1.3688856363296509,10.160449981689453,0.192613884806633,3.083916187286377, 3.238962411880493
65,3058262574,0.7846417,0.14422163,-0.33743703,0.4996737,10.290968894958496,-1.2215213775634766,10.264455795288086,-0.021783603355288506,3.6145925521850586, 3.147186517715454
66,3058279241,0.7846453,0.14378229,-0.33715445,0.4999855,10.389307975769043,-1.1868520975112915,10.222138404846191,-0.04892026260495186,3.2852838039398193, 3.1315433979034424
67,3058295908,0.7846604,0.14330673,-0.3368697,0.5002904,10.31009578704834,-1.2205981016159058,10.318416595458984,-0.3283804655075073,3.4537131786346436, 3.0703930854797363
68,3058312575,0.78461945,0.14293325,-0.3365843,0.50065297,10.381986618041992,-1.315293550491333,10.250927925109863,0.28315481543540955,3.05452561378479, 3.1974449157714844
69,3058329242,0.78458375,0.14243336,-0.336347,0.5010108,10.265057563781738,-1.2851169109344482,10.224343299865723,-0.4698009192943573,3.220188617706299, 3.6158411502838135
70,3058345909,0.7845761,0.14195941,-0.33610207,0.5013217,10.305436134338379,-1.233499526977539,10.257402420043945,-0.4618994891643524,3.1954472064971924, 3.1755335330963135
71,3058362576,0.78455675,0.14145073,-0.3358302,0.50167793,10.298247337341309,-1.2827521562576294,10.267602920532227,-0.3922713100910187,3.4695093631744385, 3.571255683898926
72,3058379243,0.7845576,0.14089002,-0.33559945,0.50198865,10.309301376342773,-1.2193019390106201,10.231907844543457,-0.9810432195663452,3.4376790523529053, 3.372533082962036
73,3058395910,0.7845338,0.14040262,-0.33531645,0.5023513,10.316614151000977,-1.271224856376648,10.278552055358887,-0.35328876972198486,3.478031635284424, 3.418994188308716
74,3058412577,0.7845079,0.13999495,-0.33499718,0.5027185,10.3141508102417,-1.0981123447418213,10.224305152893066,0.2369111180305481,3.394765853881836, 3.259479284286499
75,3058429244,0.784472,0.13948213,-0.33476922,0.5030687,10.32455062866211,-1.4115118980407715,10.302009582519531,-0.656658411026001,3.2244274616241455, 3.5597872734069824
76,3058445911,0.78443587,0.13900459,-0.33453727,0.5034115,10.31627368927002,-1.3680791854858398,10.357706069946289,-0.403963565826416,3.1054697036743164, 3.5078585147857666
77,3058462578,0.7843983,0.1385853,-0.33431515,0.5037329,10.335281372070312,-1.2676666975021362,10.21906852722168,-0.206259086728096,2.833975076675415, 3.2350568771362305
78,3058479245,0.78440833,0.13806412,-0.33404177,0.50404197,10.4964599609375,-1.4495662450790405,10.539815902709961,-0.5601496696472168,3.5462253093719482, 3.296501874923706
79,3058495912,0.78436494,0.13778359,-0.3336981,0.5044135,10.427752494812012,-1.2352683544158936,10.119585037231445,1.0315579175949097,3.056485176086426, 3.036046266555786
80,3058512579,0.78440726,0.13719866,-0.33342445,0.504688,10.319339752197266,-1.595690369606018,10.464888572692871,-0.9894315600395203,3.8119959831237793, 3.1760072708129883
81,3058529246,0.7844101,0.13673615,-0.33310944,0.505017,10.398990631103516,-1.4930223226547241,10.394134521484375,-0.05816643685102463,3.5775368213653564, 3.244213104248047
82,3058545913,0.7844175,0.13639642,-0.3327761,0.50531703,10.380575180053711,-1.1700844764709473,10.170886039733887,0.5586322546005249,3.2428691387176514, 2.730947971343994
83,3058562580,0.78447133,0.13577156,-0.33252943,0.5055643,10.379955291748047,-1.5552189350128174,10.62065315246582,-1.2741038799285889,3.792632818222046, 3.223339080810547
84,3058579247,0.78448516,0.13541178,-0.33218694,0.50586426,10.569134712219238,-1.120167851448059,10.276395797729492,0.6547054052352905,3.3431038856506348, 2.9605655670166016
85,3058595914,0.7845027,0.13489303,-0.3319048,0.50616086,10.41162109375,-1.3338814973831177,10.468214988708496,-0.4771261215209961,3.5913801193237305, 3.2981150150299072
86,3058612581,0.78449744,0.13445291,-0.33166006,0.50644654,10.40236759185791,-1.4001755714416504,10.432963371276855,-0.29218965768814087,3.0763351917266846, 3.0565621852874756
87,3058629248,0.7844847,0.13406092,-0.33134717,0.50677484,10.462427139282227,-1.4190268516540527,10.491355895996094,0.40198495984077454,3.2816081047058105, 3.250091791152954
88,3058645915,0.7844955,0.13364695,-0.3310873,0.5070371,10.499090194702148,-1.4088584184646606,10.416389465332031,-0.0015239554923027754,3.0521819591522217, 2.9980111122131348
89,3058662582,0.78451526,0.133266,-0.3307953,0.5072974,10.481403350830078,-1.4180923700332642,10.440011024475098,0.2232339084148407,3.1436195373535156, 2.793621778488159
90,3058679249,0.784555,0.13277331,-0.33046317,0.50758135,10.46745491027832,-1.5528569221496582,10.520769119262695,-0.12560468912124634,3.801891565322876, 3.162790536880493
91,3058695916,0.78460187,0.13229774,-0.33019298,0.5078088,10.595821380615234,-1.3075472116470337,10.366183280944824,-0.40153029561042786,3.3742871284484863, 2.827558755874634
92,3058712583,0.78463626,0.13183776,-0.32984796,0.5080993,10.401909828186035,-1.4102108478546143,10.454028129577637,0.02704060636460781,3.768479585647583, 3.027299404144287
93,3058729250,0.7846655,0.13132058,-0.32948878,0.5084211,10.530171394348145,-1.4516948461532593,10.5222806930542,-0.05359457805752754,4.035709857940674, 3.453648805618286
94,3058745917,0.7847046,0.13081239,-0.329209,0.50867325,10.429946899414062,-1.2125922441482544,10.299956321716309,-0.46650972962379456,3.5374021530151367, 3.0746448040008545
95,3058762584,0.7847759,0.13018104,-0.32893667,0.50890124,10.455854415893555,-1.466810703277588,10.721050262451172,-1.2919560670852661,3.989773988723755, 3.06247878074646
96,3058779251,0.78474367,0.12970625,-0.32865515,0.509254,10.405871391296387,-1.5883969068527222,10.296721458435059,-0.07409754395484924,3.3731093406677246, 3.695342779159546
97,3058795918,0.7848113,0.12922087,-0.32834908,0.5094708,10.522290229797363,-1.4106272459030151,10.585976600646973,-0.3626118302345276,3.6313111782073975, 2.7059500217437744
98,3058812585,0.78482485,0.12877305,-0.32805613,0.50975174,10.568351745605469,-1.6661959886550903,10.619733810424805,-0.03831660374999046,3.369370460510254, 3.141993522644043
99,3058829252,0.7848744,0.12845637,-0.32775888,0.5099464,10.432062149047852,-1.2215309143066406,10.229875564575195,0.45451653003692627,2.9403185844421387, 2.2450106143951416
100,3058845919,0.7849866,0.12779915,-0.3274959,0.51010793,10.495757102966309,-1.5506452322006226,10.858856201171875,-1.589063286781311,4.053677558898926, 2.7067699432373047
101,3058862586,0.7849873,0.12746862,-0.3271824,0.51039064,10.522509574890137,-1.4129313230514526,10.222028732299805,0.592248797416687,3.0644121170043945, 2.8150854110717773
102,3058879253,0.7850606,0.12699822,-0.32690686,0.5105718,10.459674835205078,-1.2366929054260254,10.48237133026123,-0.47397580742836,3.4032042026519775, 2.5042624473571777
103,3058895920,0.78505975,0.1265271,-0.32657272,0.51090366,10.410588264465332,-1.5238661766052246,10.549820899963379,0.0835934579372406,3.6996970176696777, 3.4785315990448
104,3058912587,0.78512406,0.12600082,-0.32626143,0.5111339,10.542344093322754,-1.2798311710357666,10.497121810913086,-0.5405688285827637,3.819563865661621, 2.8937933444976807
105,3058929254,0.7851755,0.12542178,-0.32601547,0.5113537,10.452856063842773,-1.531321406364441,10.558147430419922,-1.0473928451538086,3.6119606494903564, 3.0910751819610596
106,3058945921,0.78520477,0.12498007,-0.3257507,0.5115858,10.416582107543945,-1.5651941299438477,10.458211898803711,-0.30415078997612,3.2213797569274902, 2.7744252681732178
107,3058962588,0.78523934,0.12456712,-0.3254268,0.51183975,10.443238258361816,-1.4706264734268188,10.594775199890137,0.1820230484008789,3.4535329341888428, 2.8577303886413574
108,3058979255,0.7852829,0.12418993,-0.3250857,0.51208127,10.464579582214355,-1.5499097108840942,10.434863090515137,0.40842652320861816,3.4291372299194336, 2.6797096729278564
109,3058995922,0.7853509,0.12376588,-0.32477143,0.5122789,10.419257164001465,-1.4586023092269897,10.494511604309082,-0.061470482498407364,3.4725375175476074, 2.4820566177368164
110,3059012589,0.7853924,0.123481154,-0.32440102,0.5125187,10.508380889892578,-1.430079698562622,10.464679718017578,1.0425201654434204,3.254701852798462, 2.4972827434539795
111,3059029256,0.78545415,0.12300049,-0.3241074,0.51272523,10.447352409362793,-1.37285315990448,10.463903427124023,-0.5034688711166382,3.585336208343506, 2.5938045978546143
112,3059045923,0.785517,0.1225868,-0.32381925,0.51291007,10.439620971679688,-1.3560948371887207,10.46337604522705,-0.004277320578694344,3.2534468173980713, 2.5993242263793945
113,3059062590,0.78556883,0.122101165,-0.32358888,0.51309174,10.458868026733398,-1.4592307806015015,10.498922348022461,-0.742896318435669,3.210660696029663, 2.6477575302124023
114,3059079257,0.78561467,0.12175013,-0.32323492,0.513328,10.45862102508545,-1.3738789558410645,10.433401107788086,0.5904560089111328,3.4283432960510254, 2.6222732067108154
115,3059095924,0.78566855,0.121402435,-0.32291555,0.51352906,10.600954055786133,-1.3865715265274048,10.432591438293457,0.38152042031288147,3.2280266284942627, 2.4070756435394287
116,3059112591,0.7857573,0.12096795,-0.32252494,0.51374096,10.540787696838379,-1.5881011486053467,10.698284149169922,0.2716675102710724,3.9824745655059814, 2.62922739982605
117,3059129258,0.7858446,0.12063587,-0.32217053,0.513908,10.65829849243164,-1.4238395690917969,10.372665405273438,0.5188301801681519,3.4099793434143066, 2.093640089035034
118,3059145925,0.78594977,0.12021869,-0.32178503,0.5140867,10.582536697387695,-1.562217116355896,10.71579360961914,0.29571783542633057,3.9049570560455322, 2.4153099060058594
119,3059162592,0.78602517,0.1198554,-0.321432,0.514277,10.611733436584473,-1.508741021156311,10.377881050109863,0.39638856053352356,3.521432876586914, 2.3299171924591064
120,3059179259,0.78612053,0.11950405,-0.32107553,0.51443565,10.45373249053955,-1.2689238786697388,10.425431251525879,0.4319133460521698,3.5100858211517334, 2.121685266494751
121,3059195926,0.7861659,0.11905174,-0.32070756,0.51470083,10.521611213684082,-1.443239688873291,10.715863227844238,-0.26843392848968506,4.038451194763184, 2.4682388305664062
122,3059212593,0.7862457,0.11865241,-0.32037446,0.5148783,10.607033729553223,-1.3337526321411133,10.4193115234375,0.2919911742210388,3.4871373176574707, 2.611298084259033
123,3059229260,0.78633034,0.11818188,-0.32006758,0.515048,10.586729049682617,-1.364372730255127,10.547355651855469,-0.4518592357635498,3.6719067096710205, 2.406383514404297
124,3059245927,0.786387,0.11771412,-0.31976432,0.5152572,10.627806663513184,-1.5057947635650635,10.605412483215332,-0.27934494614601135,3.59382700920105, 2.7991416454315186
125,3059262594,0.7864093,0.117326595,-0.31940806,0.51553226,10.664597511291504,-1.2792506217956543,10.603869438171387,0.09609244763851166,3.6958167552948, 2.490034818649292
126,3059279261,0.7864363,0.11685662,-0.31911492,0.5157794,10.729081153869629,-1.4432756900787354,10.616135597229004,-0.640842616558075,3.6354219913482666, 2.5561797618865967
127,3059295928,0.78650165,0.116346605,-0.31882024,0.5159771,10.632953643798828,-1.5554044246673584,10.60593318939209,-0.46957048773765564,3.6770942211151123, 2.9527413845062256
128,3059312595,0.78656816,0.11592585,-0.31852537,0.5161525,10.666292190551758,-1.5054398775100708,10.43366813659668,0.03756742924451828,3.3246631622314453, 2.7339060306549072
129,3059329262,0.7866377,0.11546793,-0.31825325,0.5163169,10.535367012023926,-1.5285886526107788,10.510138511657715,-0.4215594530105591,3.381049633026123, 2.556691884994507
130,3059345929,0.7866506,0.11500374,-0.31793162,0.51659894,10.520489692687988,-1.5255318880081177,10.418246269226074,-0.4019913673400879,3.7724502086639404, 2.780508518218994
131,3059362596,0.7867401,0.11458692,-0.3175626,0.5167822,10.540334701538086,-1.378084421157837,10.431259155273438,0.22880466282367706,3.804222345352173, 2.5068750381469727
132,3059379263,0.78685164,0.114076145,-0.31731036,0.5168803,10.564373970031738,-1.4330347776412964,10.428311347961426,-0.8921670913696289,3.4883663654327393, 2.2804203033447266
133,3059395930,0.7869402,0.11362031,-0.31696424,0.51705825,10.526439666748047,-1.519500970840454,10.526717185974121,-0.018863756209611893,3.8014438152313232, 2.677532911300659
134,3059412597,0.7870381,0.1131914,-0.3166513,0.5171952,10.649415016174316,-1.2934225797653198,10.430093765258789,-0.1405625194311142,3.5334577560424805, 2.3203892707824707
135,3059429264,0.7870458,0.11285446,-0.31632143,0.5174589,10.499685287475586,-1.3677849769592285,10.41805362701416,0.29240095615386963,3.357933521270752, 2.454087018966675
136,3059445931,0.7871325,0.112458386,-0.31600162,0.51760876,10.396148681640625,-1.3842120170593262,10.319504737854004,0.04502072185277939,3.4661600589752197, 2.2969532012939453
137,3059462598,0.7872007,0.11211497,-0.31564358,0.5177978,10.4313325881958,-1.4641200304031372,10.379597663879395,0.5090076327323914,3.4988551139831543, 2.356656789779663
138,3059479265,0.78724384,0.111770295,-0.3152453,0.5180494,10.485169410705566,-1.2815957069396973,10.313377380371094,0.4427347183227539,3.8381974697113037, 2.243589401245117
139,3059495932,0.78727925,0.11131638,-0.3148925,0.51830757,10.49151611328125,-1.4847203493118286,10.333564758300781,-0.2935855984687805,3.97709584236145, 2.582740068435669
140,3059512599,0.7872958,0.1109624,-0.31447986,0.51860887,10.426397323608398,-1.3083670139312744,10.358773231506348,0.5681089162826538,3.9450156688690186, 2.623950719833374
141,3059529266,0.78732705,0.11049008,-0.31412613,0.51887643,10.53961181640625,-1.3171159029006958,10.43619441986084,-0.3703596293926239,4.061232566833496, 2.692951202392578
142,3059545933,0.78733647,0.11001198,-0.3138058,0.5191578,10.49410343170166,-1.3763889074325562,10.383724212646484,-0.4776127338409424,3.8728129863739014, 2.8877227306365967
143,3059562600,0.7874409,0.10948515,-0.31355453,0.51926225,10.425047874450684,-1.2643024921417236,10.33835506439209,-0.8578717112541199,3.548684597015381, 2.6227595806121826
144,3059579267,0.78746766,0.10890386,-0.31326964,0.5195161,10.428390502929688,-1.4461196660995483,10.538080215454102,-1.2357231378555298,4.080442428588867, 2.9434309005737305
145,3059595934,0.7875,0.10852556,-0.31295854,0.5197336,10.520743370056152,-1.2605998516082764,10.26400375366211,-0.1272951066493988,3.4889681339263916, 2.2720704078674316
146,3059612601,0.78754586,0.10810899,-0.31267402,0.5199223,10.434736251831055,-1.389177680015564,10.37657642364502,-0.505671501159668,3.5002634525299072, 2.1761763095855713
147,3059629268,0.78755844,0.107801504,-0.31232163,0.52017874,10.389202117919922,-1.5031548738479614,10.349960327148438,0.49539443850517273,3.4660704135894775, 2.379361867904663
148,3059645935,0.7876071,0.10751512,-0.31199828,0.52035815,10.516228675842285,-1.102870225906372,10.269537925720215,0.31303200125694275,3.2630770206451416, 1.8113237619400024
149,3059662602,0.7877201,0.107121564,-0.31174266,0.5204215,10.449445724487305,-1.3077682256698608,10.320484161376953,-0.1768941432237625,3.111706495285034, 2.2153003215789795
150,3059679269,0.78782356,0.106771536,-0.31142083,0.5205296,10.525365829467773,-1.2361738681793213,10.403666496276855,0.3597880005836487,3.3469457626342773, 2.3010003566741943
151,3059695936,0.78783983,0.10646137,-0.31117836,0.5207135,10.490571022033691,-1.1103962659835815,10.127679824829102,-0.07174116373062134,2.864556074142456, 2.093549966812134
152,3059712603,0.78786683,0.10608796,-0.31086463,0.52093637,10.562758445739746,-1.450076937675476,10.533778190612793,-0.08660934120416641,3.532433032989502, 2.3521101474761963
153,3059729270,0.7879951,0.10575361,-0.31051958,0.521016,10.674516677856445,-1.2228202819824219,10.233887672424316,0.6003423929214478,3.392587661743164, 2.2633109092712402
154,3059745937,0.78806674,0.105371684,-0.31022444,0.52116084,10.630060195922852,-1.1362498998641968,10.432419776916504,-0.3898509740829468,3.501147747039795, 1.811157464981079
155,3059762604,0.7880856,0.10508518,-0.30986783,0.5214022,10.614664077758789,-1.3711053133010864,10.441274642944336,0.5885478258132935,3.449857473373413, 2.2766294479370117
156,3059779271,0.78812075,0.1048758,-0.30949175,0.5216145,10.712425231933594,-1.141596794128418,10.357391357421875,1.0040884017944336,3.2928526401519775, 1.8822200298309326
157,3059795938,0.7881538,0.104563385,-0.30922562,0.5217851,10.63931655883789,-1.2005690336227417,10.446746826171875,-0.03823976218700409,3.036046266555786, 1.9642316102981567
158,3059812605,0.7883052,0.10424916,-0.30889076,0.5218178,10.606597900390625,-1.1928317546844482,10.423669815063477,0.6069634556770325,3.259645462036133, 2.012627124786377
159,3059829272,0.7883253,0.10395298,-0.30857515,0.52203315,10.756207466125488,-1.1153889894485474,10.457560539245605,0.33539196848869324,3.252474308013916, 2.1973328590393066
160,3059845939,0.7884674,0.10361947,-0.3082835,0.52205706,10.760228157043457,-1.0231432914733887,10.448477745056152,0.35261645913124084,3.064758062362671, 2.1199569702148438
161,3059862606,0.788487,0.10310656,-0.30803055,0.52227825,10.862700462341309,-1.337131381034851,10.662834167480469,-1.0520161390304565,3.703218936920166, 2.753384590148926
162,3059879273,0.78847116,0.102764435,-0.3077449,0.522538,10.932915687561035,-1.0730831623077393,10.499637603759766,0.0980774387717247,3.225311517715454, 2.706423759460449
163,3059895940,0.7884852,0.10233802,-0.3075114,0.5227379,10.884538650512695,-1.0639777183532715,10.607878684997559,-0.6982661485671997,3.275742530822754, 2.494478464126587
164,3059912607,0.7884514,0.10194971,-0.3072648,0.5230099,10.861854553222656,-1.2980026006698608,10.666584968566895,-0.2633498013019562,3.1669657230377197, 2.9721169471740723
165,3059929274,0.78842086,0.10165618,-0.30705404,0.5232365,10.906705856323242,-1.115535020828247,10.408501625061035,0.022571194916963577,2.6144227981567383, 2.5422720909118652
166,3059945941,0.7884013,0.10130499,-0.30686945,0.5234424,10.921330451965332,-1.2598763704299927,10.746265411376953,-0.439091295003891,2.70031476020813, 2.5350873470306396
167,3059962608,0.78836477,0.101059325,-0.3067125,0.523637,11.020740509033203,-1.1647924184799194,10.510265350341797,0.01901102252304554,2.134990930557251, 2.3356025218963623
168,3059979275,0.7883226,0.100836225,-0.30659783,0.52381027,10.898070335388184,-1.224420428276062,10.438379287719727,-0.05533623695373535,1.8110548257827759, 2.2268128395080566
169,3059995942,0.7882923,0.100545935,-0.30649662,0.5239711,10.780850410461426,-1.2054259777069092,10.568666458129883,-0.5047751069068909,2.008106231689453, 2.2722883224487305
170,3060012609,0.78822184,0.10036563,-0.30641592,0.5241588,10.918135643005371,-1.1950058937072754,10.469319343566895,0.09841039776802063,1.4436534643173218, 2.3491265773773193
171,3060029276,0.7881613,0.10015408,-0.3063721,0.52431583,10.875410079956055,-1.1217914819717407,10.521864891052246,-0.2784356474876404,1.3687361478805542, 2.243845224380493
172,3060045943,0.78805584,0.100066915,-0.3063162,0.5245238,10.933553695678711,-1.2751004695892334,10.475862503051758,0.5726935863494873,0.9380074739456177, 2.4176149368286133
173,3060062610,0.78794414,0.09996007,-0.30637985,0.5246749,10.936302185058594,-1.2041360139846802,10.379570960998535,-0.08311320841312408,0.3221885561943054, 2.259814977645874
174,3060079277,0.7878214,0.09983733,-0.3064739,0.52482736,10.74886703491211,-1.389343023300171,10.368961334228516,-0.27117443084716797,0.20798151195049286, 2.366927146911621
175,3060095944,0.7877056,0.09975727,-0.30647534,0.5250155,10.746580123901367,-1.195349931716919,10.361591339111328,0.3639757037162781,0.6062846183776855, 2.384356737136841
176,3060112611,0.78759253,0.0996585,-0.30657458,0.5251459,10.725967407226562,-1.100500226020813,9.929656982421875,-0.2178872525691986,0.12257597595453262, 2.17478084564209
177,3060129278,0.7874745,0.099457555,-0.30658358,0.5253557,10.761537551879883,-1.3787555694580078,10.371994972229004,-0.2789607048034668,1.0419310331344604, 2.7825446128845215
178,3060145945,0.7873392,0.09929907,-0.30653223,0.52561826,10.868319511413574,-1.149591326713562,10.157622337341309,0.2908385694026947,1.227546215057373, 3.0039658546447754
179,3060162612,0.7872331,0.09911706,-0.30651277,0.52582276,10.80698299407959,-1.0640051364898682,10.0277738571167,-0.0991467535495758,1.179586410522461, 2.6628949642181396
180,3060179279,0.7871178,0.09880616,-0.30658758,0.5260108,10.603728294372559,-1.436879277229309,10.1061429977417,-1.1706794500350952,1.1197296380996704, 2.950537919998169
181,3060195946,0.7869797,0.098743334,-0.30648366,0.52628946,10.439199447631836,-1.2985210418701172,9.915396690368652,1.0275496244430542,1.207824468612671, 2.8771450519561768
182,3060212613,0.78690624,0.09850551,-0.3064161,0.5264832,10.52869701385498,-1.2322888374328613,10.002707481384277,-0.27209651470184326,1.723075270652771, 2.5763626098632812
183,3060229280,0.7868479,0.09828422,-0.30631056,0.52667296,10.601015090942383,-1.209252953529358,9.990894317626953,-0.06319934129714966,1.8971518278121948, 2.4393727779388428
184,3060245947,0.7868022,0.098004565,-0.30623218,0.5268393,10.546676635742188,-1.287994623184204,9.944193840026855,-0.5352286100387573,1.9720690250396729, 2.407344102859497
185,3060262614,0.7867546,0.09780357,-0.30618787,0.52697307,10.46718692779541,-1.2265520095825195,9.940069198608398,-0.2983495593070984,1.4758999347686768, 2.094561815261841
186,3060279281,0.78667796,0.097727485,-0.30612028,0.52714086,10.277190208435059,-1.2644928693771362,9.894561767578125,0.5528821349143982,1.1089850664138794, 2.104243516921997
187,3060295948,0.78660494,0.09780756,-0.3061347,0.5272266,10.480430603027344,-1.2883902788162231,9.860472679138184,0.9263538122177124,0.048222314566373825, 1.3724757432937622
188,3060312615,0.78648645,0.09795784,-0.3062147,0.527329,10.306647300720215,-1.309226393699646,9.75662899017334,1.13502037525177,-0.6440953612327576, 1.5230399370193481
189,3060329282,0.7863945,0.098117635,-0.30631202,0.52738,10.329163551330566,-1.2401669025421143,9.784846305847168,0.9988760948181152,-0.7506954669952393, 1.1391313076019287
190,3060345949,0.7863128,0.09831739,-0.30647615,0.5273692,10.520922660827637,-1.2971137762069702,9.888495445251465,0.8355695605278015,-1.275346040725708, 0.7292384505271912
191,3060362616,0.78619415,0.098758616,-0.30662414,0.5273779,10.382431983947754,-1.2137657403945923,9.453583717346191,2.2657699584960938,-2.124624490737915, 0.4506618082523346
192,3060379283,0.7860379,0.09932488,-0.30665103,0.5274887,10.342029571533203,-1.2381614446640015,9.658061981201172,3.621232271194458,-1.924960732460022, 0.7937055230140686
193,3060395950,0.7858237,0.09996263,-0.30665356,0.52768576,10.250441551208496,-1.1895802021026611,9.453531265258789,4.316745281219482,-2.1109859943389893, 1.304333209991455
194,3060412617,0.78569,0.10061964,-0.30659008,0.52779686,10.230128288269043,-0.9424615502357483,9.52302360534668,4.423268795013428,-1.7063053846359253, 0.4636474847793579
195,3060429284,0.7854891,0.101207584,-0.30659434,0.52798104,10.270426750183105,-1.1460949182510376,9.677813529968262,3.9994044303894043,-1.906661033630371, 1.3001199960708618
196,3060445951,0.7851114,0.10201045,-0.3065243,0.52842873,10.265621185302734,-1.3630081415176392,9.480637550354004,6.106266498565674,-2.469128370285034, 2.861687660217285
197,3060462618,0.78455955,0.10317899,-0.30622846,0.52919227,10.228690147399902,-1.5439473390579224,9.506327629089355,9.69081974029541,-2.715421438217163, 4.269325256347656
198,3060479285,0.7839066,0.10476121,-0.30569822,0.530155,10.189902305603027,-1.372144103050232,9.479554176330566,13.27183723449707,-3.019239902496338, 4.671483993530273
199,3060495952,0.7831137,0.10674995,-0.30493626,0.5313676,9.993226051330566,-1.3496387004852295,9.295077323913574,16.935747146606445,-3.356997013092041, 5.505309581756592
200,3060512619,0.7823159,0.1089242,-0.30406615,0.5325986,10.007043838500977,-0.9758861064910889,9.237393379211426,18.374719619750977,-3.44014835357666, 5.15173864364624
201,3060529286,0.78166294,0.11073605,-0.30337706,0.5335762,9.957900047302246,-0.8108569383621216,9.081282615661621,15.120094299316406,-2.96390438079834, 4.154338836669922
202,3060545953,0.78116745,0.11227579,-0.30290663,0.53424644,10.015625,-0.702422559261322,9.094147682189941,12.088810920715332,-3.034210205078125, 2.663754463195801
203,3060562620,0.78070647,0.113726184,-0.30255255,0.5348139,9.903741836547852,-0.5733042359352112,9.04727554321289,10.933100700378418,-3.325183391571045, 2.2665011882781982
204,3060579287,0.78019327,0.115326285,-0.3021827,0.5354292,9.817010879516602,-0.8683942556381226,9.199830055236816,11.926578521728516,-3.8510122299194336, 2.3998148441314697
205,3060595954,0.779578,0.116941795,-0.301703,0.5362446,9.852161407470703,-0.9696066975593567,8.849204063415527,12.909186363220215,-3.3643200397491455, 3.736274003982544
206,3060612621,0.779007,0.1184474,-0.3012798,0.53698134,9.77837085723877,-0.5903943181037903,8.545271873474121,11.91139030456543,-3.217763662338257, 3.4216465950012207
207,3060629288,0.77853227,0.11954501,-0.30116114,0.5374929,9.77132511138916,-0.47164154052734375,8.627184867858887,8.051565170288086,-3.308854341506958, 2.9598491191864014
208,3060645955,0.77817565,0.12039177,-0.30121952,0.5377876,9.71299934387207,-0.3940325379371643,8.705909729003906,5.500885486602783,-3.247396230697632, 2.0366899967193604
209,3060662622,0.7778572,0.12123529,-0.3013978,0.5379588,9.70145034790039,-0.631587028503418,8.56937026977539,4.742864608764648,-3.885575532913208, 1.3481823205947876
210,3060679289,0.7774437,0.1222662,-0.30158383,0.53821915,9.613679885864258,-0.6355172395706177,8.31663703918457,5.977909088134766,-4.7307820320129395, 1.7996703386306763
211,3060695956,0.7769957,0.12316035,-0.30184165,0.5385173,9.541545867919922,-0.3119087815284729,8.319905281066895,5.088135719299316,-4.639535903930664, 2.475102424621582
212,3060712623,0.7766366,0.12362886,-0.30234465,0.53864574,9.452786445617676,-0.28023895621299744,8.161108016967773,1.4742350578308105,-4.330211162567139, 2.336012601852417
213,3060729290,0.7763459,0.12387042,-0.3028948,0.53870016,9.487870216369629,-0.42760568857192993,8.22226333618164,-0.1277945637702942,-3.6619372367858887, 2.2050933837890625
214,3060745957,0.77619326,0.12389809,-0.30349275,0.53857714,9.444811820983887,-0.33530110120773315,8.001731872558594,-1.933541178703308,-2.9903597831726074, 1.2366132736206055
215,3060762624,0.7759713,0.124166936,-0.30413142,0.53847486,9.144266128540039,-0.7272729873657227,7.977480411529541,-0.6987273097038269,-4.227261066436768, 1.135046124458313
216,3060779291,0.7756696,0.12480828,-0.30453715,0.53853214,9.167677879333496,-0.7954168915748596,8.089165687561035,2.557229995727539,-4.399558067321777, 1.2975587844848633
217,3060795958,0.77535135,0.12560712,-0.30486268,0.53862065,9.233213424682617,-0.6546379923820496,8.005154609680176,3.77899432182312,-4.568755626678467, 1.1203829050064087
218,3060812625,0.7751163,0.1263629,-0.30508998,0.5386533,9.143309593200684,-0.6711124777793884,7.7876105308532715,3.725950241088867,-3.7620835304260254, 0.5151802897453308
219,3060829292,0.7749878,0.12693596,-0.3052617,0.5386062,9.055558204650879,-0.48180055618286133,7.859902381896973,2.7010574340820312,-2.6356489658355713, 0.027821794152259827
220,3060845959,0.77491266,0.12738438,-0.30544126,0.5385065,8.938530921936035,-0.34110888838768005,7.692138195037842,1.8533159494400024,-2.1542584896087646, -0.17539577186107635
221,3060862626,0.7748567,0.12784433,-0.30563223,0.5383697,8.759420394897461,-0.46405428647994995,7.766575336456299,1.7743263244628906,-2.251330614089966, -0.4559444785118103
222,3060879293,0.7746985,0.1285098,-0.30575505,0.53836924,8.629415512084961,-0.8738990426063538,7.618201732635498,3.495755434036255,-2.7482810020446777, 0.1546814888715744
223,3060895960,0.77441823,0.12944272,-0.30584207,0.53849953,8.575439453125,-0.6505869030952454,7.547708511352539,5.442052364349365,-3.692173719406128, 0.7022427320480347
224,3060912627,0.77410865,0.13039543,-0.3060601,0.53859097,8.57267951965332,-0.3266262710094452,7.502978324890137,5.008647918701172,-4.561251163482666, 0.6752085089683533
225,3060929294,0.7737582,0.13146468,-0.30636165,0.5386632,8.429786682128906,-0.5884199142456055,7.332919120788574,5.309506893157959,-5.539592742919922, 0.5526772737503052
226,3060945961,0.7733515,0.13256781,-0.30677235,0.53874314,8.30607795715332,-0.6621363759040833,7.22489595413208,5.155383110046387,-6.357726097106934, 0.8296787738800049
227,3060962628,0.77289844,0.13341945,-0.30731148,0.53887576,8.23326587677002,-0.5576726198196411,7.5026373863220215,3.500839948654175,-6.158868312835693, 1.9293984174728394
228,3060979295,0.7726271,0.13320617,-0.3083433,0.53872794,8.366662979125977,-0.531052827835083,7.399975299835205,-4.755600452423096,-4.704977035522461, 2.4458916187286377
229,3060995962,0.77248544,0.13204212,-0.30993015,0.53830713,8.39540958404541,-0.500342071056366,7.038984298706055,-12.559541702270508,-4.106666088104248, 3.0436294078826904
230,3061012629,0.77244455,0.12961379,-0.31223962,0.5376209,8.187139511108398,-0.36312827467918396,6.868358135223389,-22.59241485595703,-3.289278507232666, 4.639729976654053
231,3061029296,0.7724766,0.12621205,-0.31521836,0.5366451,8.03088665008545,-0.9276971817016602,6.488378524780273,-30.951416015625,-3.333709478378296, 5.485945224761963
232,3061045963,0.77246857,0.12277425,-0.31828845,0.53564113,7.904314994812012,-0.8990395665168762,6.673038005828857,-31.465831756591797,-3.801015615463257, 5.697943687438965
233,3061062630,0.7724432,0.119626045,-0.3212277,0.53463465,7.794138431549072,-0.997742772102356,6.6294050216674805,-29.30938720703125,-4.257356643676758, 5.208186626434326
234,3061079297,0.77264214,0.11724686,-0.32362574,0.5334264,7.733832359313965,-0.9137105941772461,6.611267566680908,-21.60499382019043,-4.80063533782959, 4.804189682006836
235,3061095964,0.7728368,0.114524074,-0.3261703,0.5321847,7.745075225830078,-0.9908382892608643,6.42390775680542,-24.451383590698242,-4.206844329833984, 4.843916893005371
236,3061112631,0.7729755,0.1111812,-0.32912192,0.53087324,7.620425224304199,-1.7238306999206543,6.4761762619018555,-29.59515953063965,-4.1935811042785645, 5.979271411895752
237,3061129298,0.7729933,0.10656598,-0.33287165,0.5294541,7.521171569824219,-1.9370630979537964,6.6602253913879395,-40.272361755371094,-3.781161069869995, 7.947263240814209
238,3061145965,0.7728557,0.100605644,-0.33753446,0.5278666,7.463645935058594,-1.9978424310684204,6.270056247711182,-51.91426467895508,-3.8061869144439697, 9.916918754577637
239,3061162632,0.77266943,0.094036,-0.34263414,0.526062,7.4952216148376465,-1.252388596534729,5.894227981567383,-57.49314498901367,-4.023291110992432, 10.187862396240234
240,3061179299,0.77249634,0.08702815,-0.34826913,0.5238169,7.527576923370361,-1.1688854694366455,5.666173458099365,-63.487789154052734,-5.147894859313965, 8.145039558410645
241,3061195966,0.77207124,0.081230044,-0.35370126,0.52173126,7.825767517089844,-0.8838186264038086,5.500351905822754,-56.18564224243164,-8.67436408996582, 6.33801794052124
242,3061212633,0.77139443,0.07749029,-0.35927525,0.5194877,8.691154479980469,-1.5466820001602173,4.378983497619629,-45.85129928588867,-17.55875587463379, 1.795676827430725
243,3061229300,0.76944745,0.07849389,-0.36553943,0.5178516,9.439268112182617,-1.4897221326828003,-0.841442883014679,-21.658117294311523,-40.493709564208984, -2.728156805038452
244,3061245967,0.7658887,0.0835753,-0.37373152,0.51648283,10.174727439880371,-0.4000121057033539,-2.554643154144287,-5.427947521209717,-68.9322509765625, -4.736290454864502
245,3061262634,0.76091284,0.090203956,-0.3849861,0.514452,9.649520874023438,-0.2140911966562271,-1.19371497631073,-9.067760467529297,-94.3754653930664, -5.2843241691589355
246,3061279301,0.7549106,0.0980673,-0.3977563,0.5121357,8.73745346069336,0.24293944239616394,1.4836161136627197,-8.28395938873291,-109.33145141601562, -5.517477989196777
247,3061295968,0.74861276,0.10629891,-0.41060045,0.5095948,7.6438751220703125,-0.188400536775589,5.223406791687012,-7.2902350425720215,-111.81678009033203, -6.623122692108154
248,3061312635,0.7426474,0.11629618,-0.42021465,0.5083008,6.226414203643799,0.1243162676692009,8.366039276123047,18.83959197998047,-100.91059112548828, -5.864566326141357
249,3061329302,0.737838,0.124964334,-0.42754042,0.50713724,5.603594779968262,0.049905408173799515,9.550230979919434,19.45065689086914,-81.26439666748047, -7.210422515869141
250,3061345969,0.7344035,0.13276973,-0.43192512,0.5064233,4.993980884552002,0.4824496805667877,8.727530479431152,25.409374237060547,-59.073692321777344, -9.703707695007324
251,3061362636,0.7323214,0.13835761,-0.43465546,0.5056058,4.7112627029418945,0.08620060980319977,7.111945152282715,18.371442794799805,-39.23245620727539, -9.842041015625
252,3061379303,0.73109794,0.1437797,-0.43478885,0.505749,4.116300106048584,-0.09020321071147919,6.650732040405273,28.578004837036133,-22.218399047851562, -9.96134090423584
253,3061395970,0.7308815,0.14825584,-0.43392947,0.5055075,4.187320232391357,-1.1535621881484985,5.206608772277832,25.097347259521484,-11.422419548034668, -13.553338050842285
254,3061412637,0.73068166,0.15180112,-0.43252778,0.50594527,4.749578475952148,-1.9439237117767334,2.330700397491455,24.31102180480957,-4.793376922607422, -8.002796173095703
255,3061429304,0.7302489,0.15479344,-0.43147585,0.5065612,5.711657524108887,-1.8216187953948975,-0.08389019966125488,21.119953155517578,-5.123214244842529, -4.3308844566345215
256,3061445971,0.72957826,0.15831432,-0.4303326,0.50741124,6.176616668701172,-0.7820636034011841,0.5794847011566162,25.0815486907959,-6.875771522521973, -4.025762557983398
257,3061462638,0.72922987,0.1607768,-0.42997357,0.5074424,5.982148170471191,-0.8213862180709839,2.4306018352508545,14.28061294555664,-6.979135036468506, -5.275351047515869
258,3061479305,0.7289642,0.16243719,-0.4299192,0.507341,5.8730854988098145,-0.9286235570907593,3.530679702758789,8.718968391418457,-5.587667942047119, -3.5244626998901367
259,3061495972,0.7286672,0.16332011,-0.4301775,0.50726557,6.122035980224609,-0.9388799071311951,3.9208781719207764,3.844050645828247,-4.515007495880127, -0.6444028615951538
260,3061512639,0.7282866,0.16371308,-0.43054664,0.5073721,6.374397277832031,-0.8189146518707275,3.8222591876983643,1.633545994758606,-3.4176175594329834, 2.128178596496582
261,3061529306,0.72789764,0.1637233,-0.43113545,0.5074268,6.338720321655273,-0.9598085284233093,3.2241475582122803,-1.1958954334259033,-3.270716905593872, 3.280635356903076
262,3061545973,0.7272628,0.1644107,-0.4315584,0.5077552,6.061066150665283,-0.965095579624176,2.198948621749878,3.8635284900665283,-5.212530136108398, 3.312535524368286
263,3061562640,0.726462,0.16548245,-0.43224218,0.507972,6.0433669090271,-0.6856238842010498,1.740632176399231,4.741162300109863,-8.444087028503418, 2.4844133853912354
264,3061579307,0.72558403,0.16721866,-0.43340868,0.50766414,6.087052345275879,0.3749214708805084,1.6055259704589844,4.909901142120361,-13.956808090209961, -1.2874104976654053
265,3061595974,0.72477794,0.16919033,-0.4353695,0.50648296,5.928985118865967,0.7160830497741699,1.8588893413543701,0.6139051914215088,-19.483081817626953, -5.648824691772461
266,3061612641,0.72356445,0.17196877,-0.43702024,0.50586015,5.670834541320801,-0.7005554437637329,2.3770511150360107,7.837916374206543,-21.28076171875, -4.181600570678711
267,3061629308,0.7220816,0.17538929,-0.4380514,0.50591284,4.754400730133057,-0.24918973445892334,3.5779783725738525,15.539587020874023,-20.425804138183594, -2.548687219619751
268,3061645975,0.7209826,0.177323,-0.43956208,0.50549567,4.751866340637207,-0.38231360912323,3.47520112991333,4.600525856018066,-17.08248519897461, -1.1554030179977417
269,3061662642,0.7203169,0.17889424,-0.43996546,0.50554,4.008153438568115,0.738092839717865,4.4802141189575195,7.509204864501953,-8.495389938354492, -0.6257569789886475
270,3061679309,0.7206767,0.17845635,-0.44032466,0.50486887,4.221054553985596,1.3508516550064087,3.6910367012023926,-5.751255035400391,0.8502967953681946, -1.679463267326355
271,3061695976,0.72125816,0.17753243,-0.440498,0.5042129,5.0720343589782715,0.21371136605739594,1.3750265836715698,-7.786517143249512,4.099281311035156, -1.0797547101974487
272,3061712643,0.7215183,0.17753069,-0.440806,0.5035716,5.56150484085083,-0.22962702810764313,0.6861621737480164,-3.2510712146759033,-0.6799403429031372, -2.5002987384796143
273,3061729310,0.7212274,0.17900045,-0.4409803,0.5033155,5.40385627746582,-0.637296199798584,1.1766982078552246,6.358540058135986,-6.237910747528076, -3.294088840484619
274,3061745977,0.72061956,0.1816118,-0.4407628,0.50344104,4.712986946105957,-0.10401222854852676,2.6619174480438232,14.933967590332031,-8.682687759399414, -4.252416610717773
275,3061762644,0.7200156,0.18432824,-0.44024315,0.50377256,4.492027282714844,-0.25965768098831177,3.260503053665161,17.110990524291992,-7.2869768142700195, -3.9340007305145264
276,3061779311,0.7194939,0.18656921,-0.43976018,0.50411457,4.8139190673828125,-0.622158944606781,2.8229732513427734,14.547992706298828,-5.58856725692749, -2.6815109252929688
277,3061795978,0.7190704,0.18814334,-0.4396777,0.5042059,4.915281295776367,-1.0975703001022339,2.1941511631011963,8.978464126586914,-5.29155969619751, -1.7399351596832275
278,3061812645,0.7187727,0.18914267,-0.43993443,0.50403243,4.579032897949219,-1.0277414321899414,1.924731969833374,4.013798236846924,-4.923759937286377, -1.3295681476593018
279,3061829312,0.71865326,0.18981953,-0.44038904,0.50355095,3.9219939708709717,-0.6829395890235901,2.0213544368743896,0.5860506892204285,-4.6305460929870605, -2.25726056098938
280,3061845979,0.7188616,0.18991557,-0.44100818,0.5026747,3.8204894065856934,-0.4530196189880371,1.8223551511764526,-4.470160484313965,-2.9584338665008545, -3.3805954456329346
281,3061862646,0.71933115,0.18945858,-0.441816,0.5014647,3.9452998638153076,-0.5142127275466919,1.3317617177963257,-9.206807136535645,-1.6218092441558838, -4.013037204742432
282,3061879313,0.71987796,0.18887407,-0.44259322,0.50021356,3.574204206466675,-0.36243003606796265,1.0630830526351929,-9.951727867126465,-0.8285070657730103, -4.138949394226074
283,3061895980,0.72017145,0.18883096,-0.44316426,0.49930102,3.1285526752471924,-0.5759078860282898,1.1948028802871704,-5.19962215423584,-1.978683590888977, -3.5075442790985107
284,3061912647,0.72002906,0.18978608,-0.4434076,0.49892828,2.9423515796661377,-0.6021224856376648,1.4641271829605103,3.087463617324829,-4.401529788970947, -2.8164238929748535
285,3061929314,0.7196578,0.19154446,-0.44329056,0.4988957,3.1851203441619873,-0.5413568615913391,1.606156826019287,9.643064498901367,-5.630660533905029, -3.281052589416504
286,3061945981,0.7194935,0.19324736,-0.4429219,0.4988034,3.589268922805786,-0.4650932252407074,1.151860237121582,9.781346321105957,-3.6447017192840576, -4.4602742195129395
287,3061962648,0.7199223,0.19370747,-0.44292215,0.49800554,3.6437370777130127,-0.40169456601142883,1.1984912157058716,-0.563543438911438,-0.3152667284011841, -5.713579177856445
288,3061979315,0.72084314,0.19273701,-0.44346705,0.49656278,3.461731433868408,-0.4935799241065979,1.5801786184310913,-12.126391410827637,2.548240900039673, -5.508014678955078
289,3061995982,0.7217013,0.1913325,-0.4444753,0.4949555,3.369814395904541,-0.860223114490509,2.415980577468872,-16.275989532470703,1.3275779485702515, -4.17377233505249
290,3062012649,0.72225404,0.19096908,-0.44481328,0.49398506,4.715401649475098,-0.2497561275959015,3.272897958755493,-6.475928783416748,0.9853527545928955, -4.0535173416137695
291,3062029316,0.7230319,0.19095896,-0.44477737,0.4928824,5.964334964752197,-0.89701908826828,4.506356239318848,-4.168915748596191,2.129190444946289, -7.030623435974121
292,3062045983,0.72412527,0.19064032,-0.44419247,0.49192685,6.325361251831055,-2.0176587104797363,4.965151786804199,-3.8168318271636963,7.018644332885742, -7.145780086517334
293,3062062650,0.72590435,0.18800576,-0.4439862,0.49050298,5.762353897094727,-2.235295057296753,4.770718097686768,-18.941734313964844,14.395448684692383, -4.266124248504639
294,3062079317,0.7282997,0.18347242,-0.44377777,0.48885486,5.36289644241333,-1.6642274856567383,3.90814471244812,-29.87002182006836,22.343761444091797, -1.7182490825653076
295,3062095984,0.7308455,0.17849186,-0.44364297,0.48701805,4.6454877853393555,-2.2354469299316406,3.5713884830474854,-33.110137939453125,23.668235778808594, -1.738433599472046
296,3062112651,0.73338825,0.17366089,-0.44459617,0.48406392,4.012176990509033,-4.0562944412231445,0.059061236679553986,-39.375492095947266,16.28540802001953, -6.51522159576416
297,3062129318,0.7345599,0.16912365,-0.44939142,0.4794438,3.15582275390625,-5.531291961669922,-5.923645496368408,-54.02879333496094,-10.153739929199219, -6.785491943359375
298,3062145985,0.7325581,0.1681225,-0.45573816,0.47686097,3.7384910583496094,-6.848190784454346,-9.699911117553711,-31.101694107055664,-36.77164840698242, 4.660557270050049
299,3062162652,0.7247515,0.17375591,-0.4623384,0.48040336,4.077371597290039,-9.698686599731445,-9.7913818359375,27.65369415283203,-70.4369888305664, 33.803890228271484
300,3062179319,0.7145139,0.17799468,-0.4721324,0.48464316,2.092736005783081,-2.331112861633301,-3.7992470264434814,15.622005462646484,-88.17045593261719, 53.180137634277344
301,3062195986,0.70330644,0.17695895,-0.4859179,0.48778027,-0.05211043357849121,-2.6274163722991943,-0.644238293170929,-25.885467529296875,-94.5378189086914, 72.91963958740234
302,3062212653,0.690088,0.17714249,-0.49723205,0.49513575,-1.9337306022644043,-3.182427406311035,1.223531723022461,4.9201579093933105,-88.29338836669922, 92.86602783203125
303,3062229320,0.6762771,0.17901595,-0.50472647,0.50582016,-2.957158088684082,-0.3713218569755554,3.107401132583618,38.11902618408203,-74.06350708007812, 100.07096862792969
304,3062245987,0.66337615,0.18075874,-0.5094439,0.5174219,-3.584428310394287,1.7944616079330444,4.001988410949707,49.20180130004883,-56.6966667175293, 98.14037322998047
305,3062262654,0.65183485,0.18238598,-0.5117115,0.52914876,-2.1939594745635986,3.0181732177734375,1.1944929361343384,56.02685546875,-40.53872299194336, 91.27079772949219
306,3062279321,0.6419323,0.18589269,-0.5118279,0.53981405,-0.10728992521762848,4.849814414978027,-1.6172988414764404,66.37620544433594,-33.48113250732422, 71.35945129394531
307,3062295988,0.6341697,0.19061254,-0.5123437,0.5468086,1.4074550867080688,6.862514972686768,-3.7091903686523438,54.48023986816406,-36.90725326538086, 43.68531036376953
308,3062312655,0.62741387,0.19720675,-0.5149149,0.54984015,2.1281583309173584,5.678147315979004,-5.736968040466309,39.51844024658203,-54.43462371826172, 19.03786849975586
309,3062329322,0.6192375,0.20618334,-0.52063537,0.5504291,1.7358194589614868,2.190619707107544,-5.198779106140137,31.10137939453125,-85.15010070800781, 9.973114967346191
310,3062345989,0.6073467,0.21982528,-0.52752924,0.55183315,1.1536821126937866,-0.5481945276260376,-6.838108539581299,54.7094612121582,-119.78158569335938, 12.553762435913086
311,3062362656,0.5927691,0.23605599,-0.53469807,0.5540765,-0.1483616977930069,0.7470154762268066,-2.6399667263031006,71.65819549560547,-139.0316619873047, 17.225128173828125
312,3062379323,0.57808584,0.25153008,-0.54088855,0.55676657,-2.6056900024414062,3.2054431438446045,0.7795249819755554,74.0998306274414,-131.84107971191406, 20.62110137939453
313,3062395990,0.5653145,0.26367858,-0.54618037,0.55908877,-4.386603355407715,3.4598963260650635,1.991767406463623,59.553436279296875,-109.25216674804688, 22.710981369018555
314,3062412657,0.55541205,0.26436812,-0.5642996,0.55062985,-1.066711187362671,-0.5850147604942322,-33.573265075683594,-80.08499908447266,-124.08436584472656, 36.13887023925781
315,3062429324,0.52605134,0.280237,-0.6015801,0.53182596,26.490859985351562,-13.284647941589355,-81.57119750976562,-99.03450775146484,-347.9356384277344, 46.22121047973633
316,3062445991,0.49046043,0.3174905,-0.61969084,0.5240533,9.849932670593262,25.144153594970703,24.603796005249023,107.24132537841797,-358.08538818359375, -16.85572624206543
317,3062462658,0.46325898,0.3310063,-0.6527272,0.49977347,-1.2553609609603882,0.6805705428123474,-5.827253818511963,-115.8648452758789,-324.5211181640625, 31.995380401611328
318,3062479325,0.42818934,0.36083698,-0.6652213,0.49389407,11.506232261657715,-3.1131420135498047,-1.6868033409118652,107.28517150878906,-308.6783142089844, -2.503674268722534
319,3062495992,0.39348817,0.38715544,-0.6728359,0.49251384,7.629018783569336,5.452950954437256,2.943398952484131,133.1031036376953,-269.80560302734375, 13.22070598602295
320,3062512659,0.3670261,0.40135363,-0.686629,0.48243964,3.6636009216308594,0.2064763903617859,-4.186500549316406,17.129169464111328,-230.9178466796875, 34.439029693603516
321,3062529326,0.3476482,0.40925497,-0.70024383,0.47043562,-0.8432052135467529,-3.5670225620269775,-6.94915771484375,-26.837675094604492,-181.59486389160156, 35.26844787597656
322,3062545993,0.33292666,0.41493395,-0.70998454,0.46142358,1.6767204999923706,-0.6337854862213135,-5.230729103088379,-18.329425811767578,-134.30197143554688, 26.970684051513672
323,3062562660,0.32411563,0.41652793,-0.7187684,0.45257664,7.136038780212402,0.33662310242652893,-4.169778347015381,-40.718257904052734,-89.91681671142578, 25.792606353759766
324,3062579327,0.32130563,0.41589215,-0.72616684,0.44325873,10.395356178283691,0.18922168016433716,-2.707939386367798,-60.915283203125,-51.77928161621094, 13.242193222045898
325,3062595994,0.32555598,0.4105873,-0.73502916,0.4303065,15.07834243774414,-2.8123836517333984,-0.5922645926475525,-114.08172607421875,-16.20950698852539, 11.37889575958252
326,3062612661,0.33356798,0.4048691,-0.7436244,0.4145315,19.198286056518555,-4.204898834228516,6.137306213378906,-139.22604370117188,-3.754476547241211, -4.576290607452393
327,3062629328,0.34279513,0.39940202,-0.7536908,0.39359882,19.81035041809082,-7.355991840362549,11.408476829528809,-172.81671142578125,-16.645557403564453, -16.927196502685547
328,3062645995,0.34607863,0.39961758,-0.76246935,0.37306288,12.636836051940918,-8.158624649047852,12.44209098815918,-137.8364715576172,-59.48262405395508, -32.91403579711914
329,3062662662,0.34504837,0.40419647,-0.76883394,0.35561395,8.972792625427246,-5.282412528991699,15.343461036682129,-93.48394012451172,-79.69754791259766, -44.176185607910156
330,3062679329,0.34189186,0.4061999,-0.77588016,0.34076655,12.797959327697754,-10.23160171508789,19.000484466552734,-81.81282043457031,-79.63788604736328, -17.42448616027832
331,3062695996,0.3351645,0.4093906,-0.7792881,0.33581883,5.885263442993164,-3.50457501411438,29.15210723876953,-8.012493133544922,-66.00452423095703, -2.510749101638794
332,3062712663,0.3285613,0.40986854,-0.78371185,0.33143803,9.158003807067871,-9.633333206176758,18.20576286315918,-14.178435325622559,-60.660133361816406, 15.825312614440918
333,3062729330,0.317616,0.41412762,-0.7831194,0.33814558,3.73762845993042,-2.4759976863861084,23.134334564208984,77.51302337646484,-50.63763427734375, 16.090595245361328
334,3062745997,0.31237411,0.41631058,-0.7836534,0.33910975,3.5984344482421875,0.3568631112575531,19.235761642456055,23.02359390258789,-34.44138717651367, 4.686505317687988
335,3062762664,0.31318092,0.41758552,-0.7838092,0.33642748,3.5598089694976807,2.3911266326904297,16.748184204101562,-15.0768404006958,-9.733829498291016, -13.396374702453613
336,3062779331,0.3201755,0.4173212,-0.7839942,0.3296729,2.8013083934783936,3.0129263401031494,15.289985656738281,-58.163700103759766,15.141254425048828, -28.060405731201172
337,3062795998,0.32851702,0.41830412,-0.780857,0.32765934,4.070573806762695,1.1434303522109985,10.058133125305176,-26.1494197845459,40.28953170776367, -36.902000427246094
338,3062812665,0.3354338,0.42173147,-0.77304155,0.3347145,5.118777751922607,1.0533894300460815,9.015636444091797,42.76285171508789,63.71001052856445, -39.743404388427734
339,3062829332,0.3421262,0.42559385,-0.76218975,0.3476873,5.241941452026367,-0.20834553241729736,6.9941911697387695,82.92637634277344,85.62686920166016, -36.59010314941406
340,3062845999,0.3492098,0.42863697,-0.7479425,0.3672943,5.52299165725708,-0.9707025289535522,4.376472473144531,122.79151916503906,117.05217742919922, -27.451168060302734
341,3062862666,0.36017373,0.42809242,-0.7318969,0.38902292,5.443541526794434,0.00984501838684082,3.2417376041412354,118.2289810180664,156.7308349609375, -18.90764617919922
342,3062879333,0.375197,0.4240273,-0.71358705,0.4125793,6.0442585945129395,-0.6274830102920532,0.7267090082168579,112.84996795654297,197.69622802734375, -14.084663391113281
343,3062896000,0.39505458,0.41562468,-0.69277775,0.4373182,6.388496398925781,-0.8314956426620483,-0.11151978373527527,100.4820785522461,243.81956481933594, -10.691458702087402
344,3062912667,0.420753,0.4018145,-0.6704559,0.46043557,6.297760963439941,0.14848032593727112,-0.9304262399673462,65.93350219726562,287.5992736816406, -11.205605506896973
345,3062929334,0.45259392,0.38050166,-0.64885366,0.47892186,5.953322887420654,0.23128873109817505,-1.91322922706604,3.622352123260498,325.0352783203125, -7.488831996917725
346,3062946001,0.4870256,0.3519526,-0.6276267,0.49499506,5.8831586837768555,-0.8718039393424988,-4.084144592285156,-37.69073486328125,353.21234130859375, 9.673130989074707
347,3062962668,0.52093345,0.31920502,-0.604382,0.51133096,5.896313667297363,-0.008501574397087097,-6.862820148468018,-42.47744369506836,372.9631652832031, 25.464599609375
348,3062979335,0.5512146,0.28649244,-0.5783535,0.5287644,5.6109299659729,1.3321208953857422,-10.829380989074707,-20.008365631103516,370.52642822265625, 35.82243347167969
349,3062996002,0.5773828,0.2576846,-0.55037576,0.5452656,5.97216796875,1.7851978540420532,-17.192241668701172,6.337064743041992,345.98175048828125, 27.85666275024414
350,3063012669,0.5977974,0.2346261,-0.5253438,0.5582139,4.884701728820801,-2.0022006034851074,-21.51798439025879,14.974518775939941,285.2525939941406, 18.800113677978516
351,3063029336,0.61278933,0.21915275,-0.5028105,0.5688964,4.333738327026367,-3.844484806060791,-24.701021194458008,37.32152557373047,223.3073272705078, 6.869037628173828
352,3063046003,0.6223326,0.21006483,-0.48808995,0.5747552,0.3984525203704834,-1.6934171915054321,-24.19663429260254,16.23405647277832,146.03848266601562, -1.2868925333023071
353,3063062670,0.6258598,0.20517546,-0.48391083,0.576223,-0.7567564845085144,-5.842784881591797,-29.287656784057617,-13.00434684753418,58.214332580566406, 4.461282730102539
354,3063079337,0.62224174,0.20574659,-0.4882496,0.5762776,-3.0436534881591797,-2.16444993019104,-26.7913761138916,-17.32896614074707,-25.26651954650879, 20.3437442779541
355,3063096004,0.610969,0.21240926,-0.500498,0.57541364,-2.6504464149475098,-3.176664352416992,-25.920698165893555,-14.121782302856445,-109.92007446289062, 37.52968215942383
356,3063112671,0.5927422,0.22777972,-0.5160537,0.57485807,-1.8849608898162842,0.17772433161735535,-20.763124465942383,20.85468101501465,-181.09925842285156, 41.412200927734375
357,3063129338,0.5707757,0.2481756,-0.53378814,0.57244605,-2.490469217300415,2.820908308029175,-15.882735252380371,31.98624038696289,-225.3580322265625, 34.609378814697266
358,3063146005,0.5502082,0.26672846,-0.5520677,0.56687576,-3.225644588470459,6.236696720123291,-8.258655548095703,16.824390411376953,-226.14498901367188, 22.39089584350586
359,3063162672,0.5254372,0.27843156,-0.5830013,0.55362546,4.99058723449707,-17.287946701049805,-61.08108901977539,-79.91593933105469,-277.3843994140625, 59.024051666259766
360,3063179339,0.48378113,0.3244652,-0.5886508,0.5605075,25.505084991455078,11.194243431091309,6.187311172485352,254.16188049316406,-344.4525451660156, 9.317473411560059
361,3063196006,0.4622026,0.33415464,-0.6144333,0.5451433,1.585142970085144,5.185675621032715,2.312114715576172,-79.5853042602539,-239.92176818847656, 50.292457580566406
362,3063212673,0.435463,0.35230467,-0.6303425,0.5375145,9.9530611038208,-2.638890027999878,-0.24404995143413544,28.75361442565918,-244.5866241455078, 35.91083908081055
363,3063229340,0.41113514,0.37083977,-0.63972896,0.53309727,11.01983642578125,5.0946478843688965,-0.6238923072814941,62.00789260864258,-208.4461212158203, 19.070558547973633
364,3063246007,0.39148262,0.38447022,-0.6490795,0.52689666,8.652130126953125,-0.8471555709838867,0.6270422339439392,28.416059494018555,-174.55429077148438, 18.537206649780273
365,3063262674,0.37717924,0.39068952,-0.6610482,0.5177962,5.990517616271973,1.378690242767334,-0.47209808230400085,-28.18352508544922,-138.78787231445312, 31.399738311767578
366,3063279341,0.3664121,0.39180928,-0.67406553,0.5078024,5.4947638511657715,-0.9468996524810791,-3.7103848457336426,-58.7481803894043,-109.88648223876953, 42.61750030517578
367,3063296008,0.36005503,0.38892215,-0.68779784,0.49601835,6.658969402313232,-0.189408078789711,-1.369981288909912,-91.52729797363281,-82.19631958007812, 43.29835891723633
368,3063312675,0.35903633,0.38358462,-0.701897,0.48093286,9.172346115112305,0.03989541530609131,-1.0963199138641357,-128.76988220214844,-58.52131271362305, 29.64310073852539
369,3063329342,0.36213502,0.37791967,-0.71616393,0.46167535,11.87812328338623,0.6631027460098267,5.918384552001953,-161.18226623535156,-49.2045783996582, 7.954866886138916
370,3063346009,0.36923945,0.371325,-0.7317393,0.43627742,12.214042663574219,2.1253418922424316,7.321380615234375,-208.4379119873047,-46.18008041381836, -11.827467918395996
371,3063362676,0.37671426,0.36769858,-0.7448479,0.40998274,11.056118965148926,-1.188785195350647,7.945191860198975,-199.0864715576172,-49.721317291259766, -36.20178985595703
372,3063379343,0.3798792,0.36789536,-0.75353414,0.39055243,6.931909084320068,-2.7724099159240723,12.162043571472168,-130.7885284423828,-54.21525573730469, -36.93811798095703
373,3063396010,0.38050517,0.36896726,-0.76029813,0.375534,3.9374799728393555,-1.8946539163589478,17.019378662109375,-94.21588897705078,-54.02927780151367, -28.0200138092041
374,3063412677,0.38001147,0.36910653,-0.7691384,0.3574601,2.848536252975464,-3.294917345046997,18.80902862548828,-115.31590270996094,-71.21265411376953, -23.0328426361084
375,3063429344,0.37630853,0.37152836,-0.78110635,0.33201128,2.725766658782959,-5.241215705871582,12.481757164001465,-148.0675506591797,-121.2461166381836, -38.66157150268555
376,3063446011,0.3551031,0.38414198,-0.79271847,0.3129449,10.437188148498535,-16.996366500854492,-6.484758377075195,-42.00137710571289,-221.65284729003906, -37.99203109741211
377,3063462678,0.32319677,0.40847814,-0.793119,0.3156768,12.583192825317383,-4.246121406555176,11.661235809326172,157.72329711914062,-220.24063110351562, -55.56863784790039
378,3063479345,0.29534313,0.4213049,-0.80133766,0.3051771,2.8180956840515137,-5.598137378692627,22.577999114990234,31.51060676574707,-228.13507080078125, -9.008020401000977
379,3063496012,0.266671,0.43150896,-0.80839425,0.29863948,7.087061405181885,-8.187344551086426,19.34615135192871,52.639739990234375,-213.80186462402344, 11.783534049987793
380,3063512679,0.24043725,0.44102585,-0.8121353,0.29685467,6.516450881958008,-4.156388282775879,20.19791603088379,77.1590805053711,-179.1144256591797, 9.427387237548828
381,3063529346,0.22201125,0.4475375,-0.8153545,0.29260603,5.5759992599487305,0.5293703675270081,18.580835342407227,35.66274642944336,-136.41146850585938, 4.657605171203613
382,3063546013,0.21581437,0.4512219,-0.8195518,0.27956736,7.2664618492126465,2.07765793800354,15.4189453125,-57.58528518676758,-91.04997253417969, -14.440886497497559
383,3063562680,0.21757297,0.45413303,-0.82134223,0.2679969,7.246547222137451,0.6598096489906311,12.579451560974121,-70.50386047363281,-36.914588928222656, -30.627504348754883
384,3063579347,0.2244935,0.45703715,-0.81936264,0.26337206,6.281453609466553,2.0688421726226807,10.305961608886719,-40.43924331665039,19.3328914642334, -41.484649658203125
385,3063596014,0.23644382,0.4591554,-0.8132807,0.26803973,5.5988078117370605,1.1687712669372559,7.616727352142334,2.3879809379577637,84.45509338378906, -44.68103790283203
386,3063612681,0.2538803,0.46063435,-0.8024413,0.28186688,5.310455322265625,3.092294216156006,7.2061333656311035,44.08628845214844,152.8725128173828, -51.306068420410156
387,3063629348,0.27856657,0.45785242,-0.7900545,0.29763392,5.076122283935547,-1.1317979097366333,5.195694446563721,27.477783203125,209.90843200683594, -43.28281021118164
388,3063646015,0.3023318,0.45413533,-0.7722294,0.32560518,4.194173336029053,-5.0942206382751465,1.4473909139633179,106.04644012451172,255.65469360351562, -30.03963279724121
389,3063662682,0.32575083,0.44909033,-0.7486275,0.36298943,2.7938458919525146,-3.7835288047790527,1.8406668901443481,167.2863006591797,298.31524658203125, -20.68332290649414
390,3063679349,0.35188875,0.4400791,-0.72178406,0.40191135,1.8493233919143677,-2.4090960025787354,0.5449105501174927,166.0006561279297,334.3513488769531, -13.579976081848145
391,3063696016,0.38230088,0.42515495,-0.6928266,0.43940935,1.9977807998657227,-0.5180859565734863,-1.4346126317977905,137.51951599121094,372.8918151855469, -5.857544422149658
392,3063712683,0.41535383,0.4036812,-0.66280067,0.4745715,2.198180913925171,0.7541636824607849,-3.829500675201416,104.66748809814453,401.46258544921875, 8.135042190551758
393,3063729350,0.4485799,0.37922338,-0.63143224,0.50622064,2.0528934001922607,3.3727498054504395,-6.275484561920166,84.02497100830078,406.3241882324219, 7.429446220397949
394,3063746017,0.4814595,0.3534335,-0.6009077,0.5312169,2.4010658264160156,-0.39087843894958496,-8.720244407653809,48.99047088623047,389.7893371582031, -3.85884690284729
395,3063762684,0.51225877,0.3282466,-0.5706462,0.5515506,4.1886887550354,-2.281895637512207,-13.5169038772583,35.857913970947266,367.1431884765625, -13.61630916595459
396,3063779351,0.5416024,0.29957277,-0.54706734,0.563596,5.282816410064697,-2.8859314918518066,-18.544376373291016,-30.91996955871582,332.891845703125, -8.639573097229004
397,3063796018,0.565893,0.27173808,-0.5297936,0.57030016,3.9895286560058594,-3.2884888648986816,-23.768823623657227,-61.75474548339844,276.76055908203125, 0.7631226181983948
398,3063812685,0.58090335,0.25283706,-0.5172239,0.5754166,0.6036293506622314,-5.37081241607666,-29.983369827270508,-33.65414047241211,187.3776092529297, 7.115548610687256
399,3063829352,0.587606,0.2428348,-0.50961864,0.5796891,-1.3924129009246826,-2.39316987991333,-28.520408630371094,-6.002932548522949,102.18549346923828, 13.449944496154785
400,3063846019,0.5887128,0.23424987,-0.51494503,0.57738745,-3.5099542140960693,-2.361837387084961,-27.19804573059082,-76.19454193115234,22.777137756347656, 30.0242919921875
401,3063862686,0.5839402,0.23232657,-0.52602875,0.57300276,-3.346421480178833,-1.6622296571731567,-26.7952938079834,-58.834014892578125,-58.826786041259766, 26.26799964904785
402,3063879353,0.5737652,0.23728509,-0.5427331,0.56562394,-3.5389609336853027,0.14614179730415344,-22.510723114013672,-55.3209114074707,-132.23953247070312, 19.559982299804688
403,3063896020,0.5596773,0.24659626,-0.5636916,0.5551609,-2.5237574577331543,2.440941095352173,-18.011995315551758,-59.671695709228516,-185.14569091796875, 13.274605751037598
404,3063912687,0.5430712,0.25439417,-0.5899036,0.54071355,-0.16942554712295532,-4.396632671356201,-24.821094512939453,-96.64810180664062,-215.7948455810547, 22.364133834838867
405,3063929354,0.50151646,0.28948098,-0.608836,0.5422184,18.749961853027344,-19.46314811706543,-47.75430679321289,140.9503631591797,-362.9967956542969, 51.04400634765625
406,3063946021,0.46682516,0.31944415,-0.62343454,0.53977686,5.200989723205566,19.3771915435791,22.927492141723633,109.66716003417969,-306.8028259277344, 23.99823760986328
407,3063962688,0.43629348,0.33654258,-0.6488174,0.52480805,13.083788871765137,-7.3562421798706055,-6.744854927062988,-34.980224609375,-304.2929382324219, 47.60049819946289
408,3063979355,0.40919125,0.35479513,-0.65845495,0.5226092,6.611548900604248,4.318417549133301,1.6860604286193848,74.32100677490234,-216.36170959472656, 31.806934356689453
409,3063996022,0.38883987,0.36791894,-0.6689764,0.5156646,11.339106559753418,3.828233242034912,-4.130168914794922,18.625625610351562,-181.71119689941406, 19.666688919067383
410,3064012689,0.3727576,0.37776053,-0.67920226,0.5069845,10.62949275970459,1.0603020191192627,0.7124449610710144,-7.948038578033447,-154.163818359375, 14.41755485534668
411,3064029356,0.3606621,0.38354042,-0.69054115,0.49595594,10.611371994018555,0.22462257742881775,-2.011166572570801,-43.65439987182617,-130.60044860839844, 16.514373779296875
412,3064046023,0.35336888,0.38745216,-0.7011301,0.48314396,9.963777542114258,0.9861937761306763,0.0007281452417373657,-66.92202758789062,-104.4518814086914, 2.7652909755706787
413,3064062690,0.350575,0.39064997,-0.70957553,0.4700985,9.712248802185059,0.6989421844482422,-0.5155525803565979,-74.72398376464844,-76.0323715209961, -14.83562183380127
414,3064079357,0.35077432,0.39316946,-0.7170199,0.4563525,10.383036613464355,1.5504809617996216,3.886063814163208,-84.65489196777344,-58.91422653198242, -25.407424926757812
415,3064096024,0.35572872,0.39059368,-0.7285073,0.4360859,9.51150894165039,1.0731645822525024,6.125809192657471,-154.7393798828125,-47.20206832885742, -19.793182373046875
416,3064112691,0.3633236,0.387339,-0.73992753,0.41288224,9.608695030212402,0.391324907541275,5.567319869995117,-178.11585998535156,-40.053932189941406, -31.4803524017334
417,3064129358,0.36853883,0.38719517,-0.7487222,0.392013,7.496850967407227,-2.3394033908843994,8.345797538757324,-144.76788330078125,-48.58317947387695, -41.567989349365234
418,3064146025,0.36971334,0.38918972,-0.75425166,0.3780846,3.3691768646240234,-1.9219951629638672,14.274335861206055,-84.169189453125,-48.79582214355469, -32.768333435058594
419,3064162692,0.36878,0.39201385,-0.7585503,0.36732557,1.653075933456421,-2.913590908050537,17.382896423339844,-56.91450881958008,-50.7587776184082, -26.856876373291016
420,3064179359,0.36427906,0.3974984,-0.7647505,0.3527785,1.2375421524047852,-3.17142391204834,11.840980529785156,-65.25162506103516,-91.6401138305664, -36.27714920043945
421,3064196026,0.3502367,0.4098075,-0.7718885,0.33701688,2.5548064708709717,-9.311552047729492,0.43528425693511963,-30.829330444335938,-164.38363647460938, -49.58616256713867
422,3064212693,0.31778976,0.4362459,-0.7686744,0.3432767,12.461889266967773,-9.119712829589844,4.951740264892578,195.89743041992188,-207.9043426513672, -58.27224349975586
423,3064229360,0.28714913,0.4548798,-0.7708148,0.3412837,2.298208475112915,0.10187774896621704,21.509462356567383,117.03398132324219,-216.70127868652344, -23.33376121520996
424,3064246027,0.26161644,0.46505445,-0.77960354,0.32787126,5.781680107116699,-7.639086723327637,18.507598876953125,8.118354797363281,-219.1522674560547, 7.817816734313965
425,3064262694,0.23741855,0.47408238,-0.7863807,0.31699193,7.0029826164245605,-4.195308685302734,16.363567352294922,19.722909927368164,-198.17633056640625, 8.991990089416504
426,3064279361,0.22041957,0.47902843,-0.7946779,0.3007229,7.193770408630371,-0.8650619983673096,17.70231056213379,-42.9910774230957,-170.82830810546875, 11.515806198120117
427,3064296028,0.21026218,0.48104882,-0.8033579,0.28106588,6.552867889404297,-1.6367454528808594,16.531734466552734,-89.34895324707031,-139.5634765625, 9.491368293762207
428,3064312695,0.20509614,0.4825683,-0.8103739,0.2614532,6.958087921142578,-0.10957911610603333,14.093339920043945,-103.197998046875,-108.82914733886719, -2.875983476638794
429,3064329362,0.20582354,0.48339066,-0.81521505,0.24371007,8.40914535522461,-0.29157230257987976,11.71246337890625,-109.43025207519531,-65.7630386352539, -14.210432052612305
430,3064346029,0.2112983,0.48330048,-0.8173647,0.23170838,8.193222999572754,-0.7583146691322327,10.121391296386719,-89.80497741699219,-15.001286506652832, -17.923860549926758
431,3064362696,0.21855037,0.4832075,-0.81541944,0.2320297,6.594593524932861,-1.0398638248443604,6.646334648132324,-19.928075790405273,41.6685791015625, -16.479873657226562
432,3064379363,0.22916356,0.48305264,-0.80920434,0.24358344,5.919997692108154,1.317055344581604,6.4847893714904785,38.620689392089844,104.24028015136719, -18.794376373291016
433,3064396030,0.24723418,0.478834,-0.8018737,0.25805473,5.090206146240234,-0.9009424448013306,5.003077507019043,25.60482406616211,163.9124298095703, -7.720930576324463
434,3064412697,0.26715732,0.47239643,-0.7915092,0.28103688,4.48651647567749,-4.291046619415283,2.0214197635650635,68.05648040771484,211.2313690185547, 5.732751846313477
435,3064429364,0.28635058,0.46560758,-0.77597916,0.31475273,4.114199161529541,-3.5802223682403564,0.607292652130127,138.1686248779297,252.3748321533203, 12.007613182067871
436,3064446031,0.30687705,0.45692262,-0.7565495,0.3531022,3.986067295074463,-2.8425328731536865,-0.17987006902694702,163.325927734375,286.2301330566406, 15.943408966064453
437,3064462698,0.32919204,0.44542626,-0.7336957,0.39359748,3.075594902038574,-1.6027755737304688,-0.8294048309326172,171.24844360351562,316.47918701171875, 20.077285766601562
438,3064479365,0.35349876,0.43114418,-0.7079928,0.433474,2.5074353218078613,1.8636633157730103,-1.3137235641479492,163.42813110351562,338.80120849609375, 18.695573806762695
439,3064496032,0.3826836,0.4121773,-0.6821813,0.46721718,1.908607006072998,4.282375335693359,-2.543765068054199,108.02674102783203,358.78106689453125, 11.835887908935547
440,3064512699,0.41587687,0.3885644,-0.6576911,0.4934639,1.153077483177185,4.492642402648926,-3.4483702182769775,45.01399612426758,367.99822998046875, 4.853583335876465
441,3064529366,0.4510215,0.36181965,-0.63384765,0.51371515,0.6136391162872314,3.083872079849243,-4.574694633483887,1.523377537727356,369.81304931640625, -2.993800640106201
442,3064546033,0.48514557,0.3338847,-0.61085385,0.5291622,1.1472803354263306,-0.6728994250297546,-7.211221694946289,-23.56528663635254,355.2195129394531, -7.021977424621582
443,3064562700,0.513908,0.30725554,-0.5889991,0.5427455,1.628114938735962,-3.127936601638794,-15.54939079284668,-18.81663703918457,320.1572570800781, 3.2899084091186523
444,3064579367,0.535821,0.28634283,-0.5652239,0.55805546,2.5977277755737305,-5.30214786529541,-20.061552047729492,30.171876907348633,282.05352783203125, 7.607563018798828
445,3064596034,0.55117255,0.2712111,-0.5421875,0.5733116,1.362443208694458,0.46710872650146484,-20.996475219726562,61.563106536865234,232.19354248046875, 11.429902076721191
446,3064612701,0.5630149,0.25612858,-0.5284477,0.5815115,0.4651700556278229,-0.03289872780442238,-25.25919532775879,5.507181167602539,171.1598358154297, 15.645818710327148
447,3064629368,0.57079005,0.24278918,-0.52551043,0.5823152,-1.825507640838623,-0.8944332599639893,-26.053834915161133,-50.429222106933594,95.29415893554688, 15.927186965942383
448,3064646035,0.57214385,0.2343538,-0.5343492,0.5763686,-3.5344860553741455,-3.2168965339660645,-28.062332153320312,-105.38771057128906,6.651642799377441, 24.00999641418457
449,3064662702,0.56715316,0.23238319,-0.5486161,0.56864387,-3.796041488647461,-1.3739771842956543,-25.49046516418457,-83.89772033691406,-76.76681518554688, 20.096620559692383
450,3064679369,0.5555277,0.23957796,-0.56438404,0.5616602,-4.0434136390686035,0.15712150931358337,-20.487958908081055,-40.38948059082031,-141.69635009765625, 16.686119079589844
451,3064696036,0.5392312,0.25375703,-0.577814,0.55764514,-4.88684606552124,2.763436794281006,-14.562394142150879,14.700200080871582,-172.53500366210938, 15.026144981384277
452,3064712703,0.5185342,0.25576818,-0.60838896,0.54366153,-1.2922219038009644,-27.11139488220215,-67.53514099121094,-128.0071563720703,-224.10240173339844, 73.20184326171875
453,3064729370,0.46014857,0.3176631,-0.5971521,0.5751199,36.454437255859375,-1.5253312587738037,-3.125873565673828,499.73419189453125,-375.3225402832031, 51.04097366333008
454,3064746037,0.43372843,0.32967317,-0.6264685,0.5574338,12.438913345336914,12.717818260192871,12.59969425201416,-90.92534637451172,-282.1402587890625, 62.35640335083008
455,3064762704,0.4041549,0.35134488,-0.6465351,0.54333043,17.815027236938477,10.504003524780273,-2.1591453552246094,-4.406846046447754,-297.6351318359375, 22.946386337280273
456,3064779371,0.3816416,0.36742264,-0.6630733,0.52885205,7.47413444519043,9.571786880493164,-6.124911785125732,-25.666013717651367,-236.58038330078125, 12.225051879882812
457,3064796038,0.3634717,0.378873,-0.6774626,0.5151584,9.247349739074707,-3.9903478622436523,-0.4356001317501068,-37.45280075073242,-192.3582305908203, 14.417513847351074
458,3064812705,0.35035345,0.38543493,-0.69051874,0.50187284,9.640947341918945,-0.7122571468353271,-1.314563512802124,-56.29266357421875,-147.32675170898438, 16.87275505065918
459,3064829372,0.34267238,0.3891884,-0.70051116,0.4902984,8.061378479003906,0.09677404910326004,-1.9037351608276367,-58.84246826171875,-100.10851287841797, 7.577987194061279
460,3064846039,0.3392215,0.3924542,-0.7079231,0.47932592,9.08737850189209,2.2722134590148926,-1.9468488693237305,-59.77828598022461,-70.57759094238281, -9.682433128356934
461,3064862706,0.34054768,0.3933204,-0.71477216,0.46736196,8.598014831542969,1.6722710132598877,2.6848666667938232,-81.30335235595703,-40.96967315673828, -17.373058319091797
462,3064879373,0.34515664,0.39059317,-0.7249141,0.45033714,10.076125144958496,1.6978131532669067,2.105348587036133,-134.1551055908203,-35.00150680541992, -12.99294376373291
463,3064896040,0.3546122,0.38619918,-0.73599243,0.4282705,7.9496588706970215,2.470289945602417,5.669315338134766,-179.25936889648438,-21.76361656188965, -28.902523040771484
464,3064912707,0.3634247,0.3816658,-0.74535835,0.40828273,8.060931205749512,-5.865478515625,9.84130859375,-162.43402099609375,-15.303484916687012, -25.563753128051758
465,3064929374,0.36335298,0.3837784,-0.74824286,0.40102574,1.4859862327575684,-5.426620006561279,9.94849967956543,-39.224365234375,-30.369998931884766, -19.904932022094727
466,3064946041,0.35751995,0.39215335,-0.75269514,0.38967347,1.3119866847991943,-2.9600884914398193,7.9134063720703125,-33.90079116821289,-92.372802734375, -42.44658279418945
467,3064962708,0.34588838,0.4025889,-0.76003397,0.3750093,1.4062399864196777,-3.3022212982177734,4.873109817504883,-38.166969299316406,-144.22750854492188, -38.00468826293945
468,3064979375,0.33006284,0.41441464,-0.7704593,0.35455883,6.383872032165527,-2.6817033290863037,7.451832294464111,-61.514671325683594,-193.2987518310547, -39.75165939331055
469,3064996042,0.31054953,0.42846507,-0.78068197,0.33243418,3.8622798919677734,-1.6283257007598877,14.848381042480469,-54.40571975708008,-222.91592407226562, -46.95157241821289
470,3065012709,0.28961977,0.440979,-0.7919339,0.30740696,6.579262733459473,-5.3272600173950195,17.14492416381836,-71.53929138183594,-238.23052978515625, -38.65753173828125
471,3065029376,0.26284555,0.45429754,-0.7998137,0.29124597,6.0114288330078125,-6.505710601806641,17.656997680664062,3.077253580093384,-238.69290161132812, -23.330142974853516
472,3065046043,0.2371277,0.4649006,-0.8065476,0.2777032,6.503001689910889,-3.6288959980010986,21.0655517578125,11.426033973693848,-217.68788146972656, -9.442131996154785
473,3065062710,0.21796483,0.47120565,-0.81339794,0.26237467,6.2837443351745605,-2.877427101135254,21.056133270263672,-26.78521156311035,-179.56137084960938, -0.6860390305519104
474,3065079377,0.204816,0.4748147,-0.8197298,0.2462614,6.912769794464111,-2.590054988861084,18.2311954498291,-53.875,-143.31932067871094, 0.6551308631896973
475,3065096044,0.1974318,0.47613567,-0.825405,0.23026536,6.962712287902832,-2.8816375732421875,15.409273147583008,-74.23631286621094,-106.06654357910156, 1.7657477855682373
476,3065112711,0.19491066,0.47556317,-0.83020055,0.21590964,6.690222263336182,-2.38373064994812,14.645551681518555,-82.10566711425781,-69.24868774414062, 4.087127208709717
477,3065129378,0.19584492,0.4756469,-0.83168006,0.20907657,8.29827880859375,-2.861370801925659,11.718232154846191,-44.72246170043945,-21.762662887573242, -5.614340305328369
478,3065146045,0.19910698,0.47657827,-0.8287057,0.21558447,9.029998779296875,-2.9074954986572266,8.328814506530762,31.448780059814453,39.666664123535156, -10.431087493896484
479,3065162712,0.20721301,0.47648895,-0.8215015,0.2348543,8.075175285339355,0.3396817445755005,9.114712715148926,93.140625,116.15010070800781, -8.144232749938965
480,3065179379,0.22557364,0.47124684,-0.8132791,0.2561645,6.888105392456055,-0.3762773871421814,8.228642463684082,65.38108825683594,190.3195343017578, 4.07304573059082
481,3065196046,0.25070444,0.46139798,-0.8022213,0.28407827,6.69298791885376,-1.5293880701065063,5.3859100341796875,78.20606231689453,261.9554138183594, 19.031604766845703
482,3065212713,0.28315663,0.44677186,-0.78723574,0.31698135,7.239902019500732,0.5833808779716492,2.8349034786224365,81.90149688720703,334.2341613769531, 27.266223907470703
483,3065229380,0.3226984,0.4268727,-0.76920474,0.34924167,6.721202850341797,0.6921398043632507,-2.032628059387207,52.977378845214844,388.07379150390625, 29.807655334472656
484,3065246047,0.36485577,0.402447,-0.74837106,0.38060158,6.176988124847412,3.2496769428253174,-5.315078258514404,37.197410583496094,416.4967041015625, 37.26393508911133
485,3065262714,0.405534,0.37631872,-0.7241586,0.41172925,6.1352033615112305,3.030405044555664,-10.442232131958008,44.67049789428711,421.4093933105469, 40.015689849853516
486,3065279381,0.4419875,0.35327154,-0.6944577,0.44449404,6.040706634521484,3.374711513519287,-11.880366325378418,87.93328857421875,411.5787353515625, 27.05386734008789
487,3065296048,0.47678366,0.33101147,-0.6632817,0.4724046,6.155411720275879,4.210458755493164,-12.17049503326416,75.71190643310547,394.38165283203125, 10.092669486999512
488,3065312715,0.5105498,0.30531555,-0.6364227,0.49100667,6.04265022277832,0.6991006731987,-15.501794815063477,10.324614524841309,365.93524169921875, 8.472018241882324
489,3065329382,0.5381573,0.28210926,-0.61237866,0.50576055,4.3700642585754395,-1.3747402429580688,-19.584430694580078,5.734511375427246,313.1419677734375, 10.732074737548828
490,3065346049,0.5574892,0.26660702,-0.5885396,0.5212942,1.8672922849655151,-2.4352288246154785,-22.721525192260742,53.024051666259766,252.91567993164062, 10.287276268005371
491,3065362716,0.5705376,0.25514102,-0.5691465,0.5342867,-0.487626850605011,-1.5245003700256348,-22.371463775634766,53.9968376159668,192.0529022216797, 14.799215316772461
492,3065379383,0.5783506,0.24665111,-0.5575189,0.5420761,-2.139777421951294,-1.4259862899780273,-25.625934600830078,26.168262481689453,121.71988677978516, 15.523431777954102
493,3065396050,0.58076644,0.24281213,-0.55339754,0.5454393,-3.189866065979004,-3.4606096744537354,-26.46734619140625,9.109140396118164,47.07307815551758, 12.860177040100098
494,3065412717,0.5777645,0.24477877,-0.5552113,0.5459048,-4.982014179229736,0.051752131432294846,-21.593643188476562,8.316763877868652,-23.139066696166992, 9.305749893188477
495,3065429384,0.5692885,0.25151044,-0.56344694,0.54330546,-3.990001916885376,-0.7112368941307068,-22.774951934814453,0.8299470543861389,-92.07569885253906, 10.227493286132812
496,3065446051,0.55583984,0.26342374,-0.5750228,0.53944325,-3.1559886932373047,1.6545871496200562,-17.58999252319336,12.522011756896973,-145.4212188720703, 9.466160774230957
497,3065462718,0.5385088,0.27861062,-0.58966726,0.53355134,-2.013075828552246,1.5784368515014648,-15.426332473754883,12.757101058959961,-187.95205688476562, 8.663703918457031
498,3065479385,0.5196171,0.28864413,-0.6133815,0.52004415,0.9849381446838379,-5.892178535461426,-32.76604080200195,-67.41780853271484,-223.2512969970703, 24.435489654541016
499,3065496052,0.474034,0.32613465,-0.6309544,0.52040815,24.600631713867188,-17.06816291809082,-36.441986083984375,164.49029541015625,-383.8931884765625, 41.14986801147461
500,3065512719,0.43968558,0.3501985,-0.64872223,0.51302737,2.5394744873046875,18.285276412963867,26.395551681518555,61.42158889770508,-304.081298828125, 33.85568618774414
501,3065529386,0.40342152,0.3685863,-0.67537165,0.49524593,16.06063461303711,-7.962637901306152,-9.803772926330566,-29.258745193481445,-345.5867614746094, 56.26036071777344
502,3065546053,0.370203,0.38929892,-0.6851006,0.49196866,3.362349271774292,8.23817253112793,-0.7780478596687317,94.46623229980469,-255.56192016601562, 32.2764892578125
503,3065562720,0.34691623,0.40131214,-0.69873375,0.47996762,8.385359764099121,5.553014278411865,-6.882646560668945,-8.661369323730469,-212.8036346435547, 28.01996612548828
504,3065579387,0.32703745,0.41067514,-0.7090841,0.4707361,8.84113883972168,1.9048148393630981,-1.9589893817901611,-0.26050907373428345,-172.24887084960938, 27.215688705444336
505,3065596054,0.31247836,0.4154488,-0.71904624,0.46122897,10.338003158569336,-0.19700121879577637,-3.020533561706543,-25.72805404663086,-131.55844116210938, 30.779130935668945
506,3065612721,0.30376476,0.4166988,-0.72819555,0.45146498,12.24486255645752,-0.3234460949897766,-1.6668927669525146,-48.71565628051758,-90.6578369140625, 26.916379928588867
507,3065629388,0.30315188,0.41595632,-0.7378218,0.43669027,14.158333778381348,1.3512601852416992,2.1015560626983643,-102.70439147949219,-59.514015197753906, 2.8363571166992188
508,3065646055,0.30953977,0.41410097,-0.74648416,0.41888765,14.909578323364258,1.2872618436813354,4.6150221824646,-137.60440063476562,-27.681856155395508, -21.33176040649414
509,3065662722,0.32085308,0.41305074,-0.7530343,0.3992265,11.193157196044922,1.7493367195129395,6.231548309326172,-153.4925537109375,-5.966692924499512, -49.34680938720703
510,3065679389,0.33239472,0.4121467,-0.76006556,0.3767619,7.3458099365234375,-1.4855955839157104,4.480797290802002,-169.77410888671875,-14.6461763381958, -55.33198928833008
511,3065696056,0.33786044,0.4140467,-0.7624343,0.36484233,6.146833419799805,-5.9884467124938965,13.814740180969238,-79.043212890625,-13.443114280700684, -43.287254333496094
512,3065712723,0.33940282,0.41613716,-0.76390463,0.35789016,2.7949893474578857,-6.5517730712890625,14.029541015625,-39.287635803222656,-18.7933349609375, -25.536514282226562
513,3065729390,0.3363719,0.4198201,-0.7678535,0.34785947,4.097513198852539,-6.517329216003418,13.081181526184082,-44.88392639160156,-61.78908920288086, -22.86286735534668
514,3065746057,0.3256897,0.4282591,-0.775727,0.32980064,-1.9215604066848755,-2.8525540828704834,0.7491167187690735,-63.68437194824219,-146.26296997070312, -37.03173065185547
515,3065762724,0.3026519,0.44385073,-0.78291166,0.31376383,11.790427207946777,-11.158493041992188,-2.678912401199341,1.0518138408660889,-220.8998260498047, -44.753013610839844
516,3065779391,0.27045202,0.46370703,-0.7854817,0.30797744,7.561746120452881,-2.8171019554138184,13.10440444946289,102.95816040039062,-238.72203063964844, -40.8585205078125
517,3065796058,0.24542685,0.47754347,-0.7937256,0.2858632,5.538691520690918,0.5127370357513428,21.1081485748291,-31.407302856445312,-250.30137634277344, -35.81360626220703
518,3065812725,0.22465573,0.4864529,-0.80385923,0.25827152,7.751987457275391,-6.9857587814331055,18.09113311767578,-87.36521911621094,-239.14849853515625, -20.294801712036133
519,3065829392,0.2027506,0.49516776,-0.81070364,0.23761484,8.273336410522461,-5.352970600128174,16.03982925415039,-39.81806945800781,-217.29393005371094, -17.599842071533203
520,3065846059,0.1835819,0.5018627,-0.8165343,0.21841139,7.900991439819336,-4.7788987159729,17.980499267578125,-42.291343688964844,-192.8180389404297, -12.29945182800293
521,3065862726,0.16775818,0.50593305,-0.8218025,0.20131986,6.940307140350342,-5.152363300323486,19.237110137939453,-44.54263687133789,-162.52676391601562, -1.922681450843811
522,3065879393,0.15471151,0.5090045,-0.82515526,0.18999483,9.338136672973633,-4.134404182434082,15.731201171875,-20.227014541625977,-123.5678482055664, -0.20055849850177765
523,3065896060,0.1470264,0.51122147,-0.8265197,0.18412244,11.802786827087402,-3.8000619411468506,12.71716594696045,-6.443669319152832,-71.20521545410156, -3.5412373542785645
524,3065912727,0.14579093,0.51154137,-0.8264985,0.18431206,10.759573936462402,-2.11667537689209,11.804061889648438,5.114492893218994,-9.820694923400879, 0.32410964369773865
525,3065929394,0.15399624,0.5084889,-0.8264681,0.18621206,8.140152931213379,-0.11983281373977661,7.668891429901123,-21.769405364990234,53.81110763549805, 9.198841094970703
526,3065946061,0.16978261,0.50239897,-0.8254217,0.19351572,6.9549736976623535,-2.3884501457214355,4.073692798614502,-19.480649948120117,120.58415222167969, 18.9101505279541
527,3065962728,0.18948373,0.49529254,-0.8209613,0.21166976,5.4885125160217285,-0.6334454417228699,2.5558271408081055,31.91329002380371,185.5565185546875, 20.314353942871094
528,3065979395,0.21608225,0.4850475,-0.81477433,0.23276636,5.841056823730469,-0.8127819299697876,1.2582452297210693,23.46587562561035,241.3402557373047, 25.956823348999023
529,3065996062,0.24383003,0.47311088,-0.8052331,0.2613674,5.20033073425293,-3.1957411766052246,-0.450430691242218,64.5435562133789,280.53057861328125, 33.57941436767578
530,3066012729,0.2701676,0.46104857,-0.79073745,0.29862761,4.788786888122559,-1.4000777006149292,-1.4752086400985718,125.77144622802734,309.5136413574219, 35.24195098876953
531,3066029396,0.29662904,0.44746062,-0.7727053,0.33869877,3.1654725074768066,-0.8569256067276001,-2.085803747177124,145.0998077392578,328.91949462890625, 37.393768310546875
532,3066046063,0.3226691,0.43233797,-0.75094444,0.3808559,1.8371044397354126,-0.04542631283402443,-2.4248952865600586,163.04421997070312,344.455322265625, 39.42106246948242
533,3066062730,0.34978625,0.41509196,-0.72580856,0.42255244,0.227278932929039,2.2216572761535645,-3.721129894256592,161.59393310546875,361.9136657714844, 36.61650848388672
534,3066079397,0.37908807,0.39367852,-0.70130116,0.45769686,-1.8676258325576782,1.751479148864746,-3.8780734539031982,110.78646087646484,364.9548645019531, 37.19329071044922
535,3066096064,0.40909752,0.3689304,-0.6781164,0.4865057,-2.8759407997131348,-0.5133682489395142,-7.042322635650635,65.44973754882812,358.5209655761719, 38.11804962158203
536,3066112731,0.43918183,0.3427386,-0.65513104,0.5103461,-2.3931431770324707,-1.1208325624465942,-11.119610786437988,37.39995574951172,350.87677001953125, 31.039159774780273
537,3066129398,0.47039974,0.31376773,-0.6331752,0.52854836,-0.07288926839828491,0.574286937713623,-12.951600074768066,-2.585582971572876,349.7870178222656, 24.859086990356445
538,3066146065,0.49935764,0.28216332,-0.614791,0.54134846,1.5195975303649902,-0.39438575506210327,-18.7414608001709,-42.61839294433594,326.76544189453125, 34.69387435913086
539,3066162732,0.52208304,0.25303018,-0.5981859,0.55279183,1.8099000453948975,-0.8641550540924072,-22.361881256103516,-34.204078674316406,283.07489013671875, 46.168861389160156
540,3066179399,0.53671724,0.22987376,-0.5865005,0.56134653,1.8660305738449097,-2.3095805644989014,-27.524389266967773,-29.001317977905273,205.06150817871094, 50.48141098022461
541,3066196066,0.54469407,0.21264249,-0.58158666,0.5655517,-0.5441389083862305,0.845170795917511,-25.751848220825195,-39.95137023925781,124.29115295410156, 46.89057540893555
542,3066212733,0.54801905,0.20111445,-0.58583456,0.56216204,-1.9496246576309204,2.847156047821045,-29.698427200317383,-77.49011993408203,38.81320571899414, 27.145477294921875
543,3066229400,0.545486,0.19537069,-0.598795,0.5529196,-2.440314531326294,4.2821221351623535,-27.60206413269043,-104.52490234375,-47.26829528808594, 16.54684829711914
544,3066246067,0.53471935,0.1982641,-0.6149104,0.5446576,-2.670048236846924,5.7725348472595215,-26.391447067260742,-68.74633026123047,-123.82244873046875, 20.28028678894043
545,3066262734,0.51698285,0.19788404,-0.64462763,0.52728146,0.04424595832824707,-5.984766006469727,-58.064205169677734,-160.50648498535156,-202.86614990234375, 45.366634368896484
546,3066279401,0.46268854,0.24888743,-0.6569719,0.54070526,39.273521423339844,-4.790984153747559,-31.040851593017578,272.47076416015625,-446.40252685546875, 35.634124755859375
547,3066296068,0.43064687,0.27024952,-0.67544603,0.5341173,7.5393147468566895,24.185014724731445,28.865238189697266,26.910715103149414,-288.3198547363281, 33.36204147338867
548,3066312735,0.39626688,0.29312077,-0.6936215,0.52530193,24.326642990112305,-8.161554336547852,-4.262121677398682,25.876779556274414,-309.0309753417969, 28.157434463500977
549,3066329402,0.37133586,0.31465867,-0.70301145,0.51853126,10.009393692016602,10.068094253540039,1.3125388622283936,44.59072494506836,-231.16636657714844, -11.837116241455078
550,3066346069,0.351343,0.32857797,-0.71550035,0.5066105,8.212793350219727,1.3917250633239746,-3.4822206497192383,-21.665733337402344,-199.41378784179688, 1.1311982870101929
551,3066362736,0.33757603,0.33969665,-0.725512,0.4942478,11.09372329711914,1.8353204727172852,-2.1510324478149414,-36.11579895019531,-154.14431762695312, -13.374246597290039
552,3066379403,0.32831258,0.34949827,-0.73052824,0.48620003,10.236016273498535,0.30805087089538574,-1.5363677740097046,-11.294378280639648,-105.70069122314453, -23.629980087280273
553,3066396070,0.32211623,0.360136,-0.7334021,0.47818908,9.826787948608398,1.7437609434127808,-2.618551015853882,-9.546910285949707,-88.3550033569336, -43.05650329589844
554,3066412737,0.31707057,0.3696109,-0.7360212,0.47024122,11.091512680053711,1.3958725929260254,0.1680784672498703,-13.918680191040039,-78.16307067871094, -41.351078033447266
555,3066429404,0.3191521,0.3714731,-0.74259806,0.45683447,12.560528755187988,1.51865553855896,4.770228862762451,-89.16793823242188,-40.23783493041992, -27.544158935546875
556,3066446071,0.3285462,0.3646482,-0.7532151,0.4379,12.84208869934082,-0.12665772438049316,5.880263328552246,-167.9774932861328,0.986744225025177, -7.716043472290039
557,3066462738,0.3305145,0.37029195,-0.75831044,0.4226221,4.8513264656066895,0.35479313135147095,4.011971950531006,-85.77684020996094,-53.81581115722656, -55.32511520385742
558,3066479405,0.32458255,0.37894377,-0.7634495,0.4101132,3.698838233947754,-7.274181365966797,8.568373680114746,-44.612831115722656,-97.06195831298828, -41.60276412963867
559,3066496072,0.3110686,0.39097765,-0.7675564,0.40153483,2.5061230659484863,-0.7626795172691345,8.626740455627441,6.105716228485107,-134.22157287597656, -32.033321380615234
560,3066512739,0.29217356,0.40238753,-0.7761841,0.38763055,5.150118350982666,-1.7183674573898315,6.517937660217285,-21.431821823120117,-185.21958923339844, -13.158773422241211
561,3066529406,0.26191843,0.41660348,-0.7838903,0.37862432,5.374780178070068,-3.9596643447875977,11.095977783203125,44.188880920410156,-238.2435302734375, 9.396076202392578
562,3066546073,0.23022233,0.43033153,-0.793049,0.3645351,6.962327480316162,0.30141961574554443,13.920496940612793,16.167829513549805,-262.33154296875, 10.710469245910645
563,3066562740,0.2039106,0.44190055,-0.8042535,0.34105843,8.493124008178711,1.598331332206726,17.856525421142578,-59.591514587402344,-259.05328369140625, 0.2131955772638321
564,3066579407,0.18661202,0.4503793,-0.8174455,0.30678588,7.122448921203613,1.3534027338027954,20.178062438964844,-155.7821502685547,-238.14102172851562, -12.874896049499512
565,3066596074,0.17646447,0.4566202,-0.8302248,0.26661792,6.764863967895508,1.8426743745803833,19.681198120117188,-213.16793823242188,-211.5345916748047, -24.232336044311523
566,3066612741,0.1721375,0.46146378,-0.84052795,0.22568272,5.997140884399414,1.1368070840835571,19.07925033569336,-233.03453063964844,-175.66465759277344, -35.691436767578125
567,3066629408,0.17067471,0.4656623,-0.84733844,0.18986009,4.629219055175781,-1.8264305591583252,18.614057540893555,-207.93434143066406,-138.18679809570312, -41.549564361572266
568,3066646075,0.1693372,0.47070938,-0.85028034,0.16365008,5.456117630004883,-2.1021411418914795,16.61203384399414,-146.31329345703125,-103.59410858154297, -47.922298431396484
569,3066662742,0.16877542,0.4756291,-0.85096914,0.14540799,7.710774898529053,-3.621544599533081,13.517455101013184,-99.8814468383789,-70.81598663330078, -46.199668884277344
570,3066679409,0.1656874,0.48184016,-0.84850526,0.14288695,8.619145393371582,-5.05918025970459,8.76194953918457,4.972583770751953,-32.12888717651367, -43.392250061035156
571,3066696076,0.1621018,0.4880631,-0.8434645,0.1551941,7.220943450927734,-4.117738246917725,6.553958892822266,95.62174987792969,16.755796432495117, -34.64447021484375
572,3066712743,0.16404076,0.49133393,-0.8373372,0.17477946,4.9752726554870605,-4.144819736480713,5.588661193847656,117.1209716796875,77.4007797241211, -18.90855598449707
573,3066729410,0.17408156,0.49084392,-0.8305052,0.19755812,3.0653069019317627,-4.333573341369629,4.372971057891846,104.68750762939453,140.05593872070312, -5.723480224609375
574,3066746077,0.19222537,0.48623496,-0.8228332,0.22264504,2.660283327102661,-5.781834125518799,2.4408035278320312,86.6663589477539,200.70751953125, 6.7376790046691895
575,3066762744,0.2163821,0.478301,-0.81295294,0.2520214,1.7604204416275024,-3.3040082454681396,2.064495801925659,89.73677062988281,257.1232604980469, 14.610082626342773
576,3066779411,0.24642034,0.46629083,-0.80172414,0.28122625,0.6139411926269531,-2.6382575035095215,0.604603111743927,65.64521026611328,298.5838623046875, 22.50581932067871
577,3066796078,0.27826047,0.4516591,-0.78748024,0.31376785,0.03585982322692871,-0.8021090626716614,-0.3337627649307251,79.61017608642578,329.53338623046875, 29.443296432495117
578,3066812745,0.3108485,0.43462187,-0.7698513,0.3490076,-0.3605860471725464,0.10487569868564606,-1.0748552083969116,94.57672119140625,353.8027648925781, 35.5206184387207
579,3066829412,0.34407645,0.4163189,-0.7482064,0.38532764,-0.6762771606445312,2.1556031703948975,-1.7624406814575195,105.30084228515625,372.2325439453125, 31.018611907958984
580,3066846079,0.3786592,0.39528134,-0.724967,0.41808227,-0.11844705045223236,0.7949877977371216,-3.461517572402954,80.8114013671875,380.2059020996094, 28.543485641479492
581,3066862746,0.41174123,0.3737394,-0.6995112,0.4488564,0.5255146622657776,-0.3901258707046509,-7.92928409576416,80.06824493408203,374.77313232421875, 24.192251205444336
582,3066879413,0.44264087,0.3529348,-0.6722229,0.47709793,1.7881462574005127,-1.8615837097167969,-11.231342315673828,81.26567840576172,360.9922790527344, 15.47278118133545
583,3066896080,0.47278222,0.32990846,-0.6479295,0.49782002,3.2691521644592285,-0.9239801168441772,-15.050653457641602,31.810317993164062,337.78955078125, 12.544351577758789
584,3066912747,0.49972844,0.30812368,-0.62695134,0.5121165,4.4353532791137695,-1.3657760620117188,-21.466524124145508,3.2131543159484863,294.4211730957031, 4.524912357330322
585,3066929414,0.5199767,0.28982502,-0.6115485,0.5211856,3.8123984336853027,-3.6011550426483154,-26.57927894592285,-12.621763229370117,223.6890869140625, 6.877554416656494
586,3066946081,0.5331804,0.27274707,-0.60664976,0.52278495,-0.16968101263046265,-2.344606399536133,-26.472530364990234,-63.03636932373047,138.05694580078125, 21.131973266601562
587,3066962748,0.53688467,0.2629221,-0.6088216,0.5215009,-2.798039197921753,-2.1706271171569824,-29.285388946533203,-55.827735900878906,41.80703353881836, 27.658695220947266
588,3066979415,0.53235143,0.26248318,-0.6159064,0.5180385,-3.5817675590515137,0.7951826453208923,-25.63705825805664,-32.747467041015625,-47.587181091308594, 18.683778762817383
589,3066996082,0.52143073,0.26747766,-0.6290749,0.51071584,-3.102747678756714,0.7778549790382385,-22.468629837036133,-39.1358642578125,-122.5546875, 15.253545761108398
590,3067012749,0.50524205,0.27711326,-0.6457326,0.50096744,-0.7518558502197266,0.06314902007579803,-21.635421752929688,-35.37890625,-178.05960083007812, 11.366366386413574
591,3067029416,0.47301716,0.29146352,-0.6728148,0.48849195,10.249030113220215,-22.448633193969727,-62.880855560302734,-36.2924919128418,-306.4726257324219, 56.0175895690918
592,3067046083,0.4322486,0.33034757,-0.6787384,0.49330103,18.408042907714844,24.717981338500977,25.637338638305664,212.36422729492188,-323.35498046875, -15.651382446289062
593,3067062750,0.4013936,0.34248564,-0.7060602,0.47229874,4.0296454429626465,0.37315917015075684,-6.657715797424316,-83.28795623779297,-309.5179138183594, 47.9061393737793
594,3067079417,0.36658338,0.36518812,-0.71658987,0.46771073,8.485688209533691,6.473042011260986,-5.962189197540283,89.44449615478516,-277.9932556152344, 15.145864486694336
595,3067096084,0.3428775,0.3796973,-0.7263741,0.45896176,9.106900215148926,8.139322280883789,-6.135481834411621,22.735477447509766,-205.50502014160156, 7.492992401123047
596,3067112751,0.3254873,0.3889535,-0.73555166,0.4491513,9.977272033691406,-3.809370756149292,0.986406683921814,-9.5585298538208,-158.77500915527344, 9.880029678344727
597,3067129418,0.31389874,0.39448446,-0.74327606,0.43976182,12.683187484741211,0.614484429359436,-1.9730795621871948,-26.881168365478516,-113.83003997802734, 7.87725305557251
598,3067146085,0.3086588,0.39671838,-0.7522392,0.4260054,12.1536283493042,-1.681591510772705,2.8271443843841553,-77.34383392333984,-86.16805267333984, -0.36680400371551514
599,3067162752,0.3079485,0.39867762,-0.7599315,0.41076517,15.279672622680664,2.2577264308929443,2.1048200130462646,-94.34235382080078,-63.6413459777832, -18.672353744506836
600,3067179419,0.31279418,0.40123352,-0.7665316,0.39191958,13.884465217590332,0.9111688137054443,9.926490783691406,-124.17510986328125,-44.242584228515625, -47.85035705566406
601,3067196086,0.31852496,0.40362048,-0.77218294,0.3733174,9.452095031738281,1.85659658908844,6.347482204437256,-123.29998016357422,-36.970516204833984, -51.228267669677734
602,3067212753,0.3227159,0.40673953,-0.77756906,0.35468835,7.071169376373291,-0.15856792032718658,9.744123458862305,-116.98621368408203,-46.91295623779297, -51.80379104614258
603,3067229420,0.3226794,0.4099633,-0.78063434,0.34411952,3.4976413249969482,-3.495441198348999,15.85489559173584,-56.27606201171875,-42.511871337890625, -30.599111557006836
604,3067246087,0.31817874,0.4147196,-0.78256303,0.33817932,0.6067269444465637,-4.387302875518799,13.338922500610352,-12.88190746307373,-55.0451545715332, -21.255088806152344
605,3067262754,0.30859524,0.42252013,-0.78834957,0.32365197,1.1147799491882324,-5.697811126708984,6.51146936416626,-46.99503707885742,-122.78810119628906, -33.70396423339844
606,3067279421,0.28585896,0.43853658,-0.79363084,0.31003362,3.773629903793335,-6.065537452697754,-3.8758389949798584,14.649024963378906,-208.8800811767578, -48.636619567871094
607,3067296088,0.2562262,0.4585959,-0.79598635,0.3007392,7.077296733856201,-3.5900092124938965,8.956850051879883,73.21728515625,-236.35260009765625, -56.43971252441406
608,3067312755,0.22922121,0.4752113,-0.8022093,0.27945012,4.210522174835205,-1.2630290985107422,15.219144821166992,-14.851176261901855,-259.8560485839844, -52.00300216674805
609,3067329422,0.20576227,0.48816982,-0.8099204,0.2517566,6.771100997924805,-7.37366247177124,14.860142707824707,-70.44567108154297,-256.96124267578125, -43.89741516113281
610,3067346089,0.18144378,0.49925303,-0.8153933,0.23012732,6.348713397979736,-5.5334978103637695,18.717376708984375,-32.66355895996094,-235.4060516357422, -31.01007080078125
611,3067362756,0.16238584,0.5059132,-0.82140404,0.20731182,5.3084940910339355,-3.8113083839416504,20.116716384887695,-63.8425178527832,-204.10948181152344, -14.255005836486816
612,3067379423,0.14838159,0.5090778,-0.82755077,0.18434356,5.000723838806152,-6.796036720275879,19.095327377319336,-86.4702377319336,-171.67413330078125, -1.4962708950042725
613,3067396090,0.13360694,0.5117571,-0.83146185,0.17007476,5.798779010772705,-7.319937705993652,16.638242721557617,-32.057167053222656,-143.05084228515625, 3.169574737548828
614,3067412757,0.120200984,0.51399684,-0.8336138,0.16262522,7.316009998321533,-5.48736572265625,14.635759353637695,3.635857105255127,-109.40409088134766, 4.065962791442871
615,3067429424,0.11148208,0.5152859,-0.83448964,0.16024813,9.228636741638184,-5.385501384735107,12.940537452697754,16.688657760620117,-62.79557800292969, 3.9180781841278076
616,3067446091,0.107023455,0.5152743,-0.83424103,0.16456193,9.823640823364258,-5.32938814163208,9.9973726272583,40.13697814941406,-12.673295974731445, 7.8159894943237305
617,3067462758,0.10750612,0.5135135,-0.83264273,0.17734881,7.636568546295166,-2.7046449184417725,7.673954486846924,71.39244842529297,48.367576599121094, 13.723365783691406
618,3067479425,0.11694709,0.50930595,-0.83037233,0.19342414,5.90656042098999,0.5411314368247986,5.968153476715088,57.564884185791016,114.55801391601562, 16.907073974609375
619,3067496092,0.13650593,0.5017764,-0.8281019,0.20936579,5.081035614013672,-0.42107725143432617,3.2434139251708984,18.7081241607666,176.17636108398438, 22.354629516601562
620,3067512759,0.16157956,0.49155092,-0.82431847,0.2297154,4.6071062088012695,-2.146548271179199,0.8100218772888184,24.42742919921875,228.05819702148438, 28.684728622436523
621,3067529426,0.18915246,0.4791423,-0.81762373,0.25716794,4.273155689239502,-1.9675806760787964,-0.044721782207489014,58.40276336669922,272.9433288574219, 35.150672912597656
622,3067546093,0.21784998,0.46564427,-0.8072239,0.29001072,3.4942948818206787,0.30183523893356323,-0.7414147257804871,90.13792419433594,303.8252258300781, 34.103363037109375
623,3067562760,0.24773498,0.45045948,-0.7937746,0.32501668,2.7434818744659424,0.8227441906929016,-1.7357758283615112,101.91761779785156,325.3632507324219, 34.637481689453125
624,3067579427,0.27914733,0.43258664,-0.77757215,0.3610085,2.3744776248931885,0.4638175368309021,-2.4075300693511963,104.15943145751953,347.5889892578125, 39.11796188354492
625,3067596094,0.3106072,0.41257828,-0.75829977,0.39784932,1.4825255870819092,1.9615726470947266,-3.370399236679077,112.09107971191406,361.7248840332031, 42.97149658203125
626,3067612761,0.34345356,0.3890268,-0.739677,0.42845753,-0.4791361391544342,3.296971321105957,-4.755086421966553,66.30256652832031,359.7566223144531, 46.231605529785156
627,3067629428,0.37588805,0.36457658,-0.7202814,0.4549582,-2.6071887016296387,2.6817939281463623,-8.304731369018555,46.683204650878906,351.3941345214844, 40.26421356201172
628,3067646095,0.40779534,0.34145603,-0.6988537,0.47824118,-3.0387911796569824,2.8623321056365967,-10.153433799743652,41.93048095703125,342.1714172363281, 21.885324478149414
629,3067662762,0.43904746,0.31910336,-0.67688984,0.49722302,-1.2354198694229126,0.7026526927947998,-13.153072357177734,26.813278198242188,328.3002624511719, 6.997589111328125
630,3067679429,0.467643,0.29707065,-0.6562668,0.5122237,0.3551815450191498,-0.09275675565004349,-16.653579711914062,10.628639221191406,302.5075378417969, 5.46001672744751
631,3067696096,0.49274203,0.27503476,-0.6397312,0.52182865,0.6257535815238953,0.3504375219345093,-20.435651779174805,-20.812345504760742,263.1075439453125, 8.738504409790039
632,3067712763,0.5121218,0.25425836,-0.629544,0.5260784,-0.25927722454071045,0.2273109257221222,-24.932239532470703,-51.84952163696289,202.429931640625, 17.555545806884766
633,3067729430,0.523066,0.23944734,-0.6248632,0.527838,-2.1410014629364014,-0.4033578336238861,-27.177881240844727,-46.5184211730957,121.35213470458984, 23.094636917114258
634,3067746097,0.52493006,0.23327148,-0.62525654,0.5282871,-3.6950647830963135,-0.6881231069564819,-28.69369125366211,-24.245988845825195,31.39729118347168, 22.57305145263672
635,3067762764,0.5174787,0.23619288,-0.63134503,0.5270981,-2.9052906036376953,-1.6505470275878906,-28.31717872619629,-3.8662221431732178,-64.06564331054688, 20.47712516784668
636,3067779431,0.50073797,0.24913873,-0.639778,0.5271391,-2.368222236633301,0.93013596534729,-25.199989318847656,44.05668640136719,-146.30694580078125, 18.704296112060547
637,3067796098,0.4784253,0.26535505,-0.6512553,0.5258924,-0.25238552689552307,-0.09606172144412994,-22.626218795776367,48.41550827026367,-194.72369384765625, 25.167612075805664
638,3067812765,0.4381338,0.28945887,-0.67279893,0.52114683,15.079192161560059,-18.29860496520996,-72.49027252197266,55.32908248901367,-342.827392578125, 61.53515625
639,3067829432,0.3976184,0.3228424,-0.6869427,0.5155406,25.861949920654297,23.99782943725586,33.515899658203125,107.0564956665039,-354.5771179199219, 1.3988033533096313
640,3067846099,0.36085582,0.34186125,-0.7091405,0.5000338,7.573431491851807,-1.6106804609298706,-5.7399773597717285,-16.625808715820312,-331.1837158203125, 47.32109832763672
641,3067862766,0.32568517,0.3690277,-0.7110088,0.5022095,12.086501121520996,10.951719284057617,-3.523257255554199,155.9401092529297,-259.4599914550781, -1.978118658065796
642,3067879433,0.30345577,0.38283402,-0.72192085,0.4900849,8.621240615844727,0.111152783036232,-2.7645342350006104,-8.138755798339844,-206.71690368652344, 9.738350868225098
643,3067896100,0.28460538,0.3927225,-0.72599226,0.48754922,11.183215141296387,7.042404651641846,-4.468165874481201,45.35692596435547,-137.3915557861328, 19.834564208984375
644,3067912767,0.27286062,0.39875516,-0.7342397,0.47689992,10.971726417541504,0.16983585059642792,-1.3922662734985352,-35.93708419799805,-119.2339859008789, 10.887450218200684
645,3067929434,0.26489455,0.40225276,-0.74120647,0.46758598,12.796760559082031,1.7500638961791992,-1.3593876361846924,-40.194557189941406,-86.02801513671875, 10.450746536254883
646,3067946101,0.26192197,0.40549034,-0.7490218,0.45380718,13.135099411010742,-0.007036656141281128,3.6686854362487793,-80.05072784423828,-73.9093017578125, -9.824331283569336
647,3067962768,0.26464856,0.40748298,-0.75449073,0.44120568,12.523869514465332,0.9687609076499939,3.7585270404815674,-84.93965911865234,-33.57663345336914, -25.382986068725586
648,3067979435,0.27391034,0.40501407,-0.7640775,0.42085937,9.590980529785156,3.0700442790985107,8.802255630493164,-164.18118286132812,-15.738754272460938, -24.359630584716797
649,3067996102,0.2876766,0.39921677,-0.77670234,0.3931941,6.695123672485352,1.2311819791793823,5.9890031814575195,-230.40638732910156,-9.050439834594727, -24.948503494262695
650,3068012769,0.2952605,0.39568368,-0.78415775,0.37596875,4.619226455688477,-6.7523298263549805,6.232769012451172,-139.30258178710938,-9.687520980834961, -13.696264266967773
651,3068029436,0.29150328,0.39989203,-0.78744227,0.36748755,0.23887348175048828,-3.7398598194122314,11.670221328735352,-34.912620544433594,-58.92531967163086, -19.789302825927734
652,3068046103,0.28039873,0.4095969,-0.79061866,0.35850984,0.9852134585380554,-3.585214376449585,5.363259792327881,-6.221980571746826,-114.11192321777344, -32.37041473388672
653,3068062770,0.26040146,0.4248204,-0.7940959,0.3480382,0.5437257885932922,0.20014332234859467,1.5406755208969116,20.54384994506836,-181.05418395996094, -42.582027435302734
654,3068079437,0.23168603,0.44264525,-0.79799575,0.33703077,5.494877338409424,-3.378211736679077,5.438180446624756,46.73533248901367,-237.29547119140625, -35.68996810913086
655,3068096104,0.19911984,0.4619902,-0.8007289,0.3251919,4.4158034324646,2.9490296840667725,13.497955322265625,58.97074890136719,-262.90374755859375, -40.04414749145508
656,3068112771,0.17284255,0.47699523,-0.8073411,0.30133247,5.033416271209717,-1.103293538093567,17.75835418701172,-41.85939025878906,-262.4745788574219, -34.28851318359375
657,3068129438,0.14873509,0.4888973,-0.8135782,0.277395,5.060300350189209,-2.736915111541748,19.018978118896484,-52.40117263793945,-244.29627990722656, -22.895946502685547
658,3068146105,0.13087167,0.4976224,-0.8202376,0.24991022,5.48253870010376,-0.6964216232299805,19.782066345214844,-97.3926010131836,-216.1402587890625, -19.296159744262695
659,3068162772,0.119695134,0.5038627,-0.8270094,0.21874864,6.483570575714111,-3.9232211112976074,18.799705505371094,-143.51763916015625,-187.30416870117188, -19.74603271484375
660,3068179439,0.110193886,0.5089816,-0.8319693,0.1913688,6.553614139556885,-6.149563312530518,18.18548011779785,-126.1101303100586,-161.93109130859375, -19.169965744018555
661,3068196106,0.10067294,0.51370126,-0.83463144,0.17136651,6.760129928588867,-3.943962335586548,16.39588165283203,-81.23283386230469,-134.3446807861328, -19.456085205078125
662,3068212773,0.09490267,0.5171274,-0.83675826,0.15299918,8.19361400604248,-3.648033618927002,14.303922653198242,-85.44486999511719,-105.4912109375, -17.31362533569336
663,3068229440,0.093132615,0.5189458,-0.83821386,0.13935219,9.310004234313965,-5.571597576141357,12.313372611999512,-72.92195892333984,-63.89863204956055, -11.675414085388184
664,3068246107,0.091809005,0.51983863,-0.8382038,0.13694313,8.731961250305176,-4.88930082321167,8.347016334533691,-9.029158592224121,-19.733863830566406, -4.897861003875732
665,3068262774,0.09244482,0.51978916,-0.8365786,0.14631996,7.249819755554199,-2.07682204246521,6.365294456481934,52.744319915771484,35.3316650390625, 0.3247416019439697
666,3068279441,0.101610295,0.5176891,-0.83429646,0.16007102,5.630540370941162,-0.9679640531539917,6.115818023681641,46.755638122558594,102.33148193359375, 4.002503395080566
667,3068296108,0.1188923,0.5127881,-0.8317512,0.17636044,4.534294605255127,-2.525144100189209,3.3466057777404785,30.74889373779297,161.08621215820312, 11.997753143310547
668,3068312775,0.1402121,0.5048292,-0.8279352,0.20002821,4.025565147399902,-4.586746692657471,0.7654926776885986,57.72034454345703,214.91317749023438, 26.137649536132812
669,3068329442,0.16303825,0.4948295,-0.82105416,0.23330773,3.5940375328063965,-3.286888599395752,0.5977580547332764,109.41471099853516,262.65338134765625, 34.31206512451172
670,3068346109,0.18957995,0.4824421,-0.8114909,0.26979953,2.7719027996063232,-1.4356036186218262,0.046782076358795166,116.5016098022461,301.45574951171875, 36.345069885253906
671,3068362776,0.21874203,0.46761638,-0.7991567,0.30795398,1.967223048210144,-0.48170527815818787,-1.4562550783157349,119.0345687866211,329.8251647949219, 38.123802185058594
672,3068379443,0.2503836,0.4511746,-0.7834363,0.34637737,1.8063358068466187,2.8337252140045166,-1.9198843240737915,117.27893829345703,352.9815673828125, 31.326345443725586
673,3068396110,0.28600764,0.43147677,-0.76635504,0.38043082,1.4265642166137695,2.926881790161133,-3.399540901184082,79.01908111572266,371.142333984375, 27.723613739013672
674,3068412777,0.3212943,0.41128862,-0.7460678,0.41351506,1.114480972290039,3.7705023288726807,-4.61859130859375,82.35474395751953,374.2801513671875, 19.829259872436523
675,3068429444,0.35624754,0.39083374,-0.72341937,0.44384828,0.7103545665740967,3.8416380882263184,-6.184272289276123,75.32884216308594,371.00177001953125, 9.451745986938477
676,3068446111,0.39246416,0.36843222,-0.7008281,0.46804887,0.9569594860076904,1.9717631340026855,-9.737993240356445,36.499969482421875,366.8873596191406, 0.44317764043807983
677,3068462778,0.42680463,0.3452633,-0.67879146,0.4877225,1.5762808322906494,-2.06467604637146,-15.083826065063477,15.633566856384277,347.7154235839844, -0.6581560969352722
678,3068479445,0.45452315,0.32554093,-0.65702486,0.5057175,2.2463107109069824,-3.963158369064331,-20.910480499267578,32.85980987548828,300.96954345703125, 1.0822749137878418
679,3068496112,0.4746038,0.31107828,-0.6362631,0.52263844,1.8734952211380005,-2.0651988983154297,-24.0744686126709,58.25094223022461,243.30726623535156, 2.661625385284424
680,3068512779,0.48874354,0.2988825,-0.62227696,0.5334516,0.22509559988975525,-0.885145902633667,-26.465789794921875,27.50650405883789,174.76722717285156, 8.578084945678711
681,3068529446,0.49720562,0.28756326,-0.61988324,0.53463906,-2.6521778106689453,-1.8127131462097168,-28.840456008911133,-41.33488845825195,89.36088562011719, 17.066770553588867
682,3068546113,0.49811205,0.28121004,-0.6265267,0.5294051,-4.512173175811768,-2.9977285861968994,-29.065589904785156,-69.71321105957031,-3.7997524738311768, 19.517742156982422
683,3068562780,0.48985058,0.28373924,-0.63805884,0.5219382,-3.312859058380127,-3.8887410163879395,-26.778553009033203,-48.670894622802734,-95.8322982788086, 16.332305908203125
684,3068579447,0.47178024,0.29566002,-0.65058845,0.51647204,-2.384026527404785,-3.3689675331115723,-22.85028839111328,7.5735273361206055,-171.2858123779297, 18.87112808227539
685,3068596114,0.4451987,0.31397882,-0.6617256,0.51510656,-2.682847499847412,-1.5861937999725342,-16.248422622680664,69.14228820800781,-218.6563262939453, 30.73601531982422
686,3068612781,0.41685933,0.3271115,-0.6780479,0.5093897,-1.145439624786377,-8.098661422729492,-26.524608612060547,19.025959014892578,-233.2045440673828, 58.23101043701172
687,3068629448,0.36847726,0.3623458,-0.68388915,0.515001,21.8487491607666,3.9954700469970703,-34.15047836303711,217.31410217285156,-348.07049560546875, 33.80598068237305
688,3068646115,0.3348151,0.37642768,-0.70613897,0.49756297,2.6080799102783203,6.283688068389893,14.56351375579834,-39.46366500854492,-302.1237487792969, 63.55202102661133
689,3068662782,0.2970724,0.39583123,-0.7168158,0.49116278,14.333033561706543,-3.72279953956604,-5.496203899383545,76.30841064453125,-285.5971374511719, 47.20840835571289
690,3068679449,0.26848418,0.41285586,-0.7180294,0.49183354,13.514041900634766,10.103541374206543,-2.962800979614258,113.22856903076172,-194.02349853515625, 16.595918655395508
691,3068696116,0.25137678,0.42089748,-0.72710437,0.48059818,10.453635215759277,1.0860741138458252,-1.7268006801605225,-21.44202423095703,-155.50477600097656, 22.734331130981445
692,3068712783,0.23600985,0.4266318,-0.73350185,0.47356072,13.989486694335938,6.206895351409912,-3.595364570617676,-0.7142117023468018,-122.64021301269531, 28.184288024902344
693,3068729450,0.22664358,0.43027052,-0.74241745,0.460778,13.278252601623535,0.5439726710319519,-0.13312825560569763,-58.94804382324219,-106.7306137084961, 17.60554313659668
694,3068746117,0.22216612,0.43153515,-0.75078845,0.44803625,14.297286033630371,0.9187296032905579,1.168071985244751,-75.26119232177734,-73.61138916015625, 12.945740699768066
