Acc_X,Acc_Y,Acc_Z
1.7699339389801023,4.759381771087647,-9.599047660827637
5.992334365844727,4.11322546005249,-16.722814559936523
14.223179817199709,-0.8585180044174194,-28.81829643249512
5.547069072723389,-3.266240358352661,-40.09536743164063
-0.8372862339019775,4.723431587219238,-37.28843307495117
-7.476903915405273,-2.173062801361084,-37.8313102722168
-7.999713897705078,2.218147039413452,-23.81069564819336
-7.75834846496582,6.517267227172852,-13.27042293548584
-12.332711219787598,-2.769282341003418,-42.71408462524414
11.278350830078123,21.44479751586914,-20.314285278320312
2.808346509933472,3.3033132553100586,8.257417678833008
16.839815139770508,-2.170376777648926,2.192570209503174
33.14927291870117,23.392166137695312,13.914043426513672
-2.974949598312378,-0.0867245197296142,-6.627005577087402
7.743435382843018,-3.3013851642608643,-1.072942852973938
6.187550067901611,-4.05242395401001,-0.7748570442199707
9.025429725646973,-8.888598442077637,-1.432704210281372
11.80022430419922,-4.8421478271484375,1.0746866464614868
13.480183601379396,2.378247737884521,9.443999290466309
12.107523918151855,2.4819705486297607,16.698610305786133
5.667659759521484,1.859626531600952,23.474225997924805
3.3120005130767822,-2.2092301845550537,13.4367094039917
8.322908401489258,-10.861507415771484,8.401534080505371
8.730013847351074,-3.847699880599976,12.33917236328125
8.788269996643066,1.4803341627120972,11.965810775756836
11.923872947692873,0.1098042726516723,19.29046440124512
8.555572509765625,6.539024829864502,24.33983993530273
6.821057319641113,3.1816277503967285,19.63092041015625
6.392009258270264,5.926675319671631,18.50680351257324
6.197059631347656,1.1269187927246094,15.874281883239746
4.089874744415283,0.318207323551178,14.33855438232422
3.306771993637085,-3.0140814781188965,13.050423622131348
2.406372308731079,-6.544084548950195,9.659107208251951
-0.6666371822357178,-6.29121208190918,8.405016899108887
1.1719380617141724,-5.590360164642334,3.402822494506836
3.074340343475342,-3.135399341583252,-2.9189693927764893
2.685915470123291,-1.3301074504852295,-7.440940856933594
4.867890357971191,4.924272537231445,-12.33660125732422
13.130438804626465,9.404560089111328,-16.350858688354492
13.48276710510254,1.817004919052124,-27.96075439453125
5.782450675964356,-1.5799391269683838,-36.5997314453125
-3.3522305488586426,4.147342205047607,-38.14881896972656
-9.62093448638916,-2.8906009197235107,-37.58823776245117
-9.069842338562012,1.1936208009719849,-31.277149200439453
-8.232829093933105,11.93055534362793,-20.549192428588867
-7.036628723144531,10.22730827331543,-26.78062057495117
6.304666519165039,-5.646435260772705,-20.823848724365234
19.123062133789062,-6.08241081237793,2.985002994537353
36.52529144287109,27.09372329711914,18.28207397460937
-1.044073462486267,10.506729125976562,-5.487558841705322
2.0849955081939697,-14.992467880249023,-5.887283802032471
7.283991813659668,5.5546722412109375,0.7783051133155823
2.638406991958618,-7.619147300720215,-1.8356177806854248
8.375391960144043,-11.265243530273438,-2.710035562515259
11.13253402709961,-1.5243310928344729,0.8150346875190735
12.288269996643066,4.975449085235596,5.502743721008301
10.371304512023926,2.2328245639801025,10.5473051071167
5.741633415222168,2.7239208221435547,16.215805053710938
3.594916343688965,3.672288179397583,17.664419174194336
3.614539384841919,-2.63778018951416,6.2203755378723145
9.46566390991211,-10.869707107543944,6.810442924499512
6.904763698577881,-4.804904937744141,10.89540672302246
9.283295631408691,-0.1116774678230285,8.596296310424805
12.618867874145508,1.6731512546539309,19.599822998046875
7.234303951263428,2.223230361938477,23.41617584228516
5.344189643859863,-0.3832833766937256,21.9227352142334
5.5550150871276855,-0.4274650514125824,20.96194076538086
3.702951669692993,-0.186874970793724,17.56583595275879
2.4722750186920166,-0.4970647096633911,14.970212936401367
3.4142403602600098,-2.949709415435791,11.763062477111816
2.937596082687378,-4.845062732696533,8.194738388061523
1.3263479471206665,-3.968126773834229,5.469986915588379
1.9850924015045168,-4.96244478225708,0.2163074612617492
1.9836270809173584,-3.8221726417541504,-4.586050987243652
0.8609265089035034,-6.647977828979492,-11.215511322021484
0.7226148247718811,-2.031230926513672,-15.136114120483398
5.98154878616333,3.6540846824646,-20.732959747314453
6.553407192230225,7.243345737457275,-28.521860122680664
0.4111940860748291,-4.802609443664551,-41.31907272338867
-3.6654653549194336,-0.9184260368347168,-38.96591567993164
-7.20638370513916,11.07352066040039,-26.33358383178711
-8.281576156616211,8.137236595153809,-19.59305191040039
-11.53564167022705,0.5480725169181824,-32.75981521606445
5.895291328430176,14.222033500671388,-20.12393569946289
7.342319488525391,-1.09563410282135,-3.412403106689453
5.849899291992188,-8.843998908996582,10.950960159301758
39.135231018066406,16.69446563720703,16.65656089782715
-3.391770362854004,2.582495927810669,-9.063641548156738
4.310914039611816,-3.1916353702545166,-2.2427940368652344
9.536486625671388,1.994224071502685,3.04760217666626
10.08530616760254,-4.756603240966797,1.0812170505523682
14.076714515686035,-5.634170055389404,0.4046037793159485
14.24391269683838,3.7647979259490967,7.226169586181641
11.505440711975098,5.0756354331970215,13.873693466186523
8.596587181091309,1.2936298847198486,19.21973419189453
4.2826080322265625,2.6660890579223637,20.126991271972656
4.063929080963135,-2.491474151611328,7.699204921722412
10.188427925109863,-11.939568519592283,6.202423095703125
7.549423217773437,-5.252888202667236,9.158946990966797
9.308389663696287,1.4531702995300293,11.79075813293457
8.524965286254883,3.88279128074646,23.06371688842773
4.342916965484619,2.6194961071014404,20.578319549560547
3.7366535663604736,0.2109589576721191,17.06627082824707
5.540369033813477,-2.6264865398406982,15.442564010620115
4.727908611297607,-3.97003984451294,12.1949462890625
3.922075748443604,-3.6314194202423096,9.340081214904783
3.631809949874878,-1.0895885229110718,8.319066047668457
1.3464877605438232,0.2952471673488617,6.29290771484375
-0.329839825630188,-0.4974032342433929,3.800358057022095
-0.804011344909668,0.3805366456508636,3.478527069091797
-2.420033693313598,-0.5849743485450745,-0.3934454321861267
-5.776196479797363,-1.171787142753601,-3.683648586273194
-4.379363536834717,0.6053926348686218,-5.365780830383301
1.187225580215454,4.382517814636231,-8.885759353637695
6.574258804321289,5.458513259887695,-16.83981704711914
7.217202186584473,3.1001908779144287,-25.562150955200195
5.2925214767456055,3.632180213928223,-30.695098876953125
-2.0281248092651367,-2.8747591972351074,-36.41338348388672
-8.934053421020508,3.0512375831604004,-30.63945770263672
-8.842985153198242,3.615088939666748,-23.568971633911133
-8.367149353027344,0.7002210021018982,-20.35759162902832
-3.552784919738769,4.910879611968994,-41.74674224853516
20.950258255004883,-1.942868709564209,8.624189376831055
31.884117126464844,16.47025489807129,11.79647445678711
2.2750186920166016,17.954450607299805,-4.506440162658691
3.144585609436035,-13.106654167175291,-6.218182563781738
10.601548194885254,4.229353427886963,1.987038373947144
5.983251094818115,-2.038846492767334,0.9135857224464417
12.2963285446167,-11.28652572631836,0.0791433453559875
12.83490753173828,1.2008413076400757,3.128255605697632
11.321821212768556,5.450066089630127,8.555924415588379
12.203208923339844,6.320857524871826,11.990594863891602
5.51051664352417,6.081370830535889,18.565582275390625
1.0306179523468018,2.011261224746704,12.09974765777588
8.645308494567871,-9.311416625976562,1.0668796300888062
7.914045810699463,-8.000406265258789,5.681258201599121
10.808197021484377,-2.003593921661377,7.31417179107666
15.748771667480469,6.208123683929443,15.681318283081056
11.121992111206056,4.479889392852783,20.70073509216309
9.069368362426758,0.0872882604598999,19.72126197814941
9.18978786468506,-4.308569431304932,19.164045333862305
7.434003829956055,-7.857032299041748,18.019750595092773
3.4071292877197266,-6.954744815826416,16.50508689880371
1.945802330970764,-7.092641353607178,14.536009788513184
1.359549641609192,-5.30359411239624,12.19175148010254
-3.1016128063201904,-3.363066911697388,10.472387313842772
-3.182379484176636,-3.1603963375091557,6.795913696289063
-2.910792350769043,0.0558615513145923,2.922293901443481
-4.589056015014648,1.5221471786499023,-2.973660945892334
-4.802648544311523,0.4767282903194427,-7.680532455444336
-0.7334592342376709,1.4071660041809082,-11.304244041442873
6.881412982940674,5.776514530181885,-14.15297031402588
11.6976318359375,-2.6926305294036865,-29.76700210571289
7.273200511932373,4.722901344299316,-38.97690963745117
2.959480762481689,6.808432579040527,-36.9998893737793
-6.68328857421875,-3.620407104492188,-41.09762954711914
-7.4309000968933105,4.0107269287109375,-25.040512084960938
-7.899919986724853,-1.548567533493042,-33.99624252319336
4.920795440673828,28.543216705322266,5.473504066467285
9.303457260131836,1.7703222036361694,-1.7048051357269287
8.755134582519531,7.907609939575195,-6.319272994995117
6.525984287261963,1.0469975471496582,3.27685546875
11.191835403442385,-2.946673393249512,-0.6071077585220337
12.229886054992676,0.2782451808452606,1.0810353755950928
10.840127944946287,0.7031359672546387,-0.4034025073051452
13.137276649475098,1.5061745643615725,1.2984950542449951
15.353171348571776,2.911293268203736,6.747736930847168
14.40061092376709,2.0705339908599854,8.13461685180664
12.252857208251951,4.73920488357544,15.163872718811035
7.21597146987915,4.280622959136963,20.769886016845703
1.526705026626587,-0.8841766119003296,13.400078773498535
5.5789313316345215,-7.627355098724365,3.8291094303131104
8.361595153808594,-14.145275115966797,3.5275983810424805
6.172736644744873,-2.881133556365967,9.601480484008787
6.74636697769165,8.55236530303955,20.105602264404297
6.44038200378418,8.48841667175293,21.80579376220703
6.098863124847412,-1.241846799850464,14.792619705200195
8.43121337890625,-7.991955280303955,12.130409240722656
8.249715805053711,-7.51837158203125,13.003910064697266
5.45383358001709,-5.799540519714356,9.9495849609375
3.800915479660034,-4.969751834869385,8.534858703613281
2.503000974655152,-5.600953102111816,5.696885585784912
0.1894414126873016,-3.850830078125,4.15122127532959
-2.3211731910705566,-2.217832326889038,3.651377677917481
-3.82525372505188,-0.4116326868534088,3.0180587768554688
-6.318356037139893,0.2756679654121399,-0.2316382527351379
-9.248756408691406,4.081018447875977,-1.2186938524246216
-10.006354331970217,3.2253708839416504,-4.092958450317383
-6.211049556732178,5.105161190032959,-6.472672939300537
-0.7369294762611389,2.82645034790039,-12.37692642211914
3.676271438598633,-2.1899237632751465,-20.13648796081543
7.643835544586182,0.4747545719146728,-26.125917434692383
3.5782384872436523,1.4826445579528809,-31.0969181060791
-4.40712833404541,1.06032133102417,-32.211517333984375
-7.946343898773193,3.014497756958008,-23.95747947692871
-9.218506813049316,-1.5779173374176023,-28.762134552001957
-2.331705093383789,15.128395080566406,-28.62860679626465
12.679405212402344,13.83961009979248,-4.324520111083984
8.264730453491211,-12.16139030456543,5.561413764953613
38.49072647094727,23.20824241638184,10.71337890625
-9.921783447265623,4.487912178039551,-5.285373687744141
6.123977184295654,-10.285038948059082,-5.392115116119385
8.932547569274902,7.4909868240356445,-1.5883792638778689
10.035658836364746,-7.8595380783081055,1.95112419128418
15.47634983062744,-7.362022399902344,3.640550374984741
14.52568244934082,0.6329575777053833,6.927101135253906
11.503936767578123,2.307238340377808,11.927719116210938
6.8807148933410645,2.029335021972656,19.293798446655277
4.313622951507568,3.862427949905396,19.13937187194824
4.700649261474609,-6.115185737609863,2.325699806213379
10.777981758117676,-12.357763290405272,2.770782232284546
8.431148529052734,-0.5855937004089355,6.64508056640625
12.319454193115234,3.849364995956421,12.9013032913208
12.469812393188477,3.508658170700073,18.841821670532227
9.057148933410645,-0.2799283862113952,20.4077262878418
7.418262958526611,-1.6091196537017822,21.46239852905273
6.778135299682617,-3.8449666500091553,20.672138214111328
4.978461265563965,-4.433363914489746,16.443288803100586
3.060385227203369,-3.8191885948181152,16.01266860961914
1.837615966796875,-4.711410999298096,13.285248756408691
0.0543083250522613,-2.71448278427124,10.820049285888672
-3.9983739852905273,-1.886252999305725,8.991533279418945
-3.5492775440216064,-0.2894369959831238,6.51375675201416
-3.802865028381348,0.7072596549987793,0.9130777716636658
-5.381844520568848,1.0469565391540527,-5.096982002258301
-5.183974742889404,0.0734196603298187,-9.997446060180664
1.3872737884521484,2.927952289581299,-12.665853500366213
8.374215126037598,-2.203997611999512,-22.90864944458008
8.832708358764648,-2.5653414726257324,-34.8713493347168
4.225274085998535,15.827428817749023,-30.697036743164062
-1.286820650100708,-0.868851900100708,-37.04500579833984
-9.049253463745115,0.7078382968902588,-28.8977108001709
-7.060153007507324,4.473104953765869,-19.006351470947266
-5.168508529663086,6.7228169441223145,-39.34357452392578
9.147419929504396,16.28227424621582,-4.547120094299316
4.009468078613281,-2.292891502380371,-1.4477819204330444
22.242210388183597,-4.6929931640625,12.85068416595459
12.541444778442385,14.700175285339355,-0.2365322858095169
2.9834346771240234,-2.787945508956909,-6.490943908691406
8.578396797180176,-2.2212319374084477,-0.8890230059623718
14.950695037841797,0.8354072570800781,5.968786239624023
15.040948867797852,-2.501650094985962,5.671633243560791
13.708054542541504,-2.11981201171875,7.354605674743652
10.627242088317873,5.711215019226074,14.33278465270996
5.615416526794434,4.163767337799072,20.585405349731445
2.7300713062286377,-0.8139041066169739,12.90068531036377
8.305242538452148,-9.89135456085205,1.2943902015686035
8.26440143585205,-7.967726230621338,4.7450103759765625
7.872243881225586,-2.3552987575531006,8.530904769897461
10.660585403442385,3.451550245285034,14.914454460144045
9.756522178649902,2.9209089279174805,19.075763702392575
7.75545072555542,-0.8464553952217102,18.931583404541016
7.259212970733643,-3.89712142944336,18.27594947814941
5.805838584899902,-6.234541416168213,16.417505264282227
2.4896552562713623,-4.699012279510498,13.578817367553713
0.5739927887916565,-4.680118083953857,11.028536796569824
0.50734943151474,-4.838027477264404,8.174625396728516
-3.2789225578308105,-1.7655338048934937,7.125229358673096
-4.985819816589356,-1.6834118366241455,4.855503559112549
-4.999277591705322,-0.9248859882354736,2.9032084941864014
-6.473392963409424,0.0159641299396753,-0.3869856297969818
-10.308297157287598,-0.8825632333755493,-4.520381450653076
-9.288264274597168,0.457942247390747,-6.217497825622559
-5.968825817108154,3.921345472335816,-7.0394206047058105
-0.596028208732605,3.57273530960083,-13.124923706054688
1.4057223796844482,0.7767471075057983,-21.62754440307617
4.845765113830566,6.619382381439209,-26.38229751586914
4.689371585845947,6.400370597839356,-27.71549224853516
-5.782882690429688,-3.2061243057250977,-29.891677856445312
-11.436063766479492,-6.955852508544922,-44.616455078125
7.3543596267700195,18.199848175048828,-35.66049575805664
8.949542999267578,13.470364570617676,14.599618911743164
-0.5527688264846802,6.075226783752441,-3.46687912940979
17.85007095336914,2.3426215648651123,-1.946494579315185
3.321876287460327,-3.780418157577514,1.6975529193878174
10.79599666595459,-4.436057090759277,0.1230079531669616
11.345970153808594,-3.506977081298828,0.6825052499771118
12.457261085510254,1.9388598203659055,-0.2044634521007537
14.4912109375,1.4754654169082642,3.13351845741272
16.320178985595703,3.928112983703613,10.089223861694336
10.96750831604004,2.996454954147339,17.671907424926758
7.283988952636719,2.773300886154175,23.05941390991211
4.635861396789551,-0.6566652655601501,14.799373626708984
8.72702407836914,-13.675687789916992,2.187380790710449
8.53111743927002,-9.273335456848145,4.747549057006836
7.840619087219238,0.8975807428359985,11.71356964111328
8.220364570617676,9.134729385375977,21.27700424194336
7.664218902587891,-1.262943983078003,17.028074264526367
7.758461952209473,-4.18209981918335,14.386334419250488
6.907495975494385,-1.7878535985946655,17.098033905029297
5.849161624908447,-3.214826822280884,15.053114891052246
4.3445305824279785,-4.40303373336792,10.887503623962402
2.786692380905152,-4.1224045753479,10.259307861328123
1.7085647583007812,-3.496263265609741,9.304792404174805
-0.2244918346405029,-1.6818064451217651,7.821521282196045
-2.562829971313477,-2.008227825164795,5.581766128540039
-3.681874990463257,0.301032692193985,4.368673801422119
-6.699225902557373,0.7632284164428711,-0.0995775312185287
-10.993459701538086,3.2821202278137207,-3.734295606613159
-11.011656761169434,3.705991983413696,-7.764575481414795
-6.72166633605957,6.613577842712402,-10.721234321594238
1.2282096147537231,4.027873516082764,-15.939510345458984
3.963665246963501,-1.2925710678100586,-25.241565704345703
5.856321334838867,4.7783966064453125,-28.45381736755371
3.273751735687256,9.355740547180176,-26.882322311401367
-6.381433486938477,0.1013867855072021,-28.73377227783203
-8.265837669372559,1.6114500761032104,-19.135108947753903
-8.539000511169434,-7.936320781707764,-58.17325592041016
15.021005630493164,22.4133243560791,-5.041910171508789
1.7464205026626587,2.727013349533081,8.917802810668945
12.919755935668944,-8.973358154296875,0.99950909614563
19.37325859069824,9.300341606140137,4.947371482849121
4.647871494293213,4.0041022300720215,-4.783262729644775
6.25747013092041,-3.08638334274292,-3.598755121231079
12.994542121887209,0.2430711537599563,2.502713203430176
14.131380081176758,-1.3522849082946775,2.924712657928467
15.83020305633545,-1.378980278968811,9.092287063598633
12.814265251159668,2.682955741882324,12.906940460205078
8.339722633361816,5.533834934234619,20.687576293945312
4.72321367263794,1.1124873161315918,20.393238067626957
4.846961498260498,-8.612667083740234,-0.1574360132217407
10.974745750427246,-13.091268539428713,2.7547526359558105
8.948817253112793,-3.3860440254211426,9.314887046813965
8.745360374450684,4.254122734069824,17.441600799560547
7.406473159790039,3.166471004486084,18.347360610961918
5.710638523101807,1.6743412017822266,18.97608184814453
5.719865322113037,-2.4282588958740234,18.21006965637207
5.874337673187256,-6.697691917419434,15.11001682281494
3.2149534225463867,-5.808035373687744,12.664190292358398
1.2347851991653442,-4.773705959320068,10.675445556640623
-0.1550392359495163,-3.601224184036255,8.450379371643066
-2.6483254432678223,-2.282976627349853,6.275783061981201
-4.361976623535156,-1.4840877056121826,4.405880451202393
-4.759740352630615,-1.0786795616149902,1.7937074899673462
-5.6065192222595215,-0.4614319503307342,-1.5638656616210938
-8.673903465270996,-0.5767710208892822,-4.848448276519775
-8.26258373260498,-0.7103316783905029,-7.8030476570129395
-4.363804817199707,3.651957511901856,-8.740053176879883
-0.7730093598365784,2.290628671646118,-13.545878410339355
-0.0375339388847351,0.9467654824256896,-20.12384986877441
1.6471621990203855,4.336231231689453,-23.74443626403809
2.0562729835510254,4.225002765655518,-24.72289276123047
-4.846798896789551,-0.4425964951515198,-26.50209045410156
-10.334173202514648,3.5583746433258057,-26.01392364501953
-4.442079067230225,1.2840605974197388,-56.75037384033203
15.136953353881836,17.290403366088867,-0.3007778525352478
0.7609919905662537,-4.11152458190918,4.32210636138916
42.53532409667969,15.290826797485352,9.93789291381836
-10.801101684570312,9.812928199768066,-6.289748668670654
6.227684497833252,-9.982426643371582,-5.238893032073975
9.334491729736328,3.029372453689575,-0.6913986206054688
9.740764617919922,-3.808914661407471,2.8037772178649902
13.22304916381836,-9.320049285888672,4.44930362701416
13.19442081451416,-2.8375818729400635,6.808971405029297
12.986852645874023,3.9151864051818848,13.151077270507812
8.919565200805664,3.075876474380493,17.82007598876953
5.413483142852783,5.229946136474609,17.672456741333008
6.253830432891846,-5.4471845626831055,6.354600429534912
11.558359146118164,-13.401459693908691,2.863615036010742
8.992447853088379,0.7998833656311035,8.651798248291016
12.082695960998535,4.53034782409668,14.2916841506958
11.633515357971191,2.8967630863189697,16.89521026611328
9.580716133117676,0.3932313323020935,16.59662628173828
8.878939628601074,0.9033799767494202,19.275165557861328
8.103156089782715,-1.8820329904556277,16.973604202270508
6.60670804977417,-5.29537296295166,13.409425735473633
4.051965713500977,-4.155848979949951,12.989072799682615
1.7872930765151978,-4.196122169494629,11.39875030517578
-0.7249812483787537,-3.7147066593170166,9.733649253845217
-4.140469551086426,-2.820958137512207,8.137786865234375
-4.601322650909424,-1.893895149230957,5.079944133758545
-6.703453063964844,-1.196434736251831,1.7049176692962646
-9.836346626281738,0.7793617248535156,-2.217856407165528
-9.576475143432615,0.4665164053440094,-6.909683227539063
-7.455655097961426,2.771249771118164,-9.174262046813965
-0.8942492008209229,4.234468460083008,-11.82174301147461
2.9532413482666016,-0.9326427578926086,-21.011865615844727
6.582875728607178,-0.7820545434951782,-30.13984489440918
4.556051254272461,9.3043212890625,-29.190092086791992
-1.7238808870315552,1.8064088821411133,-31.96030616760254
-8.972835540771484,3.300452470779419,-23.14870262145996
-10.554609298706056,-9.635175704956056,-59.40847396850586
14.993528366088867,26.154067993164062,-10.493904113769531
2.948491096496582,6.983851432800293,10.750701904296877
18.84129905700684,-10.626435279846191,2.6431150436401367
18.889373779296875,16.950742721557617,3.9441165924072266
1.9592046737670896,-0.7168543338775635,-5.061098098754883
7.994512557983398,-4.724312782287598,-2.109916925430298
13.788461685180664,2.318118095397949,4.030970096588135
12.939623832702637,-4.266932964324951,3.327965259552002
13.863900184631348,-1.7986077070236206,8.522337913513184
12.423178672790527,4.018219947814941,13.042232513427734
8.303106307983398,6.283872127532959,18.0562744140625
6.234410285949707,3.781208753585816,15.973883628845217
7.260191440582275,-9.483601570129396,0.127138614654541
10.211275100708008,-10.989106178283691,4.360981464385986
8.566215515136719,0.9310508370399476,8.730074882507324
11.414682388305664,7.566949844360352,15.824843406677246
9.446409225463867,1.7915797233581543,14.838272094726562
8.522772789001465,-1.179774045944214,15.048321723937988
8.620345115661621,-3.956845760345459,16.597694396972656
7.015221118927002,-5.251644611358643,15.284663200378418
4.915275096893311,-5.233835220336914,11.697101593017578
2.848633050918579,-4.507643699645996,11.793516159057615
0.4640874862670898,-3.872130870819092,11.16592502593994
-3.3475780487060547,-3.4482901096343994,8.96025276184082
-5.137732982635498,-3.2870430946350098,6.318364143371582
-6.584607124328613,0.7129012942314148,5.506320476531982
-9.145583152770996,0.4788012504577636,1.1395225524902344
-10.867578506469728,0.7540891170501709,-2.97387957572937
-10.47676944732666,0.7480133771896362,-6.5521745681762695
-8.43631362915039,1.980391025543213,-7.478823184967041
-2.7129902839660645,3.515711784362793,-10.05936336517334
0.7325641512870789,-0.2540868520736694,-18.0444278717041
4.183333396911621,1.5238007307052612,-26.077735900878903
5.6700358390808105,11.741684913635254,-27.273069381713867
0.9154205918312072,3.0889813899993896,-30.7064208984375
-7.5989274978637695,1.6227657794952393,-23.84905815124512
-7.6471734046936035,-5.884391784667969,-58.19599151611328
14.691516876220703,22.086036682128903,-3.194035053253174
5.913241863250732,-7.831489086151123,14.94679069519043
37.66303634643555,14.148001670837402,2.608490228652954
-9.148995399475098,7.809355735778809,-4.743728160858154
5.256165504455566,-9.51274585723877,-4.514584541320801
8.873847007751465,0.8237523436546326,0.2496740221977234
10.186959266662598,-6.40210485458374,1.809759497642517
14.876731872558594,-7.497994422912598,2.315314054489136
14.633797645568848,1.6903563737869265,5.785901546478272
13.937614440917969,3.807639598846436,12.423386573791504
8.714820861816406,2.169997453689575,16.382038116455078
4.663813591003418,4.005823135375977,19.38784408569336
5.531702995300293,-4.870172500610352,8.618138313293457
10.07143211364746,-12.630156517028809,3.296536445617676
8.747481346130371,-1.5232776403427124,7.485244274139404
11.699363708496094,1.576256513595581,12.225302696228027
12.28385066986084,1.874868631362915,17.06752586364746
9.30441188812256,0.3119379580020904,17.51312255859375
8.232067108154297,0.3699162006378174,18.42852783203125
8.010123252868652,-0.944777488708496,17.042375564575195
6.554161548614502,-4.58421802520752,13.992310523986816
3.65852427482605,-3.1588165760040283,13.634060859680176
1.3968610763549805,-2.746882677078247,11.80235767364502
-0.6316540241241455,-2.744147777557373,10.167539596557615
-3.732992887496948,-1.9571058750152588,8.285122871398926
-3.7937417030334473,-1.8551061153411863,5.782540321350098
-4.021767616271973,-2.6903812885284424,1.854648470878601
-6.071819305419922,-1.958911418914795,-2.4505889415740967
-7.794516086578369,-0.8681566715240479,-5.731679439544678
-6.2230730056762695,1.8610038757324217,-8.73875617980957
-0.8036902546882629,4.7270026206970215,-10.863160133361816
2.640499830245972,2.740241289138794,-18.260417938232425
6.038965225219727,1.2922120094299316,-26.481637954711918
5.348084926605225,3.896578550338745,-31.72650146484375
-0.5938757658004761,-0.9063799977302552,-34.058631896972656
-8.0289888381958,4.203243732452393,-25.844087600708008
-10.363446235656738,-8.287830352783203,-46.1396598815918
10.014930725097656,25.853004455566406,-24.23133659362793
9.94602108001709,-6.399083137512207,14.791251182556152
21.630352020263672,9.681946754455566,-1.7777163982391355
4.652298450469971,17.09938621520996,-1.3956700563430786
6.250415325164795,-7.192404270172119,-6.410357475280762
9.518261909484863,4.287636756896973,-1.5762475728988647
9.696231842041016,-2.781236171722412,1.8167532682418823
13.870320320129396,-6.172046184539795,3.4928252696990967
12.25859546661377,-0.7760668396949768,6.292863368988037
11.5384521484375,1.2133584022521973,9.736247062683104
9.744378089904783,2.870013475418091,15.045215606689451
6.8017168045043945,3.7538986206054688,19.99982452392578
4.639660835266113,-0.2966311275959015,9.581740379333496
10.269824981689451,-9.254572868347168,7.81246280670166
7.309691429138184,-6.231472015380859,7.890362739562988
8.605011940002441,-1.109188675880432,8.934881210327148
13.221744537353516,5.286440372467041,16.317773818969727
9.464250564575195,5.739687919616699,19.8476619720459
8.089594841003418,-0.2426131963729858,16.310352325439453
8.031020164489746,-0.3213574290275574,15.67165470123291
6.767162322998047,-4.531537055969238,13.01027488708496
4.517701148986816,-3.841765403747559,11.409600257873535
2.532710552215576,-1.91349458694458,10.271796226501465
0.9949961304664612,-2.8026788234710693,7.563951969146728
-3.247819185256958,-2.30079197883606,7.40675687789917
-4.963850021362305,-4.81212854385376,4.897143840789795
-6.232744216918945,-3.925035715103149,2.025041103363037
-9.57280158996582,-2.704612970352173,-1.370133399963379
-12.22389316558838,0.2346387654542923,-4.527010917663574
-9.500938415527344,2.0744175910949707,-8.500200271606445
-4.709048748016357,6.668625831604004,-11.6934175491333
0.6583679914474487,5.653209686279297,-18.2767276763916
5.276289939880371,1.6757704019546509,-25.893434524536133
7.282249450683594,4.467548847198486,-33.40434265136719
2.3004794120788574,6.753583908081055,-33.313987731933594
-6.094468116760254,4.048506736755371,-29.51698112487793
-9.453651428222656,-4.920133113861084,-41.38376998901367
7.416493892669678,12.451019287109377,-22.82146644592285
7.427406787872314,7.5679826736450195,12.162684440612791
4.497395038604736,-2.504967451095581,-1.238947868347168
26.56373405456543,2.9111177921295166,11.37592315673828
4.4932074546813965,9.984881401062012,-3.603893756866455
4.706936359405518,-4.190861701965332,-4.310756206512451
8.116486549377441,-0.399326741695404,-0.6822250485420227
9.131025314331056,-1.8729664087295528,2.3643531799316406
11.524332046508787,-7.105078220367432,1.178546667098999
13.456382751464844,-1.7539159059524536,4.613090515136719
13.61203956604004,1.934679746627808,12.24281406402588
9.368038177490234,1.1751806735992432,16.892154693603516
6.459272384643555,4.737046241760254,20.166263580322266
5.199159145355225,-0.6704839468002319,9.568565368652344
9.800889015197754,-9.951776504516602,9.246288299560549
6.560364723205566,-3.2311904430389404,11.077020645141602
8.364006042480469,-1.4859079122543335,9.913979530334473
10.698944091796877,3.0667924880981445,18.404170989990234
6.766322612762451,4.014868259429932,18.947349548339844
6.087636470794678,0.4458240866661072,14.527705192565918
6.836345195770264,-0.2192839086055755,14.257842063903809
6.010135173797607,-3.646439552307129,11.42787742614746
4.052902221679688,-2.85245943069458,9.386967658996582
3.203586339950561,-2.599395513534546,7.524718761444092
1.4278351068496704,-2.3608317375183105,6.319949150085449
-1.2826262712478638,-2.1827192306518555,5.475438594818115
-2.525324583053589,-2.7374749183654785,3.679209470748901
-4.253927707672119,-3.0151922702789307,0.6449821591377258
-8.099750518798828,-3.12260365486145,-2.2326889038085938
-11.637351989746094,-1.8202155828475952,-5.163531303405762
-9.874528884887695,-0.2772540748119354,-8.26881217956543
-7.385568618774414,2.2599964141845703,-10.786171913146973
-3.704936027526856,2.7882285118103027,-15.1148681640625
0.331143856048584,0.6046859622001648,-22.531383514404297
3.84380316734314,3.986280918121338,-27.254858016967773
1.0693414211273191,2.740844488143921,-32.211395263671875
-5.460212230682373,1.0084857940673828,-28.937070846557617
-7.620526313781738,4.113490104675293,-18.542530059814453
-10.052023887634276,-5.763171195983887,-52.42655944824219
13.912067413330078,25.19593620300293,-4.801941871643066
6.114721298217773,-5.191342353820801,10.254613876342772
28.85817146301269,2.439021348953247,7.096427917480469
8.690122604370117,19.50019836425781,0.0824537873268127
5.063689708709717,-6.475894451141357,-6.747840881347656
11.522234916687012,-0.5238204002380371,2.645413637161255
10.614584922790527,-1.1303634643554688,2.3356566429138184
11.9682035446167,-6.779339790344238,4.271946907043457
12.674287796020508,-2.40038800239563,6.469769477844238
13.031566619873049,4.574448108673096,13.104339599609377
8.792352676391602,5.136063575744629,18.418190002441406
4.772783279418945,3.2244913578033447,14.563526153564451
8.465997695922852,-4.339977741241455,8.153268814086914
8.825884819030762,-4.830745220184326,11.977058410644531
5.943365573883057,-2.117383480072021,10.98569679260254
8.689563751220703,2.054817914962769,14.01159954071045
9.284059524536133,5.708309173583984,21.77968406677246
7.0815629959106445,4.716022968292236,18.200698852539062
7.475017070770264,0.18072509765625,13.950617790222168
7.556958198547363,-2.3831911087036133,11.93149471282959
6.151454448699951,-5.271501541137695,9.40621852874756
4.706517219543457,-4.284337997436523,8.676407814025879
3.5005850791931152,-4.273553848266602,6.858947277069092
0.4155686795711517,-4.357054233551025,5.881432056427002
-2.691976308822632,-5.211001396179199,4.131168365478516
-5.001802921295166,-3.69512391090393,2.979403018951416
-8.622466087341309,-2.8373472690582275,-0.6916621923446655
-11.910711288452148,-2.0460572242736816,-3.888325452804565
-10.255446434020996,0.8147127628326416,-5.726294040679932
-5.979867935180664,2.659754753112793,-8.809150695800781
-1.787010908126831,4.820775508880615,-12.975815773010254
1.077000856399536,2.727911233901977,-20.690454483032227
4.560995101928711,2.570600271224976,-28.000703811645508
4.9697136878967285,8.777410507202148,-30.46056365966797
-2.6449339389801025,2.064029693603516,-34.51666641235352
-7.134284496307373,4.689264297485352,-26.27682304382324
-11.987777709960938,-10.11214828491211,-52.91103363037109
14.652091979980469,24.483327865600582,-10.93768310546875
7.925299167633057,5.563718318939209,12.965389251708984
15.417885780334473,-8.19859790802002,4.150956153869629
18.07180976867676,20.87029266357422,5.782870769500732
1.460992455482483,-0.9642801880836488,-7.88349723815918
7.036527156829834,-3.870912790298462,-3.169715404510498
8.120750427246094,5.336399555206299,1.2632176876068115
9.000726699829102,-6.306595325469971,0.2081444859504699
11.505528450012209,-6.0870747566223145,1.213536262512207
12.589883804321287,2.4955153465271,8.159107208251953
12.95168113708496,2.438589811325073,10.359573364257812
8.686545372009277,4.119966506958008,14.896514892578123
4.366226196289063,5.911082267761231,17.181671142578125
5.349666118621826,-0.3181447386741638,9.191532135009766
8.756505012512207,-8.988724708557129,5.690154075622559
7.800227165222168,-2.8256099224090576,8.347134590148926
11.051196098327637,1.813936948776245,11.613937377929688
12.51986312866211,6.211493968963623,17.772151947021484
9.008938789367676,0.7979879379272461,18.393211364746094
8.758230209350586,-4.378548622131348,16.967361450195312
8.510475158691406,-5.574478149414063,15.797369956970217
6.505367279052734,-6.124624729156494,11.982935905456545
5.321744918823242,-5.634299278259277,10.274541854858398
4.152679920196533,-5.303704261779785,7.924294471740723
0.745335578918457,-2.669395685195923,6.813728332519531
-3.55642318725586,-2.883497476577759,4.755452156066895
-4.020677089691162,-1.872539758682251,3.263704299926758
-6.649342060089111,-0.8368247151374817,1.0816107988357544
-12.72087860107422,-1.1041678190231323,-2.656031847000122
-13.38083267211914,1.4157557487487793,-4.439260005950928
-11.16441535949707,2.4639878273010254,-6.697610378265381
-7.229788303375244,5.667041778564453,-9.338471412658691
-4.261353492736816,1.8920893669128416,-16.805849075317383
-0.6450884342193604,1.436304211616516,-25.444467544555664
3.966517448425293,8.486567497253418,-29.431291580200195
3.488980531692505,7.903043270111084,-30.78898811340332
-5.986238479614258,-2.549339532852173,-30.426742553710938
-9.46761703491211,-7.784915924072266,-42.17603302001953
5.496835708618164,18.449199676513672,-27.107908248901367
9.098630905151367,13.274069786071776,9.633234024047852
0.9518542885780334,-2.374582290649414,-1.6903811693191528
18.44301986694336,-5.994088649749756,5.377121925354004
18.2545166015625,5.979672908782959,5.49492883682251
7.689797878265381,6.489621639251709,-3.675656318664551
7.529636383056641,-2.994424343109131,-0.8046532273292542
11.61850643157959,-0.1802372932434082,0.5811998248100281
10.303430557250977,-0.6701787710189819,3.100170135498047
12.925413131713867,-2.503084421157837,5.088151454925537
14.176715850830078,1.2847886085510254,13.62808609008789
8.259309768676758,1.6805521249771118,18.30569076538086
5.520514488220215,4.221371173858643,20.41263961791992
6.582933902740479,-0.8067381978034973,11.12780475616455
10.358575820922852,-7.8094658851623535,8.21036434173584
9.569576263427734,-3.384000539779663,8.315166473388672
10.63809871673584,-0.3197552859783172,12.282551765441896
11.932117462158203,4.638172626495361,19.0012321472168
8.607183456420898,4.633150100708008,16.948951721191406
8.476420402526855,0.3836343884468078,13.53752899169922
7.040241718292236,0.1713486015796661,12.9954833984375
4.732540130615234,-2.2442219257354736,11.096684455871582
2.5785021781921387,-2.5427780151367188,10.615560531616213
1.2635204792022705,-4.005659103393555,9.388140678405762
-1.0739578008651731,-3.7569899559021,8.431731224060059
-4.485400676727295,-4.005667209625244,6.713494300842285
-5.112874031066895,-3.249589681625366,5.515657424926758
-7.471173763275146,-0.6514069437980652,2.7085161209106445
-13.374720573425291,1.787348747253418,-1.364659547805786
-13.202888488769531,-1.946678638458252,-7.68034029006958
-12.711138725280762,-2.113242626190185,-11.654406547546388
-6.320773601531982,0.7830286622047424,-12.200963973999023
-2.585448265075684,-0.6078841090202332,-20.25515556335449
2.121433734893799,0.4096832871437073,-27.45165634155273
4.236514091491699,9.725886344909668,-27.98246383666992
1.2249122858047483,8.179328918457031,-29.79634094238281
-5.590517044067383,0.6988000273704529,-26.929378509521484
-9.331473350524902,-2.694364070892334,-40.657989501953125
10.754948616027832,11.979687690734863,-26.3703556060791
12.357827186584473,9.574332237243652,19.53118324279785
4.623748779296875,-1.8215469121932983,-7.407606601715088
16.465953826904297,2.445135593414306,7.667928695678711
10.931184768676758,0.9351032972335817,-1.363649845123291
9.554113388061523,1.3986024856567385,-2.614785432815552
11.066081047058104,0.2097853571176529,1.8718624114990237
11.612054824829102,-0.1795368790626526,0.3790568113327026
12.081497192382812,-1.1049007177352903,5.280110359191895
13.312944412231444,0.267715722322464,9.003658294677734
11.747773170471191,3.619619369506836,15.052104949951172
6.321232318878174,4.322810649871826,18.96494674682617
4.949653625488281,-1.4301525354385376,10.382379531860352
9.46041202545166,-11.440469741821287,5.376606464385986
7.946302890777588,-4.421833515167236,8.565673828125
8.80783748626709,4.086437702178955,12.95373249053955
11.295293807983398,7.475318908691406,17.511945724487305
10.273890495300291,2.9013376235961914,14.689774513244627
10.421717643737791,-1.7984683513641355,13.597536087036133
9.840890884399414,-3.486828327178955,14.20631217956543
7.794487953186035,-5.368123531341553,12.654703140258787
5.856729984283447,-5.798486232757568,11.157967567443848
4.239401340484619,-6.390866279602051,10.26641082763672
2.5237598419189453,-5.648581027984619,8.930127143859863
-2.375446319580078,-4.397497653961182,8.438783645629883
-3.277730941772461,-4.553674221038818,6.406435966491699
-4.517045497894287,0.049707107245922,5.6320905685424805
-8.850247383117676,-1.006916046142578,0.93803870677948
-13.64671230316162,1.5155677795410156,-1.550778865814209
-13.094229698181152,1.8770064115524288,-5.929363250732422
-12.49498176574707,2.5498862266540527,-9.342877388000488
-7.535121917724609,4.887556076049805,-11.02427101135254
-3.7748539447784415,1.4329031705856323,-18.859920501708984
1.065115213394165,1.6077687740325928,-29.947742462158203
3.3405184745788574,9.827306747436523,-32.90541458129883
1.6212260723114014,8.86640453338623,-33.8690185546875
-6.491641521453857,-2.2110424041748047,-29.79159545898437
-11.548358917236328,-8.95610523223877,-61.87992858886719
21.215036392211918,21.05323028564453,1.3075263500213623
4.119304656982422,11.181632041931152,13.358428001403809
14.057414054870604,0.7179750800132751,-1.193183422088623
8.923636436462402,-5.855851173400879,5.085643291473389
13.738690376281738,1.337153673171997,1.016627073287964
11.31174087524414,1.3129661083221436,0.0818002820014953
11.27131175994873,2.521817684173584,0.8503637313842773
11.62635612487793,-1.0676155090332031,1.4140218496322632
12.061564445495604,0.9991632103919984,5.197576522827148
11.72916030883789,0.7749907374382019,9.983546257019045
10.702713012695312,2.0590755939483643,14.936331748962402
6.826592922210693,4.747865676879883,19.214155197143555
3.4753010272979736,0.1824633479118347,10.72271728515625
8.948776245117188,-7.075002193450928,11.608154296875
6.151440143585205,-1.9453344345092771,9.28467082977295
6.50045919418335,-2.5624983310699463,5.350583076477051
12.463451385498049,3.3629748821258545,12.151857376098633
11.85671615600586,5.912022590637207,17.68651580810547
10.12451171875,-1.9511301517486568,11.199379920959473
11.10076141357422,-4.443947792053223,10.48774242401123
9.161443710327148,-5.293878078460693,10.374300003051758
5.541193008422852,-3.617662191390991,10.134390830993652
2.479948043823242,-2.73260760307312,10.321310997009276
-0.0724189132452011,-3.834007024765015,9.401144981384276
-3.762697696685791,-5.128998279571533,8.002639770507812
-5.530394554138184,-5.008170127868652,7.037124156951904
-7.064340591430664,-2.0009336471557617,6.826228141784668
-11.713295936584473,-0.0335170850157737,3.971841335296631
-14.108616828918455,1.4093191623687744,0.4191290736198425
-12.803844451904297,2.460010528564453,-4.109096050262451
-12.656548500061035,3.656035900115967,-7.4864501953125
-8.198821067810059,4.564838409423828,-9.84957790374756
-4.276832103729248,0.4444133937358856,-16.4722843170166
0.0739803314208984,-2.082037925720215,-26.307920455932617
3.970414161682129,4.848851203918457,-29.947731018066406
3.9917633533477774,12.22397804260254,-28.04780387878418
-6.293093681335449,-5.298536777496338,-28.001447677612305
-12.817594528198242,-11.80485725402832,-57.71125793457031
18.63726043701172,18.94357681274414,-15.003211975097656
6.250352382659912,13.93999195098877,21.96794891357422
7.808454990386963,-4.395441055297852,-6.91373348236084
14.133742332458496,-1.900374412536621,5.551337718963623
10.632201194763184,-0.1661498844623565,0.9157450795173644
11.958398818969728,2.598201274871826,-0.062748983502388
11.39939022064209,1.2794510126113892,-0.1053612753748893
10.68307876586914,1.0533894300460815,0.4427346289157867
9.89265251159668,-1.5427329540252686,2.3916938304901123
13.641987800598145,0.4187102317810058,8.098081588745117
12.369585037231444,0.7473186254501343,14.073826789855955
8.416670799255371,1.8182979822158811,20.189489364624023
5.416619777679443,0.9375234246253968,13.06394863128662
9.948691368103027,-7.526755332946777,9.724538803100586
8.833450317382812,-5.119899272918701,7.958229541778564
8.09319019317627,-2.4415173530578613,7.845922946929932
11.872796058654783,4.548747539520264,16.910198211669922
10.263309478759766,4.783997535705566,19.13285446166992
9.270750999450684,-1.202077031135559,14.6527099609375
8.724201202392578,-3.2848942279815674,14.89934253692627
6.384766101837158,-3.3684511184692383,13.928048133850098
5.036231994628906,-5.410289764404297,11.140483856201172
4.055230140686035,-4.208693504333496,10.992279052734377
2.5232536792755127,-2.7693028450012207,9.917919158935549
-2.0491819381713867,-1.8036465644836424,8.968596458435059
-4.868259429931641,-2.217127084732056,6.5315775871276855
-6.36406135559082,0.2331040948629379,4.990789890289307
-9.724109649658203,-0.661490261554718,-0.1014870703220367
-12.611297607421877,0.746529757976532,-4.78167724609375
-11.077173233032228,1.4531993865966797,-9.045063018798828
-6.018678188323975,2.991624593734741,-11.385472297668455
-0.690759539604187,0.2235583066940307,-17.924816131591797
1.5174580812454224,-1.7717853784561155,-29.194599151611328
4.250978469848633,5.525599479675293,-32.70527267456055
3.269271850585937,9.454021453857422,-31.453277587890625
-4.395706653594971,-2.680511474609375,-31.97760963439941
-6.957679271697998,5.192753791809082,-20.703887939453125
-4.733003616333008,-3.108488082885742,-47.408653259277344
13.83769989013672,15.794995307922363,0.0507212877273559
5.730818271636963,4.372775554656982,6.696542739868164
13.256648063659668,0.2622731328010559,0.9736011028289796
7.595047950744629,-3.358436107635498,4.056793689727783
13.10390281677246,-0.2193951904773712,-1.2138043642044067
11.27219009399414,2.5867598056793213,-0.4356382489204407
13.013163566589355,1.673125386238098,2.886812448501587
12.181452751159668,0.8698885440826416,2.8362669944763184
11.761407852172852,0.2366286069154739,7.647200107574463
11.705235481262209,1.534706711769104,12.538342475891112
10.957696914672852,3.71784257888794,20.24981689453125
5.798299789428711,3.7688021659851074,17.189193725585938
5.937499523162842,-3.8403480052948,7.856652736663818
7.925605773925781,-5.513647556304932,9.71266269683838
6.287794589996338,-3.465349674224853,6.934945583343506
8.667581558227539,2.525442361831665,11.088035583496094
9.15992832183838,6.690089225769043,21.182586669921875
7.102322101593018,3.998269081115722,17.48148536682129
7.521501064300537,-1.782414793968201,14.15856647491455
7.611756801605225,-3.7261617183685294,14.920068740844728
5.338312149047852,-4.241467475891113,12.231307983398438
3.7252140045166016,-3.872265577316284,10.306600570678713
3.324953079223633,-4.847057342529297,8.513623237609863
0.9588056802749634,-4.335349559783936,5.455811500549316
-1.6128547191619873,-4.515944957733154,2.8962645530700684
-3.2491493225097656,-3.7798123359680176,1.4520704746246338
-4.839405059814453,-3.177717685699463,-1.4287644624710083
-8.307110786437988,-3.1649320125579834,-4.8327741622924805
-12.0282564163208,-2.560410737991333,-7.35361385345459
-9.252721786499023,-0.1974208056926727,-8.783363342285156
-5.154748439788818,1.4009108543395996,-13.589537620544434
-4.280179023742676,1.684553146362305,-21.177942276000977
-1.2417114973068235,2.649226665496826,-29.18216133117676
2.092236042022705,7.184493541717529,-30.866703033447266
-0.7849615812301636,1.1818571090698242,-34.08756256103516
-6.530545711517334,1.0045795440673828,-28.817790985107425
-11.516258239746094,-7.101637840270996,-48.01161575317383
14.144035339355469,20.092164993286133,-11.11565399169922
9.419964790344238,4.4517927169799805,15.779779434204102
8.08155345916748,3.783591508865357,-7.015028476715088
9.044282913208008,3.6854114532470703,5.223338603973389
9.988659858703612,-2.001342535018921,-0.6622806191444397
11.732441902160645,0.0743081271648407,0.413337767124176
10.76365089416504,1.7764747142791748,-0.0609203949570655
10.512176513671877,-0.7511916160583496,1.9239168167114256
12.221156120300291,-0.3186241686344147,5.462955474853516
11.986285209655762,-0.5153714418411255,8.02115535736084
12.550028800964355,2.060354232788086,15.977998733520508
8.928218841552734,4.145573139190674,21.786880493164062
4.206869602203369,3.0177435874938965,14.624780654907228
6.238699436187744,-6.731333255767822,8.0770845413208
7.501132965087891,-3.990786075592041,7.084792137145996
8.064040184020996,-3.683023691177368,5.789580821990967
9.05943489074707,4.511133670806885,15.680461883544922
7.479802131652832,8.480006217956543,20.11571884155273
7.170018196105957,1.2955613136291504,13.141316413879396
8.116517066955566,-2.46780776977539,14.548396110534668
6.577728748321533,-5.910677433013916,14.039737701416016
4.4509992599487305,-5.877959251403809,12.595808029174805
3.1962358951568604,-4.921379566192627,11.959613800048828
2.159298181533813,-5.076108455657959,9.494769096374512
-0.2958922386169433,-4.481165409088135,6.136401653289795
-2.6848013401031494,-4.1546831130981445,4.935859203338623
-3.965265274047852,-3.1333327293396,1.83021342754364
-5.147861957550049,-2.767232656478882,-2.2306551933288574
-7.295482158660889,-2.5773277282714844,-5.570493698120117
-9.55821132659912,-2.012660264968872,-7.79274320602417
-3.903587102890015,-1.1797192096710205,-12.60488986968994
-1.3736822605133057,-1.2085109949111938,-21.3380126953125
0.5683401226997375,1.6413662433624268,-30.399932861328125
2.382903575897217,10.416545867919922,-31.504159927368164
-0.7431237697601318,1.1809839010238647,-36.72604751586914
-6.94111442565918,-0.374960720539093,-30.62775421142578
-9.058648109436035,-2.4427881240844727,-38.71549606323242
4.147135257720947,19.55455780029297,-22.473451614379883
12.038277626037598,8.787439346313477,8.91505241394043
2.244813680648804,3.7009339332580566,-5.2657470703125
15.92591381072998,2.798065185546875,3.555527687072754
7.468196868896484,-1.6022601127624512,2.3871400356292725
12.216436386108398,-1.13905668258667,0.2203122526407241
9.340253829956056,1.224478006362915,-0.6221052408218384
9.555061340332031,0.3973042368888855,1.2626501321792605
11.49887752532959,0.5031155943870544,2.837951421737671
12.035648345947266,-1.1135618686676023,6.647324562072754
12.49820327758789,1.9704645872116089,13.0160551071167
10.59230899810791,4.243263244628906,19.67359733581543
5.438332557678223,5.56743049621582,19.47698211669922
4.601058483123779,-2.746408700942993,8.859850883483887
8.595975875854492,-7.546717643737793,5.685699462890625
8.248244285583496,-4.007048606872559,7.85166072845459
8.231266021728516,3.723279476165772,14.15964698791504
8.442329406738281,10.7379789352417,21.773738861083984
6.657925128936768,4.208984851837158,16.276559829711914
7.501783847808838,-1.6856950521469116,12.937387466430664
7.545925140380859,-6.046919822692871,13.33617877960205
5.720139503479004,-7.234535694122314,11.489177703857422
4.469062805175781,-5.920797348022461,10.67599868774414
3.7193703651428223,-6.623703002929688,8.803784370422363
1.6130197048187256,-5.775067329406738,6.824267387390137
-1.3862543106079102,-5.308369159698486,3.828063488006592
-3.434015989303589,-2.823111057281494,2.2322568893432617
-5.266296863555908,-1.8040629625320437,-1.1653177738189695
-7.954727649688721,-2.105760335922241,-5.334291458129883
-11.462191581726074,-0.9682724475860596,-7.919981479644775
-6.271345615386963,-0.2836017608642578,-11.485518455505373
-1.8376362323760984,0.8399836421012878,-16.64373779296875
-1.2067688703536987,-0.6681414842605591,-28.78938102722168
0.7590327262878418,5.3860297203063965,-32.19622039794922
1.36047625541687,11.734134674072266,-29.878751754760746
-4.199610233306885,0.4587316513061523,-32.979637145996094
-6.121495246887207,5.064643383026123,-23.712623596191406
-8.001033782958984,-3.6424641609191895,-50.10352325439453
16.473962783813477,21.084068298339844,1.3423457145690918
4.6717143058776855,6.668313503265381,7.802871704101562
12.012393951416016,5.031558036804199,-2.0256073474884038
5.60806941986084,-2.258112907409668,4.215921878814697
11.153901100158691,-2.1657752990722656,-1.5364863872528076
9.226311683654783,0.860350489616394,-0.4671078026294708
8.97067928314209,1.7933287620544434,-0.3755705952644348
9.118247032165527,-1.2921925783157349,-0.0754227936267852
9.895432472229004,-0.6612706780433655,4.430603504180908
9.62570571899414,-0.7105066776275635,6.789788246154785
11.366765975952148,1.6527866125106812,12.412020683288574
9.25539207458496,2.6793441772460938,17.162155151367188
5.230014801025391,2.7172648906707764,12.38478183746338
7.109616756439209,-3.995480537414551,11.379524230957031
6.855125904083252,-4.226531505584717,10.534533500671388
7.190501689910889,-2.2516207695007324,8.618727684020996
10.669605255126951,3.66054916381836,13.70293426513672
10.918905258178713,6.901322841644287,19.07567024230957
8.333474159240723,1.0022199153900146,16.92667007446289
7.618361949920654,-0.6309093236923218,16.945369720458984
7.368755340576172,-3.9892873764038086,16.048315048217773
6.612895488739014,-5.440922737121582,13.894991874694824
5.082098484039307,-3.354142189025879,13.138891220092772
3.905049562454224,-2.879671096801758,11.140761375427246
2.161536455154419,-2.69319224357605,8.927734375
-0.3266599178314209,-3.222083330154419,5.896673679351807
-1.4169703722000122,-3.367812156677246,2.9663147926330566
-2.872955083847046,-3.472674369812012,-1.0348002910614014
-5.493873119354248,-3.4501707553863525,-4.753543853759766
