Acc_X,Acc_Y,Acc_Z
2.4486587047576904,0.1445986628532409,0.4645086824893951
2.1747286319732666,-0.7834842205047607,-0.2485837638378143
0.9403015971183776,0.151446908712387,-0.0318853482604026
0.9979063272476196,0.2225620746612548,0.1257095783948898
1.6274511814117432,0.0470306240022182,-0.072939284145832
2.2560629844665527,0.8431084752082825,0.4275717139244079
1.5717514753341677,1.26109516620636,0.0219815745949745
0.3566055595874786,0.8850976824760437,-0.9817204475402832
-0.1845408529043197,1.5229599475860596,-0.995962917804718
0.0539816096425056,1.5114134550094604,-0.4945076704025268
0.5904958844184875,1.2014999389648438,-0.146468311548233
1.9162887334823608,-0.6748840808868408,-0.0522457398474216
1.7998101711273191,-0.2491748929023742,0.5550695657730103
1.2070826292037964,-0.0040122675709426,0.5214022397994995
1.148005127906799,0.0129500534385442,0.7278932332992554
1.2731612920761108,0.2491502463817596,0.802686870098114
1.0701446533203125,0.1605419963598251,0.7979336977005005
0.6918120384216309,0.2343178391456604,0.9699965715408324
1.001131892204285,0.0955297127366066,-0.1585943400859832
1.6279619932174685,0.3861547410488128,0.2154573649168014
2.3075313568115234,-0.0064765131101012,0.1802712231874466
2.965513229370117,-1.1282446384429932,0.2723850011825561
4.474532127380371,-1.155032753944397,1.2345951795578003
5.060592651367188,3.2017860412597656,5.1463942527771
7.204670429229736,8.893375396728516,6.32879114151001
8.215470314025879,7.097820281982422,5.740214824676514
4.0874199867248535,8.776795387268066,3.767079591751098
-0.4148773550987243,10.698282241821287,-1.8484585285186768
-3.394423484802246,11.849081039428713,-0.4313135147094726
-4.420571327209473,15.221565246582031,3.0110108852386475
-3.368246555328369,10.016425132751465,3.6495442390441895
-4.702919006347656,5.198170185089111,6.920529365539551
-5.819289207458496,1.3384270668029783,9.08057689666748
-4.574516296386719,-3.528441905975342,7.7282209396362305
-2.292877435684204,-7.066500186920166,4.419973850250244
-0.0633249729871749,-8.237346649169922,1.314943552017212
2.1209933757781982,-8.079496383666992,-2.7728347778320312
4.436966419219971,-6.4477949142456055,-6.266595363616943
5.55777645111084,-6.116924285888672,-7.820840358734131
6.695691108703613,-6.257958889007568,-9.447396278381348
6.467824935913086,-5.637442588806152,-9.68684196472168
5.054581165313721,-3.813692569732666,-9.742897987365724
3.990210056304932,-2.43833065032959,-12.664668083190918
4.441422939300537,-2.17124080657959,-14.081238746643066
4.011260986328125,-3.043825626373291,-12.938645362854004
4.311468601226807,-2.599438190460205,-13.30093479156494
4.697573661804199,-4.1636643409729,-13.770727157592772
7.85605001449585,-5.217104434967041,1.7079102993011477
6.721526145935059,-0.4234934747219085,10.597440719604492
9.57911777496338,-4.83993673324585,-6.026053428649902
5.38894510269165,-0.6627021431922913,-2.073103189468384
-0.0975950509309768,0.3654821515083313,-0.5351992249488831
-1.5431203842163086,1.1003493070602417,-2.895105123519897
-1.2537837028503418,3.428108930587769,-2.0239644050598145
1.884088397026062,7.582228183746338,-3.581152439117432
2.9653773307800293,0.5581184029579163,-1.01692795753479
3.351478099822998,-2.0658857822418213,-0.8201277256011963
1.2722238302230835,-0.0389107726514339,-0.2623799443244934
0.8268086910247803,0.6389078497886658,-0.8383293151855469
0.4630498588085174,0.0552861914038658,-0.3515796959400177
0.5002829432487488,1.0706169605255127,-0.9494489431381226
0.19228495657444,0.4819011986255646,-0.9823988676071168
0.0809994265437126,0.1829244047403335,-0.680637538433075
-0.0797071754932403,0.7135182023048401,0.1255504637956619
0.4288353025913238,-0.0130464248359203,0.3373536169528961
0.3896144330501556,-0.3282731175422668,0.6977199912071228
1.0930755138397217,-0.1336231529712677,0.3730231821537018
1.349157691001892,-0.2338524609804153,-0.3931533694267273
1.1594412326812744,-0.0763427838683128,-0.5777594447135925
1.2146518230438232,-0.5156997442245483,-0.1466239541769027
1.806917667388916,-0.3157232701778412,0.386222243309021
2.297987937927246,0.3178802132606506,0.1749484688043594
2.8609983921051025,0.2547942698001861,0.6582670211791992
3.0552146434783936,1.4626519680023191,1.0346733331680298
4.5916924476623535,-0.9728497862815856,2.0239691734313965
5.117369651794434,-1.0500383377075195,1.6998916864395142
6.728521347045898,-1.4930764436721802,4.071804523468018
8.115065574645996,0.0437990389764308,6.169102191925049
10.707221031188965,0.5829451084136963,9.044577598571776
14.442215919494627,2.4793813228607178,11.801025390625
12.350324630737305,7.160589218139648,12.581550598144531
14.148626327514648,7.798435688018799,8.217727661132812
7.209260940551758,10.851855278015137,13.740066528320312
3.5951969623565674,8.788665771484375,3.819040536880493
7.2972002029418945,4.718856334686279,2.938517570495605
2.3907899856567383,9.689863204956056,19.79546356201172
-1.3305249214172363,6.635025024414063,17.925073623657227
-1.5979323387145996,9.294151306152344,16.904733657836914
-1.9380908012390137,4.12601900100708,16.310749053955078
-1.37064528465271,2.000054359436035,12.373122215270996
-0.7039990425109863,2.606031894683838,9.078627586364746
-0.1163348257541656,1.313236117362976,6.727721214294434
0.8922694325447083,1.340182542800903,3.982113838195801
1.9945945739746092,0.8804231286048889,1.888299584388733
2.6943142414093018,0.4785211980342865,0.2526465058326721
3.0933141708374023,0.0804465562105178,-1.164352297782898
3.8418567180633545,0.1202707290649414,-2.6300742626190186
4.934962272644043,0.3369887173175812,-5.0220255851745605
6.913124084472656,-1.0850894451141355,-6.689260482788086
8.471567153930664,-3.30678939819336,-8.323620796203613
9.308782577514648,-1.2195733785629272,-10.393388748168944
10.11509609222412,-1.5926226377487185,-13.035260200500488
8.743120193481445,-1.192530870437622,-16.140052795410156
6.9817214012146,-2.562465190887451,-20.900352478027344
6.387052059173584,-4.502422332763672,-24.77590560913086
5.820528030395508,-3.061199903488159,-25.234519958496094
6.488006114959717,-2.2549033164978027,-24.50647354125977
8.943766593933105,-2.5108485221862797,-15.918821334838867
7.644413471221924,-0.2087235003709793,12.808369636535645
5.00851583480835,-3.1627390384674072,0.3779124021530151
8.950420379638672,-5.638673782348633,-9.515605926513672
3.2924697399139404,-2.4083540439605717,-1.1942589282989502
1.262973070144653,-0.5496156215667725,-2.672334909439087
0.7649425864219666,1.2592999935150146,-2.7445592880249023
1.7250730991363523,1.143333077430725,-2.1645965576171875
2.515122652053833,2.206439018249512,-2.7267839908599854
2.3047773838043213,1.4173243045806885,-1.172654151916504
1.116098403930664,-1.2291687726974487,-0.5845810770988464
0.8365628719329834,1.0019793510437012,-1.3631941080093384
0.7600537538528442,-0.1388253271579742,-0.7423124313354492
0.4801907837390899,0.7679604887962341,-0.7119619846343994
-0.3453316390514374,2.292750597000122,-0.6021525263786316
0.0965644568204879,0.7763680815696716,-1.2058876752853394
0.4368736445903778,0.1047519892454147,-0.4042055010795593
0.2088824659585952,0.3469149470329284,-0.542389988899231
0.5538535714149475,0.9107630252838136,0.2386495023965835
0.7493035197257996,0.1583656072616577,-0.3732778429985046
0.5823687314987183,0.724165141582489,0.3189782500267029
0.9834153056144714,0.337721437215805,-0.0453364551067352
0.3367570638656616,0.3531392216682434,1.0905684232711792
-0.0439421571791172,1.0729374885559082,1.0268491506576538
-0.1118134781718254,1.700066328048706,0.9473993182182312
0.3225971162319183,2.1594109535217285,1.2376389503479004
1.380505084991455,1.668350100517273,0.9757050275802612
2.552556037902832,0.7012847661972046,1.105483055114746
2.9080889225006104,2.505661964416504,1.5072596073150637
4.43690824508667,-2.384946823120117,2.3372812271118164
5.742008686065674,-2.290022134780884,3.142384529113769
7.691127300262451,-2.8271405696868896,4.702022075653076
9.04875946044922,-0.5371770858764648,7.070881366729736
11.438443183898926,0.7587389945983887,9.133484840393066
12.192001342773438,4.29448127746582,13.562052726745604
11.382427215576172,5.661291599273682,8.30424976348877
14.053689002990724,10.234134674072266,11.321431159973145
4.279209136962891,11.06796932220459,12.173065185546877
3.9765102863311768,5.417423248291016,0.9357035160064696
6.298778057098389,7.621592044830322,9.235788345336914
-3.787461280822754,10.481928825378418,20.212905883789062
-1.8789483308792116,7.328530311584473,14.342790603637695
-2.4453930854797363,5.415892601013184,14.28384017944336
-2.6729328632354736,2.799795150756836,13.11232852935791
-1.574832797050476,1.960970759391785,10.68722438812256
-0.4669852256774902,0.0443182401359081,8.272704124450684
0.0764114558696746,-0.1170400083065033,5.528738021850586
0.7678855657577515,0.5597145557403564,3.307891130447388
1.516724705696106,0.2621825933456421,0.8775362372398376
2.421769857406616,0.2810954451560974,-0.4788644909858703
2.8409066200256348,0.8447436690330505,-1.8220314979553225
3.8030099868774414,1.4934971332550049,-3.1605260372161865
4.669137001037598,1.844248414039612,-4.694678783416748
6.65691614151001,-1.7311489582061768,-6.687956809997559
8.079265594482422,-4.162863731384277,-8.382881164550781
8.463608741760254,-3.313606977462769,-9.64022159576416
8.36889362335205,-2.0610177516937256,-11.452997207641602
7.274676322937012,-0.786702036857605,-14.324787139892578
5.924713611602783,0.0091297850012779,-17.558521270751953
4.194447040557861,-2.1037473678588867,-17.517560958862305
4.993268013000488,-3.3044795989990234,-19.13714408874512
4.608542919158936,-2.59242582321167,-20.206579208374023
4.808826923370361,-1.330418586730957,-20.00830078125
5.0531182289123535,1.77508544921875,-18.59691047668457
5.100077152252197,-0.026154801249504,-11.667731285095217
3.724048852920532,-1.056587815284729,18.35722923278809
0.0122431516647338,-6.889738082885742,11.797542572021484
9.104961395263672,-7.692853927612305,-12.797874450683594
7.535853385925293,-5.789002895355225,-0.7636988162994385
3.4827840328216557,-2.2104287147521973,0.2667454481124878
2.243721008300781,0.1657999753952026,-0.7652177810668945
1.24787437915802,4.455936908721924,-1.8483232259750368
-0.1048125922679901,6.345082759857178,-1.6943520307540894
-0.0383983179926872,2.1600534915924072,-1.6745884418487549
-0.0832897126674652,1.7137681245803833,-0.2355525940656662
0.2364811152219772,0.9150091409683228,0.0457908101379871
0.8873103857040405,-0.0720838084816932,-1.0149439573287964
0.8981214761734009,-0.6409812569618225,-1.0587022304534912
1.1827129125595093,-0.7096186876296997,-1.2039382457733154
0.9029017090797424,-0.4759933650493622,-1.706732153892517
0.8907303214073181,0.4174721539020538,-0.9264578819274902
1.2042412757873535,0.5018075704574585,-0.6731947064399719
0.7825053930282593,0.0712496638298034,-0.7663930654525757
0.5605920553207397,-0.4487738311290741,-0.380501389503479
0.6883520483970642,0.2235340476036071,0.6287845373153687
1.08115553855896,-0.7465623021125793,0.2196857184171676
1.481356859207153,-1.337358474731445,-0.0427555255591869
1.4584578275680542,0.6949795484542847,1.202193021774292
3.2046806812286377,0.5059056878089905,1.4036893844604492
3.736450672149658,0.5511012077331543,2.9688401222229004
5.259158611297607,-0.6419974565505981,3.287877082824707
5.988257884979248,-1.7586519718170166,4.147305488586426
7.52900505065918,-2.956209421157837,5.439718246459961
9.779987335205078,-2.629778385162353,8.290804862976074
11.276894569396973,-0.6813019514083862,10.3317289352417
11.425260543823242,3.757352352142334,10.660157203674316
13.544160842895508,7.547854900360107,11.889663696289062
12.06183624267578,9.380653381347656,16.337257385253906
3.3059420585632324,11.556374549865724,13.723658561706545
5.277451515197754,4.533233165740967,-1.854387879371643
10.18865966796875,8.332005500793457,3.825484037399292
-2.455683946609497,8.083515167236328,20.321319580078125
-1.231606364250183,4.82012414932251,11.250489234924316
-1.2698447704315186,8.70319938659668,10.230010986328123
-2.777528762817383,6.368078231811523,11.422992706298828
-1.1483300924301147,1.4704113006591797,9.530930519104004
-1.023374080657959,0.8789639472961426,7.68301248550415
-0.867030143737793,0.377129852771759,6.426235675811768
-0.1771356463432312,-0.4343165755271911,4.787169456481934
0.1648107469081878,-1.2415679693222046,2.969634532928467
0.4666669368743896,-1.633805751800537,1.5062612295150757
0.788489580154419,-1.9774149656295776,0.4240185618400574
1.3952434062957764,-2.855265617370605,-0.9321529269218444
1.9272823333740237,-2.412843704223633,-1.7872226238250732
3.655601978302002,-2.360158920288086,-2.7741832733154297
5.567094326019287,-2.15433120727539,-4.42209005355835
7.140647411346436,-0.6182748079299927,-6.83701753616333
8.553902626037598,-0.3933064937591553,-9.719627380371094
9.4952392578125,-0.5629012584686279,-12.060752868652344
9.531710624694824,-1.7189288139343262,-15.633792877197266
7.524279117584228,-1.117018222808838,-19.88312721252441
6.135037899017334,-2.313959836959839,-23.672752380371094
5.879777908325195,-2.808034658432007,-25.278566360473636
5.487297534942627,1.4055958986282349,-23.71172523498535
7.761966705322266,-0.9820842146873474,-16.56782341003418
10.190669059753418,-2.955688714981079,16.110477447509766
4.769217014312744,-3.4276366233825684,3.852824926376343
10.878564834594728,-6.484315395355225,-13.74795627593994
5.814142227172852,-4.751361846923828,-4.691986560821533
1.6124515533447266,-3.418286085128784,-2.425563335418701
0.0395967699587345,1.325683832168579,-2.903960466384888
0.1203983649611473,2.424112558364868,-1.3088446855545044
2.48946213722229,1.8701571226119995,-2.090606451034546
2.50062894821167,-0.3154670894145965,-0.6179359555244446
1.5565541982650757,-0.2606867551803589,-0.1228300333023071
0.2232544124126434,0.939659297466278,0.2291952818632125
0.0964137241244316,0.510608434677124,-0.6980240345001221
0.7864723801612854,-0.0219499617815017,-0.4620194137096405
0.6405699849128723,0.1374782025814056,-0.4978393614292145
0.259609580039978,1.2747180461883545,-0.7284044027328491
-0.058509137481451,1.5739566087722778,-0.5555216073989868
-0.1872818917036056,1.6493570804595947,-0.2965258359909057
0.191795215010643,1.111842393875122,0.0079070348292589
0.5911126136779785,-0.1650533676147461,-0.0726834014058113
0.7431133985519409,0.2507524192333221,0.3718289136886596
0.7776402235031128,-0.4964028596878052,-0.0934318080544471
0.5479803085327148,-1.609015941619873,0.4611473977565765
1.4719336032867432,-2.5865657329559326,0.8080373406410217
1.398893117904663,-0.1532652229070663,1.4507890939712524
1.477819561958313,0.5277804136276245,0.8197948336601257
1.8970751762390137,1.3464411497116089,1.6837708950042725
2.825279951095581,3.2959790229797363,2.516863346099853
3.823232889175415,-0.0012210477143526,2.78680419921875
4.958536624908447,-0.7937865257263184,2.2505850791931152
6.524392604827881,-1.7819138765335083,4.618930816650391
8.794955253601074,-1.331781029701233,6.511842727661133
11.794096946716309,-1.494059681892395,9.621952056884766
13.783808708190918,-0.9459053874015808,11.7684965133667
11.390719413757324,5.129967212677002,12.510717391967772
13.792268753051758,9.653884887695312,9.929068565368652
10.521560668945312,15.093749046325684,20.110092163085938
4.080245971679688,6.028887271881104,4.149917602539063
7.017974376678467,5.277770042419434,-4.27059268951416
9.855578422546388,9.31378173828125,16.039813995361328
-6.158091068267822,7.533383846282959,16.356834411621094
1.1122256517410278,7.15016508102417,8.13803482055664
-1.789492130279541,6.969204425811768,9.43220329284668
-1.8821033239364624,2.983461856842041,8.423507690429688
-1.8521108627319336,0.5895805358886719,7.001982688903809
-2.785244464874268,-0.7996400594711304,6.444228649139404
-3.5036582946777344,-1.6751830577850342,4.898061275482178
-3.3741295337677,-1.6017521619796753,3.39541244506836
-2.827478408813477,-2.818211793899536,2.394909381866455
-2.1846933364868164,-2.9142677783966064,1.2435001134872437
-1.0896480083465576,-3.158563137054444,-0.1588117778301239
0.4074000716209411,-3.158372640609741,-1.7245973348617554
2.300245761871338,-1.5941896438598633,-3.129835844039917
4.870655059814453,-0.8408069014549255,-4.97341251373291
7.327101707458496,-0.7384601831436157,-7.744075298309326
9.619494438171388,-1.8749699592590328,-11.843313217163086
10.570723533630373,-1.3953614234924316,-16.60152816772461
9.3019380569458,-1.8387428522109983,-18.910165786743164
6.826899528503418,-1.4829978942871094,-21.94161033630371
4.198561668395996,0.4255086779594421,-21.639434814453125
4.112096786499023,-1.2109971046447754,-20.61933898925781
4.477377414703369,-0.6406598091125488,-18.49731063842773
4.459133625030518,1.2095448970794678,-15.056557655334473
5.339810848236084,-3.3142964839935303,-6.118854999542236
4.358150482177734,-6.43736457824707,14.253467559814451
5.823331356048584,-4.250388622283936,-0.3030571043491363
8.663787841796875,-4.753314018249512,-8.715999603271484
3.7086875438690186,-1.2522430419921875,-0.9181276559829712
2.264270067214966,-0.4825957119464874,-1.6619844436645508
2.4063470363616943,-0.9251685738563538,-3.186753511428833
1.054006814956665,1.9314357042312624,-1.1948331594467163
0.4182940125465393,2.797668218612671,-1.2694283723831177
0.7540262341499329,1.838405728340149,-1.1400638818740845
0.3649572730064392,0.096640944480896,-0.6295515298843384
0.4177563488483429,0.9006617069244385,-0.3394874334335327
0.0778986364603042,0.7342690229415894,-0.2859381735324859
-0.0023957430385053,0.4164304733276367,-0.8372486233711243
0.2474671006202697,-0.2324310392141342,-0.3842658698558807
0.2161319702863693,1.165549874305725,0.1402535736560821
0.029647609218955,1.0992753505706787,-0.0871467292308807
0.2302442342042923,0.9988949298858644,0.3642082214355469
0.4194526672363281,0.4873945713043213,0.0356957130134105
0.5287876725196838,-0.1472199261188507,-0.0344484597444534
1.0063443183898926,-0.2813240885734558,-0.5243479013442993
1.1631386280059814,-0.01009869761765,0.6148478388786316
1.6699450016021729,-0.2785267829895019,0.4975403547286987
1.320906162261963,0.761612057685852,1.4582757949829102
2.997411727905273,0.0833088383078575,1.1963579654693604
3.2622439861297607,3.176105499267578,1.9036964178085327
3.899747848510742,-1.9459470510482788,1.6356219053268433
5.088344573974609,-1.8004249334335327,3.281337261199951
6.371603012084961,-2.603381395339966,4.364300727844238
7.268632888793945,-2.4714508056640625,6.048114776611328
9.032888412475586,-1.05293071269989,8.003743171691895
10.127666473388672,1.6346043348312378,11.381593704223633
8.965055465698242,4.571832180023193,11.821348190307615
9.972153663635254,5.35717248916626,6.775552749633789
13.265382766723633,9.37892246246338,14.328045845031738
7.098696708679199,12.947068214416504,15.57578945159912
5.622315883636475,7.1195220947265625,1.1587748527526855
7.818288326263428,6.034447193145752,1.5094367265701294
3.98157000541687,10.126654624938965,18.79762458801269
-2.088089227676392,6.261953830718994,12.72092628479004
0.9122835993766784,5.57900857925415,9.165417671203612
-1.0185937881469729,3.361299991607666,9.356666564941406
-0.5829051733016968,-0.1401106566190719,8.454998016357422
-1.0432181358337402,-1.0020710229873655,7.680217742919922
-1.8900855779647827,-1.555254578590393,6.528398513793945
-1.9317532777786253,-0.8329706192016602,4.982363224029541
-1.7990529537200928,-0.0820647403597831,3.750136852264404
-1.3626704216003418,-0.4060064554214477,2.8252408504486084
-0.7762946486473083,-0.9162155389785768,2.075283527374268
0.2804454565048218,-1.1176893711090088,0.8422847390174866
1.518943428993225,-1.7014316320419312,0.0388499312102794
2.9899909496307373,-1.4330826997756958,-1.3335425853729248
4.593413829803467,-1.536494255065918,-3.077244520187378
6.388970375061035,-1.2565109729766846,-5.71579647064209
7.621841907501221,-1.399083971977234,-8.730990409851074
8.791214942932129,-1.5743576288223269,-12.93875789642334
9.75033473968506,-1.3007627725601196,-18.241622924804688
8.45528507232666,-1.632116675376892,-21.59708404541016
6.467485904693604,-0.1078094542026519,-23.33445930480957
3.9568140506744394,-0.1891528666019439,-24.607351303100582
3.809697151184082,-1.0039701461791992,-25.411226272583008
4.60262393951416,-1.1133038997650146,-24.19430160522461
6.006422519683838,-3.794934034347534,-15.28735065460205
7.114938735961914,-6.514692306518555,22.836488723754883
5.039918899536133,-5.223019123077393,4.786345481872559
11.439613342285156,-4.410713195800781,-11.755097389221191
3.4117536544799805,-0.6656858921051025,-0.1445009708404541
0.3887717127799988,-2.590186834335327,-1.3765724897384644
0.4385516047477722,-1.120148777961731,-2.8567888736724854
1.880938410758972,2.5679030418396,-4.174795150756836
1.610947847366333,4.163417339324951,-1.9298120737075808
1.5519529581069946,-0.3430598378181457,-1.1824820041656494
0.7779775857925415,-0.1603424102067947,-0.7578555345535278
0.3327414691448211,1.2144519090652466,-0.6074650287628174
0.1354778409004211,-0.1117744222283363,-0.8145368695259094
0.6810916662216187,-0.7361544370651245,-0.867162823677063
0.4248182475566864,-0.9334757924079896,-0.5352937579154968
0.0502974241971969,0.2434715926647186,-0.509459376335144
-0.274634301662445,1.393274188041687,0.0485137999057769
-0.2858379483222961,1.469863772392273,0.2422549277544021
0.2223120331764221,0.4856883585453033,0.0738118439912796
0.5057974457740784,-0.4936104714870453,0.2897194921970367
1.082841873168945,-0.0770610496401786,0.2415263354778289
0.794172465801239,-0.0635074973106384,-0.0219032391905784
0.5424761176109314,0.5819923281669617,0.2828104197978973
0.7721600532531738,0.8334494829177856,0.5122848749160767
0.9057236909866332,1.143101692199707,1.1249163150787354
1.5648571252822876,0.6826794743537903,1.2906858921051023
3.3130440711975098,-0.9391343593597412,1.5901230573654177
3.806973934173584,2.9122061729431152,2.948134183883667
4.725231170654297,-2.7009317874908447,2.495682954788208
6.052793979644775,-2.522177696228028,4.755272388458252
7.552092552185059,-2.3717575073242188,5.869046688079834
9.544536590576172,-2.1430933475494385,8.06222152709961
12.715902328491213,-0.2461170405149459,11.71988582611084
11.799908638000488,4.942945957183838,14.704368591308594
10.449267387390137,8.6043062210083,6.721497535705566
12.087031364440918,13.091873168945312,12.573790550231934
1.437067627906799,9.93057346343994,9.882954597473145
3.3278729915618896,3.9392220973968506,-0.7035603523254395
6.925604343414307,6.033064365386963,11.21815299987793
-6.600786209106445,8.450111389160156,20.839887619018555
-1.4391582012176514,1.7549513578414917,13.421904563903809
-2.257439374923706,5.337725639343262,11.633594512939451
-2.0624399185180664,3.124591827392578,10.426427841186523
-1.0971181392669678,0.4776189923286438,7.4083380699157715
-1.0663896799087524,1.6517475843429563,5.752723217010498
-0.3678558766841888,1.5146106481552124,4.32254695892334
0.5813370943069458,0.8949501514434814,2.8215651512146
1.1287940740585327,0.6398042440414429,1.3417731523513794
1.5665279626846311,0.0673329457640647,0.4804074466228485
1.885612726211548,-0.1151482462882995,-0.3276653885841369
2.40515685081482,-0.0834536924958229,-1.101237177848816
3.1444036960601807,-0.9121631383895874,-2.24407958984375
3.720198392868042,-2.3290765285491943,-3.5234947204589844
4.248629093170166,-2.504993438720703,-4.9003987312316895
4.92153787612915,-2.331083297729492,-7.678779602050781
6.14790678024292,-2.621812343597412,-11.157543182373049
6.737576484680176,-2.58115816116333,-13.88906192779541
6.2510857582092285,-2.511629581451416,-16.32912254333496
5.380701065063477,-2.4771218299865723,-19.345653533935547
5.1869049072265625,-1.6312050819396973,-21.858747482299805
4.58950138092041,-2.444296836853028,-22.6525821685791
5.12986421585083,-1.1363246440887451,-23.01398086547852
4.97298002243042,-1.9950093030929563,-21.084020614624023
8.810140609741211,-6.846273899078369,5.065154552459717
3.626396417617798,-7.688170433044434,17.583559036254883
9.636852264404297,-8.211824417114258,-8.816171646118164
7.759662628173828,-5.445093154907227,-5.554347991943359
1.1837815046310425,-1.7174617052078247,0.0432337708771228
1.0582259893417358,-0.9983728528022766,-3.0040535926818848
2.424374580383301,-0.3344951570034027,-3.2114691734313965
1.152363657951355,4.380338191986084,-1.077638030052185
1.0788999795913696,1.732913613319397,-0.8292540311813354
0.4767075479030609,1.002785086631775,-0.505190908908844
0.1359210908412933,0.42994025349617,-1.0499324798583984
0.1762822568416595,0.8657799959182739,-0.3688526451587677
0.1711350530385971,-0.3337824940681457,-0.5951859354972839
0.3235524892807007,0.0923883840441703,-0.0887715071439743
0.4796682596206665,0.3459140956401825,-0.469191163778305
0.1891121119260788,1.049767017364502,0.1573497802019119
0.1683201193809509,0.9135000705718994,-0.3835309445858001
0.4884653091430664,0.3829832971096039,-0.4975353479385376
1.0481679439544678,-0.4577060341835022,-0.7092050909996033
0.9646857976913452,-1.4882521629333496,-0.1561577767133712
0.8704228401184082,-0.5251962542533875,0.7670427560806274
0.6733464598655701,0.1221047267317771,1.3717501163482666
0.6604151129722595,0.8780547976493835,1.1593552827835083
1.203972101211548,0.5653038620948792,1.0934903621673584
2.375556468963623,0.0080479960888624,1.2706923484802246
3.161444902420044,2.0803701877593994,1.869773745536804
3.651601076126098,0.4234382212162018,2.1200029850006104
4.848460674285889,-0.2405389845371246,2.7189695835113525
5.450809955596924,-1.2836121320724487,3.751623153686523
7.023465633392334,-2.331565618515014,5.652228355407715
9.395513534545898,-2.0556986331939697,8.061542510986328
11.282564163208008,-0.1010945439338684,11.760723114013672
9.79495334625244,1.6593782901763916,12.504183769226074
9.839457511901855,4.250357627868652,6.675448417663574
13.63225269317627,13.142404556274414,12.64625358581543
7.637497901916504,12.518421173095703,16.452560424804688
4.861218929290772,8.205143928527832,0.0507722198963165
9.570840835571287,5.38289213180542,0.4452714622020721
3.031435489654541,9.38544750213623,17.18264389038086
-2.663729429244995,6.25836992263794,12.268887519836426
0.1286046504974365,6.547335147857666,8.301008224487305
-1.535131335258484,5.324933052062988,8.698537826538086
-1.2177960872650146,1.762221097946167,8.068158149719238
-1.421075701713562,-0.1953945904970169,7.09516191482544
-1.9919722080230715,-0.2360900193452835,6.303084373474121
-2.255360841751098,-0.362101286649704,5.163949012756348
-1.9671659469604488,-0.3733792603015899,3.435741662979126
-1.5895949602127075,-0.4474936127662658,3.4056546688079834
-1.0596784353256226,-1.4583210945129397,2.4560253620147705
-0.1038335710763931,-1.6366219520568848,1.2341597080230713
1.273478388786316,-1.9925652742385864,0.1463669240474701
2.752678155899048,-2.2342681884765625,-1.427521586418152
4.321657180786133,-1.697785496711731,-3.1964223384857178
5.850230693817139,-1.7350122928619385,-5.159678936004639
7.004654884338379,-1.62172532081604,-8.552391052246094
8.377498626708984,-2.2247426509857178,-12.484787940979004
9.503329277038574,-2.270102024078369,-16.23602294921875
9.004925727844238,-2.2015984058380127,-19.295223236083984
6.896922111511231,-1.7693666219711304,-22.057884216308597
5.597706317901611,-1.4432814121246338,-24.19047164916992
4.99714994430542,-2.487037181854248,-24.66822052001953
5.831282615661621,-0.7881693840026855,-23.073530197143555
5.5342559814453125,-2.022991180419922,-17.18276596069336
7.549977779388428,-4.922217845916748,19.990135192871094
3.1265342235565186,-4.201646327972412,10.012725830078123
13.454617500305176,-8.630556106567383,-13.706018447875977
5.545135498046875,-3.207849264144897,0.0326271802186965
1.490916132926941,-0.1614474952220916,-1.0214087963104248
0.212705910205841,1.0463035106658936,-2.042765617370605
0.8630352020263672,1.129845380783081,-3.287874698638916
1.4315212965011597,4.987165927886963,-2.4427683353424072
1.7042139768600464,3.19309139251709,-1.3238158226013184
1.0411559343338013,-1.0314570665359497,-1.264371395111084
0.646414577960968,0.7198911309242249,-0.9883739948272704
0.4265280365943908,0.0759643092751503,-0.607975959777832
0.6455455422401428,-0.0928791388869285,-0.5803979635238647
0.975005030632019,-0.7284975051879883,-0.7214134931564331
0.4199610352516174,0.1896887272596359,-0.7318878769874573
0.2952343225479126,-0.0848057940602302,-1.1541070938110352
0.2424589991569519,0.6355279088020325,-0.3030907213687897
0.3034050166606903,0.7929639220237732,0.4207315742969513
0.7145233750343323,0.045777928084135,0.2053674161434173
1.453807353973389,-1.0923047065734863,-0.333432674407959
1.099919080734253,-0.7418538331985474,0.5897468328475952
0.7355492115020752,-0.0362345911562442,-0.0934308767318725
0.7092378735542297,0.7562745213508606,0.5244950652122498
0.8823323845863342,1.6112676858901978,0.9007937908172609
1.0345661640167236,1.350972056388855,1.1771767139434814
1.8020914793014529,0.7261648178100586,1.1939201354980469
2.8917653560638428,-0.0649892687797546,1.4359275102615356
4.271918773651123,0.8925637006759644,1.7197644710540771
4.0614914894104,0.0702494904398918,2.3545405864715576
5.630969047546387,-1.4995272159576416,3.517324209213257
7.374575138092041,-2.1623423099517822,4.780121803283691
9.262436866760254,-1.4438319206237793,7.098093032836914
10.894628524780272,0.8161585927009583,10.383685111999512
11.080015182495115,3.0799760818481445,12.671743392944336
10.289862632751465,5.716794490814209,9.282732963562012
11.28536891937256,12.356590270996094,8.441487312316895
4.175352096557617,10.434444427490234,7.095246315002441
5.8000688552856445,5.74030065536499,1.0376062393188477
5.60156774520874,8.184285163879395,14.42421054840088
-3.468925714492798,8.354716300964355,18.827411651611328
-0.426734983921051,3.5082685947418213,13.067283630371094
-2.4816198348999023,6.074372291564941,13.10581111907959
-1.9331190586090088,2.119659662246704,11.191259384155272
-1.074762940406799,0.4732899069786072,7.995232582092285
-0.8825873136520386,0.2186986207962036,6.295113563537598
-0.3865934610366821,-0.9672958850860596,4.875672340393066
0.2396467924118042,-0.7390540242195129,3.448050022125244
0.8294025659561157,-1.0912269353866575,1.689578890800476
1.3242615461349487,-1.0042182207107544,0.5711832046508789
1.865397572517395,-0.7063538432121277,-0.771772563457489
2.5428028106689453,-0.0403650552034378,-1.7176731824874878
3.5507349967956543,0.444849282503128,-2.6989712715148926
4.641865253448486,-0.2914085984230041,-4.066027641296387
5.631504535675049,-1.3836994171142578,-6.617480754852295
6.004454135894775,-1.50456702709198,-8.787511825561523
6.205761909484863,-2.184589147567749,-10.792195320129396
6.02342414855957,-2.8227500915527344,-12.891180992126465
5.2154059410095215,-1.667839765548706,-14.48602294921875
3.97808837890625,-1.0396358966827393,-16.371150970458984
3.721356868743897,-0.3962904214859009,-18.479049682617188
3.4451663494110107,-1.797783374786377,-19.32939338684082
4.6545939445495605,-1.3191792964935305,-19.503644943237305
4.141979217529297,-0.9801038503646852,-18.609960556030277
9.27597427368164,-6.432072162628174,-4.119786262512207
6.912566184997559,-7.392160892486572,7.266092300415039
6.551907539367676,-6.3944411277771,-4.692814826965332
4.181829452514648,-3.741654872894287,-4.698688983917236
1.3973687887191772,-0.1207121536135673,-4.205636978149414
3.386446952819824,0.4485601186752319,-5.288968086242676
1.2113772630691528,1.7798269987106323,-0.9988298416137696
1.65886127948761,1.4718424081802368,-0.7194322347640991
1.1884150505065918,0.5854378938674927,0.153758242726326
1.0329532623291016,1.7394028902053833,0.1307549923658371
0.7318869829177856,0.0777874812483787,-0.2473159283399582
1.0128220319747925,-0.5057275295257568,-1.5543898344039917
0.4101384580135345,-0.5884119272232056,-0.7887793183326721
0.4185310304164886,0.6837806701660156,-0.6082978248596191
0.5753414630889893,1.319690465927124,-0.3425256907939911
0.4183801114559173,1.24949848651886,-0.2894211113452911
0.7597253918647766,0.6798698306083679,-0.086829200387001
0.8344197273254395,0.1496631205081939,0.1330886781215667
0.7034946084022522,-0.4157063663005829,-0.0870387628674507
0.6741571426391602,-0.4065586030483246,0.3789810836315155
0.9672908782958984,-0.0145348031073808,1.0763347148895264
1.009882926940918,0.8751252293586731,1.5702375173568726
1.5899583101272583,1.4027400016784668,1.679524540901184
2.8416781425476074,-0.2586809396743774,1.895240306854248
2.563898801803589,-0.7179021835327148,2.2935285568237305
3.1825757026672363,-1.7050447463989258,2.319109439849853
4.276317119598389,-3.9077653884887695,3.3472793102264404
6.022976398468018,-2.743267059326172,5.863797187805176
6.887277603149414,-1.7227084636688232,7.979484558105469
8.480280876159668,1.028880596160889,10.563538551330566
9.542978286743164,1.0089982748031616,8.789236068725586
12.094688415527344,7.206871509552002,9.01856517791748
13.7066068649292,11.25473403930664,9.731054306030272
10.16014575958252,10.33206558227539,7.611136436462402
8.764145851135254,3.8583385944366455,8.27624797821045
4.003636837005615,9.501053810119627,18.20570182800293
1.280569553375244,7.140283584594727,13.826187133789062
0.4529108107089996,7.963688850402832,12.141708374023438
-0.229524090886116,4.218487739562988,9.699036598205566
0.2311741411685943,2.302535057067871,7.310762405395508
-0.1234653741121292,0.1946673393249511,6.090607643127441
-0.4835809469223022,-1.0432811975479126,4.964599132537842
-0.713933527469635,-1.158511519432068,4.11829137802124
-0.7035097479820251,-0.7932493090629578,3.5881636142730717
-0.7819696664810181,-0.375889778137207,2.4709460735321045
-0.8014823198318481,-0.1788962632417678,1.7721009254455566
-1.0366560220718384,-1.4066753387451172,0.90794837474823
-1.2125815153121948,-0.2984683811664581,0.1373533904552459
-0.974813997745514,-0.2028134912252426,-0.282039076089859
-0.0536551289260387,-0.1088033765554428,-1.0687047243118286
1.377598524093628,0.1681144535541534,-2.600935459136963
2.755934238433838,0.4959443211555481,-3.932427883148194
3.863502025604248,1.0978848934173584,-5.55423641204834
5.4354352951049805,0.576783299446106,-8.215292930603027
6.938016414642334,-0.0487921983003616,-10.551185607910156
8.041814804077148,-0.6775382161140442,-13.428741455078123
7.99665641784668,-0.4334748983383178,-17.42138671875
6.9724836349487305,-0.5022880434989929,-20.908113479614254
4.480931282043457,-0.8540145754814148,-21.86175346374512
4.37162971496582,-2.824265718460083,-22.940223693847656
4.151659965515137,-2.480294704437256,-21.482118606567383
4.742405891418457,-1.3499853610992432,-19.56919288635254
3.8808133602142334,-3.351785182952881,-13.089227676391602
5.256623268127441,-6.2303547859191895,24.31405067443848
2.487457752227783,-5.667875289916992,12.466766357421877
14.325810432434082,-8.075777053833008,-16.211843490600586
6.936210632324219,-4.81854772567749,2.170041084289551
3.014075756072998,-3.7957723140716553,-0.0922206342220306
0.8808675408363342,-2.7472128868103027,-1.9712179899215696
1.054476976394653,3.845108985900879,-4.380662441253662
-0.2993007898330688,8.810295104980469,-2.944099187850952
0.8056061267852783,0.667987048625946,-2.1941962242126465
0.7316742539405823,0.772099494934082,-1.129527926445007
-0.0187471006065607,1.2764567136764526,-0.4347768425941467
0.1331472992897033,0.8566069602966309,-0.1822550296783447
0.1368373334407806,0.0205426104366779,-0.0527623146772384
-0.1062368601560592,0.3495854139328003,-0.7022704482078552
-0.2717371881008148,-0.1316385418176651,-1.0154460668563845
-0.0702433511614799,-0.4336287081241607,-1.4097620248794556
0.4452628493309021,0.3852439224720001,-0.0262597911059856
0.806651771068573,0.0853778421878814,-0.1026286110281944
0.6910282969474792,-0.5443124771118164,0.3760774135589599
1.1604348421096802,-0.5600464940071106,0.3385939300060272
-0.0182715952396392,-0.2070043385028839,0.7961064577102661
0.2581762671470642,0.6416081190109253,0.3201764225959778
0.7886514663696289,1.3367503881454468,0.4220578074455261
1.1419068574905396,1.3105353116989136,0.7839035391807556
1.923639297485352,0.4109242558479309,1.8914352655410769
1.9933655261993408,2.4578447341918945,2.3321075439453125
4.740408420562744,-1.7514986991882324,2.449756622314453
4.966481685638428,-1.0522596836090088,2.258335590362549
6.575156211853027,-3.0013816356658936,5.0711750984191895
7.80518913269043,-2.493363618850708,6.105564117431641
9.887402534484863,-0.7616631388664246,8.631512641906738
11.093328475952148,1.133927345275879,11.071033477783203
11.546916007995604,3.828092813491821,11.284435272216797
13.389339447021484,10.434504508972168,9.600520133972168
6.83891487121582,10.609216690063477,12.231985092163086
5.179877281188965,8.609492301940918,4.545687675476074
7.376083374023437,2.072703123092652,6.08892822265625
-1.3113023042678833,9.24949836730957,19.66493034362793
-1.2855068445205688,2.562682628631592,13.623305320739746
-2.271543264389038,6.296557903289795,13.242392539978027
-2.653902053833008,2.7128210067749023,12.410402297973633
-2.265897035598755,0.6134954690933228,9.891057968139648
-1.9954338073730469,0.5975184440612793,8.22714900970459
-1.5434629917144775,-0.1418225765228271,6.520212173461914
-0.9541767239570618,-0.0955481454730033,4.859760284423828
-0.2944150269031524,0.1150083541870117,3.242767095565796
0.3769033253192901,-0.1679712980985641,2.1017215251922607
0.846579909324646,-0.9126268029212952,0.8419312238693237
1.401956558227539,-1.1057220697402954,-0.3862825036048889
2.268385171890259,-1.557839274406433,-1.5137505531311035
2.72549057006836,-1.620642900466919,-2.955973625183105
3.886582374572754,-0.6689172983169556,-5.238386631011963
4.925698757171631,-2.1189560890197754,-7.630210876464844
5.897422790527344,-3.00947642326355,-10.944337844848633
6.470471382141113,-2.523199796676636,-14.742045402526855
6.238314628601074,-2.780769824981689,-18.39057731628418
5.400690078735352,-2.6239962577819824,-20.757402420043945
4.363864898681641,-3.102085590362549,-21.8092041015625
4.089612007141113,-2.735589027404785,-23.10128402709961
4.145066261291504,-2.9404101371765137,-23.13459014892578
7.805469036102295,-6.168425559997559,-14.667098999023438
11.66416835784912,-3.556583404541016,13.609381675720217
9.939525604248049,-8.904006004333496,-0.6458863615989685
7.184725284576416,-5.423452854156494,-6.282892227172852
0.2225712090730667,-1.3338170051574707,-0.3709674179553985
-0.7506274580955505,-1.3790857791900637,-3.574355125427246
0.9708382487297058,2.2430975437164307,-4.125692367553711
1.900383830070496,5.367965221405029,-3.379926443099976
1.9371886253356931,0.567725658416748,-1.703309178352356
1.042196273803711,0.1035087406635284,-0.8927856683731079
0.0118062160909175,0.9301103353500366,-0.4991374313831329
-0.0467546135187149,0.9029490947723388,-0.880097508430481
0.641366183757782,-0.6920288801193237,-0.7321069240570068
0.6210305690765381,-0.5762765407562256,-0.7262436151504517
0.3520099520683288,-0.4334726929664612,-0.912484884262085
0.1320916414260864,0.3386754393577575,0.0905900970101356
0.2759251892566681,0.3472342491149902,-0.6331032514572144
0.3488787412643432,-0.1213295459747314,-0.4036484658718109
0.8406223654747009,-0.6411436200141907,-0.2134633958339691
1.0388582944869995,-1.029243230819702,0.5139703750610352
0.775037944316864,-0.1597416549921035,-0.0495353415608406
0.2571006119251251,0.903282880783081,0.7356936931610107
0.3059262037277221,1.5929540395736694,1.3631563186645508
0.9421268701553344,1.0183894634246826,1.4606834650039673
2.280979871749878,0.6839488744735718,1.2785489559173584
3.0248823165893555,0.475279688835144,1.38466215133667
2.9998345375061035,-0.0093732960522174,0.8341271877288818
3.488132238388061,-0.2210914492607116,2.4397172927856445
3.906095504760742,-0.2806756496429443,3.2211318016052246
5.156532764434815,-1.2239556312561035,4.877989768981934
6.532373905181885,-1.043365240097046,6.317925453186035
8.397923469543457,-1.2990516424179075,8.55223274230957
8.937756538391113,-0.3315623998641968,10.296846389770508
8.949016571044922,0.0402671247720718,9.583946228027344
10.0656156539917,6.143808364868164,7.629945278167725
10.911235809326172,12.6790132522583,14.093490600585938
8.139636039733887,10.030043601989746,15.15086841583252
5.168136119842529,9.299535751342772,0.4055025577545166
7.778976917266846,4.77623176574707,-2.2279980182647705
5.172446250915527,8.618734359741211,17.733949661254883
-3.9081544876098633,6.29305362701416,12.095710754394531
0.8854539394378662,6.726287841796875,7.603321075439453
-1.457329511642456,6.330017566680908,9.04640293121338
-1.458466649055481,2.8067493438720703,9.19075870513916
-1.908597707748413,1.2467821836471558,8.425532341003418
-2.74993109703064,1.0947544574737549,7.512497425079346
-2.603653907775879,1.5696511268615725,6.075465202331543
-2.193962574005127,1.8252655267715452,4.417049407958984
-1.6022952795028689,1.1310328245162964,3.530403614044189
-1.1144559383392334,0.7953147888183594,2.1424713134765625
0.0147330947220325,0.2463207691907882,0.9475756287574768
1.4058014154434204,-0.6321909427642822,-0.1847108006477356
2.723456621170044,-1.5689659118652344,-1.4136128425598145
3.969625234603882,-1.4401971101760864,-2.9320974349975586
5.981438159942627,-1.3098691701889038,-5.0279221534729
7.736356735229492,-3.2572145462036133,-8.407134056091309
8.910569190979004,-4.099116325378418,-11.942522048950195
9.374826431274414,-3.4096059799194336,-15.44895362854004
8.709301948547363,-2.7860798835754395,-18.88481330871582
7.021160125732422,-3.51533579826355,-21.582239151000977
5.622832298278809,-2.7484521865844727,-23.61269187927246
5.076312065124512,-3.99940037727356,-24.1027774810791
5.142948150634766,-3.803155183792114,-23.76865005493164
7.251180171966553,-4.281868934631348,-14.970030784606934
7.898800373077393,-3.510382890701294,16.778030395507812
7.9509429931640625,-5.934573650360107,0.7900158762931824
9.40715503692627,-6.54027795791626,-7.704091072082519
1.58722186088562,0.1940147876739502,-0.2271105647087097
0.2630637288093567,0.1411530673503875,-3.5531973838806152
0.7359873056411743,0.5413538217544556,-3.725637435913086
2.250307559967041,2.0729548931121826,-3.319282054901123
2.1823198795318604,2.136780023574829,-1.9398465156555176
1.5183786153793335,-0.3619932830333709,-0.8134462237358093
0.498545229434967,-0.0002219956659246,-0.2231198400259018
0.080997534096241,1.0805530548095703,-0.6866961717605591
0.2319030165672302,0.0492586344480514,-1.0834436416625977
0.6529562473297119,-0.0152533333748579,-0.8324494957923889
0.4565429985523224,-0.1105900928378105,-0.643364429473877
0.2376316785812378,0.1399154663085937,-1.1573517322540283
0.0246750377118587,0.3251821100711822,-0.6366782188415527
0.1599404364824295,0.7290940284729004,-0.1646919548511505
0.5215955972671509,-0.1763688623905182,0.3965044617652893
1.0791709423065186,-0.6352815628051758,-0.2642612159252167
1.2784262895584106,-0.6459285020828247,-0.2006635069847107
0.9784780144691468,0.4197253882884979,-0.4110682606697082
0.1698933392763137,1.1887078285217283,0.9265068769454956
0.0090014655143022,1.4149634838104248,1.4217934608459473
0.7916269898414612,0.6994767785072327,1.750783085823059
1.9590102434158323,0.1322759091854095,0.8726909756660461
2.5276827812194824,1.126062273979187,1.9654459953308103
3.501054048538208,-0.8928244113922119,1.911638855934143
3.609361171722412,-0.5977046489715576,2.286897659301758
4.812702178955078,-1.908996343612671,2.307217836380005
4.88539981842041,-0.6678906083106995,5.393158912658691
6.565988063812256,-1.3315483331680298,5.282695293426514
8.139659881591797,-0.340147852897644,7.191344738006592
8.99251651763916,1.1960041522979736,9.449752807617188
9.138538360595703,3.290499448776245,10.27948760986328
10.06281280517578,6.623514652252197,7.119529247283936
10.920026779174805,10.55640697479248,13.682902336120604
6.645854949951172,8.82821273803711,12.893622398376465
4.334304332733154,7.795779705047607,0.2426774948835373
6.767904281616211,3.097584724426269,0.6367034912109375
1.1144099235534668,9.37535285949707,18.860322952270508
-0.9524022936820984,2.689988613128662,11.43360424041748
-0.6651716828346252,6.0824971199035645,9.485849380493164
-1.9862232208251955,4.594719886779785,10.12057876586914
-1.6060314178466797,2.20352840423584,8.831847190856934
-1.645693302154541,0.7098559141159058,7.77169942855835
-2.1298835277557373,1.0845640897750854,6.764519214630127
-1.8626728057861328,1.629993200302124,4.800126552581787
-1.416592001914978,1.2917015552520752,2.9002060890197754
-1.0127586126327517,0.5411168932914734,2.2031595706939697
-0.1862640380859375,-0.5067541599273682,1.3968064785003662
0.730177104473114,-1.1221429109573364,0.5378284454345703
1.771171808242798,-1.5120137929916382,-0.6579228639602661
2.8470962047576904,-1.817896008491516,-2.148671865463257
3.911166906356812,-1.4878547191619873,-3.6981372833251953
4.901189804077148,-1.983796000480652,-5.981752872467041
6.117196559906006,-2.9168174266815186,-9.2094087600708
7.549642086029053,-2.823586940765381,-12.477790832519531
8.017478942871094,-2.724576711654663,-15.64855670928955
6.724669933319092,-1.706122875213623,-18.40884780883789
5.300758361816406,-1.1822072267532349,-20.289758682250977
4.535515785217285,-0.2808905839920044,-21.632644653320312
4.7188239097595215,-1.5020209550857544,-22.775020599365234
4.923189163208008,-2.318222522735596,-21.50652885437012
9.839167594909668,-7.012540340423584,-5.472605228424072
8.017624855041504,-6.373673439025879,11.058618545532228
8.470237731933594,-9.872036933898926,-5.838025093078613
5.0414323806762695,-4.289651870727539,-4.916846752166748
0.5487855076789856,-0.1710270345211029,-1.9379403591156008
0.6740115880966187,1.7504942417144775,-3.721630811691284
2.6533994674682617,1.6589672565460205,-3.197533369064331
1.5211706161499023,2.6511669158935547,-0.8533754944801331
1.4781988859176636,1.4608252048492432,-0.626419723033905
0.4708702862262726,0.7806277871131897,0.2465278506278991
0.257176399230957,-0.1483672261238098,-0.9487159252166748
0.5118942856788635,-0.0398116111755371,-0.7340868711471558
0.6822928786277771,-0.742024838924408,-1.031274437904358
0.977495014667511,-0.5789961814880371,-0.3057182729244232
0.6361810564994812,-0.0746949538588523,-0.5324113368988037
0.4213055968284607,0.7810637950897217,-0.4006080627441406
0.2351875156164169,0.650461733341217,-0.5724577903747559
0.7213022708892822,0.1811383515596389,-0.0191150605678558
0.6400855183601379,-0.3882289230823517,0.098881147801876
0.5847670435905457,-0.6955012083053589,0.1289523541927337
0.2960836887359619,-0.3083283603191376,0.6793598532676697
0.9163258075714112,0.1538760066032409,0.0951786339282989
1.2813889980316162,0.6563140749931335,0.6917011737823486
2.1125454902648926,1.138280749320984,0.6822986602783203
2.7088160514831543,0.0558329075574874,1.279553771018982
2.68367075920105,-0.0420092269778251,1.4833189249038696
3.3836021423339844,-0.9345513582229614,1.3388314247131348
4.495396614074707,-1.551333785057068,2.3273487091064453
4.52091121673584,-0.0131437703967094,3.9035258293151855
5.560901165008545,-1.6784796714782717,4.864570617675781
5.995133876800537,0.2419970333576202,7.71999454498291
6.682776927947998,0.97605162858963,8.860610008239746
7.754427433013916,1.9178874492645264,8.926025390625
7.8586883544921875,3.4827773571014404,6.130241394042969
11.335963249206545,6.928371429443359,9.809468269348145
8.871938705444336,11.271358489990234,14.303143501281738
8.518280982971191,8.694550514221191,12.383737564086914
3.94702672958374,7.572913646697998,-2.293912887573242
10.57822036743164,5.090778827667236,0.5396171808242798
0.9624627828598022,9.003375053405762,17.313764572143555
-1.6386504173278809,4.945239067077637,10.7308931350708
1.0274782180786133,5.607006072998047,7.619503498077393
-0.7641016244888306,4.846940517425537,9.009294509887695
-0.8267136812210083,1.8277162313461304,8.813140869140625
-1.0719490051269531,1.0766408443450928,8.607176780700684
-1.4361716508865356,0.1784770190715789,8.316636085510254
-0.9445498585700988,0.7785292267799377,6.445409774780273
-0.6349125504493713,0.5008324980735779,5.31357479095459
-0.6645404100418091,0.0495727211236953,5.036644458770752
-0.5337525606155396,-0.2674680948257446,4.223093032836914
0.0783243253827095,-0.9003500938415527,2.8129708766937256
1.1185849905014038,-1.275316834449768,1.8132280111312864
2.262235641479492,-1.3633118867874146,0.7586999535560608
3.8495278358459473,-1.41202974319458,-0.95242041349411
5.757376194000244,-1.3744699954986572,-4.072862148284912
7.369158744812012,-1.793474555015564,-7.655667781829834
8.548744201660156,-1.845360517501831,-10.972579002380373
9.574527740478516,-2.564474105834961,-15.509387969970703
10.285358428955078,-3.1530704498291016,-19.126914978027344
8.776955604553223,-2.6469318866729736,-22.224454879760746
6.507571220397949,-2.456197738647461,-25.30503463745117
5.024742603302002,-3.051010131835937,-25.995460510253903
4.887611389160156,-3.755089044570923,-24.413055419921875
4.831779479980469,-2.5265586376190186,-21.121665954589844
6.434613227844238,-4.286253929138184,-4.246341705322266
1.7001063823699951,1.5727736949920654,22.93937492370605
9.174238204956056,-7.368888854980469,-5.845430850982666
11.36438274383545,-5.052633762359619,-6.398992538452148
2.784329652786255,-0.8097882866859436,1.2630020380020142
2.005290269851685,-1.2135121822357178,-2.240540742874145
1.1115199327468872,-0.5195304751396179,-2.994267463684082
0.7150411009788513,2.467841625213623,-3.4247214794158936
0.9809997081756592,3.2409780025482178,-2.691448211669922
1.31997549533844,-0.0265099443495273,-1.763370394706726
1.0030790567398071,-0.2709989547729492,-1.8703314065933228
0.4810615181922912,0.752295732498169,-0.835976779460907
0.2023572325706482,0.6377314329147339,-0.6276435256004333
-0.0931196883320808,0.2539625167846679,-0.7333528995513916
-0.1976734399795532,1.185850977897644,-0.3451109826564789
0.0472359992563724,0.774337887763977,-0.7371072173118591
-0.0045955581590533,0.3121241331100464,-0.863545835018158
0.2968212366104126,-0.934011459350586,-0.4280563592910766
0.534221351146698,-0.8838363289833069,0.3961926698684692
0.3755196630954742,-0.5829194784164429,0.5105404853820801
-0.3139819800853729,0.1238661482930183,1.3375059366226196
-0.0644821152091026,0.4196875691413879,1.1291704177856443
-0.0335631147027015,0.5264240503311157,0.6107035875320435
0.3989385366439819,0.6615532636642456,0.2700776159763336
0.8151184916496277,0.5387388467788696,0.7694734930992126
1.7321221828460691,0.5499731302261353,0.6119588017463684
2.2423598766326904,-0.1443344503641128,0.4073522686958313
3.5149683952331543,-1.3292927742004397,0.7206428647041321
4.257990837097168,2.5423738956451416,2.275360107421875
4.581416130065918,0.4040716886520386,3.276381254196167
6.324681282043457,-0.6006952524185181,3.9955358505249023
7.515594005584717,-0.9109301567077636,4.573110103607178
9.651567459106444,-0.2723430395126343,7.954938888549805
11.947958946228027,2.6941821575164795,13.011747360229492
11.981973648071287,5.349160671234131,13.923189163208008
8.106926918029785,7.455962657928467,5.425981521606445
11.751585006713867,10.099934577941896,12.70272159576416
1.6817604303359983,4.555858135223389,5.320272922515869
4.993345260620117,4.913215160369873,-2.2128708362579346
6.175032138824463,6.914295673370361,12.096261978149414
-4.702945709228516,6.233811378479004,18.545190811157227
