PacketCounter,SampleTimeFine,Quat_W,Quat_X,Quat_Y,Quat_Z,Acc_X,Acc_Y,Acc_Z,Gyr_X,Gyr_Y,Gyr_Z 
1,531402868,0.83098763,-0.25391036,-0.46965015,-0.15626262,0.5932018756866455,0.21028274297714233,0.28538140654563904,0.041508182883262634,-0.12591490149497986, -0.48167550563812256
2,531419535,0.831043,-0.2539251,-0.46947992,-0.1564551,8.410269737243652,-2.653019428253174,4.1925482749938965,0.8625781536102295,0.6686772108078003, 1.4076164960861206
3,531436202,0.83105105,-0.25382403,-0.4694563,-0.15664704,8.400155067443848,-2.6662216186523438,4.192947864532471,0.865203320980072,0.5961547493934631, 1.4406439065933228
4,531452869,0.8311044,-0.25365537,-0.46948868,-0.1565407,8.396441459655762,-2.655060291290283,4.1958909034729,1.238879680633545,0.41173046827316284, 1.572497844696045
5,531469536,0.8311414,-0.25354442,-0.46950063,-0.15648814,8.396073341369629,-2.5819497108459473,4.246950149536133,0.955475389957428,0.29624292254447937, 1.3989593982696533
6,531486203,0.83123267,-0.25329745,-0.46947438,-0.15648161,8.391138076782227,-2.568155527114868,4.223237037658691,0.47074219584465027,0.24266108870506287, 1.465078353881836
7,531502870,0.83129853,-0.25308827,-0.46941328,-0.1566536,8.404374122619629,-2.637880802154541,4.182169437408447,0.2994188666343689,0.34027111530303955, 1.3115687370300293
8,531519537,0.8313468,-0.25294587,-0.4693973,-0.15667559,8.437065124511719,-2.6693906784057617,4.208619594573975,0.60679692029953,0.2234387993812561, 1.5410714149475098
9,531536204,0.83139944,-0.25282857,-0.46938545,-0.15662158,8.410598754882812,-2.655043363571167,4.18426513671875,0.9380843639373779,0.24778369069099426, 1.4723397493362427
10,531552871,0.8314285,-0.25281072,-0.46934873,-0.15660521,8.414559364318848,-2.6219725608825684,4.202254295349121,0.7089275121688843,0.3081015348434448, 1.4693299531936646
11,531569538,0.8314812,-0.25274917,-0.46933204,-0.15647462,8.403783798217773,-2.6473495960235596,4.209994316101074,0.7450029850006104,0.3337014615535736, 1.5965228080749512
12,531586205,0.8315215,-0.2527472,-0.4692814,-0.15641548,8.421014785766602,-2.6213409900665283,4.199124336242676,0.7914260625839233,0.3005586266517639, 1.5840750932693481
13,531602872,0.8315668,-0.25272578,-0.46924645,-0.15631445,8.41769790649414,-2.62434720993042,4.173421382904053,0.7303141951560974,0.31222522258758545, 1.5563238859176636
14,531619539,0.8316064,-0.2527145,-0.46921003,-0.15623175,8.397392272949219,-2.6101882457733154,4.180289268493652,0.6507482528686523,0.39759230613708496, 1.459020972251892
15,531636206,0.8316414,-0.25276032,-0.4691236,-0.15623064,8.377167701721191,-2.652157783508301,4.172464370727539,0.582375168800354,0.5737053155899048, 1.5383180379867554
16,531652873,0.8316848,-0.25278673,-0.46904272,-0.15619992,8.417436599731445,-2.7371251583099365,4.178041934967041,0.8934284448623657,0.5264369249343872, 1.5501891374588013
17,531669540,0.8317452,-0.25272176,-0.46902013,-0.15605094,8.426068305969238,-2.6651761531829834,4.217856407165527,1.3885475397109985,0.3555490970611572, 1.336707592010498
18,531686207,0.83177656,-0.25272465,-0.4689871,-0.1559783,8.399930000305176,-2.5578017234802246,4.200692176818848,0.9928699135780334,0.2451455444097519, 1.2239348888397217
19,531702874,0.8317866,-0.2527817,-0.4689413,-0.1559705,8.423385620117188,-2.599980354309082,4.219567775726318,0.7036512494087219,0.16823060810565948, 1.3098013401031494
20,531719541,0.8317907,-0.25283235,-0.46891826,-0.15593532,8.43384838104248,-2.5688395500183105,4.232629299163818,0.4854823350906372,0.05328081548213959, 1.269256591796875
21,531736208,0.8318063,-0.25289783,-0.4688661,-0.1559029,8.423181533813477,-2.5900208950042725,4.1828203201293945,0.2519585192203522,0.2404712438583374, 1.3807742595672607
22,531752875,0.83184355,-0.25293776,-0.46880654,-0.15581873,8.410097122192383,-2.708883285522461,4.173882007598877,0.5207253694534302,0.3292192220687866, 1.6146949529647827
23,531769542,0.83189344,-0.25292173,-0.46876895,-0.15569082,8.411788940429688,-2.68966007232666,4.206621170043945,1.0491536855697632,0.2520609498023987, 1.5464754104614258
24,531786209,0.83192647,-0.252925,-0.46874756,-0.15557413,8.419235229492188,-2.6534225940704346,4.197932720184326,1.04177725315094,0.04783811792731285, 1.5012050867080688
25,531802876,0.83193517,-0.25296015,-0.46874553,-0.15547597,8.407153129577637,-2.6378283500671387,4.217942714691162,0.7267923355102539,-0.12835803627967834, 1.3877023458480835
26,531819543,0.8319204,-0.25302276,-0.4687532,-0.15543039,8.410409927368164,-2.6467092037200928,4.1948113441467285,0.5195215940475464,-0.2681393325328827, 1.2021769285202026
27,531836210,0.83191967,-0.2530381,-0.46878037,-0.155327,8.424016952514648,-2.669001579284668,4.163202285766602,0.607744574546814,-0.25384747982025146, 1.1379274129867554
28,531852877,0.83189213,-0.25311375,-0.46876946,-0.15538388,8.429313659667969,-2.6416027545928955,4.134846210479736,0.778261125087738,-0.24424271285533905, 0.9876833558082581
29,531869544,0.8318985,-0.25312027,-0.46877995,-0.15530822,8.398083686828613,-2.641444444656372,4.15844202041626,1.0060731172561646,-0.16337060928344727, 1.1725172996520996
30,531886211,0.8319146,-0.2531472,-0.46875986,-0.15523803,8.459528923034668,-2.6157517433166504,4.198276996612549,0.9179399609565735,0.016180822625756264, 1.291987657546997
31,531902878,0.83193713,-0.2531778,-0.46871737,-0.15519603,8.439769744873047,-2.5962576866149902,4.152907848358154,0.7919639348983765,0.20554831624031067, 1.2062363624572754
32,531919545,0.83198225,-0.2532176,-0.4686451,-0.15510775,8.4559965133667,-2.6301209926605225,4.149662971496582,0.5738973617553711,0.47393104434013367, 1.4340871572494507
33,531936212,0.8320444,-0.25326052,-0.46852833,-0.15505654,8.47014331817627,-2.659822463989258,4.146163463592529,0.7206965684890747,0.7637514472007751, 1.4814320802688599
34,531952879,0.8321409,-0.25325692,-0.46839437,-0.15494974,8.434804916381836,-2.6386423110961914,4.189491271972656,1.0661861896514893,0.9901805520057678, 1.6331617832183838
35,531969546,0.83222383,-0.2533013,-0.46824136,-0.15489362,8.420027732849121,-2.5989081859588623,4.197928428649902,0.8234290480613708,1.0077379941940308, 1.6348392963409424
36,531986213,0.8322836,-0.25342593,-0.46806684,-0.15489632,8.418919563293457,-2.590709686279297,4.227320671081543,0.38208383321762085,0.9709965586662292, 1.7205009460449219
37,532002880,0.83233863,-0.25355145,-0.4679112,-0.15486574,8.42380428314209,-2.601001024246216,4.210477352142334,0.10252121090888977,0.8911232948303223, 1.694798469543457
38,532019547,0.832397,-0.25366345,-0.46776396,-0.15481384,8.414615631103516,-2.629426956176758,4.1866655349731445,-0.02165553718805313,0.9108836650848389, 1.6299601793289185
39,532036214,0.8324718,-0.2537678,-0.46758968,-0.15476671,8.40594482421875,-2.6807215213775635,4.18355655670166,0.3594166040420532,1.0171892642974854, 1.8190330266952515
40,532052881,0.83255005,-0.2538475,-0.46741086,-0.15475588,8.385869979858398,-2.7095892429351807,4.171418190002441,0.673325777053833,1.0491794347763062, 1.6699159145355225
41,532069548,0.8326438,-0.2538613,-0.46726975,-0.15465465,8.391495704650879,-2.6989192962646484,4.200972557067871,1.0551985502243042,0.9122538566589355, 1.7182215452194214
42,532086215,0.83273184,-0.2538599,-0.46714675,-0.15455376,8.400446891784668,-2.620072364807129,4.220803737640381,1.0591939687728882,0.8312408328056335, 1.5636231899261475
43,532102882,0.83279043,-0.25391105,-0.46703026,-0.15450622,8.397893905639648,-2.618725061416626,4.182516574859619,0.6688820123672485,0.6836477518081665, 1.4561268091201782
44,532119549,0.8328404,-0.25395855,-0.4669353,-0.15444608,8.408267974853516,-2.633882761001587,4.188208103179932,0.6658982038497925,0.5373608469963074, 1.4395170211791992
45,532136216,0.83286464,-0.25402653,-0.46687302,-0.15439184,8.389144897460938,-2.621683120727539,4.206393241882324,0.38079044222831726,0.30130141973495483, 1.3190605640411377
46,532152883,0.832889,-0.25412282,-0.4667792,-0.15438576,8.409367561340332,-2.6195919513702393,4.221342086791992,0.39833512902259827,0.40963029861450195, 1.3807998895645142
47,532169550,0.8329105,-0.25422138,-0.4667045,-0.15433306,8.43717098236084,-2.6433629989624023,4.228355884552002,0.2910819351673126,0.2842177152633667, 1.4939182996749878
48,532186217,0.83294415,-0.2542935,-0.46661568,-0.15430094,8.395535469055176,-2.5756425857543945,4.160941123962402,0.40462300181388855,0.4561557471752167, 1.343034029006958
49,532202884,0.8329874,-0.25440064,-0.4664824,-0.15429403,8.404245376586914,-2.694570302963257,4.182681560516357,0.41596946120262146,0.6468551754951477, 1.577672004699707
50,532219551,0.8330699,-0.25439796,-0.4663721,-0.15418652,8.45095443725586,-2.7271199226379395,4.223482131958008,1.140911340713501,0.6894875168800354, 1.627975344657898
51,532236218,0.83313775,-0.25441822,-0.46626136,-0.15412155,8.39108943939209,-2.611506938934326,4.1652398109436035,0.9228702783584595,0.6709821820259094, 1.4679213762283325
52,532252885,0.8332,-0.2544521,-0.4661619,-0.1540304,8.393722534179688,-2.6168928146362305,4.209115982055664,0.7386383414268494,0.5943620204925537, 1.5444139242172241
53,532269552,0.833239,-0.25452855,-0.4660592,-0.1540026,8.414824485778809,-2.633253335952759,4.197918891906738,0.555814802646637,0.49969732761383057, 1.4629013538360596
54,532286219,0.8332638,-0.25462705,-0.4659722,-0.15396892,8.397666931152344,-2.620821237564087,4.2091169357299805,0.2696569263935089,0.3866429626941681, 1.442142367362976
55,532302886,0.8332821,-0.25472403,-0.46589705,-0.15393752,8.424708366394043,-2.665985107421875,4.219206809997559,0.33211344480514526,0.2808624804019928, 1.4327296018600464
56,532319553,0.8333026,-0.25480163,-0.46582696,-0.15390952,8.414284706115723,-2.6379871368408203,4.185080528259277,0.4335653781890869,0.2869070768356323, 1.339845061302185
57,532336220,0.833358,-0.25483727,-0.4657234,-0.15386432,8.41347599029541,-2.715162992477417,4.192109107971191,0.7682209610939026,0.6032751202583313, 1.409332513809204
58,532352887,0.83343047,-0.25484058,-0.4656157,-0.15379244,8.436002731323242,-2.661400556564331,4.182053089141846,1.0284970998764038,0.6846594214439392, 1.4559986591339111
59,532369554,0.83350486,-0.2548689,-0.46548632,-0.15373442,8.39687442779541,-2.601059913635254,4.212578773498535,0.8670986890792847,0.8031181693077087, 1.5212725400924683
60,532386221,0.8335864,-0.2549174,-0.46533045,-0.15368323,8.39666748046875,-2.60667085647583,4.174241542816162,0.6517469882965088,0.9860568046569824, 1.5789906978607178
61,532402888,0.83366174,-0.25498012,-0.46517476,-0.15364265,8.394097328186035,-2.653956174850464,4.187254905700684,0.5566086769104004,0.9618143439292908, 1.5806938409805298
62,532419555,0.83371276,-0.2550476,-0.4650632,-0.1535908,8.414070129394531,-2.65101957321167,4.235279083251953,0.6112150549888611,0.5944644212722778, 1.5799129009246826
63,532436222,0.8337388,-0.25512573,-0.4649822,-0.15356478,8.425929069519043,-2.634624719619751,4.236329555511475,0.4402759075164795,0.37638503313064575, 1.3815041780471802
64,532452889,0.83375037,-0.2552137,-0.46491605,-0.15355593,8.43154239654541,-2.670159339904785,4.223132133483887,0.25326478481292725,0.2847555875778198, 1.2456417083740234
65,532469556,0.83375895,-0.25528446,-0.46486518,-0.1535462,8.419181823730469,-2.6920201778411865,4.222977638244629,0.4630199670791626,0.17257197201251984, 1.216686487197876
66,532486223,0.83378834,-0.25531185,-0.46481842,-0.15348262,8.424446105957031,-2.672877073287964,4.1708502769470215,0.8657796382904053,0.1871327906847, 1.36922287940979
67,532502890,0.83382523,-0.2553143,-0.46477625,-0.15340492,8.404914855957031,-2.631420135498047,4.207535266876221,1.0859464406967163,0.18890005350112915, 1.3776493072509766
68,532519557,0.83386624,-0.25533578,-0.46471587,-0.15332945,8.40986156463623,-2.6085002422332764,4.201147556304932,0.8676366209983826,0.32071584463119507, 1.4216009378433228
69,532536224,0.83391285,-0.25538605,-0.464621,-0.15328038,8.429043769836426,-2.617267370223999,4.185683250427246,0.7153563499450684,0.5123628377914429, 1.5014485120773315
70,532552891,0.8339494,-0.2554633,-0.46453142,-0.15322374,8.408844947814941,-2.621309280395508,4.18846321105957,0.47829797863960266,0.4439897835254669, 1.5707052946090698
71,532569558,0.8339958,-0.2555559,-0.4644117,-0.15317978,8.404170989990234,-2.6479291915893555,4.155134677886963,0.3458418548107147,0.6543852090835571, 1.6231215000152588
72,532586225,0.83405894,-0.25562495,-0.4642777,-0.15312739,8.412482261657715,-2.6527516841888428,4.180441379547119,0.5329682230949402,0.8024777770042419, 1.6475430727005005
73,532602892,0.8341309,-0.2556952,-0.46412417,-0.15308328,8.393092155456543,-2.666689157485962,4.182596206665039,0.5251948237419128,0.9501862525939941, 1.6671241521835327
74,532619559,0.83421004,-0.25574282,-0.46397665,-0.15301979,8.377367973327637,-2.663065195083618,4.209237575531006,0.7040867209434509,0.9429635405540466, 1.6884338855743408
75,532636226,0.8342772,-0.25578344,-0.46385267,-0.15296116,8.387798309326172,-2.663916826248169,4.219949245452881,0.8138627409934998,0.7587697505950928, 1.6284615993499756
76,532652893,0.8343303,-0.25583395,-0.46374717,-0.15290685,8.38685417175293,-2.6572859287261963,4.216018199920654,0.6486480832099915,0.6351758241653442, 1.5450798273086548
77,532669560,0.8343687,-0.2558722,-0.4636809,-0.15283449,8.37866497039795,-2.656444549560547,4.208826065063477,0.8031309843063354,0.3412444591522217, 1.5347449779510498
78,532686227,0.83440226,-0.2558938,-0.46363014,-0.15276915,8.374837875366211,-2.636319875717163,4.222107887268066,0.8912259340286255,0.26559728384017944, 1.4169138669967651
79,532702894,0.83441937,-0.25594112,-0.46358842,-0.1527234,8.406075477600098,-2.6469526290893555,4.179501056671143,0.6734410524368286,0.16422221064567566, 1.3655730485916138
80,532719561,0.8344433,-0.25594905,-0.46356452,-0.15265213,8.403300285339355,-2.6951076984405518,4.213697910308838,0.9900655150413513,0.09331347793340683, 1.3565959930419922
81,532736228,0.83445144,-0.2559575,-0.4635675,-0.15258373,8.396746635437012,-2.6202478408813477,4.224719047546387,1.0053945779800415,-0.11290077120065689, 1.2926408052444458
82,532752895,0.83445174,-0.25599962,-0.4635629,-0.1525256,8.388152122497559,-2.5976550579071045,4.220541477203369,0.7491394877433777,-0.10843135416507721, 1.3506536483764648
83,532769562,0.8344512,-0.25605255,-0.4635569,-0.15245792,8.403833389282227,-2.6004555225372314,4.229051113128662,0.6896155476570129,-0.1226079910993576, 1.4391456842422485
84,532786229,0.8344475,-0.2561239,-0.46353966,-0.15241079,8.4004487991333,-2.614108085632324,4.215546131134033,0.4932045638561249,-0.048689741641283035, 1.4035310745239258
85,532802896,0.834458,-0.2561996,-0.4634993,-0.15234871,8.407919883728027,-2.641191244125366,4.188334941864014,0.555072009563446,0.0865517184138298, 1.5877249240875244
86,532819563,0.8344681,-0.25625908,-0.46347448,-0.15226866,8.39365005493164,-2.6553919315338135,4.206295490264893,0.7026780843734741,-0.00765819801017642, 1.6088171005249023
87,532836230,0.83447605,-0.25632742,-0.46344492,-0.15219998,8.42169189453125,-2.6448822021484375,4.2109456062316895,0.6143653988838196,0.02337799035012722, 1.5863159894943237
88,532852897,0.8344867,-0.25640756,-0.4634043,-0.15213062,8.422480583190918,-2.6563596725463867,4.190742015838623,0.5307271480560303,0.0884854793548584, 1.6515647172927856
89,532869564,0.83449507,-0.256472,-0.46337068,-0.15207782,8.3927001953125,-2.631728172302246,4.197367191314697,0.5323279500007629,0.10473673045635223, 1.4777567386627197
90,532886231,0.83451194,-0.25652146,-0.46333817,-0.15200137,8.384215354919434,-2.6693263053894043,4.208456039428711,0.751982569694519,0.08762746304273605, 1.6024138927459717
91,532902898,0.8345331,-0.25656554,-0.4632962,-0.15193915,8.430928230285645,-2.6127259731292725,4.2045087814331055,0.7531862258911133,0.18258652091026306, 1.5382792949676514
92,532919565,0.8345381,-0.2566445,-0.46325284,-0.1519101,8.4398193359375,-2.628767967224121,4.220937252044678,0.4078246057033539,0.16788484156131744, 1.4505305290222168
93,532936232,0.83455825,-0.25672835,-0.46318144,-0.1518755,8.423013687133789,-2.646454095840454,4.177616119384766,0.3626566231250763,0.37577036023139954, 1.5565286874771118
94,532952899,0.83458,-0.25679508,-0.463117,-0.15183939,8.422462463378906,-2.688148260116577,4.1690216064453125,0.4784003794193268,0.361055850982666, 1.5088634490966797
95,532969566,0.83462405,-0.25682303,-0.46303874,-0.1517892,8.431708335876465,-2.6390540599823,4.188953399658203,0.7938976287841797,0.5261296629905701, 1.529417634010315
96,532986233,0.8346758,-0.25685927,-0.4629443,-0.15173171,8.41272258758545,-2.6272995471954346,4.171541690826416,0.7353213429450989,0.6373656392097473, 1.627347707748413
97,533002900,0.8347313,-0.25689468,-0.4628414,-0.15168013,8.404172897338867,-2.678309917449951,4.203729152679443,0.707134485244751,0.7193773984909058, 1.6124663352966309
98,533019567,0.83477837,-0.25692034,-0.46275777,-0.15163185,8.414578437805176,-2.6941120624542236,4.212752819061279,0.7627527117729187,0.5998430848121643, 1.5273685455322266
99,533036234,0.83481324,-0.2569396,-0.46269482,-0.15159962,8.409006118774414,-2.6535725593566895,4.214785099029541,0.7838830351829529,0.4687444567680359, 1.3881378173828125
100,533052901,0.8348321,-0.25695714,-0.46265718,-0.15158196,8.39834213256836,-2.6656291484832764,4.231464385986328,0.7320045828819275,0.3075765073299408, 1.2389055490493774
101,533069568,0.8348332,-0.25698006,-0.46264565,-0.15157142,8.407594680786133,-2.6660561561584473,4.219521999359131,0.7243719696998596,0.09299331903457642, 1.1831083297729492
102,533086235,0.8348327,-0.25697824,-0.46265817,-0.15153877,8.425621032714844,-2.6555449962615967,4.197780132293701,0.8794184923171997,-0.03379596024751663, 1.1524242162704468
103,533102902,0.8348273,-0.2569744,-0.46268305,-0.15149963,8.42416000366211,-2.6105809211730957,4.21103048324585,0.9221148490905762,-0.12664197385311127, 1.167100429534912
104,533119569,0.83482647,-0.2569832,-0.4626937,-0.15145634,8.432733535766602,-2.5883846282958984,4.216704845428467,0.8684817552566528,-0.05166081711649895, 1.279168725013733
105,533136236,0.8348344,-0.25700524,-0.46267742,-0.1514251,8.426420211791992,-2.6265108585357666,4.213107109069824,0.7243591547012329,0.1471257507801056, 1.3135408163070679
106,533152903,0.8348622,-0.2570382,-0.46262318,-0.15138122,8.430000305175781,-2.688189744949341,4.166235446929932,0.6915749907493591,0.4001024067401886, 1.5160348415374756
107,533169570,0.83490604,-0.2570355,-0.46256316,-0.15132782,8.403775215148926,-2.6510727405548096,4.157844543457031,0.9799098372459412,0.5016438961029053, 1.5050084590911865
108,533186237,0.83495075,-0.25706905,-0.46247894,-0.15128179,8.4083890914917,-2.616473436355591,4.215660095214844,0.7215929627418518,0.6266210675239563, 1.6271427869796753
109,533202904,0.83499277,-0.25711036,-0.46239188,-0.15124579,8.401752471923828,-2.6175241470336914,4.214641571044922,0.6315771341323853,0.6488272547721863, 1.6047700643539429
110,533219571,0.8350085,-0.25719768,-0.4623151,-0.15124439,8.380081176757812,-2.59257435798645,4.2021074295043945,0.2363988310098648,0.5171908140182495, 1.525524616241455
111,533236238,0.83502215,-0.25728312,-0.46224654,-0.15123367,8.40599536895752,-2.6718897819519043,4.229710102081299,0.29222166538238525,0.44747304916381836, 1.5743166208267212
112,533252905,0.83502334,-0.25736868,-0.4622047,-0.15120997,8.438041687011719,-2.674475908279419,4.196331977844238,0.3449966609477997,0.23167330026626587, 1.5990841388702393
113,533269572,0.8350267,-0.2574323,-0.46218047,-0.15115662,8.41625690460205,-2.6883068084716797,4.197026252746582,0.5500136017799377,0.12655876576900482, 1.6580703258514404
114,533286239,0.835039,-0.2574507,-0.4621624,-0.15111266,8.409103393554688,-2.6714866161346436,4.197718620300293,0.7878658771514893,0.19322863221168518, 1.4567928314208984
115,533302906,0.83505666,-0.25745863,-0.46214345,-0.15105926,8.40504264831543,-2.7018980979919434,4.188617706298828,0.9019448757171631,0.20887795090675354, 1.4999629259109497
116,533319573,0.8350783,-0.25745362,-0.46212155,-0.15101562,8.39378833770752,-2.660982608795166,4.166576862335205,0.9888487458229065,0.26112788915634155, 1.4373142719268799
117,533336240,0.83508706,-0.25748202,-0.46209913,-0.15098761,8.402531623840332,-2.636030673980713,4.182566165924072,0.7038690447807312,0.22977794706821442, 1.4380186796188354
118,533352907,0.83508754,-0.25752625,-0.46207577,-0.15098068,8.406502723693848,-2.627596616744995,4.203869819641113,0.5385646224021912,0.23186536133289337, 1.3740894794464111
119,533369574,0.83509433,-0.2575781,-0.46204138,-0.15095985,8.414856910705566,-2.631420850753784,4.18259859085083,0.5255021452903748,0.291440486907959, 1.5081462860107422
120,533386241,0.8351029,-0.25762475,-0.46200484,-0.1509447,8.436583518981934,-2.6491825580596924,4.164247989654541,0.566123902797699,0.3206646144390106, 1.489180088043213
121,533402908,0.8351249,-0.25766432,-0.46195206,-0.15091752,8.414076805114746,-2.64221453666687,4.172893524169922,0.6108949184417725,0.46378836035728455, 1.5662102699279785
122,533419575,0.83515656,-0.25770265,-0.4618762,-0.15090857,8.409795761108398,-2.6846094131469727,4.176218032836914,0.5565063953399658,0.6656036972999573, 1.519697666168213
123,533436242,0.8352036,-0.25770313,-0.46180382,-0.15086932,8.409235954284668,-2.672834873199463,4.207724571228027,0.9236385822296143,0.679063081741333, 1.600889801979065
124,533452909,0.83524424,-0.2577074,-0.46173662,-0.15084155,8.402567863464355,-2.6338272094726562,4.191943645477295,0.8547661900520325,0.651260495185852, 1.5366019010543823
125,533469576,0.8352691,-0.25774482,-0.46167353,-0.15083332,8.393769264221191,-2.6417198181152344,4.203387260437012,0.5518577098846436,0.5910194516181946, 1.502191424369812
126,533486243,0.83527005,-0.25778762,-0.46165058,-0.15082577,8.41318416595459,-2.6589720249176025,4.208756923675537,0.5301636457443237,0.2798251807689667, 1.4351500272750854
127,533502910,0.83526766,-0.25782087,-0.4616402,-0.15081404,8.433635711669922,-2.62591552734375,4.212656497955322,0.6069377064704895,0.20325596630573273, 1.4123547077178955
128,533519577,0.8352694,-0.2578474,-0.461627,-0.15079963,8.424053192138672,-2.6260766983032227,4.189834117889404,0.6729928255081177,0.23442663252353668, 1.4347400665283203
129,533536244,0.8352673,-0.2578806,-0.4616105,-0.15080492,8.41259765625,-2.640111207962036,4.198790550231934,0.5739870071411133,0.2700667381286621, 1.361769676208496
130,533552911,0.83527434,-0.25792214,-0.46157637,-0.15079966,8.419756889343262,-2.6588714122772217,4.172463893890381,0.5409594774246216,0.3833388686180115, 1.490870475769043
131,533569578,0.8352929,-0.25794417,-0.46153522,-0.1507844,8.436933517456055,-2.677556037902832,4.15829610824585,0.6950327157974243,0.47067826986312866, 1.5175718069076538
132,533586245,0.83532923,-0.25794116,-0.46148226,-0.15075073,8.398477554321289,-2.6462149620056152,4.179849147796631,0.90989750623703,0.5982294082641602, 1.586841106414795
133,533602912,0.8353614,-0.2579745,-0.46140802,-0.15074189,8.424131393432617,-2.6409194469451904,4.191735744476318,0.6130848526954651,0.712308406829834, 1.612453818321228
134,533619579,0.83539635,-0.25798932,-0.46134108,-0.1507281,8.432708740234375,-2.6972579956054688,4.203591823577881,0.701115608215332,0.7105153799057007, 1.557873249053955
135,533636246,0.8354145,-0.2579959,-0.46130294,-0.1507331,8.398527145385742,-2.6805577278137207,4.183959484100342,0.7372936010360718,0.522774338722229, 1.3865371942520142
136,533652913,0.8354171,-0.25800306,-0.4612874,-0.15075436,8.415464401245117,-2.6804347038269043,4.207602024078369,0.6735691428184509,0.3787797689437866, 1.2426834106445312
137,533669580,0.83541185,-0.2580134,-0.4612829,-0.15077929,8.41882038116455,-2.672466516494751,4.2004780769348145,0.7135635018348694,0.2736012935638428, 1.248497486114502
138,533686247,0.8353968,-0.25800672,-0.46130744,-0.1507987,8.431859016418457,-2.647066831588745,4.214655876159668,0.7700266242027283,0.11362434923648834, 1.135058879852295
139,533702914,0.83537954,-0.25799564,-0.46134517,-0.15079808,8.413700103759766,-2.640070915222168,4.195980548858643,0.8575835824012756,0.007395667489618063, 1.2137538194656372
140,533719581,0.83536357,-0.25799656,-0.4613736,-0.15079813,8.401742935180664,-2.6198062896728516,4.210572719573975,0.8233010172843933,0.04326625540852547, 1.2982885837554932
141,533736248,0.8353591,-0.25799897,-0.46138683,-0.15077837,8.408882141113281,-2.6065785884857178,4.179101943969727,0.8778688907623291,0.13527987897396088, 1.4638491868972778
142,533752915,0.83536017,-0.25802037,-0.46137226,-0.15078047,8.411595344543457,-2.5920658111572266,4.199275970458984,0.706852912902832,0.32772091031074524, 1.4785635471343994
143,533769582,0.83536625,-0.25807586,-0.4613289,-0.15078387,8.437195777893066,-2.627589464187622,4.186983585357666,0.4522498846054077,0.4910915195941925, 1.6307032108306885
144,533786249,0.83538574,-0.25814098,-0.4612578,-0.15078223,8.461865425109863,-2.7099673748016357,4.205500602722168,0.4150601625442505,0.6770524978637695, 1.7674874067306519
145,533802916,0.835414,-0.25816306,-0.46118233,-0.15081881,8.33333969116211,-2.5826210975646973,4.109429836273193,0.589969277381897,0.8348906636238098, 1.453040361404419
146,533819583,0.8354532,-0.25821275,-0.4610682,-0.15086532,8.369723320007324,-2.7393901348114014,4.193451881408691,0.34680235385894775,1.0989960432052612, 1.5575402975082397
147,533836250,0.8355227,-0.25817612,-0.4609705,-0.15084216,8.454065322875977,-2.774587869644165,4.210695266723633,1.1735162734985352,1.0570169687271118, 1.7082582712173462
148,533852917,0.83556163,-0.25810912,-0.46092996,-0.15086454,8.424554824829102,-2.608950138092041,4.218660831451416,1.1545242071151733,0.7689635157585144, 1.1897673606872559
149,533869584,0.83557415,-0.25810754,-0.46089453,-0.15090618,8.358649253845215,-2.598515748977661,4.224664688110352,0.6881427764892578,0.6218058466911316, 1.2680014371871948
150,533886251,0.8355697,-0.2581385,-0.4608649,-0.15096846,8.409902572631836,-2.6594879627227783,4.235903739929199,0.4587554633617401,0.5219420194625854, 1.2601640224456787
151,533902918,0.8355603,-0.25815222,-0.46087104,-0.15097861,8.4403076171875,-2.6895368099212646,4.235603332519531,0.7115271687507629,0.24253305792808533, 1.4232913255691528
152,533919585,0.8355446,-0.25814232,-0.46090078,-0.15099135,8.415875434875488,-2.589204788208008,4.2140092849731445,0.8612589836120605,0.11617279797792435, 1.2956888675689697
153,533936252,0.8355233,-0.2581898,-0.46090078,-0.15102808,8.37710952758789,-2.611499071121216,4.191165924072266,0.46123984456062317,0.23961320519447327, 1.423227310180664
154,533952919,0.83550894,-0.25822732,-0.46089643,-0.15105611,8.378995895385742,-2.675922393798828,4.19546365737915,0.5183690190315247,0.29711371660232544, 1.4476745128631592
155,533969586,0.8355122,-0.2582464,-0.4608772,-0.15106444,8.411032676696777,-2.727083444595337,4.155564785003662,0.7197489738464355,0.42105361819267273, 1.5611133575439453
156,533986253,0.83552474,-0.25822893,-0.46087193,-0.15104087,8.39501667022705,-2.658303737640381,4.176216125488281,1.0715008974075317,0.35543379187583923, 1.6205217838287354
157,534002920,0.83553356,-0.25823176,-0.46085715,-0.15103282,8.404733657836914,-2.6097500324249268,4.193514347076416,0.8630390763282776,0.41931188106536865, 1.6014403104782104
158,534019587,0.83552307,-0.2582592,-0.46085757,-0.1510423,8.429863929748535,-2.663411855697632,4.186708450317383,0.6534503698348999,0.2779938876628876, 1.5446572303771973
159,534036254,0.8354956,-0.25831807,-0.46085992,-0.15108657,8.437712669372559,-2.6587836742401123,4.205366134643555,0.34700724482536316,0.24335265159606934, 1.4365074634552002
160,534052921,0.83546644,-0.25836828,-0.46086913,-0.15113392,8.410018920898438,-2.628561496734619,4.198302745819092,0.4193759262561798,0.20799434185028076, 1.3993818759918213
161,534069588,0.83543897,-0.2584421,-0.4608548,-0.15120265,8.409062385559082,-2.661073923110962,4.175510406494141,0.17576074600219727,0.3721461296081543, 1.393759846687317
162,534086255,0.835439,-0.25848192,-0.4608152,-0.15125495,8.421548843383789,-2.73445987701416,4.169921398162842,0.48978525400161743,0.6007522940635681, 1.4830713272094727
163,534102922,0.83547366,-0.25843868,-0.4607734,-0.15126534,8.438790321350098,-2.7308356761932373,4.162036418914795,1.1406296491622925,0.7473209500312805, 1.492970585823059
164,534119589,0.83550894,-0.25838712,-0.4607355,-0.1512745,8.417572975158691,-2.6476988792419434,4.192691326141357,1.2058392763137817,0.7383435368537903, 1.4735047817230225
165,534136256,0.8355291,-0.25836065,-0.46070227,-0.15130979,8.406436920166016,-2.6160740852355957,4.21342658996582,0.9918836951255798,0.6760023236274719, 1.4044147729873657
166,534152923,0.8355361,-0.25835177,-0.460677,-0.15136227,8.406023025512695,-2.6481430530548096,4.194031715393066,0.835006058216095,0.5986008048057556, 1.3494372367858887
167,534169590,0.83552504,-0.2583709,-0.460668,-0.15141888,8.41161823272705,-2.598806381225586,4.20359992980957,0.6553841233253479,0.426816463470459, 1.3786996603012085
168,534186257,0.8354957,-0.25842494,-0.46066478,-0.15149732,8.405251502990723,-2.602342128753662,4.232448101043701,0.3624389171600342,0.3403351604938507, 1.3462611436843872
169,534202924,0.8354605,-0.25850973,-0.46065676,-0.15157138,8.382369995117188,-2.6139724254608154,4.206684112548828,0.15705068409442902,0.31985780596733093, 1.4665768146514893
170,534219591,0.8354399,-0.2585858,-0.46063837,-0.15161152,8.388185501098633,-2.6875710487365723,4.1886115074157715,0.3068850040435791,0.3843890130519867, 1.6638331413269043
171,534236258,0.8354351,-0.25861076,-0.46062776,-0.15162715,8.413824081420898,-2.6744306087493896,4.186305046081543,0.7402517199516296,0.39400652050971985, 1.6622575521469116
172,534252925,0.8354297,-0.25863683,-0.46061918,-0.15163904,8.412757873535156,-2.7108991146087646,4.1894073486328125,0.7230527997016907,0.3854902684688568, 1.6755762100219727
173,534269592,0.83542687,-0.2586292,-0.46062335,-0.15165423,8.425182342529297,-2.70398211479187,4.197513103485107,0.9769387245178223,0.347878098487854, 1.559333086013794
174,534286259,0.83540654,-0.2586257,-0.4606501,-0.15169151,8.411905288696289,-2.6920626163482666,4.194711208343506,0.8707742094993591,0.203947514295578, 1.3874719142913818
175,534302926,0.83536595,-0.2586267,-0.46070027,-0.15176067,8.395281791687012,-2.6353931427001953,4.182961940765381,0.7507146596908569,0.05489442124962807, 1.168713927268982
176,534319593,0.83531904,-0.2586467,-0.46075234,-0.15182742,8.401101112365723,-2.650627851486206,4.175612926483154,0.5690181851387024,0.02750163897871971, 1.2020361423492432
177,534336260,0.83528733,-0.25866485,-0.4607773,-0.15189444,8.418781280517578,-2.662111520767212,4.181301116943359,0.6450878977775574,0.2144487500190735, 1.2993003129959106
178,534352927,0.8352671,-0.25866207,-0.4607974,-0.15194964,8.421585083007812,-2.6159040927886963,4.1787285804748535,0.7723061442375183,0.29987990856170654, 1.302642583847046
179,534369594,0.8352571,-0.25868702,-0.46077904,-0.15201807,8.408979415893555,-2.594721555709839,4.160158157348633,0.5562502145767212,0.5495140552520752, 1.4046709537506104
180,534386261,0.83525985,-0.25872868,-0.46072167,-0.15210603,8.390422821044922,-2.663377523422241,4.180853843688965,0.44931721687316895,0.8115832805633545, 1.4731335639953613
181,534402928,0.8352945,-0.2587251,-0.46065122,-0.15213497,8.424958229064941,-2.713977813720703,4.170441627502441,0.8595046401023865,0.9609948992729187, 1.6877809762954712
182,534419595,0.8353295,-0.25870365,-0.46059135,-0.15216134,8.395591735839844,-2.6217103004455566,4.190619945526123,1.0292015075683594,0.9038402438163757, 1.6533703804016113
183,534436262,0.8353446,-0.25872427,-0.4605394,-0.15219924,8.399744033813477,-2.619596242904663,4.210236072540283,0.7417373061180115,0.7690020203590393, 1.7012786865234375
184,534452929,0.8353368,-0.25878447,-0.4604976,-0.1522668,8.40230941772461,-2.640561819076538,4.200304985046387,0.4254589378833771,0.6384028792381287, 1.639654517173767
185,534469596,0.83530277,-0.25886267,-0.46048903,-0.15234633,8.398423194885254,-2.6826999187469482,4.221424579620361,0.2376922369003296,0.38169965147972107, 1.5288028717041016
186,534486263,0.83526516,-0.25891602,-0.46049947,-0.15243037,8.385533332824707,-2.668328285217285,4.219634532928467,0.4105459451675415,0.2861066162586212, 1.405701756477356
187,534502930,0.8352238,-0.25897273,-0.46051943,-0.1525005,8.37751293182373,-2.6724822521209717,4.184610843658447,0.45686009526252747,0.18550637364387512, 1.4883092641830444
188,534519597,0.83517855,-0.2590262,-0.4605514,-0.15256086,8.375361442565918,-2.6660051345825195,4.1876702308654785,0.5069073438644409,0.09504233300685883, 1.5085433721542358
189,534536264,0.8351459,-0.2590559,-0.46057346,-0.15262222,8.418045997619629,-2.6453328132629395,4.204601287841797,0.6460355520248413,0.22268320620059967, 1.4585727453231812
190,534552931,0.8351128,-0.25910047,-0.4605921,-0.15267164,8.444372177124023,-2.692826747894287,4.18958854675293,0.5526515245437622,0.22072383761405945, 1.5631237030029297
191,534569598,0.8350813,-0.25912988,-0.4606148,-0.15272616,8.42504596710205,-2.652395009994507,4.20169734954834,0.6809583306312561,0.21355226635932922, 1.5089656114578247
192,534586265,0.8350502,-0.2591751,-0.46062282,-0.15279472,8.404056549072266,-2.6687705516815186,4.195470333099365,0.5234915018081665,0.3129807412624359, 1.5053541660308838
193,534602932,0.83501846,-0.25922766,-0.46062648,-0.15286762,8.410270690917969,-2.6607131958007812,4.199803829193115,0.48187097907066345,0.3309224545955658, 1.5244487524032593
194,534619599,0.8349956,-0.25928164,-0.4606161,-0.15293223,8.43126106262207,-2.6655142307281494,4.187232971191406,0.4577438235282898,0.4410315155982971, 1.5919126272201538
195,534636266,0.834975,-0.25932196,-0.46060994,-0.15299512,8.441376686096191,-2.676547050476074,4.194403648376465,0.5869855284690857,0.4255230128765106, 1.5763145685195923
196,534652933,0.83495146,-0.25937283,-0.46059445,-0.1530843,8.414252281188965,-2.630852222442627,4.19392204284668,0.4349868595600128,0.5062286257743835, 1.4792165756225586
197,534669600,0.83493614,-0.2594373,-0.46055317,-0.15318266,8.397095680236816,-2.6838865280151367,4.190006732940674,0.3007251024246216,0.6891160607337952, 1.522373914718628
198,534686267,0.8349304,-0.25945187,-0.46053562,-0.15324113,8.421276092529297,-2.722144365310669,4.179383754730225,0.7661590576171875,0.5637931227684021, 1.5682847499847412
199,534702934,0.8349336,-0.25944304,-0.46051368,-0.15330543,8.410000801086426,-2.6649436950683594,4.198889255523682,0.9160702228546143,0.6475722789764404, 1.4895256757736206
200,534719601,0.8349406,-0.25944266,-0.4604769,-0.15337826,8.3958101272583,-2.6524789333343506,4.179773807525635,0.840218186378479,0.750484049320221, 1.5055592060089111
201,534736268,0.8349421,-0.25945365,-0.46043512,-0.15347704,8.3844633102417,-2.6505978107452393,4.192651748657227,0.644319474697113,0.8097262978553772, 1.3816194534301758
202,534752935,0.8349512,-0.2594328,-0.4604078,-0.15354453,8.363927841186523,-2.7226853370666504,4.176286697387695,0.94809889793396,0.7321838736534119, 1.4427825212478638
203,534769602,0.83494824,-0.25943586,-0.46039084,-0.15360652,8.424307823181152,-2.6894760131835938,4.237931728363037,0.8535879254341125,0.589725911617279, 1.5361406803131104
204,534786269,0.8349456,-0.25941697,-0.46039197,-0.15364857,8.420782089233398,-2.617551565170288,4.199134826660156,1.0430707931518555,0.481704443693161, 1.5410711765289307
205,534802936,0.83489937,-0.25949672,-0.4603855,-0.15378504,8.44401741027832,-2.6217353343963623,4.254021167755127,0.16557970643043518,0.427840918302536, 1.322518229484558
206,534819603,0.8348783,-0.25952563,-0.4603754,-0.1538808,8.407451629638672,-2.7330684661865234,4.178563117980957,0.5975762605667114,0.5192398428916931, 1.4190396070480347
207,534836270,0.83486444,-0.25952667,-0.4603737,-0.15395956,8.400506019592285,-2.7027621269226074,4.185303688049316,0.8703131675720215,0.48336929082870483, 1.438326120376587
208,534852937,0.8348515,-0.25949705,-0.46039608,-0.1540119,8.404062271118164,-2.6282577514648438,4.196807861328125,1.1592243909835815,0.33559679985046387, 1.4523104429244995
209,534869604,0.8348198,-0.2595215,-0.46040845,-0.15410583,8.417346000671387,-2.588871717453003,4.217646598815918,0.6237781047821045,0.36863720417022705, 1.3616929054260254
210,534886271,0.83478737,-0.25958073,-0.46038777,-0.15424366,8.44705867767334,-2.7019660472869873,4.200240612030029,0.30149346590042114,0.5800188183784485, 1.3118633031845093
211,534902938,0.83477,-0.25961116,-0.46035963,-0.15437056,8.448009490966797,-2.6638519763946533,4.1468729972839355,0.5176646709442139,0.684454619884491, 1.3121449947357178
212,534919605,0.834775,-0.259641,-0.46029055,-0.15449916,8.429801940917969,-2.6067354679107666,4.144855499267578,0.4451039433479309,1.021581768989563, 1.3649969100952148
213,534936272,0.83481115,-0.2597162,-0.4601337,-0.1546448,8.41330623626709,-2.663778066635132,4.171047210693359,0.1546943187713623,1.5895819664001465, 1.6376185417175293
214,534952939,0.83490366,-0.2597349,-0.45991576,-0.15476179,8.432387351989746,-2.6419525146484375,4.120540618896484,0.6339079141616821,2.1203668117523193, 1.8096975088119507
215,534969606,0.8350282,-0.2597754,-0.45961848,-0.154905,8.417645454406738,-2.6515259742736816,4.145131587982178,0.33709514141082764,2.726977586746216, 1.8757268190383911
216,534986273,0.83518684,-0.2598296,-0.45925573,-0.15503462,8.3818998336792,-2.6857800483703613,4.1892170906066895,0.280593603849411,3.1800668239593506, 2.147247314453125
217,535002940,0.8353957,-0.25989592,-0.4588033,-0.15513769,8.371206283569336,-2.663694143295288,4.266326904296875,0.2826169431209564,3.7965896129608154, 2.549725294113159
218,535019607,0.83562106,-0.2599131,-0.45836803,-0.15518257,8.36246395111084,-2.622116804122925,4.156352996826172,0.8055387139320374,3.693230152130127, 2.723571538925171
219,535036274,0.835817,-0.25994146,-0.45796922,-0.15525721,8.350653648376465,-2.712937593460083,4.251780986785889,0.7060973048210144,3.4102988243103027, 2.5337555408477783
220,535052941,0.83601755,-0.25990024,-0.45763052,-0.15524477,8.302563667297363,-2.7607831954956055,4.244437217712402,1.4144805669784546,3.0112273693084717, 2.693028450012207
221,535069608,0.83615863,-0.25981498,-0.4574249,-0.15523393,8.306879997253418,-2.6657941341400146,4.312913417816162,1.708142876625061,2.105088472366333, 2.245868682861328
222,535086275,0.83622944,-0.25983223,-0.4572723,-0.15527305,8.288155555725098,-2.7630553245544434,4.398981094360352,0.8775743246078491,1.5605882406234741, 2.1056008338928223
223,535102942,0.83620894,-0.25984836,-0.4572973,-0.15528221,8.39528751373291,-2.6192116737365723,4.330991744995117,1.0777631998062134,0.1682562232017517, 1.8947954177856445
224,535119609,0.836117,-0.25991642,-0.45740303,-0.15535194,8.333441734313965,-2.7276363372802734,4.331875801086426,0.5231201648712158,-0.4619634747505188, 1.4822133779525757
225,535136276,0.83599424,-0.25992617,-0.45762375,-0.15534651,8.31497573852539,-2.765021562576294,4.267906665802002,1.1316523551940918,-1.2841312885284424, 1.4744142293930054
226,535152943,0.8358332,-0.25993356,-0.45792,-0.15532753,8.339849472045898,-2.7416558265686035,4.301182746887207,1.2551054954528809,-1.8791141510009766, 1.393017053604126
227,535169610,0.8356388,-0.25995177,-0.4582745,-0.15529804,8.358448028564453,-2.647521495819092,4.267003059387207,1.1692774295806885,-2.3304355144500732, 1.3136690855026245
228,535186277,0.8354205,-0.26001406,-0.45863494,-0.15530436,8.369589805603027,-2.5867834091186523,4.235783576965332,0.8197664618492126,-2.441133975982666, 1.2400965690612793
229,535202944,0.83519477,-0.26012838,-0.4589726,-0.15532972,8.394644737243652,-2.6200599670410156,4.2108845710754395,0.3752196431159973,-2.3390414714813232, 1.3069840669631958
230,535219611,0.83498484,-0.26027283,-0.45924705,-0.15540509,8.417815208435059,-2.6393778324127197,4.174437999725342,0.06195072457194328,-1.8862472772598267, 1.277734398841858
231,535236278,0.8348296,-0.26039243,-0.4594462,-0.15544927,8.404205322265625,-2.710991144180298,4.124800205230713,0.27130889892578125,-1.2903934717178345, 1.5480506420135498
232,535252945,0.8347347,-0.26045752,-0.45956665,-0.15549387,8.432968139648438,-2.7195403575897217,4.167587757110596,0.5947973132133484,-0.5797306895256042, 1.5711663961410522
233,535269612,0.8346927,-0.2604903,-0.4596138,-0.15552455,8.426140785217285,-2.7386701107025146,4.133388042449951,0.8830168843269348,0.007267602253705263, 1.7573702335357666
234,535286279,0.8346715,-0.2605007,-0.45960143,-0.15565829,8.421314239501953,-2.587040662765503,4.170835971832275,0.6794856786727905,0.621178388595581, 1.2320283651351929
235,535302946,0.83468926,-0.26056403,-0.45945537,-0.15588854,8.33572769165039,-2.7614994049072266,4.104028701782227,-0.061111897230148315,1.6498994827270508, 1.1021208763122559
236,535319613,0.83476156,-0.2604429,-0.45935035,-0.15601364,8.298115730285645,-3.0240285396575928,4.206221103668213,1.4735561609268188,1.5992889404296875, 1.104387640953064
237,535336280,0.8347834,-0.2602069,-0.45943138,-0.15605168,8.475345611572266,-2.9409420490264893,4.360914707183838,2.591012954711914,0.3164513111114502, 0.875243604183197
238,535352947,0.8346099,-0.2598979,-0.45992002,-0.15605432,8.413167953491211,-2.400481700897217,4.54157018661499,3.169731616973877,-2.6124825477600098, -0.12265920639038086
239,535369614,0.8341533,-0.25999892,-0.46059933,-0.15632403,8.376263618469238,-2.389233350753784,4.561002731323242,-0.34205761551856995,-4.574672222137451, -0.9946820735931396
240,535386281,0.8335402,-0.26037845,-0.46138275,-0.15665212,8.366765022277832,-2.348151683807373,4.196467876434326,-2.320882558822632,-5.868664264678955, -0.8022924065589905
241,535402948,0.8330143,-0.26074123,-0.4620658,-0.1568331,8.327651977539062,-2.8037502765655518,4.187559604644775,-1.73788583278656,-5.2554192543029785, 0.26032108068466187
242,535419615,0.8326933,-0.26066056,-0.46275806,-0.1566302,8.426456451416016,-2.748812675476074,3.999565839767456,2.3546206951141357,-4.8529791831970215, 1.2224494218826294
243,535436282,0.83249617,-0.26050597,-0.46330926,-0.15630558,8.48232650756836,-2.5617687702178955,4.0924811363220215,3.1881091594696045,-3.764273166656494, 2.039801836013794
244,535452949,0.83232206,-0.2605119,-0.46368396,-0.15611184,8.536653518676758,-2.4352424144744873,4.104836463928223,1.8568761348724365,-2.6662180423736572, 2.2241368293762207
245,535469616,0.8321662,-0.2607244,-0.46385577,-0.1560781,8.501362800598145,-2.655661106109619,4.025630474090576,-0.11652498692274094,-1.347215175628662, 2.312615394592285
246,535486283,0.8320814,-0.26096463,-0.46386644,-0.15609643,8.503296852111816,-2.806302785873413,3.9926912784576416,-0.3165985941886902,-0.18587134778499603, 2.5542967319488525
247,535502950,0.8320792,-0.26113886,-0.46376076,-0.15613115,8.491287231445312,-2.6383016109466553,3.9950144290924072,-0.11308006942272186,0.899729311466217, 2.4671366214752197
248,535519617,0.8321171,-0.26140362,-0.46346608,-0.15636106,8.441324234008789,-2.5817525386810303,4.0007476806640625,-1.4777374267578125,2.400735855102539, 1.9762053489685059
249,535536284,0.8322474,-0.26158768,-0.4630454,-0.1566053,8.47332763671875,-2.783040761947632,4.074842929840088,-0.9810303449630737,3.516066312789917, 1.9921237230300903
250,535552951,0.8324219,-0.26166087,-0.46259713,-0.15688026,8.460153579711914,-2.8822615146636963,4.121862888336182,-0.34000861644744873,3.9740729331970215, 1.5844465494155884
251,535569618,0.83261967,-0.26162836,-0.4621548,-0.15718868,8.370610237121582,-2.910935163497925,4.146370887756348,0.2024235725402832,4.192139148712158, 1.0608716011047363
252,535586285,0.8327892,-0.26153564,-0.461793,-0.1575071,8.323456764221191,-2.8684768676757812,4.1736345291137695,0.5057932138442993,3.7403059005737305, 0.6032495498657227
253,535602952,0.8329164,-0.26131415,-0.4616073,-0.15774645,8.350929260253906,-2.770442485809326,4.238053321838379,1.7132271528244019,2.558497428894043, 0.32928329706192017
254,535619619,0.83293116,-0.26108748,-0.46163923,-0.15795058,8.389236450195312,-2.5023770332336426,4.3802385330200195,1.8250263929367065,0.916083037853241, -0.03579374775290489
255,535636286,0.8328452,-0.26101354,-0.46177155,-0.15813856,8.413182258605957,-2.4697964191436768,4.346266746520996,0.8767290711402893,-0.16484332084655762, 0.23390156030654907
256,535652953,0.8327219,-0.26103243,-0.46192905,-0.15829684,8.406927108764648,-2.530773878097534,4.22744083404541,0.4848548173904419,-0.6183161735534668, 0.6658725738525391
257,535669620,0.8326291,-0.26108366,-0.4620526,-0.15833962,8.414819717407227,-2.594602346420288,4.127490043640137,0.6055545806884766,-0.5458706021308899, 1.4892950057983398
258,535686287,0.83260554,-0.2611158,-0.4620777,-0.15833719,8.457221031188965,-2.6245031356811523,4.097696304321289,0.902597963809967,0.16934478282928467, 1.9557666778564453
259,535702954,0.83268005,-0.26111585,-0.4619576,-0.15829602,8.474263191223145,-2.7200138568878174,4.054113864898682,1.2410954236984253,1.276146411895752, 2.4515774250030518
260,535719621,0.8328359,-0.26107827,-0.4617071,-0.15826888,8.433734893798828,-2.6784207820892334,4.049252510070801,1.3454924821853638,2.377133846282959, 2.5359067916870117
261,535736288,0.8330198,-0.26108742,-0.4613364,-0.15836681,8.370343208312988,-2.67683744430542,4.055699825286865,0.6962749361991882,3.3005104064941406, 2.2623252868652344
262,535752955,0.83320796,-0.2611071,-0.46093166,-0.158523,8.423709869384766,-2.687161445617676,4.204440116882324,0.6093708872795105,3.542281150817871, 2.1231582164764404
263,535769622,0.83333254,-0.26113492,-0.4606363,-0.15868051,8.393030166625977,-2.681830406188965,4.361547470092773,0.1505962610244751,2.8462178707122803, 1.6638585329055786
264,535786289,0.8332906,-0.26129496,-0.46051535,-0.15898904,8.434416770935059,-2.5129172801971436,4.298952102661133,-1.0357005596160889,1.385678768157959, 0.8042066097259521
265,535802956,0.83315855,-0.26155713,-0.46049276,-0.15931489,8.35301685333252,-2.7213261127471924,4.266814708709717,-1.7904044389724731,0.4720099866390228, 0.7299683094024658
266,535819623,0.83303034,-0.2617017,-0.46057132,-0.15952079,8.312520027160645,-2.8266026973724365,4.21630859375,-0.5034304261207581,-0.22487950325012207, 0.9238436222076416
267,535836290,0.83294976,-0.26170212,-0.46072093,-0.15950872,8.342851638793945,-2.735574245452881,4.248022556304932,1.1293599605560303,-0.7008786797523499, 1.6079459190368652
268,535852957,0.832901,-0.26166353,-0.46087623,-0.15937848,8.455714225769043,-2.4916582107543945,4.251125812530518,1.7124972343444824,-0.7791767120361328, 2.1417789459228516
269,535869624,0.8328548,-0.2618152,-0.46091336,-0.1592631,8.470826148986816,-2.4285333156585693,4.218912124633789,0.519201397895813,-0.3016407787799835, 2.9176642894744873
270,535886291,0.8328448,-0.26206174,-0.46083933,-0.15912399,8.397726058959961,-2.5836713314056396,4.188676357269287,0.02549104019999504,0.2910435199737549, 3.6206564903259277
271,535902958,0.83285403,-0.26234263,-0.4606878,-0.1590523,8.401442527770996,-2.5281529426574707,4.171380043029785,-0.5420351624488831,0.9144373536109924, 3.4524383544921875
272,535919625,0.832814,-0.2628938,-0.46039927,-0.15918668,8.424159049987793,-2.7660841941833496,4.068352699279785,-2.9526069164276123,1.6074084043502808, 3.34234881401062
273,535936292,0.8328676,-0.26321372,-0.46015432,-0.15908623,8.442510604858398,-3.019676446914673,4.048156261444092,-0.5707533955574036,1.454359531402588, 4.024722099304199
274,535952959,0.832945,-0.26344186,-0.45990622,-0.15902092,8.454263687133789,-2.7209670543670654,4.1861371994018555,-0.14069058001041412,1.7263795137405396, 3.538696050643921
275,535969626,0.8330254,-0.26376295,-0.45956472,-0.15905423,8.417927742004395,-2.643362283706665,4.190229892730713,-1.1462708711624146,2.370525598526001, 3.406700611114502
276,535986293,0.8331001,-0.26424626,-0.45910674,-0.15918358,8.462971687316895,-2.66015625,4.2157158851623535,-2.510864734649658,3.0128674507141113, 3.580496072769165
277,536002960,0.8331709,-0.26484215,-0.45856073,-0.15939564,8.41160774230957,-2.7463152408599854,4.193004131317139,-3.543529987335205,3.538810968399048, 3.6093738079071045
278,536019627,0.83329827,-0.26537865,-0.4579519,-0.15958793,8.34266471862793,-2.845242500305176,4.161711692810059,-3.0678255558013916,4.09166145324707, 3.7315850257873535
279,536036294,0.83334494,-0.26635954,-0.45715114,-0.16000551,8.49604320526123,-2.7188446521759033,4.570624828338623,-6.676617622375488,4.858608722686768, 4.099883556365967
280,536052961,0.8326739,-0.27043045,-0.45507598,-0.16256535,8.671143531799316,-1.9869468212127686,4.701199054718018,-33.71155548095703,10.369647979736328, 3.1505489349365234
281,536069628,0.8313336,-0.2761903,-0.45257998,-0.1666584,8.791862487792969,-1.7828474044799805,4.005262851715088,-50.02024841308594,11.663830757141113, -0.3317643702030182
282,536086295,0.8290889,-0.28239822,-0.45136124,-0.17069288,9.799756050109863,-1.485803484916687,3.1365041732788086,-52.8148078918457,0.9788949489593506, -2.100184917449951
283,536102962,0.8261975,-0.28848135,-0.45126858,-0.17473644,11.487662315368652,-1.179579257965088,3.066835880279541,-52.11940002441406,-7.22350549697876, -5.444711685180664
284,536119629,0.822241,-0.2938822,-0.45333296,-0.17900349,14.349760055541992,-0.7356767058372498,2.967961549758911,-48.62605667114258,-21.39063835144043, -14.374398231506348
285,536136296,0.81816393,-0.29727042,-0.45705518,-0.1825892,11.969037055969238,-1.412283182144165,5.124996662139893,-33.544742584228516,-29.8499755859375, -20.249794006347656
286,536152963,0.81457204,-0.29685512,-0.46256825,-0.18541913,10.020550727844238,-1.9361058473587036,6.566533088684082,-7.021276950836182,-34.996429443359375, -31.124526977539062
287,536169630,0.8107014,-0.29374245,-0.47003797,-0.18852878,9.0450439453125,-2.1154682636260986,5.290124893188477,8.848153114318848,-42.8243408203125, -45.67348861694336
288,536186297,0.80700606,-0.28503856,-0.48115313,-0.18970013,8.940451622009277,-1.287583351135254,3.010586977005005,51.120121002197266,-59.227317810058594, -60.13934326171875
289,536202964,0.8053657,-0.26360723,-0.49708715,-0.18655263,10.045730590820312,6.3047380447387695,2.368853807449341,146.3384246826172,-71.01809692382812, -85.01399993896484
290,536219631,0.7986084,-0.2535483,-0.5108731,-0.1922156,10.629059791564941,8.026678085327148,0.4788395166397095,40.969154357910156,-75.14347076416016, -97.36820220947266
291,536236298,0.78914297,-0.2470956,-0.5249504,-0.2015549,8.265828132629395,0.4934666156768799,0.177766352891922,4.808483123779297,-84.74095153808594, -108.25880432128906
292,536252965,0.7792184,-0.23661934,-0.54090065,-0.21037272,8.263457298278809,4.5271992683410645,1.0635381937026978,30.354074478149414,-91.79268646240234, -123.71372985839844
293,536269632,0.76795363,-0.2286024,-0.5559002,-0.22127649,8.154247283935547,2.3383493423461914,0.7378882765769958,5.8317365646362305,-91.80657958984375, -125.95292663574219
294,536286299,0.75674075,-0.21891664,-0.57111144,-0.23076183,8.226302146911621,0.6323913335800171,0.8394159078598022,20.468143463134766,-92.37727355957031, -124.99720001220703
295,536302966,0.7456451,-0.20879866,-0.58579767,-0.23928586,8.598986625671387,0.17444303631782532,1.05010986328125,25.852731704711914,-89.91027069091797, -120.68881225585938
296,536319633,0.734784,-0.19857492,-0.59977293,-0.24684665,9.091521263122559,-0.6034550666809082,1.4831010103225708,29.462772369384766,-86.5022201538086, -114.76984405517578
297,536336300,0.72438747,-0.18892072,-0.6124529,-0.2539161,9.058302879333496,-0.6433054804801941,2.1979928016662598,27.07221221923828,-79.66941833496094, -107.41944122314453
298,536352967,0.7146199,-0.18085742,-0.6233618,-0.2608245,8.564098358154297,-1.654786229133606,2.7000155448913574,17.575891494750977,-71.21072387695312, -96.56767272949219
299,536369634,0.7058969,-0.17393126,-0.6327176,-0.26669428,8.240043640136719,-2.2711522579193115,2.976595163345337,14.984502792358398,-62.48443603515625, -82.87680053710938
300,536386301,0.69815,-0.16835986,-0.6406432,-0.27169454,8.362122535705566,-2.0544426441192627,2.6199681758880615,10.770486831665039,-54.89060592651367, -69.38048553466797
301,536402968,0.69145644,-0.1639135,-0.6471234,-0.27613732,9.088238716125488,-1.646919846534729,2.247882843017578,6.375527858734131,-46.12053298950195, -58.22356033325195
302,536419635,0.6859536,-0.16013058,-0.65241534,-0.27960733,9.358429908752441,-2.3850412368774414,2.334498167037964,6.66144323348999,-37.578224182128906, -47.15635299682617
303,536436302,0.6813475,-0.1567307,-0.6569408,-0.28218818,9.439763069152832,-1.210893988609314,1.8002785444259644,8.384642601013184,-31.709409713745117, -38.81566619873047
304,536452969,0.6770222,-0.15501937,-0.66068596,-0.28478777,9.718039512634277,-1.0011717081069946,1.1762216091156006,-0.8016826510429382,-30.07823371887207, -29.992877960205078
305,536469636,0.6730439,-0.15395194,-0.6643945,-0.2861659,10.239983558654785,-1.4663280248641968,1.0503638982772827,2.0649254322052,-30.914236068725586, -20.761899948120117
306,536486303,0.66943324,-0.15302624,-0.6681333,-0.2864262,10.606243133544922,-1.087005615234375,1.0773969888687134,6.9824676513671875,-30.85295867919922, -14.368363380432129
307,536502970,0.66587996,-0.15246622,-0.6718869,-0.28622735,10.846169471740723,-0.31638017296791077,0.8349946141242981,7.515008926391602,-31.876934051513672, -10.584941864013672
308,536519637,0.6620533,-0.15283917,-0.67549396,-0.2864153,10.847081184387207,0.28268131613731384,0.8298747539520264,0.8956734538078308,-33.912967681884766, -8.514144897460938
309,536536304,0.6578923,-0.1544097,-0.6787997,-0.28734365,10.495733261108398,0.03021112270653248,0.8648862242698669,-8.926350593566895,-35.69181442260742, -6.72707986831665
310,536552971,0.6533407,-0.15731986,-0.68159664,-0.2895209,10.240523338317871,0.5741992592811584,0.669716477394104,-22.22200584411621,-36.55786895751953, -6.423233509063721
311,536569638,0.64853823,-0.16131188,-0.68388766,-0.29270187,10.082014083862305,0.3876582682132721,0.3275187015533447,-33.05348587036133,-36.55132293701172, -5.861362934112549
312,536586305,0.6436643,-0.16566136,-0.68589956,-0.29630134,10.060810089111328,0.44062504172325134,0.5981504917144775,-37.2483024597168,-35.91266632080078, -5.932611465454102
313,536602972,0.6386945,-0.17060012,-0.68742,-0.3006973,10.055331230163574,0.7509761452674866,0.2519916594028473,-44.713462829589844,-34.510040283203125, -6.363304615020752
314,536619639,0.6340013,-0.17547761,-0.6886011,-0.30508813,10.005903244018555,0.5157827138900757,0.3705187737941742,-44.79121780395508,-31.608421325683594, -5.699732303619385
315,536636306,0.63015807,-0.1790888,-0.69003904,-0.30769193,9.579647064208984,-0.04509337618947029,0.3213139474391937,-29.24013900756836,-28.225805282592773, -2.4797463417053223
316,536652973,0.6274091,-0.18073791,-0.69212383,-0.30766276,9.38085651397705,0.605245053768158,0.16200987994670868,-5.526106834411621,-24.946969985961914, 1.0737829208374023
317,536669640,0.6255732,-0.18108347,-0.69467515,-0.30543983,9.274335861206055,0.876388669013977,-0.24882401525974274,12.66314697265625,-22.597074508666992, 5.642651081085205
318,536686307,0.62442887,-0.18126927,-0.6968501,-0.3027047,9.285350799560547,1.4628287553787231,0.0987800657749176,15.86938762664795,-17.98061752319336, 8.968632698059082
319,536702974,0.6237153,-0.18156327,-0.69847476,-0.30024514,8.829485893249512,0.926122784614563,0.8147531151771545,13.47989559173584,-13.451171875, 9.8707275390625
320,536719641,0.6234181,-0.18252848,-0.6990815,-0.29886234,9.155108451843262,1.0574666261672974,1.4663360118865967,3.8563973903656006,-7.165592670440674, 10.579632759094238
321,536736308,0.6234459,-0.18134333,-0.70019335,-0.29691598,10.6202392578125,5.4188618659973145,-2.615347385406494,17.237398147583008,-4.115965843200684, 2.6693778038024902
322,536752975,0.6212448,-0.18181463,-0.7017771,-0.297502,12.371696472167969,3.118928909301758,-1.9651360511779785,-3.8775367736816406,-17.029098510742188, -5.251492977142334
323,536769642,0.6195648,-0.18116048,-0.7039286,-0.29631913,11.035185813903809,-0.08163614571094513,0.9488142728805542,11.272529602050781,-16.810495376586914, -2.752101182937622
324,536786309,0.61835927,-0.18039173,-0.70571685,-0.2950498,10.465303421020508,0.04418511688709259,0.48172271251678467,12.037271499633789,-12.890028953552246, -1.5887703895568848
325,536802976,0.6170656,-0.18010885,-0.7071781,-0.29443187,9.879776954650879,0.7604125142097473,-0.00842187087982893,6.042544841766357,-12.141592025756836, -1.835970401763916
326,536819643,0.6154495,-0.17957793,-0.7089629,-0.29384586,9.490996360778809,1.7544926404953003,-0.27584564685821533,7.197477340698242,-14.561001777648926, -4.267720699310303
327,536836310,0.6128207,-0.17993243,-0.71080065,-0.29468238,10.13857650756836,2.8691534996032715,-0.036092303693294525,-4.6245341300964355,-19.766658782958984, -8.087325096130371
328,536852977,0.6092123,-0.18185155,-0.71232694,-0.2972893,10.99902629852295,2.4901199340820312,0.9889954924583435,-21.707029342651367,-24.24354362487793, -9.475839614868164
329,536869644,0.6047905,-0.18433069,-0.71396744,-0.3008343,9.146964073181152,2.9855337142944336,1.0765329599380493,-29.42112922668457,-28.732973098754883, -12.461464881896973
330,536886311,0.60028905,-0.18635607,-0.71545845,-0.3050309,7.381654739379883,3.5454862117767334,-0.41518691182136536,-31.132518768310547,-26.792390823364258, -17.344236373901367
331,536902978,0.5962819,-0.18688054,-0.7172587,-0.3083238,8.884510040283203,3.10382342338562,-1.7767653465270996,-19.205745697021484,-23.655832290649414, -20.303485870361328
332,536919645,0.5926241,-0.18720977,-0.7192875,-0.31044275,10.935892105102539,0.9693251252174377,-1.6446998119354248,-11.684167861938477,-23.937454223632812, -15.976653099060059
333,536936312,0.5889187,-0.18746309,-0.7220367,-0.31095868,12.077254295349121,0.18995819985866547,-1.4841028451919556,-1.975616693496704,-28.99665641784668, -10.895435333251953
334,536952979,0.58466697,-0.18809603,-0.7253393,-0.31091356,11.356776237487793,0.7385476231575012,-1.591408610343933,-0.2534772753715515,-35.48276138305664, -8.69618034362793
335,536969646,0.5797821,-0.18916526,-0.728742,-0.31145522,9.830205917358398,2.0808403491973877,-1.0307037830352783,-5.543376922607422,-39.21165084838867, -10.417438507080078
336,536986313,0.5748045,-0.19023621,-0.7319145,-0.31258827,9.875618934631348,2.603731870651245,-0.8963573575019836,-9.126280784606934,-38.002140045166016, -12.674198150634766
337,537002980,0.57014966,-0.19102183,-0.7348377,-0.3137734,10.577268600463867,2.8787624835968018,-0.8288223147392273,-8.370553970336914,-34.7254524230957, -13.291316986083984
338,537019647,0.5664621,-0.19234063,-0.73640156,-0.31597283,10.924230575561523,2.473320960998535,-1.5839002132415771,-17.24262046813965,-24.349910736083984, -10.696145057678223
339,537036314,0.5635668,-0.19428778,-0.7369136,-0.31875247,10.441628456115723,1.597917914390564,-2.1210434436798096,-23.86431121826172,-16.84490966796875, -6.671604156494141
340,537052981,0.5605621,-0.1954987,-0.73832667,-0.32003838,8.759347915649414,1.8795284032821655,-3.004927396774292,-11.621325492858887,-21.262813568115234, -6.08817720413208
341,537069648,0.55756134,-0.19604371,-0.74043286,-0.32008055,7.900278091430664,2.339508295059204,-3.215360641479492,-1.2199352979660034,-24.0805721282959, -5.609679222106934
342,537086315,0.5548702,-0.19627789,-0.74226683,-0.32036552,8.520193099975586,3.7214839458465576,-2.183680772781372,-1.4547398090362549,-20.402511596679688, -7.068412780761719
343,537102982,0.5527604,-0.19627556,-0.74370736,-0.32067293,9.898070335388184,3.1319923400878906,-1.957152247428894,-0.7468158602714539,-15.367379188537598, -6.512201309204102
344,537119649,0.551365,-0.19528596,-0.74557805,-0.31933287,10.266227722167969,2.7460668087005615,-2.01749849319458,13.342869758605957,-13.39525318145752, -4.294332981109619
345,537136316,0.5504973,-0.19413872,-0.74748445,-0.31706476,9.89220142364502,2.398343324661255,-2.3300349712371826,19.48465919494629,-11.726038932800293, -0.4761025011539459
346,537152983,0.5500642,-0.19334847,-0.7489929,-0.31473094,8.684581756591797,2.636627197265625,-2.753246307373047,18.18084716796875,-8.844654083251953, 3.076083183288574
347,537169650,0.5499669,-0.19297689,-0.7500917,-0.31250396,8.432674407958984,2.717764377593994,-2.6939444541931152,15.603523254394531,-6.305443286895752, 6.105068683624268
348,537186317,0.550349,-0.19267108,-0.7508828,-0.31011102,9.15878963470459,2.966578960418701,-2.4721579551696777,16.183740615844727,-3.008688449859619, 8.519670486450195
349,537202984,0.55132246,-0.19208407,-0.75150454,-0.30722678,9.919395446777344,2.6391706466674805,-2.141300916671753,20.20663070678711,0.6456268429756165, 10.422959327697754
350,537219651,0.5526359,-0.1913011,-0.7519279,-0.30430573,10.228946685791016,2.578413963317871,-1.9138264656066895,21.170135498046875,3.51939058303833, 10.528883934020996
351,537236318,0.5539601,-0.19035886,-0.7523985,-0.30131117,10.227302551269531,2.6032094955444336,-1.7102020978927612,22.270051956176758,3.6228535175323486, 9.941020011901855
352,537252985,0.5553645,-0.18943146,-0.75261754,-0.29875264,9.976282119750977,2.7322840690612793,-1.6962674856185913,19.54448699951172,5.522818088531494, 8.850912094116211
353,537269652,0.557225,-0.1882101,-0.7525988,-0.29609504,9.756135940551758,2.392920732498169,-2.0599052906036377,21.288623809814453,9.252218246459961, 8.958028793334961
354,537286319,0.5593992,-0.18662922,-0.75255823,-0.29308417,9.366613388061523,2.368457317352295,-2.2678110599517822,24.855703353881836,11.232525825500488, 9.11579704284668
355,537302986,0.5619149,-0.1851629,-0.75216675,-0.29019216,9.170622825622559,2.4183201789855957,-2.4493649005889893,23.53108024597168,14.276619911193848, 10.390137672424316
356,537319653,0.56471443,-0.18378225,-0.75144607,-0.28749028,8.956162452697754,2.4709980487823486,-2.4247875213623047,21.919538497924805,17.09963607788086, 11.087637901306152
357,537336320,0.5677651,-0.18229903,-0.7505671,-0.28470895,9.095681190490723,2.300528049468994,-2.3112475872039795,22.732545852661133,19.125703811645508, 11.568765640258789
358,537352987,0.57095325,-0.18091796,-0.7495477,-0.2818853,9.218421936035156,2.2973530292510986,-2.2032883167266846,22.44911003112793,20.14101219177246, 12.709114074707031
359,537369654,0.5741751,-0.17996204,-0.74828607,-0.2792929,9.579852104187012,2.2260653972625732,-1.9502220153808594,19.160280227661133,20.737272262573242, 14.361815452575684
360,537386321,0.57744974,-0.17968896,-0.7465449,-0.27737084,9.823984146118164,2.516183614730835,-1.532286524772644,12.160879135131836,22.420001983642578, 15.923921585083008
361,537402988,0.5807684,-0.17971173,-0.7445107,-0.27589053,9.921502113342285,2.4449124336242676,-1.3086894750595093,8.217686653137207,23.782827377319336, 16.14299774169922
362,537419655,0.5841793,-0.17973235,-0.7424556,-0.2742094,9.849055290222168,1.9795584678649902,-1.5800206661224365,9.331025123596191,24.0802001953125, 17.14124870300293
363,537436322,0.5875324,-0.17967437,-0.7405777,-0.27215326,9.542224884033203,1.7505370378494263,-1.717516541481018,11.82459831237793,22.753524780273438, 17.915971755981445
364,537452989,0.59045905,-0.17983931,-0.7389238,-0.27019924,9.106228828430176,1.796781301498413,-1.5401256084442139,10.295981407165527,19.386384963989258, 17.558391571044922
365,537469656,0.5929053,-0.18031313,-0.73736745,-0.2687749,8.993720054626465,2.063755512237549,-1.4698315858840942,5.938360691070557,16.631723403930664, 15.96354866027832
366,537486323,0.5948713,-0.18101205,-0.736021,-0.26764914,9.17648696899414,1.9366518259048462,-1.0580681562423706,3.3005149364471436,13.295296669006348, 14.7475004196167
367,537502990,0.59620047,-0.1818314,-0.7350134,-0.26690418,8.743158340454102,2.0923964977264404,-1.1613348722457886,0.7138841152191162,8.928945541381836, 12.210550308227539
368,537519657,0.5970493,-0.18237399,-0.7343499,-0.26646265,8.737974166870117,2.173426628112793,-1.3230096101760864,0.3479037880897522,5.973708629608154, 8.267505645751953
369,537536324,0.59750026,-0.18249555,-0.73406005,-0.2661668,8.734066009521484,2.3219664096832275,-1.226790428161621,1.5279192924499512,3.384596824645996, 4.359826564788818
370,537552991,0.59740365,-0.18251161,-0.73410165,-0.26625812,8.85938835144043,2.119659662246704,-1.0295908451080322,-0.07186923921108246,-0.06350669264793396, 0.8358384370803833
371,537569658,0.59668016,-0.18240573,-0.73459387,-0.2665954,9.420099258422852,1.9092509746551514,-0.7653144001960754,-0.7718003988265991,-4.554425239562988, -2.4914371967315674
372,537586325,0.59521335,-0.18227069,-0.73563254,-0.26710206,9.705349922180176,1.548906683921814,-0.6814674735069275,-1.4360535144805908,-10.300613403320312, -5.37732458114624
373,537602992,0.5930228,-0.18191127,-0.7374044,-0.2673335,10.047551155090332,1.439954161643982,-0.6675374507904053,1.3155145645141602,-16.91318702697754, -7.639816761016846
374,537619659,0.5899102,-0.18144593,-0.74001235,-0.26732975,9.554976463317871,1.4722692966461182,-0.5986325740814209,3.3259902000427246,-25.118602752685547, -9.969013214111328
375,537636326,0.5859899,-0.18150167,-0.7429107,-0.2678745,7.965212821960449,2.288987636566162,-1.5010915994644165,-2.0493438243865967,-30.702007293701172, -11.397257804870605
376,537652993,0.58188754,-0.1822283,-0.7454176,-0.26935583,7.824528217315674,2.206455707550049,-1.636913776397705,-10.481950759887695,-30.11760711669922, -11.574502944946289
377,537669660,0.5779778,-0.18378186,-0.747215,-0.27172762,8.828607559204102,2.10648775100708,-2.045748233795166,-19.424943923950195,-26.703231811523438, -9.639019966125488
378,537686327,0.57466274,-0.18548219,-0.74857646,-0.27384767,10.700211524963379,1.877021312713623,-2.573464870452881,-18.77675437927246,-22.499853134155273, -6.216297626495361
379,537702994,0.57237923,-0.18678252,-0.7494944,-0.27523193,11.849967956542969,1.7353795766830444,-2.335014581680298,-12.931421279907227,-15.61354923248291, -2.868177890777588
380,537719661,0.57123023,-0.1878739,-0.7498628,-0.27587208,13.154603958129883,1.133072018623352,-2.2796566486358643,-7.85975980758667,-8.167754173278809, 1.8189060688018799
381,537736328,0.57119924,-0.18859126,-0.7498502,-0.27548072,13.030776023864746,0.9112566113471985,-2.395998001098633,-0.3548511564731598,-1.5405912399291992, 6.518054962158203
382,537752995,0.5720483,-0.18927895,-0.74932194,-0.27468374,12.782638549804688,0.6428900361061096,-2.4071638584136963,2.0114238262176514,4.545135498046875, 10.253656387329102
383,537769662,0.5739177,-0.18983209,-0.74833876,-0.27307782,13.990192413330078,0.07804863154888153,-2.0269978046417236,7.170842170715332,10.785951614379883, 15.217697143554688
384,537786329,0.5769237,-0.19009645,-0.7466698,-0.271121,15.732878684997559,-0.16768071055412292,-1.0585061311721802,10.305419921875,19.404190063476562, 18.08574676513672
385,537802996,0.58145124,-0.18997999,-0.743951,-0.2689964,17.070161819458008,-0.07947425544261932,0.16757725179195404,12.705629348754883,31.822120666503906, 20.935073852539062
386,537819663,0.5883008,-0.1932306,-0.7380003,-0.26817855,17.905431747436523,0.11759522557258606,0.2956811487674713,-10.382286071777344,52.02342987060547, 41.37972640991211
387,537836330,0.59722334,-0.2001845,-0.72785103,-0.27107853,13.545547485351562,1.6279163360595703,1.550947904586792,-49.21150588989258,77.56298065185547, 54.46718978881836
388,537852997,0.6050499,-0.20442161,-0.7188926,-0.2744451,5.786153316497803,5.439370632171631,-3.1873655319213867,-39.66903305053711,72.8191146850586, 35.2595100402832
389,537869664,0.61192375,-0.20829445,-0.7110272,-0.2767728,6.909485340118408,7.619968414306641,-5.717533588409424,-32.28932189941406,62.85123825073242, 34.546077728271484
390,537886331,0.6195538,-0.21344967,-0.70217365,-0.2784682,8.016480445861816,0.48904091119766235,-0.6950235962867737,-35.39196014404297,67.47762298583984, 46.47536849975586
391,537902998,0.6291148,-0.21438918,-0.69502634,-0.27420843,5.256415843963623,-0.37995800375938416,-1.0056923627853394,17.416738510131836,68.86275482177734, 52.6704216003418
392,537919665,0.6374652,-0.213923,-0.68940216,-0.26944414,6.009704113006592,2.0951645374298096,-1.3772530555725098,26.992708206176758,58.409122467041016, 43.586875915527344
393,537936332,0.6434457,-0.21254444,-0.68598324,-0.26500958,2.852557897567749,1.834220290184021,-1.8560675382614136,30.026947021484375,39.7103157043457, 30.21565055847168
394,537952999,0.6464214,-0.2128477,-0.6837725,-0.26323086,2.0355067253112793,2.7941842079162598,-2.5471584796905518,7.869418144226074,21.049537658691406, 19.19218635559082
395,537969666,0.6462928,-0.21478845,-0.6827786,-0.26454702,1.3944132328033447,2.072012424468994,-1.1978733539581299,-16.300901412963867,2.669787645339966, 5.793118953704834
396,537986333,0.6436029,-0.21556495,-0.68395203,-0.26742637,1.4849083423614502,3.632697105407715,-0.703240692615509,-18.30710792541504,-14.533541679382324, -14.436417579650879
397,538003000,0.6385178,-0.21819492,-0.6861533,-0.27180824,3.9392035007476807,1.0428634881973267,-0.0030998364090919495,-35.23370361328125,-31.509937286376953, -18.221948623657227
398,538019667,0.63346004,-0.21615237,-0.69170886,-0.27119252,4.392673492431641,3.392888307571411,-2.2661545276641846,15.167635917663574,-44.8768310546875, -23.293745040893555
399,538036334,0.6237904,-0.2124218,-0.7016838,-0.27092895,8.0225191116333,5.815675258636475,-4.965365409851074,22.23302459716797,-82.34101867675781, -47.96346664428711
400,538053001,0.61255264,-0.2059081,-0.71452063,-0.2680327,9.364155769348145,-1.2307075262069702,3.1578171253204346,49.916648864746094,-100.74354553222656, -57.10283660888672
401,538069668,0.5985906,-0.1965785,-0.73049974,-0.2634702,9.10690689086914,-0.26083117723464966,1.1500604152679443,71.91000366210938,-124.6191635131836, -73.44758605957031
402,538086335,0.5811983,-0.19227256,-0.74447244,-0.26645914,12.536907196044922,0.5508480072021484,2.152693510055542,5.040276527404785,-132.5321044921875, -82.83441925048828
403,538103002,0.56365246,-0.1916285,-0.75468886,-0.2757161,16.118009567260742,1.339336633682251,-1.7822264432907104,-48.75003433227539,-116.81793212890625, -84.48815155029297
404,538119669,0.54781497,-0.19224831,-0.76297116,-0.28427878,17.268829345703125,-0.419172465801239,-0.5641128420829773,-51.455745697021484,-103.79910278320312, -69.48978424072266
405,538136336,0.53451896,-0.19162427,-0.7704031,-0.28991187,16.555362701416016,1.9717034101486206,-2.6818089485168457,-29.70540428161621,-88.77609252929688, -58.9754524230957
406,538153003,0.525268,-0.18895818,-0.7771822,-0.29047585,11.70584774017334,2.978267192840576,-5.776283264160156,8.678605079650879,-67.5904541015625, -42.28132629394531
407,538169670,0.5207135,-0.18734878,-0.7806457,-0.29043108,10.571953773498535,5.2105712890625,-7.000402927398682,7.58390474319458,-33.374149322509766, -20.752256393432617
408,538186337,0.5210876,-0.18813324,-0.7798646,-0.29135004,13.570060729980469,2.5329699516296387,-6.265136241912842,-8.291589736938477,4.81031608581543, 3.997483968734741
409,538203004,0.5260399,-0.18954067,-0.77596015,-0.29196277,14.601036071777344,1.4181405305862427,-6.529995918273926,-9.2341890335083,38.94083786010742, 21.62117576599121
410,538219671,0.53457916,-0.19185694,-0.7695957,-0.29178536,14.18858528137207,0.24883069097995758,-6.535274505615234,-8.594233512878418,64.15898895263672, 39.684627532958984
411,538236338,0.5463647,-0.19483975,-0.7603269,-0.29227734,12.988258361816406,1.6712137460708618,-4.390221118927002,-16.157360076904297,91.60166931152344, 51.02860641479492
412,538253005,0.5611821,-0.1974136,-0.74832857,-0.2934399,11.141168594360352,2.2682571411132812,-3.0988447666168213,-19.558425903320312,119.44603729248047, 56.0914421081543
413,538269672,0.5769698,-0.19735919,-0.73753595,-0.29016522,8.488962173461914,2.2314605712890625,-2.4641683101654053,17.166027069091797,119.07660675048828, 60.00297164916992
414,538286339,0.59245735,-0.19595347,-0.72784984,-0.28430834,7.156778812408447,2.9880011081695557,-2.2546942234039307,37.425655364990234,112.37187194824219, 61.29918670654297
415,538303006,0.60666424,-0.19431655,-0.7191121,-0.2776285,6.365723133087158,2.6801464557647705,-1.5102105140686035,42.62001037597656,101.46338653564453, 59.74095916748047
416,538319673,0.6193552,-0.19385335,-0.710661,-0.2716266,6.541578769683838,2.0105764865875244,-1.3046454191207886,32.89962387084961,91.4505844116211, 59.467220306396484
417,538336340,0.63042647,-0.19332655,-0.70361006,-0.26480222,6.906594753265381,1.3657056093215942,-0.9568976163864136,37.64934539794922,76.6072998046875, 57.783538818359375
418,538353007,0.63944286,-0.192667,-0.69820195,-0.25788823,7.217499732971191,0.918382465839386,-0.6532777547836304,38.920475006103516,59.6746940612793, 51.609710693359375
419,538369674,0.64644945,-0.19111867,-0.6948142,-0.2506196,7.114869594573975,0.33184754848480225,-0.7903857231140137,45.452274322509766,42.252464294433594, 42.659908294677734
420,538386341,0.6510939,-0.18929055,-0.6931004,-0.2446587,6.366383075714111,1.0339456796646118,-0.8519290089607239,40.22915267944336,25.7346248626709, 29.22955322265625
421,538403008,0.6532838,-0.18831784,-0.69266915,-0.24076198,6.170768737792969,1.29241943359375,-1.151929497718811,25.527755737304688,9.554155349731445, 18.273405075073242
422,538419675,0.6533256,-0.18865803,-0.6928728,-0.23979424,5.92539119720459,2.466049909591675,-0.6421210169792175,3.950561285018921,-1.8916904926300049, 7.0056962966918945
423,538436342,0.6517959,-0.18814746,-0.69483876,-0.23866688,6.8494086265563965,2.4863791465759277,0.6285132765769958,9.401005744934082,-16.090238571166992, -1.1697717905044556
424,538453009,0.64924157,-0.18582927,-0.69868076,-0.23621617,8.285195350646973,3.157123565673828,1.6291662454605103,25.581008911132812,-28.155630111694336, -7.948304176330566
425,538469676,0.64601254,-0.18207738,-0.70397705,-0.23223254,9.541585922241211,1.7650864124298096,1.6593705415725708,40.85210037231445,-37.555240631103516, -10.902477264404297
426,538486343,0.6427496,-0.17634729,-0.710435,-0.22595766,10.959859848022461,0.34965845942497253,1.179351568222046,62.54774475097656,-42.630653381347656, -11.7952880859375
427,538503010,0.6385614,-0.17120977,-0.716683,-0.22201851,11.583174705505371,1.7265673875808716,1.8882311582565308,47.07538604736328,-44.34624481201172, -20.420875549316406
428,538519677,0.632838,-0.17233682,-0.7204515,-0.22531298,11.377469062805176,0.49330052733421326,-1.1141862869262695,-21.656652450561523,-42.12541580200195, -20.725276947021484
429,538536344,0.627706,-0.17618439,-0.7223561,-0.2305345,12.07828140258789,0.37690624594688416,-2.716651201248169,-45.226165771484375,-33.01842498779297, -12.522857666015625
430,538553011,0.62386686,-0.17986083,-0.7235114,-0.23446022,10.72041130065918,0.6976146697998047,-3.2649526596069336,-37.679420471191406,-24.636930465698242, -4.841206073760986
431,538569678,0.6221652,-0.1814354,-0.7244089,-0.2349971,11.188697814941406,0.8222346305847168,-1.2840917110443115,-9.585140228271484,-13.663543701171875, 2.993736982345581
432,538586345,0.6226108,-0.18082576,-0.7247929,-0.23309499,12.367752075195312,1.3310998678207397,-0.1541062593460083,13.753332138061523,-0.28714418411254883, 6.64823579788208
433,538603012,0.6242857,-0.17935808,-0.7245091,-0.23061813,12.437457084655762,0.3624097406864166,0.3144260048866272,20.751508712768555,9.332908630371094, 7.630556583404541
434,538619679,0.6257572,-0.17759302,-0.72407037,-0.229371,11.4317045211792,-0.0006105937063694,0.9934930801391602,15.40661334991455,10.939562797546387, 0.720133900642395
435,538636346,0.62516993,-0.17740798,-0.72382724,-0.2318686,11.268174171447754,1.3246221542358398,2.4497780799865723,-12.236530303955078,1.8857431411743164, -11.034165382385254
436,538653013,0.6217649,-0.17962272,-0.7240261,-0.23860091,11.35351276397705,1.9629637002944946,2.997685432434082,-46.348907470703125,-12.764663696289062, -22.32394027709961
437,538669680,0.6156025,-0.18327115,-0.725264,-0.24786597,10.47415542602539,3.009005308151245,2.7397408485412598,-66.77265167236328,-30.23320770263672, -31.81252098083496
438,538686347,0.6069202,-0.18834081,-0.7274536,-0.25881848,9.275368690490723,3.8753244876861572,1.3441641330718994,-82.73690795898438,-47.192970275878906, -37.337379455566406
439,538703014,0.5972078,-0.19289353,-0.7305051,-0.26925352,8.11660385131836,3.637652635574341,0.5385705232620239,-77.76954650878906,-55.73540115356445, -40.674964904785156
440,538719681,0.5870065,-0.19647105,-0.7346859,-0.27759546,6.673827171325684,3.594306230545044,-1.2065997123718262,-61.79020690917969,-63.8244514465332, -39.34648895263672
441,538736348,0.57740307,-0.19948691,-0.738677,-0.2848988,5.8276872634887695,4.426520824432373,-3.3155226707458496,-53.8162727355957,-60.36435317993164, -36.55951690673828
442,538753015,0.5694322,-0.2014946,-0.74193656,-0.2909934,6.085371494293213,3.6622893810272217,-4.715483665466309,-42.858253479003906,-48.808128356933594, -32.628448486328125
443,538769682,0.56332,-0.20124799,-0.7451113,-0.29492193,6.362664222717285,2.3226664066314697,-4.2923784255981445,-20.578330993652344,-37.420284271240234, -31.774290084838867
444,538786349,0.5584971,-0.20050034,-0.74772835,-0.29796442,7.904165267944336,2.091606616973877,-4.760290145874023,-13.452361106872559,-28.812227249145508, -27.511220932006836
445,538803016,0.55383974,-0.20076083,-0.7500326,-0.30067894,9.217994689941406,0.4695985019207001,-4.289783000946045,-16.061872482299805,-29.224231719970703, -20.297468185424805
446,538819683,0.548929,-0.20235726,-0.7523672,-0.3027744,9.274018287658691,0.3129352331161499,-4.557680606842041,-18.26235580444336,-34.22499465942383, -11.648222923278809
447,538836350,0.5451419,-0.20421943,-0.753976,-0.30436006,8.40975284576416,1.9266071319580078,-5.236838340759277,-16.59779167175293,-26.89633560180664, -5.035141468048096
448,538853017,0.5445521,-0.20539966,-0.75333035,-0.30621505,9.276124954223633,3.077216148376465,-4.9133219718933105,-15.683732032775879,-0.013625966385006905, 0.2723592519760132
449,538869684,0.54739153,-0.20622088,-0.7500222,-0.308711,12.440256118774414,2.169142007827759,-3.557997465133667,-18.434022903442383,29.420839309692383, 7.003944396972656
450,538886351,0.55363905,-0.20542744,-0.7457038,-0.30856004,15.538357734680176,1.5259579420089722,-2.8896119594573975,3.969188690185547,50.48141860961914, 17.288145065307617
451,538903018,0.5624538,-0.20332164,-0.7412358,-0.30475518,17.56044578552246,0.7929666638374329,-2.2546823024749756,30.996347427368164,61.82782745361328, 30.086286544799805
452,538919685,0.573328,-0.19957681,-0.73743916,-0.29605356,20.24894905090332,-0.6750999093055725,-1.8100316524505615,66.5663833618164,66.29591369628906, 43.988956451416016
453,538936352,0.58608097,-0.1947446,-0.733415,-0.28405353,21.039644241333008,-1.9205858707427979,-0.9211493730545044,89.67952728271484,74.371826171875, 55.52684020996094
454,538953019,0.5993664,-0.19082622,-0.7291689,-0.26955208,18.883220672607422,-3.132982015609741,0.20886752009391785,98.87772369384766,72.76992797851562, 71.44962310791016
455,538969686,0.6143566,-0.18997061,-0.720611,-0.25922427,14.759532928466797,0.1913420706987381,3.2689707279205322,59.56505584716797,98.82805633544922, 78.31463623046875
456,538986353,0.62820834,-0.1928019,-0.70850646,-0.25729433,9.437182426452637,3.216308116912842,0.4074305295944214,-5.410552978515625,112.47927856445312, 63.67885208129883
457,539003020,0.6405881,-0.19132683,-0.69994295,-0.2512389,8.936077117919922,6.89621114730835,-4.681060314178467,37.61570358276367,92.14177703857422, 53.25758361816406
458,539019687,0.6500362,-0.19037905,-0.69338244,-0.24582486,7.086476802825928,5.987819671630859,-4.400755882263184,31.817583084106445,69.2135238647461, 45.3702507019043
459,539036354,0.65685064,-0.18576595,-0.6914934,-0.23637973,3.082765579223633,2.112257957458496,-5.238815784454346,71.8682861328125,36.768455505371094, 35.43545913696289
460,539053021,0.66081864,-0.17597449,-0.69475746,-0.222854,1.4105408191680908,2.5490572452545166,-5.085109233856201,119.38920593261719,3.2540111541748047, 18.06363868713379
461,539069688,0.66131294,-0.1679886,-0.6990362,-0.21399443,0.6952875256538391,4.419906139373779,-2.2975828647613525,86.23860168457031,-14.985047340393066, -1.0279548168182373
462,539086355,0.6585046,-0.16720597,-0.7012161,-0.2161251,0.48466581106185913,4.96956729888916,-0.32869526743888855,-6.230472087860107,-19.180978775024414, -18.743165969848633
463,539103022,0.65296936,-0.17322451,-0.7010405,-0.22840028,0.5373356938362122,5.2539262771606445,0.07828707993030548,-92.55418395996094,-20.106348037719727, -33.14360809326172
464,539119689,0.6460479,-0.18264362,-0.7002095,-0.24283856,3.601101875305176,1.3052051067352295,-1.4658186435699463,-120.91287231445312,-26.62064552307129, -27.769224166870117
465,539136356,0.64201444,-0.1861141,-0.7011889,-0.24801856,0.9435228705406189,-4.896363735198975,1.9829660654067993,-43.26305389404297,-22.438629150390625, -12.715909004211426
466,539153023,0.6383957,-0.18621399,-0.7037439,-0.25003955,3.8987059593200684,1.6011422872543335,-0.11041485518217087,-9.946728706359863,-25.726654052734375, -16.412935256958008
467,539169690,0.6316946,-0.18297239,-0.7104989,-0.25034824,4.731071472167969,4.632967472076416,-8.661361694335938,16.285192489624023,-55.52732467651367, -35.725223541259766
468,539186357,0.62073153,-0.17780478,-0.72150105,-0.25002834,7.160431861877441,2.9487648010253906,2.7701525688171387,29.657743453979492,-92.1364517211914, -55.02494430541992
469,539203024,0.6060991,-0.17038733,-0.736268,-0.24803527,7.288213729858398,3.2598249912261963,0.8992812037467957,49.57542419433594,-124.64236450195312, -69.93163299560547
470,539219691,0.58793527,-0.16756535,-0.750389,-0.25133717,13.978485107421875,0.8648321032524109,2.1185503005981445,-1.5940985679626465,-141.49029541015625, -73.97189331054688
471,539236358,0.5696417,-0.16383289,-0.76402056,-0.25483257,14.42574691772461,-3.0857644081115723,1.148085117340088,0.11386507004499435,-138.4550018310547, -79.14205169677734
472,539253025,0.55181515,-0.15914014,-0.77666897,-0.25876597,16.081571578979492,2.097778081893921,-0.44311290979385376,0.3674260079860687,-130.0410919189453, -84.0721206665039
473,539269692,0.53665787,-0.16199051,-0.78272194,-0.2703771,12.709222793579102,3.5544724464416504,-5.251705169677734,-78.05363464355469,-95.83556365966797, -60.980037689208984
474,539286359,0.5264962,-0.16438945,-0.7864109,-0.27809307,12.380374908447266,2.4610440731048584,-4.82216739654541,-54.25729751586914,-63.703086853027344, -37.11290740966797
475,539303026,0.5216233,-0.16506737,-0.7885698,-0.2807482,16.028900146484375,4.427189826965332,-3.6141390800476074,-17.621992111206055,-31.983545303344727, -16.27170753479004
476,539319693,0.521932,-0.1657639,-0.788173,-0.28087854,16.797901153564453,3.7745845317840576,-4.257143497467041,-3.044492721557617,2.351073741912842, 5.780704498291016
477,539336360,0.52673596,-0.1668132,-0.7855582,-0.27860594,17.553974151611328,1.2166861295700073,-5.3222975730896,9.548891067504883,31.23183250427246, 27.506200790405273
478,539353027,0.53536576,-0.16897623,-0.7802631,-0.27571762,18.885679244995117,-0.1532934159040451,-5.161142826080322,8.065938949584961,58.754981994628906, 46.099544525146484
479,539369694,0.5477293,-0.17212301,-0.77170223,-0.27357268,18.832380294799805,-0.023310884833335876,-3.544400930404663,-1.4335118532180786,89.79519653320312, 59.43783187866211
480,539386361,0.56339747,-0.174267,-0.7613916,-0.26925334,17.500932693481445,-0.8437058329582214,-2.548280715942383,14.476123809814453,113.20735931396484, 70.52433013916016
481,539403028,0.58203787,-0.17388743,-0.75021833,-0.26108947,15.702911376953125,-0.5040225982666016,-0.3144972324371338,46.323455810546875,132.14889526367188, 78.67227935791016
482,539419695,0.60227406,-0.17467402,-0.7371871,-0.25161552,12.737598419189453,0.7984201312065125,2.386322021484375,46.98396301269531,144.1133270263672, 94.9644546508789
483,539436362,0.6228008,-0.17980167,-0.71852124,-0.25202742,6.972001075744629,4.6844162940979,3.19636869430542,-30.485429763793945,173.22036743164062, 83.28060913085938
484,539453029,0.63540083,-0.18367176,-0.7063295,-0.25224814,3.4515774250030518,6.080539703369141,-4.838375568389893,-22.695348739624023,108.20732116699219, 56.197776794433594
485,539469696,0.6416002,-0.18626702,-0.70048046,-0.25096008,5.283859729766846,7.865924835205078,-6.5554609298706055,-6.873928070068359,49.78852462768555, 37.571346282958984
486,539486363,0.64356846,-0.18936823,-0.6976758,-0.25141197,2.969726324081421,5.415112495422363,-4.588228702545166,-17.646472930908203,17.432716369628906, 21.2427978515625
487,539503030,0.64311624,-0.19002977,-0.6982886,-0.25036678,3.438585042953491,2.2273428440093994,-4.424041748046875,3.090179920196533,-6.9637627601623535, 7.607493877410889
488,539519697,0.6414847,-0.18867365,-0.7005535,-0.2492482,1.4718035459518433,0.8043968677520752,-2.6860156059265137,13.658259391784668,-16.488910675048828, -5.918311595916748
489,539536364,0.63896465,-0.18755823,-0.7028648,-0.25005433,1.3111944198608398,1.597954273223877,-1.364113211631775,2.246513605117798,-18.850255966186523, -14.823406219482422
490,539553031,0.6361482,-0.18602704,-0.70584834,-0.24997555,0.7897829413414001,-0.23662009835243225,-1.3140851259231567,9.124327659606934,-23.643115997314453, -14.301701545715332
491,539569698,0.63293105,-0.18669376,-0.7080515,-0.25140998,0.2349708080291748,-1.5434421300888062,0.7161757349967957,-9.692333221435547,-23.999727249145508, -9.951738357543945
492,539586365,0.62912226,-0.18659306,-0.710797,-0.25329027,2.104172706604004,2.698758363723755,1.3485921621322632,-8.348862648010254,-27.354045867919922, -17.37148094177246
493,539603032,0.6219102,-0.18668085,-0.7152487,-0.25845158,4.909798622131348,5.719330310821533,-6.361968517303467,-26.573503494262695,-47.50898742675781, -38.721500396728516
494,539619699,0.60958046,-0.18294595,-0.72529465,-0.2624695,10.259635925292969,8.668303489685059,-1.8161749839782715,-1.231860876083374,-91.18952178955078, -68.83645629882812
495,539636366,0.5958185,-0.1791863,-0.7366228,-0.26510316,7.560722827911377,0.777248740196228,0.11317557841539383,6.328728199005127,-105.39124298095703, -67.25534057617188
496,539653033,0.58233637,-0.17336115,-0.74803066,-0.26698396,11.230164527893066,1.2146316766738892,1.7824795246124268,19.10346794128418,-101.47901153564453, -74.23402404785156
497,539669700,0.56885475,-0.16840352,-0.7579231,-0.27128834,14.349649429321289,2.0343332290649414,2.2600085735321045,0.40452900528907776,-94.16256713867188, -77.6871566772461
498,539686367,0.5568256,-0.17044693,-0.7630694,-0.28038996,18.547359466552734,-1.4819839000701904,-3.2401700019836426,-59.11941909790039,-75.60630798339844, -51.78050231933594
499,539703034,0.5476239,-0.17257464,-0.7672018,-0.2858805,17.543899536132812,-0.2450960874557495,-4.4261369705200195,-39.17070007324219,-61.30158996582031, -30.958341598510742
500,539719701,0.5418706,-0.17396523,-0.7704121,-0.28736344,17.217493057250977,0.7853868007659912,-2.5947418212890625,-13.011362075805664,-42.94734191894531, -11.951410293579102
501,539736368,0.5406857,-0.17517073,-0.7710095,-0.28726053,18.117000579833984,3.112410545349121,-1.8480052947998047,-3.6356730461120605,-10.572568893432617, 5.075369834899902
502,539753035,0.5439341,-0.1770343,-0.76825756,-0.28735843,17.13970375061035,3.20871639251709,-3.422801971435547,-8.416109085083008,24.281139373779297, 20.582910537719727
503,539769702,0.5515361,-0.17808786,-0.76331335,-0.2853864,17.000329971313477,1.0216612815856934,-3.9323811531066895,6.509853363037109,54.54161071777344, 35.29676818847656
504,539786369,0.5632685,-0.17785472,-0.7566426,-0.28033593,17.55685806274414,-0.2867983281612396,-3.2298033237457275,29.190948486328125,81.51631164550781, 50.39284133911133
505,539803036,0.5781251,-0.1774054,-0.74826354,-0.2727643,17.191547393798828,-0.8299387097358704,-1.1470308303833008,43.64457321166992,101.70840454101562, 67.0843734741211
506,539819703,0.5948805,-0.1778311,-0.73851186,-0.2628568,15.647902488708496,-0.16885672509670258,1.854153037071228,51.91062927246094,112.41238403320312, 86.04715728759766
507,539836370,0.61385167,-0.18319343,-0.7231856,-0.25812593,12.297368049621582,3.038618326187134,6.278738498687744,-1.9281538724899292,143.81382751464844, 100.72310638427734
508,539853037,0.6284555,-0.1903985,-0.70764995,-0.26081383,2.9321532249450684,3.5879476070404053,-1.6712247133255005,-52.419464111328125,128.9456024169922, 71.10176086425781
509,539869704,0.6366348,-0.19086014,-0.7017071,-0.256663,4.445586204528809,7.646472930908203,-5.074341297149658,18.797279357910156,59.39051055908203, 43.804439544677734
510,539886371,0.64060456,-0.19243829,-0.6986801,-0.25384977,3.5521557331085205,3.782144784927368,-5.623061180114746,7.091335773468018,26.170392990112305, 32.18235778808594
511,539903038,0.64107454,-0.19225708,-0.6991052,-0.2516204,4.355339050292969,5.376636505126953,-6.338082790374756,13.421369552612305,-1.9262820482254028, 10.529205322265625
512,539919705,0.6389949,-0.18941113,-0.7033127,-0.247306,3.8615834712982178,0.6229972243309021,-6.396341800689697,38.35993957519531,-28.912817001342773, -2.4337899684906006
513,539936372,0.63522595,-0.18196335,-0.71165293,-0.23859482,2.355808973312378,0.6365008354187012,-2.7634494304656982,84.64054107666016,-53.05398178100586, -13.628595352172852
514,539953039,0.62748694,-0.17906332,-0.719374,-0.2381129,1.2049535512924194,5.844468116760254,0.28823143243789673,18.520078659057617,-66.90167236328125, -33.05477523803711
515,539969706,0.61582285,-0.18525636,-0.7245682,-0.24787816,0.09650586545467377,2.1206722259521484,0.09997726231813431,-80.32377624511719,-77.69544219970703, -35.525306701660156
516,539986373,0.6035087,-0.19661705,-0.72684336,-0.26233143,-0.2555493414402008,-2.0537478923797607,3.52119517326355,-131.34820556640625,-71.42159271240234, -26.99156379699707
517,540003040,0.5952009,-0.20427513,-0.7281388,-0.27170193,0.33940333127975464,-2.158930778503418,1.3565027713775635,-86.9206771850586,-47.577430725097656, -15.879950523376465
518,540019707,0.58638865,-0.1999499,-0.7359226,-0.27310494,8.339435577392578,14.510196685791016,-14.601725578308105,13.416757583618164,-65.48029327392578, -53.35401916503906
519,540036374,0.5735714,-0.19908568,-0.74317116,-0.2812073,12.419437408447266,4.215553283691406,2.6796975135803223,-40.93241500854492,-80.70081329345703, -69.46961212158203
520,540053041,0.56244427,-0.18657172,-0.7576838,-0.27342802,7.110721111297607,0.8055527210235596,1.441890001296997,102.57809448242188,-99.99059295654297, -73.02486419677734
521,540069708,0.5496161,-0.17868571,-0.76934284,-0.2722229,18.100261688232422,1.874556541442871,3.31652569770813,42.902427673339844,-98.10900115966797, -73.89132690429688
522,540086375,0.5378371,-0.17705552,-0.7760532,-0.27771243,17.64188003540039,-2.189976692199707,-7.280562400817871,-24.084054946899414,-77.43490600585938, -58.08808898925781
523,540103042,0.5279878,-0.1792965,-0.7801993,-0.28349808,17.25574493408203,-3.5877175331115723,-6.663177490234375,-42.59724807739258,-64.65975189208984, -31.80486488342285
524,540119709,0.52188134,-0.18302402,-0.7819199,-0.28765166,15.378294944763184,0.512816309928894,-5.461054801940918,-39.43445587158203,-40.672969818115234, -7.719334125518799
525,540136376,0.521434,-0.18531542,-0.78114295,-0.28910342,12.24014949798584,4.891528606414795,-5.009899616241455,-17.61341667175293,-1.8427724838256836, 8.54450511932373
526,540153043,0.5277218,-0.18528835,-0.7772979,-0.28807294,13.88003158569336,6.3052978515625,-2.4237098693847656,6.516477584838867,46.78836441040039, 22.305667877197266
527,540169710,0.5395297,-0.18399402,-0.7705043,-0.2852673,17.15211296081543,3.5462799072265625,-1.4544346332550049,21.828563690185547,87.2169189453125, 36.692604064941406
528,540186377,0.5542238,-0.18228528,-0.76217,-0.28054446,19.722614288330078,0.3227286636829376,-1.3237992525100708,34.16677474975586,106.57054901123047, 49.20915985107422
529,540203044,0.5703731,-0.1815584,-0.753216,-0.27272114,20.81258201599121,-1.9535681009292603,-0.39650076627731323,47.28900146484375,110.73303985595703, 69.70072174072266
530,540219711,0.5879584,-0.18192384,-0.74312,-0.26264325,16.475971221923828,-1.373544454574585,1.7099422216415405,54.30763244628906,117.73261260986328, 88.24047088623047
531,540236378,0.6060147,-0.18582338,-0.72929084,-0.25758672,11.331286430358887,2.223634719848633,5.418086051940918,8.204715728759766,135.06971740722656, 91.46488189697266
532,540253045,0.6203013,-0.19365998,-0.71372414,-0.26138136,5.240513324737549,3.8761913776397705,0.838532567024231,-60.43480682373047,127.65142822265625, 69.87734985351562
533,540269712,0.62824243,-0.19518995,-0.7073528,-0.25858152,4.0751633644104,6.865610122680664,-4.16931676864624,6.930925369262695,59.82381057739258, 43.4461669921875
534,540286379,0.63146526,-0.19703063,-0.7042621,-0.25777048,3.567539691925049,6.428394317626953,-4.55922794342041,-4.56475305557251,24.87102508544922, 23.658708572387695
535,540303046,0.63248056,-0.19792792,-0.70327604,-0.2572853,2.9730465412139893,2.209937572479248,-3.4142186641693115,-1.2931475639343262,7.212674617767334, 10.99026870727539
536,540319713,0.63247275,-0.19785154,-0.7033913,-0.25704837,3.058424949645996,0.7342146039009094,-4.367649078369141,2.2906270027160645,-0.4221740961074829, 1.915439248085022
537,540336380,0.6330929,-0.19635998,-0.7036593,-0.25592956,1.127409815788269,-0.502748429775238,0.08269446343183517,13.811793327331543,3.3068900108337402, -0.1906995177268982
538,540353047,0.63374346,-0.19563109,-0.7032022,-0.25613344,0.3869292140007019,0.09641751646995544,-1.733555555343628,2.8547215461730957,7.0525031089782715, -1.235134243965149
539,540369714,0.63400465,-0.19355552,-0.70416635,-0.25440955,0.6158646941184998,0.11849526315927505,-3.0899457931518555,20.01259422302246,-1.221701741218567, -1.945338487625122
540,540386381,0.63192797,-0.19241214,-0.7064366,-0.25415012,1.6866861581802368,4.467365264892578,-3.6101160049438477,8.015155792236328,-17.87578582763672, -9.646860122680664
541,540403048,0.6250949,-0.19079782,-0.7117891,-0.25731117,4.834364891052246,7.285794258117676,-6.509968280792236,-7.448034286499023,-48.97868728637695, -39.132286071777344
542,540419715,0.6141528,-0.18482961,-0.72281003,-0.25729388,8.347206115722656,3.825144052505493,0.9395855665206909,31.47210121154785,-89.84319305419922, -61.40838623046875
543,540436382,0.5996404,-0.17965159,-0.73689437,-0.25523216,9.833991050720215,0.5044581890106201,0.8850176930427551,39.21701431274414,-124.53914642333984, -59.02922058105469
544,540453049,0.5849663,-0.17162746,-0.75168484,-0.2516513,12.844032287597656,0.26979774236679077,2.5803003311157227,59.70354461669922,-125.17591094970703, -68.36425018310547
545,540469716,0.56993306,-0.16503727,-0.7640561,-0.253293,15.650294303894043,1.9909613132476807,2.702672004699707,22.35480499267578,-113.66938781738281, -79.75381469726562
546,540486383,0.55507845,-0.1652369,-0.77222395,-0.2612565,19.227764129638672,0.8604298830032349,0.0028085410594940186,-44.54336166381836,-100.97700500488281, -63.794071197509766
547,540503050,0.54295534,-0.16644454,-0.7782222,-0.26807863,16.118078231811523,0.8789880871772766,-5.858400344848633,-43.116065979003906,-81.35304260253906, -46.76020812988281
548,540519717,0.5371243,-0.1658519,-0.78229725,-0.2683318,12.943549156188965,3.4077069759368896,-6.922041416168213,2.3719921112060547,-44.68798828125, -18.110206604003906
549,540536384,0.5369753,-0.1667726,-0.78182596,-0.26943076,14.351377487182617,4.1806721687316895,-4.774318218231201,-9.69670295715332,0.8711587190628052, 2.5725467205047607
550,540553051,0.5418385,-0.16736965,-0.77839005,-0.2692723,14.570982933044434,1.9366618394851685,-6.289132595062256,-1.4880303144454956,37.92097091674805, 18.16358184814453
551,540569718,0.5512026,-0.16832758,-0.77218825,-0.2675202,16.49991798400879,0.25333738327026367,-6.872038841247559,5.718911647796631,69.83171081542969, 37.52873611450195
552,540586385,0.5649978,-0.16904572,-0.76354206,-0.26306787,18.593013763427734,-0.9334388375282288,-4.663891315460205,21.540010452270508,99.96321105957031, 57.427371978759766
553,540603052,0.5819669,-0.16903062,-0.75321764,-0.25574654,19.795326232910156,-1.7230877876281738,-1.5905978679656982,40.054866790771484,121.13746643066406, 72.35701751708984
554,540619719,0.6011768,-0.17065398,-0.7406804,-0.24669114,17.31416130065918,-1.8489062786102295,1.2928043603897095,41.15951156616211,136.6729736328125, 94.22807312011719
555,540636386,0.6203794,-0.17829616,-0.7220052,-0.24909543,11.342668533325195,1.9515701532363892,5.454804420471191,-52.51625442504883,165.20111083984375, 84.64451599121094
556,540653053,0.6329141,-0.18507664,-0.7091563,-0.24952763,5.417298793792725,1.4284121990203857,-0.6090710759162903,-37.19534683227539,106.21489715576172, 70.21717834472656
557,540669720,0.64023453,-0.18431668,-0.70500875,-0.2430841,6.295417785644531,8.843489646911621,-5.863932132720947,37.44268035888672,47.110328674316406, 43.36104202270508
558,540686387,0.6421995,-0.18629737,-0.70313394,-0.24181761,4.000941276550293,6.737626552581787,-5.847667694091797,-2.6770071983337402,13.190116882324219, 22.125831604003906
559,540703054,0.6412202,-0.18428564,-0.70574504,-0.23832676,2.4585251808166504,2.479283094406128,-5.169475078582764,29.406108856201172,-16.996774673461914, 2.0814568996429443
560,540719721,0.6379726,-0.1817812,-0.70967114,-0.2373048,1.014625072479248,3.7315526008605957,-2.458374500274658,18.867280960083008,-29.80472183227539, -16.554637908935547
561,540736388,0.6327589,-0.18327384,-0.7124044,-0.24188223,1.0733723640441895,2.387202739715576,-0.9187688231468201,-30.374414443969727,-33.66321563720703, -23.286968231201172
562,540753055,0.6268263,-0.18644544,-0.71474403,-0.2479272,1.0324821472167969,0.5917432904243469,-1.010116696357727,-46.41299057006836,-36.408443450927734, -22.120445251464844
563,540769722,0.62114173,-0.18897538,-0.71777046,-0.25154907,1.2836440801620483,-1.8230781555175781,0.06355002522468567,-30.25139617919922,-40.15387725830078, -15.284486770629883
564,540786389,0.6165755,-0.18849328,-0.7218929,-0.2513477,0.8247509002685547,-0.9697672724723816,2.5575480461120605,4.813686370849609,-39.07552719116211, -13.337203979492188
565,540803056,0.6104391,-0.19057366,-0.7250465,-0.2556434,2.081960916519165,4.891502380371094,-2.653141736984253,-32.06938171386719,-41.393062591552734, -21.153318405151367
566,540819723,0.5996901,-0.18489063,-0.7360624,-0.25377065,9.033254623413086,10.288308143615723,-10.177942276000977,39.06669235229492,-91.79994201660156, -52.32527160644531
567,540836390,0.58772564,-0.17901696,-0.74776,-0.2517666,7.6586198806762695,1.742532730102539,1.0108938217163086,40.18434524536133,-100.49256896972656, -55.642677307128906
568,540853057,0.5753903,-0.16960256,-0.7616105,-0.24517441,10.394046783447266,0.6930879354476929,2.3013250827789307,81.37982177734375,-110.64042663574219, -58.6020393371582
569,540869724,0.5602207,-0.16280751,-0.77417743,-0.24555221,13.51286506652832,1.6282427310943604,2.265300989151001,29.075050354003906,-116.73431396484375, -75.76197814941406
570,540886391,0.5457053,-0.16118693,-0.7823259,-0.2533589,17.055639266967773,3.3458268642425537,0.609107255935669,-37.094085693359375,-96.70718383789062, -70.79972076416016
571,540903058,0.5338781,-0.16615763,-0.7853948,-0.26555836,18.159019470214844,-1.8166173696517944,-4.08408784866333,-91.28406524658203,-69.858154296875, -41.52609634399414
572,540919725,0.5247103,-0.16806133,-0.7889844,-0.27191597,15.065499305725098,1.8279414176940918,-3.545771598815918,-44.542236328125,-58.4993896484375, -32.45150375366211
573,540936392,0.52056545,-0.16838351,-0.79116625,-0.27334005,13.730271339416504,4.308834075927734,-4.614587783813477,-8.912625312805176,-28.929931640625, -12.240097999572754
574,540953059,0.5218633,-0.16943733,-0.790006,-0.2735699,15.71139144897461,5.08649206161499,-4.499971389770508,-5.010885238647461,9.880253791809082, 10.114763259887695
575,540969726,0.5273386,-0.17030297,-0.7866162,-0.27229765,18.32250213623047,1.705721139907837,-3.9566245079040527,4.508996486663818,39.167354583740234, 24.944076538085938
576,540986393,0.53629607,-0.17179027,-0.78085184,-0.27045345,21.851442337036133,0.03835509717464447,-2.4614477157592773,4.958098888397217,64.75353240966797, 39.648841857910156
577,541003060,0.54831105,-0.17502254,-0.7726341,-0.2678785,23.346168518066406,-0.6964663863182068,0.6816399097442627,1.4677222967147827,86.06163787841797, 60.2420768737793
578,541019727,0.5627029,-0.1781053,-0.76268554,-0.2644899,20.198049545288086,-1.5663121938705444,2.693476438522339,6.01594352722168,104.43365478515625, 68.91552734375
579,541036394,0.5791579,-0.1817803,-0.75053495,-0.26120773,13.695655822753906,-2.009542465209961,3.734304428100586,1.6845893859863281,122.74568939208984, 78.0023422241211
580,541053061,0.59359264,-0.18517223,-0.7380938,-0.26187143,5.208239555358887,2.664200782775879,0.14890916645526886,-20.595008850097656,118.8453369140625, 57.51795959472656
581,541069728,0.60152626,-0.18614148,-0.7318408,-0.26062742,4.569581031799316,6.843893527984619,-7.343329429626465,1.8610453605651855,62.51595687866211, 33.44664764404297
582,541086395,0.60556114,-0.18962847,-0.72761285,-0.2606077,2.577698230743408,4.808667182922363,-6.002743244171143,-16.06810188293457,31.650283813476562, 31.540529251098633
583,541103062,0.6103088,-0.19202608,-0.7244982,-0.25642067,1.53355872631073,-0.4520839750766754,-2.7352993488311768,12.23463249206543,27.159976959228516, 43.31376647949219
584,541119729,0.6198115,-0.19120319,-0.7204681,-0.24535942,-0.8039765357971191,-6.466681957244873,0.8950098156929016,64.6275634765625,51.31742858886719, 65.70379638671875
585,541136396,0.6308802,-0.18830213,-0.71468586,-0.23612851,1.1513828039169312,1.8550089597702026,1.1501678228378296,63.465423583984375,72.4482192993164, 52.48674392700195
586,541153063,0.64052564,-0.18918344,-0.7058096,-0.23615566,1.6557494401931763,4.473485469818115,-0.6408147215843201,-5.277841567993164,84.70413970947266, 32.63433837890625
587,541169730,0.647517,-0.18998586,-0.69895667,-0.23682642,2.237166404724121,2.620462417602539,-5.127101898193359,-8.18824577331543,63.88262939453125, 22.52916717529297
588,541186397,0.64952904,-0.19184749,-0.6962363,-0.2378273,2.0232253074645996,5.356932640075684,-8.79290771484375,-14.27822494506836,20.315467834472656, 12.667006492614746
589,541203064,0.6460044,-0.19362514,-0.6984283,-0.23955297,3.392982244491577,6.850769519805908,-9.96690845489502,-16.655473709106445,-26.938152313232422, -6.453092575073242
590,541219731,0.6370997,-0.19473752,-0.70470583,-0.244072,6.056428909301758,6.541585922241211,-7.831969261169434,-27.553606033325195,-66.00343322753906, -36.28961944580078
591,541236398,0.62585205,-0.18903124,-0.71702015,-0.24178234,6.43637228012085,0.22272296249866486,4.618853569030762,42.30513381958008,-101.39690399169922, -51.4600944519043
592,541253065,0.6099628,-0.18200648,-0.73330355,-0.23892488,7.6352128982543945,5.4339280128479,-1.354236125946045,51.382938385009766,-139.96334838867188, -68.40194702148438
593,541269732,0.59376246,-0.17929126,-0.7462508,-0.24168274,13.125737190246582,1.3294180631637573,-0.7425615787506104,-0.8265179991722107,-127.58204650878906, -66.51619720458984
594,541286399,0.57975656,-0.17378964,-0.75795716,-0.24327059,10.67567253112793,-0.19346082210540771,-0.6841936707496643,17.20755958557129,-108.07760620117188, -70.87294006347656
595,541303066,0.56608665,-0.17298916,-0.7662561,-0.24994527,15.826994895935059,1.8820383548736572,1.257734775543213,-33.346160888671875,-94.54006958007812, -62.042728424072266
596,541319733,0.5548781,-0.17579937,-0.7705716,-0.25966194,15.811578750610352,1.856608271598816,-3.5445258617401123,-67.31311798095703,-68.70320892333984, -45.90726089477539
597,541336400,0.54833,-0.17689626,-0.7735779,-0.26385474,14.914921760559082,2.155729055404663,-4.082945346832275,-28.22220802307129,-42.638885498046875, -24.02528953552246
598,541353067,0.54651254,-0.17585154,-0.7750394,-0.2640351,17.294775009155273,4.974159240722656,-0.2454811930656433,4.130903244018555,-12.648126602172852, -9.841728210449219
599,541369734,0.5487818,-0.1755365,-0.7731326,-0.26512578,17.777936935424805,1.56805419921875,-3.169229745864868,-4.586614608764648,21.518526077270508, 2.1255440711975098
600,541386401,0.5547002,-0.17493874,-0.76944655,-0.26392525,17.8437442779541,-0.20745226740837097,-6.562633514404297,9.804121017456055,45.36250686645508, 18.044170379638672
601,541403068,0.5633783,-0.17513934,-0.7634834,-0.26272473,18.604185104370117,-0.541251540184021,-4.192298412322998,5.881371974945068,67.21399688720703, 29.975317001342773
602,541419735,0.5747048,-0.17734489,-0.7544981,-0.26267055,19.009803771972656,-0.4109099805355072,-2.4836225509643555,-10.221400260925293,90.57617950439453, 44.4403076171875
603,541436402,0.58905417,-0.17747608,-0.74531287,-0.2569557,18.4634952545166,-0.7839580774307251,0.2543489933013916,30.63137435913086,103.87449645996094, 61.709747314453125
604,541453069,0.60598403,-0.17691976,-0.73479354,-0.24811536,15.922029495239258,0.1849381923675537,2.7874701023101807,50.21031188964844,119.86726379394531, 76.99555969238281
605,541469736,0.6252432,-0.18215711,-0.71824706,-0.24497215,12.731417655944824,0.8048704862594604,5.763876914978027,-10.149490356445312,153.74554443359375, 93.81910705566406
606,541486403,0.63924015,-0.1877039,-0.70400304,-0.24600677,3.7108733654022217,1.4834181070327759,-1.0227406024932861,-34.78253936767578,122.48954010009766, 65.63524627685547
607,541503070,0.6473153,-0.18539602,-0.6994611,-0.23951074,4.469101905822754,6.2450151443481445,-6.8226637840271,44.96254348754883,54.751747131347656, 38.18809509277344
608,541519737,0.65120023,-0.18329018,-0.69807404,-0.23459695,3.6256203651428223,5.620306015014648,-7.976512908935547,36.311954498291016,22.308805465698242, 21.257999420166016
609,541536404,0.65197176,-0.18017219,-0.6995751,-0.23036012,3.6253364086151123,3.7272982597351074,-7.216744899749756,38.323028564453125,-2.9991092681884766, 4.760663986206055
610,541553071,0.6498828,-0.17878328,-0.7017981,-0.2305831,1.1129589080810547,2.103522300720215,-1.1703985929489136,6.704667568206787,-17.13431167602539, -12.309150695800781
611,541569738,0.6449752,-0.18417276,-0.7013916,-0.24111672,0.07991324365139008,5.167783260345459,1.6346505880355835,-80.95565795898438,-17.049137115478516, -26.88872718811035
612,541586405,0.6399013,-0.19191566,-0.70024455,-0.251699,-0.17312845587730408,-2.9089090824127197,-1.5532310009002686,-93.00395965576172,-18.43191909790039, -15.032005310058594
613,541603072,0.6372492,-0.19493061,-0.7010307,-0.2539125,0.6905702948570251,-3.207414150238037,-0.3087223470211029,-25.406436920166016,-18.12218475341797, 0.6264951825141907
614,541619739,0.6362188,-0.1954177,-0.70173246,-0.25418344,0.20674315094947815,1.5610069036483765,0.0936763733625412,-2.975377082824707,-8.122276306152344, -0.1428292691707611
615,541636406,0.6303724,-0.19465937,-0.70573133,-0.25822785,5.309549808502197,13.181715965270996,-11.262467384338379,-16.42513656616211,-38.53608322143555, -35.487548828125
616,541653073,0.6210758,-0.18980628,-0.7150664,-0.2586864,9.249959945678711,4.712088108062744,-1.7610923051834106,23.615901947021484,-75.82804107666016, -52.95706558227539
617,541669740,0.6104561,-0.17893887,-0.72976583,-0.2505318,8.020174026489258,1.1184039115905762,3.5152549743652344,99.49838256835938,-105.77375030517578, -55.07356262207031
618,541686407,0.59611595,-0.16996363,-0.74508053,-0.24619786,12.752714157104492,0.945485532283783,6.196905612945557,68.91072082519531,-125.6181869506836, -68.79002380371094
619,541703074,0.5798955,-0.16488694,-0.75794196,-0.24911365,14.324069023132324,1.0889650583267212,2.405726432800293,9.501463890075684,-123.39217376708984, -78.86569213867188
620,541719741,0.56471545,-0.16635455,-0.7655287,-0.25959328,17.46859359741211,-0.4500872790813446,-5.196859836578369,-63.83162307739258,-99.61632537841797, -67.18191528320312
621,541736408,0.5521395,-0.17117639,-0.770278,-0.2692818,13.802570343017578,-0.19966790080070496,-4.5299763679504395,-74.83021545410156,-81.77162170410156, -38.610111236572266
622,541753075,0.5438328,-0.17434502,-0.7728174,-0.27677283,12.916682243347168,2.9096577167510986,-2.493791103363037,-56.028995513916016,-50.2872428894043, -28.554637908935547
623,541769742,0.54104143,-0.17587768,-0.7738275,-0.2784462,14.011054039001465,4.012145519256592,-4.222625732421875,-15.292222023010254,-19.13185691833496, -3.1712942123413086
624,541786409,0.54351276,-0.17649902,-0.77260524,-0.2766284,14.086779594421387,3.8940579891204834,-3.8946573734283447,8.76224422454834,14.696617126464844, 17.74338150024414
625,541803076,0.54957885,-0.17780267,-0.7684138,-0.27548096,16.702054977416992,0.572215735912323,-4.320685386657715,1.3680583238601685,44.402584075927734, 29.306232452392578
626,541819743,0.55757403,-0.17952727,-0.76228285,-0.27532881,18.084070205688477,-0.9811734557151794,-3.648789167404175,-6.839890956878662,62.33888626098633, 33.76417922973633
627,541836410,0.5671155,-0.18146214,-0.7550238,-0.2745735,18.953603744506836,-1.8011927604675293,-2.4408676624298096,-4.769000053405762,73.61515045166016, 41.451351165771484
628,541853077,0.57937264,-0.18317388,-0.7463483,-0.27154902,17.760948181152344,-1.274661660194397,-0.9338957071304321,8.540828704833984,90.80750274658203, 55.979736328125
629,541869744,0.5935268,-0.1845939,-0.73690397,-0.2657513,15.36146354675293,-0.8093242645263672,1.2796947956085205,24.85403060913086,100.63219451904297, 69.99433135986328
630,541886411,0.6090389,-0.19005732,-0.7227543,-0.26566195,11.299955368041992,2.864469289779663,3.8016672134399414,-27.45054817199707,126.53776550292969, 75.6070327758789
631,541903078,0.6201286,-0.19775587,-0.7100458,-0.26864156,4.867917537689209,3.2373998165130615,-1.0855345726013184,-55.14976119995117,98.39749908447266, 63.91749954223633
632,541919745,0.62711704,-0.20009567,-0.7044983,-0.26527026,4.7089385986328125,7.4218974113464355,-5.174991607666016,6.373703956604004,49.106475830078125, 47.548831939697266
633,541936412,0.6304257,-0.20260559,-0.70157427,-0.2632647,3.084909677505493,6.262544631958008,-6.223669528961182,-1.2260863780975342,21.58333969116211, 32.23457717895508
634,541953079,0.6317782,-0.20298317,-0.7009734,-0.261325,2.7990729808807373,2.795917272567749,-4.955349922180176,9.185474395751953,6.085872650146484, 14.944252967834473
635,541969746,0.63192385,-0.19930737,-0.7030543,-0.25819317,1.320393681526184,2.569944381713867,-1.7013572454452515,35.65545654296875,-5.711427688598633, -5.30265998840332
636,541986413,0.6293672,-0.19653362,-0.70608765,-0.25828633,2.0934247970581055,3.615971565246582,-2.030620813369751,14.146541595458984,-20.07770347595215, -21.033174514770508
637,542003080,0.62444615,-0.19455568,-0.7106877,-0.25911033,1.6390163898468018,1.862212061882019,-2.505880832672119,6.7626566886901855,-38.74303436279297, -26.61543846130371
638,542019747,0.6182506,-0.19407222,-0.7158495,-0.26011872,1.132214069366455,-0.7894332408905029,-0.5312820672988892,-1.2600812911987305,-49.774940490722656, -23.115053176879883
639,542036414,0.61258584,-0.19429685,-0.71983117,-0.26235572,1.140009880065918,0.21073251962661743,4.449347019195557,-11.731084823608398,-41.767642974853516, -22.34223175048828
640,542053081,0.6067334,-0.19185324,-0.72472334,-0.26427877,3.338576555252075,5.139262676239014,-6.581111431121826,2.4957478046417236,-42.1816520690918, -35.778076171875
641,542069748,0.59551066,-0.18483527,-0.73561066,-0.26472634,15.445104598999023,9.519183158874512,-1.735795497894287,32.73937225341797,-87.5257339477539, -70.04749298095703
642,542086415,0.5838815,-0.17514226,-0.7489013,-0.25991258,7.7878546714782715,-2.3558619022369385,4.697420597076416,74.25635528564453,-101.23786163330078, -65.766357421875
643,542103082,0.57051504,-0.16650464,-0.7616299,-0.2582808,15.883987426757812,3.8166580200195312,5.752877235412598,50.553035736083984,-106.02751159667969, -75.57975769042969
644,542119749,0.55684954,-0.16481115,-0.7702443,-0.26358998,18.356653213500977,-0.7636345028877258,-1.4455558061599731,-20.5817928314209,-95.91188049316406, -62.26454544067383
645,542136416,0.5441854,-0.1652381,-0.77797914,-0.26703408,16.849088668823242,-2.805297374725342,-5.5549235343933105,-19.311811447143555,-93.21969604492188, -41.13876724243164
646,542153083,0.533705,-0.16671593,-0.7845251,-0.26811448,14.413481712341309,-1.4420307874679565,-7.287867069244385,-10.400544166564941,-81.69717407226562, -21.382770538330078
647,542169750,0.52697307,-0.16796567,-0.78907406,-0.26729977,8.995224952697754,2.6730778217315674,-7.1942667961120605,1.1752197742462158,-55.87788391113281, -6.507477760314941
648,542186417,0.5251967,-0.16897634,-0.7897304,-0.2682189,8.016975402832031,6.391692161560059,-5.998064994812012,-8.836797714233398,-12.411064147949219, -0.48191606998443604
649,542203084,0.5281018,-0.16985244,-0.78685206,-0.27041158,13.994208335876465,4.631435871124268,-2.625152587890625,-16.323162078857422,27.53058433532715, 6.964611053466797
650,542219751,0.535502,-0.1693136,-0.7816577,-0.27125978,17.73617172241211,3.1564388275146484,-1.1625118255615234,-2.938112258911133,61.301658630371094, 15.261405944824219
651,542236418,0.54582155,-0.16877988,-0.7747673,-0.27079135,20.12532615661621,0.3106496036052704,-1.9971548318862915,4.375487327575684,81.6563949584961, 27.545330047607422
652,542253085,0.5578976,-0.16822357,-0.7679495,-0.26590395,20.303192138671875,-2.130155324935913,-1.9854159355163574,30.145780563354492,85.6187515258789, 47.157039642333984
653,542269752,0.5716117,-0.16899496,-0.7599263,-0.25925392,16.08538246154785,-0.8623856902122498,-0.6090844869613647,33.990543365478516,94.39323425292969, 65.25939178466797
654,542286419,0.5862147,-0.17186753,-0.7503798,-0.2524761,13.051823616027832,-0.8461730480194092,1.2023813724517822,24.689254760742188,101.10143280029297, 80.05906677246094
655,542303086,0.6013833,-0.17823161,-0.73690253,-0.25208426,9.15156078338623,3.565810203552246,2.407057762145996,-28.49733543395996,121.31458282470703, 77.93317413330078
656,542319753,0.61184657,-0.18497571,-0.7255413,-0.25498566,3.866713762283325,4.383923530578613,-4.395076751708984,-48.790679931640625,92.05998992919922, 55.51643371582031
657,542336420,0.617665,-0.18843572,-0.7198013,-0.25469232,4.182331562042236,6.947218418121338,-7.283901691436768,-15.083150863647461,46.96902847290039, 37.31654739379883
658,542353087,0.6202514,-0.19185376,-0.7168662,-0.25413263,2.9622530937194824,4.673157215118408,-7.566408634185791,-12.850196838378906,18.851335525512695, 29.00721549987793
659,542369754,0.6215944,-0.19611286,-0.71435326,-0.2546755,2.121325731277466,1.1272426843643188,-3.534605026245117,-22.792537689208984,10.9754056930542, 25.758508682250977
660,542386421,0.6237874,-0.19913974,-0.7119457,-0.25370502,-0.6302672028541565,-1.6159032583236694,0.5687984228134155,-8.7855863571167,14.847012519836426, 27.524423599243164
661,542403088,0.6249316,-0.20159449,-0.7099121,-0.25464696,0.3918057978153229,2.5191750526428223,-0.7002963423728943,-16.490324020385742,11.721182823181152, 14.16433334350586
662,542419755,0.6247303,-0.20330784,-0.7093607,-0.25531438,1.439170002937317,1.1964112520217896,-3.0633676052093506,-11.212644577026367,-0.2929326295852661, 7.340533256530762
663,542436422,0.6221881,-0.206658,-0.7093377,-0.2588722,2.030113458633423,3.725848436355591,-0.4520701467990875,-34.70037078857422,-12.785165786743164, -1.9328460693359375
664,542453089,0.61839086,-0.20892763,-0.7105942,-0.26267442,2.4375202655792236,3.4357950687408447,-2.353470802307129,-30.736114501953125,-22.1107234954834, -12.263070106506348
665,542469756,0.6107266,-0.20607845,-0.7175427,-0.26396438,8.59907054901123,9.170493125915527,-7.103044509887695,8.044593811035156,-59.550575256347656, -41.72285461425781
666,542486423,0.59978485,-0.20294473,-0.72711605,-0.26528063,9.93293571472168,2.9877214431762695,3.6073548793792725,9.269258499145508,-86.1324462890625, -52.83278274536133
667,542503090,0.5894721,-0.19399817,-0.739411,-0.26107275,9.499153137207031,3.231719493865967,2.792149066925049,66.77706146240234,-91.36114501953125, -61.751399993896484
668,542519757,0.57934314,-0.18619217,-0.7491329,-0.26171347,13.374184608459473,2.7483139038085938,3.757406711578369,33.20220184326172,-75.60626220703125, -71.82994842529297
669,542536424,0.5694116,-0.18420447,-0.75500154,-0.26797745,16.57411766052246,-0.8546900749206543,-3.1040523052215576,-25.542041778564453,-62.56010818481445, -58.97412109375
670,542553091,0.56030536,-0.18578504,-0.75964534,-0.27291197,17.06402015686035,-3.3064663410186768,-4.849029541015625,-33.870906829833984,-61.73799133300781, -32.22041702270508
671,542569758,0.5543326,-0.18853846,-0.76195925,-0.27674362,16.469135284423828,-0.40077778697013855,-5.490189552307129,-33.102108001708984,-39.997314453125, -13.058856964111328
672,542586425,0.55214745,-0.19132932,-0.76194954,-0.27921218,16.06926918029785,1.9310470819473267,-3.483955144882202,-25.687511444091797,-13.125176429748535, 2.5125555992126465
673,542603092,0.5542563,-0.19304934,-0.7597294,-0.27989873,17.448083877563477,2.5512144565582275,-1.7844517230987549,-10.900186538696289,17.466766357421875, 14.802821159362793
674,542619759,0.56034684,-0.19364996,-0.7551193,-0.27983195,18.84373664855957,2.2465593814849854,-0.6542127132415771,-2.0053153038024902,48.50393295288086, 22.65052032470703
675,542636426,0.5693745,-0.19356373,-0.748858,-0.27849132,20.127771377563477,-0.9418736696243286,-1.0910042524337769,8.002259254455566,69.70677947998047, 31.829113006591797
676,542653093,0.5804712,-0.19243224,-0.74259,-0.273099,18.554309844970703,-2.262608289718628,-0.6587733626365662,35.66163635253906,76.96624755859375, 46.23719787597656
677,542669760,0.59317607,-0.19346842,-0.73449665,-0.26688382,15.397985458374023,-1.568117618560791,0.29077431559562683,29.863496780395508,87.27650451660156, 65.9739761352539
678,542686427,0.607242,-0.19773498,-0.72339547,-0.2624065,10.899914741516113,0.5090600252151489,2.8635737895965576,4.176667213439941,102.77679443359375, 81.66381072998047
679,542703094,0.6195772,-0.20351039,-0.7108772,-0.26336506,5.673194885253906,3.5575499534606934,-0.6421958804130554,-34.04132080078125,104.71138000488281, 65.27188110351562
680,542719761,0.62911433,-0.20473003,-0.703023,-0.2608819,4.535646438598633,5.67889404296875,-5.443934917449951,6.75050687789917,74.5931167602539, 46.10405731201172
681,542736428,0.6343465,-0.20596708,-0.6985668,-0.25920367,3.829810380935669,6.693299770355225,-8.366345405578613,2.8297224044799805,40.233455657958984, 30.25252342224121
682,542753095,0.6368745,-0.20693062,-0.6968606,-0.25681874,3.3449349403381348,3.1826508045196533,-8.234703063964844,8.481073379516602,14.81201171875, 23.36438751220703
683,542769762,0.6388969,-0.20456086,-0.6977965,-0.251089,0.5899720191955566,-1.5633606910705566,-2.8790392875671387,43.000431060791016,2.0246288776397705, 17.405057907104492
684,542786429,0.6382265,-0.2003978,-0.701184,-0.24667563,1.2495421171188354,5.463930130004883,-1.6988582611083984,44.95851516723633,-16.68500518798828, -5.1019511222839355
685,542803096,0.63383967,-0.20262763,-0.7031824,-0.25044754,0.8458607196807861,3.5270869731903076,-1.2424168586730957,-29.978479385375977,-28.060766220092773, -14.533330917358398
686,542819763,0.6274423,-0.20576654,-0.70653176,-0.2545378,1.311100959777832,1.2706916332244873,-2.1152195930480957,-35.921287536621094,-44.78371810913086, -16.835477828979492
687,542836430,0.62120956,-0.2094773,-0.7094545,-0.2586355,1.0135384798049927,-1.5920196771621704,2.413296937942505,-38.9426155090332,-43.116214752197266, -13.190232276916504
688,542853097,0.61479,-0.21114177,-0.7129077,-0.26308775,3.957839012145996,4.99561882019043,-1.464095950126648,-31.252248764038086,-42.16813659667969, -25.79949378967285
689,542869764,0.6029638,-0.20224322,-0.726992,-0.2588728,9.715662956237793,10.708131790161133,-8.526105880737305,67.31584167480469,-107.07898712158203, -66.11500549316406
690,542886431,0.59066117,-0.19619894,-0.7398692,-0.25537997,9.892119407653809,-2.2119524478912354,6.198908805847168,49.11302947998047,-108.45913696289062, -53.93208312988281
691,542903098,0.5780963,-0.18520424,-0.7546172,-0.24911249,12.357495307922363,3.0882351398468018,4.264707565307617,86.30818939208984,-112.50675964355469, -70.87447357177734
692,542919765,0.56350654,-0.18062317,-0.765523,-0.2526073,16.748737335205078,1.8280057907104492,6.187431335449219,1.0955270528793335,-106.34062957763672, -74.9731674194336
