PacketCounter,SampleTimeFine,Quat_W,Quat_X,Quat_Y,Quat_Z,Acc_X,Acc_Y,Acc_Z,Gyr_X,Gyr_Y,Gyr_Z 
1,1133852427,0.68788683,-0.044148166,-0.7243406,-0.013904597,0.12502186000347137,-0.41905373334884644,0.4068535268306732,-0.5689337253570557,-1.043662428855896, -2.1140036582946777
2,1133869094,0.6878809,-0.044630755,-0.72432244,-0.013603136,9.949667930603027,-0.4446447491645813,-0.5251344442367554,0.7500358819961548,1.2465126514434814, 1.5883780717849731
3,1133885761,0.688086,-0.045014814,-0.7241127,-0.0131221935,9.928821563720703,-0.43329334259033203,-0.5449897050857544,0.9258415699005127,2.007376194000244, 1.821620225906372
4,1133902428,0.68823665,-0.04519743,-0.72396594,-0.012683613,9.870485305786133,-0.35893067717552185,-0.5500645637512207,0.9033920168876648,1.976743221282959, 1.7017015218734741
5,1133919095,0.68828475,-0.045241304,-0.72391826,-0.012633122,9.890571594238281,-0.3832669258117676,-0.561928927898407,0.39323821663856506,1.441540241241455, 1.5035743713378906
6,1133935762,0.6882553,-0.045204755,-0.7239493,-0.012595483,9.922672271728516,-0.38689738512039185,-0.4982554614543915,0.39462125301361084,0.9494947195053101, 1.3962186574935913
7,1133952429,0.68833154,-0.04536527,-0.72386533,-0.01268703,9.930429458618164,-0.41556453704833984,-0.5083073377609253,0.24989672005176544,1.1434597969055176, 1.7450125217437744
8,1133969096,0.68843037,-0.045434717,-0.7237684,-0.012606114,9.884031295776367,-0.4229119122028351,-0.5684069991111755,0.6252892017364502,1.033312439918518, 1.8052279949188232
9,1133985763,0.68845165,-0.045494515,-0.7237459,-0.012511504,9.915847778320312,-0.41310128569602966,-0.5188267230987549,0.7749826908111572,0.6535144448280334, 1.50923490524292
10,1134002430,0.68849987,-0.04551547,-0.7237021,-0.012325951,9.902657508850098,-0.4234866499900818,-0.4681941866874695,0.8983205556869507,0.7416220903396606, 1.6910464763641357
11,1134019097,0.688599,-0.045526315,-0.7236108,-0.012094476,9.911492347717285,-0.41247937083244324,-0.4823257327079773,0.9890792965888977,0.8748338222503662, 1.7729429006576538
12,1134035764,0.6888579,-0.045679543,-0.7233581,-0.011893974,9.939395904541016,-0.44821086525917053,-0.4517568349838257,0.4861738979816437,2.289577007293701, 2.362483501434326
13,1134052431,0.68921965,-0.045919534,-0.7230019,-0.011669383,9.909439086914062,-0.4143429100513458,-0.5097699165344238,0.6078982353210449,3.087002754211426, 2.7970540523529053
14,1134069098,0.6895866,-0.04632203,-0.7226272,-0.01160176,9.923497200012207,-0.40970849990844727,-0.48945990204811096,-0.4590820372104645,3.3200013637542725, 2.8706393241882324
15,1134085765,0.68999726,-0.046656504,-0.7222166,-0.011411185,9.879473686218262,-0.4758104979991913,-0.4889729917049408,0.13166847825050354,3.7327239513397217, 3.1894278526306152
16,1134102432,0.6903525,-0.046858486,-0.7218693,-0.011089501,9.87409496307373,-0.48862168192863464,-0.48433592915534973,1.0696184635162354,3.199096918106079, 3.0251355171203613
17,1134119099,0.6905731,-0.047021087,-0.7216514,-0.010823559,9.888205528259277,-0.5221978425979614,-0.4483134150505066,1.6949526071548462,1.9539992809295654, 2.38082218170166
18,1134135766,0.69069505,-0.047034442,-0.7215386,-0.010509432,9.904038429260254,-0.5195453763008118,-0.41722571849823,2.177521228790283,0.9684866070747375, 1.7304514646530151
19,1134152433,0.6908279,-0.047101576,-0.7214098,-0.010299999,9.834769248962402,-0.5021786689758301,-0.4927469789981842,1.6181015968322754,1.0647519826889038, 1.424098253250122
20,1134169100,0.6908242,-0.047191937,-0.7214083,-0.010244684,9.8633451461792,-0.4322623014450073,-0.4839492738246918,0.967564582824707,-0.10374424606561661, 0.7171364426612854
21,1134185767,0.6907311,-0.047159553,-0.72149974,-0.01023458,9.915474891662598,-0.4823133051395416,-0.43728774785995483,0.9710735082626343,-0.9012340903282166, -0.054401375353336334
22,1134202434,0.6906102,-0.047015484,-0.72162706,-0.010078008,9.884486198425293,-0.4492180049419403,-0.4936482012271881,2.2401187419891357,-1.2714016437530518, 0.07329714298248291
23,1134219101,0.6904236,-0.04687598,-0.72181654,-0.00994391,9.937692642211914,-0.31383153796195984,-0.48118308186531067,1.9579306840896606,-1.8392094373703003, 0.002772574545815587
24,1134235768,0.6902501,-0.046752702,-0.721992,-0.009829348,9.91769027709961,-0.37863269448280334,-0.5144608020782471,1.5595893859863281,-1.6775550842285156, 0.16177621483802795
25,1134252435,0.6900774,-0.046733614,-0.72215927,-0.009768795,9.874550819396973,-0.42789778113365173,-0.4859563112258911,1.1866555213928223,-1.6088359355926514, 0.46917977929115295
26,1134269102,0.6899583,-0.046659037,-0.72228,-0.009602712,9.930377006530762,-0.4105290472507477,-0.4452279806137085,1.5472952127456665,-1.1285978555679321, 0.7395602464675903
27,1134285769,0.6899031,-0.046736985,-0.722328,-0.0095820995,9.879467010498047,-0.46662992238998413,-0.5050517320632935,0.42454972863197327,-0.478624552488327, 0.8380283117294312
28,1134302436,0.68985236,-0.046697225,-0.72238076,-0.009445989,9.91667652130127,-0.4611814320087433,-0.5013237595558167,1.4665895700454712,-0.49084174633026123, 0.7784660458564758
29,1134319103,0.68983287,-0.046621304,-0.7224065,-0.009279516,9.912246704101562,-0.458553671836853,-0.5435669422149658,1.8839356899261475,-0.21376357972621918, 0.7318123579025269
30,1134335770,0.689778,-0.04644018,-0.7224731,-0.009084112,9.879419326782227,-0.4174431562423706,-0.5762968063354492,2.2455358505249023,-0.5433734655380249, 0.33076879382133484
31,1134352437,0.689653,-0.0462422,-0.7226066,-0.008953778,9.907462120056152,-0.43606051802635193,-0.5005711317062378,2.3315815925598145,-1.1625219583511353, -0.09438280016183853
32,1134369104,0.689536,-0.04602728,-0.72273356,-0.008826284,9.947105407714844,-0.4031885266304016,-0.5124891996383667,2.1898281574249268,-1.0852357149124146, -0.18149158358573914
33,1134385771,0.68954486,-0.046043918,-0.72272336,-0.008883832,9.919222831726074,-0.3897310495376587,-0.5205774903297424,0.31957605481147766,0.22646106779575348, 0.1507115215063095
34,1134402438,0.6895571,-0.046070985,-0.7227093,-0.008938953,9.864008903503418,-0.3962076008319855,-0.5500918030738831,0.3024155795574188,0.2594502866268158, 0.23000846803188324
35,1134419105,0.68950385,-0.046008036,-0.72276384,-0.008958432,9.920148849487305,-0.3920838534832001,-0.5009074211120605,0.9580878019332886,-0.3860986530780792, -0.06952567398548126
36,1134435772,0.6894152,-0.045840696,-0.72286004,-0.0088796625,9.912981033325195,-0.3628460168838501,-0.5463069081306458,1.7754018306732178,-0.7857080101966858, -0.12181399762630463
37,1134452439,0.68926954,-0.045693066,-0.72300893,-0.008817357,9.879743576049805,-0.34721630811691284,-0.5496084094047546,1.4210885763168335,-1.297974705696106, -0.0970977395772934
38,1134469106,0.6891255,-0.045607124,-0.72315216,-0.0087809395,9.919300079345703,-0.24862755835056305,-0.47549906373023987,1.046951174736023,-1.2538312673568726, 0.10464709997177124
39,1134485773,0.688956,-0.04558328,-0.7233156,-0.008744797,9.943511009216309,-0.3363633453845978,-0.511625349521637,0.6729929447174072,-1.497215986251831, 0.45684733986854553
40,1134502440,0.68878883,-0.04561489,-0.7234732,-0.008711252,9.927810668945312,-0.3233086168766022,-0.5725268721580505,0.7571691274642944,-1.4867020845413208, 0.7175717949867249
41,1134519107,0.68861765,-0.045625046,-0.7236369,-0.008598535,9.895918846130371,-0.3148908317089081,-0.6111040711402893,0.9448460340499878,-1.534495234489441, 1.0143076181411743
42,1134535774,0.6884505,-0.045768075,-0.72378695,-0.008588871,9.868269920349121,-0.3147207796573639,-0.5086954832077026,0.07082551717758179,-1.4193276166915894, 1.1931483745574951
43,1134552441,0.6883746,-0.045888614,-0.72385335,-0.008433092,9.974475860595703,-0.3873347342014313,-0.4779159426689148,0.6859784126281738,-0.615447461605072, 1.8296877145767212
44,1134569108,0.6883908,-0.046124835,-0.723825,-0.008244169,9.954216003417969,-0.3740731477737427,-0.5200126767158508,0.5500006675720215,0.2401382476091385, 2.5792949199676514
45,1134585775,0.68831396,-0.046310633,-0.7238887,-0.008033676,9.779622077941895,-0.37117594480514526,-0.5573835372924805,0.6629398465156555,-0.6617808938026428, 2.4049618244171143
46,1134602442,0.6881314,-0.04634992,-0.7240627,-0.0077703074,9.932332038879395,-0.4545145630836487,-0.5919224619865417,1.6979748010635376,-1.7213141918182373, 1.8771865367889404
47,1134619109,0.68790185,-0.046376668,-0.72428113,-0.0075668194,9.944828987121582,-0.4127659201622009,-0.5507076382637024,1.3322253227233887,-2.13187313079834, 1.501602053642273
48,1134635776,0.6876776,-0.046379656,-0.7244956,-0.007391273,9.863519668579102,-0.4437439441680908,-0.5255231857299805,1.30362868309021,-2.0801351070404053, 1.2456798553466797
49,1134652443,0.6875508,-0.04639335,-0.72461724,-0.0071752965,9.837580680847168,-0.4754650592803955,-0.5799011588096619,1.5601656436920166,-1.183831810951233, 1.5064301490783691
50,1134669110,0.6873638,-0.046265233,-0.7248058,-0.006876314,9.82667064666748,-0.4521656632423401,-0.6582420468330383,2.473975419998169,-1.8084230422973633, 1.1574058532714844
51,1134685777,0.68710625,-0.046094164,-0.72506297,-0.006641506,9.966480255126953,-0.3550055921077728,-0.6028753519058228,2.5423872470855713,-2.4561681747436523, 0.5911219716072083
52,1134702444,0.68688405,-0.045978125,-0.7252823,-0.006479704,9.983109474182129,-0.4010395407676697,-0.5520249009132385,1.7326414585113525,-2.0681357383728027, 0.5544061064720154
53,1134719111,0.6867768,-0.04599098,-0.7253841,-0.0063608745,9.931638717651367,-0.36884403228759766,-0.6043727397918701,1.0338886976242065,-0.9460435509681702, 1.0311737060546875
54,1134735778,0.6867949,-0.046119068,-0.72535944,-0.006298216,9.930322647094727,-0.30453357100486755,-0.6231645345687866,0.05730201303958893,0.29895782470703125, 1.402353048324585
55,1134752445,0.6870277,-0.04643163,-0.72511905,-0.00629332,9.993371963500977,-0.319309800863266,-0.6177700757980347,-0.8747376799583435,2.393756628036499, 2.1347482204437256
56,1134769112,0.687343,-0.04668097,-0.72480524,-0.00617146,9.884014129638672,-0.35126301646232605,-0.7165806889533997,0.13790521025657654,3.1130897998809814, 2.407587766647339
57,1134785779,0.6876304,-0.046870004,-0.724522,-0.0059778355,9.934629440307617,-0.314662367105484,-0.6759737730026245,0.6571129560470581,2.836510419845581, 2.449643611907959
58,1134802446,0.68786556,-0.04708512,-0.7242858,-0.0058494518,9.863727569580078,-0.3069922626018524,-0.6747565865516663,0.2868558168411255,2.3816285133361816, 2.2632977962493896
59,1134819113,0.6880323,-0.047286294,-0.7241151,-0.005741503,9.926274299621582,-0.33009669184684753,-0.6248416900634766,0.16225005686283112,1.755872130393982, 2.0918853282928467
60,1134835780,0.6881382,-0.047441673,-0.724005,-0.0056634247,9.890027046203613,-0.35710713267326355,-0.5845842361450195,0.17883425951004028,1.1848242282867432, 1.7136367559432983
61,1134852447,0.6881762,-0.047556616,-0.72396195,-0.005572021,9.864068031311035,-0.3910323977470398,-0.5518368482589722,0.40281733870506287,0.5276792645454407, 1.5585136413574219
62,1134869114,0.688357,-0.04781603,-0.7237737,-0.005491126,9.965538024902344,-0.4323446750640869,-0.46373745799064636,-0.15286941826343536,1.9110852479934692, 2.2753236293792725
63,1134885781,0.6885336,-0.048076767,-0.7235893,-0.0053835995,9.880087852478027,-0.386112779378891,-0.5431795716285706,0.009854487143456936,1.8441849946975708, 2.402132034301758
64,1134902448,0.68866676,-0.048278965,-0.72345006,-0.0052467054,9.88979434967041,-0.46275654435157776,-0.5234848260879517,0.30883148312568665,1.4099597930908203, 2.2433714866638184
65,1134919115,0.6887922,-0.04842843,-0.7233222,-0.005018362,9.90506649017334,-0.46423739194869995,-0.5102154612541199,0.9510186910629272,1.2876335382461548, 2.407651424407959
66,1134935782,0.688878,-0.048550386,-0.7232336,-0.004816549,9.875621795654297,-0.4295699894428253,-0.5590474009513855,1.0985989570617676,0.8986791372299194, 2.1180613040924072
67,1134952449,0.6888774,-0.04865347,-0.72322804,-0.0046984893,9.85075855255127,-0.432809054851532,-0.5773651003837585,0.7429603934288025,0.1048583984375, 1.5978611707687378
68,1134969116,0.6888332,-0.04875679,-0.7232634,-0.0046640574,9.89006233215332,-0.4559003710746765,-0.5010837316513062,0.29866328835487366,-0.2726471722126007, 1.1892937421798706
69,1134985783,0.6887935,-0.04875596,-0.72330195,-0.0045554773,9.881670951843262,-0.45888552069664,-0.5767138600349426,1.1555873155593872,-0.29308611154556274, 1.0204675197601318
70,1135002450,0.6888415,-0.04885747,-0.7232497,-0.004518497,9.986706733703613,-0.4870161712169647,-0.4381003677845001,0.313467413187027,0.5987672805786133, 1.2237427234649658
71,1135019117,0.6891206,-0.048923753,-0.72298044,-0.0043347105,10.082564353942871,-0.4954984486103058,-0.3662160336971283,1.3742685317993164,2.707691192626953, 1.8159594535827637
72,1135035784,0.68959695,-0.048839703,-0.7225339,-0.003971908,10.101225852966309,-0.4529842436313629,-0.4634486436843872,3.0102157592773438,4.453427314758301, 1.9812383651733398
73,1135052451,0.6904958,-0.04882744,-0.7216781,-0.003508599,10.14044189453125,-0.42472270131111145,-0.24087384343147278,3.2718498706817627,8.449804306030273, 2.968416213989258
74,1135069118,0.69181395,-0.04860484,-0.7204346,-0.0022592726,9.84376335144043,-0.48175665736198425,-0.5323013067245483,8.39180850982666,12.07612133026123, 5.8009161949157715
75,1135085785,0.6928739,-0.047313433,-0.71950495,0.000029742194,9.887561798095703,-0.2311972677707672,-0.9321733713150024,18.65394401550293,8.975298881530762, 5.340403079986572
76,1135102452,0.6937592,-0.045860793,-0.71874183,0.002288682,10.042627334594727,0.04766659066081047,-0.7636265158653259,19.226490020751953,7.3819684982299805, 4.375212669372559
77,1135119119,0.69468343,-0.044443563,-0.7179258,0.0047436366,9.972445487976074,-0.1742396503686905,-0.7127619981765747,20.235214233398438,7.788970470428467, 5.5546040534973145
78,1135135786,0.6955563,-0.04317828,-0.71713716,0.0071740975,9.999496459960938,0.010515030473470688,-0.5415387153625488,19.402631759643555,7.448126792907715, 6.216475009918213
79,1135152453,0.6963856,-0.041999813,-0.71637285,0.009656802,9.864645957946777,-0.37702542543411255,-0.3416355848312378,19.241947174072266,7.121090412139893, 6.944746971130371
80,1135169120,0.6972597,-0.040536832,-0.71556157,0.012557169,9.726357460021973,-0.26609355211257935,-0.480429083108902,22.73505401611328,7.421442985534668, 7.568063259124756
81,1135185787,0.6980753,-0.039465066,-0.7147766,0.015105138,9.734748840332031,-0.4052095413208008,-0.36278846859931946,19.10089874267578,7.155233383178711, 7.829052448272705
82,1135202454,0.69894004,-0.038614783,-0.7139156,0.017794965,10.01279354095459,-0.6570295691490173,0.013584584929049015,18.799301147460938,7.747592926025391, 9.628618240356445
83,1135219121,0.69979334,-0.03806533,-0.71304053,0.02033649,9.984720230102539,-0.45757201313972473,0.01246904768049717,16.63358497619629,7.804285049438477, 10.393579483032227
84,1135235788,0.7007416,-0.037735607,-0.71205884,0.022574391,10.034537315368652,-0.28517526388168335,-0.10838024318218231,14.090773582458496,8.869361877441406, 10.043668746948242
85,1135252455,0.7015493,-0.037734956,-0.7112063,0.024300292,9.976921081542969,-0.579616129398346,-0.32965683937072754,9.971973419189453,7.726800918579102, 9.21286392211914
86,1135269122,0.7022493,-0.03802214,-0.71045566,0.025554366,9.45974063873291,-0.7483206391334534,-0.449238121509552,6.175679683685303,6.894974231719971, 8.347970008850098
87,1135285789,0.7027675,-0.03815811,-0.70988405,0.026955146,9.384416580200195,-1.483033537864685,-0.4333181381225586,7.552556037902832,5.0995612144470215, 8.296040534973145
88,1135302456,0.7031218,-0.038019437,-0.7094875,0.028316671,9.650875091552734,-1.2141520977020264,-0.12664009630680084,8.64798355102539,3.4327239990234375, 6.678852558135986
89,1135319123,0.7033837,-0.037703767,-0.70919687,0.029492158,9.55841064453125,-1.325678825378418,-0.0031311302445828915,8.468708038330078,2.4889981746673584, 4.865934371948242
90,1135335790,0.7034278,-0.036565322,-0.709155,0.030845365,9.7821626663208,-1.1237074136734009,-0.07670672982931137,13.248476028442383,-0.005212186835706234, 1.6433436870574951
91,1135352457,0.7032345,-0.03544398,-0.7093662,0.031700723,9.586870193481445,-1.3047668933868408,0.22995609045028687,10.633302688598633,-2.2620763778686523, -0.7227907180786133
92,1135369124,0.7028526,-0.03276598,-0.7097693,0.033946414,9.63843822479248,-1.3116629123687744,-0.2577217221260071,24.83279037475586,-4.814929485321045, -1.643365740776062
93,1135385791,0.7022699,-0.02947962,-0.7103771,0.036226213,10.038643836975098,0.003344650147482753,-0.37610316276550293,27.812108993530273,-6.916229724884033, -4.491494178771973
94,1135402458,0.7015544,-0.026972845,-0.7111634,0.03661379,9.926704406738281,-0.46862053871154785,-0.05888793617486954,14.70285701751709,-7.822423458099365, -9.754262924194336
95,1135419125,0.7007127,-0.023795929,-0.7120682,0.03734302,10.023102760314941,-0.9994151592254639,-0.44859132170677185,19.55602264404297,-9.248611450195312, -11.348485946655273
96,1135435792,0.6996423,-0.021787625,-0.71322966,0.03646301,9.735553741455078,0.3636041581630707,0.12807823717594147,5.953480243682861,-11.015686988830566, -13.38508415222168
97,1135452459,0.6982918,-0.022120092,-0.7147124,0.032948244,9.261959075927734,-0.6673869490623474,0.7561090588569641,-18.373506546020508,-12.9769868850708, -14.472566604614258
98,1135469126,0.696463,-0.022198483,-0.7166149,0.030162748,9.499380111694336,-1.4962419271469116,0.8799878358840942,-13.660552024841309,-17.59765625, -12.185193061828613
99,1135485793,0.69387406,-0.021994997,-0.7192351,0.0274959,9.05887508392334,-1.3409433364868164,0.5862483382225037,-11.88790225982666,-24.95386505126953, -13.039670944213867
100,1135502460,0.69022506,-0.020799275,-0.7228435,0.02557683,9.216198921203613,-1.2403758764266968,1.1994104385375977,-3.7875359058380127,-35.278804779052734, -14.401864051818848
101,1135519127,0.6859079,-0.019719165,-0.72702724,0.023937006,9.674623489379883,-0.9903868436813354,1.312781810760498,-3.0766947269439697,-41.47426986694336, -12.539472579956055
102,1135535794,0.6807822,-0.019041946,-0.7318931,0.022482276,9.886453628540039,-1.661521553993225,-0.8572641015052795,-4.32918643951416,-48.82543182373047, -9.660593032836914
103,1135552461,0.67501307,-0.019483907,-0.7372851,0.019712709,10.66423225402832,1.1328917741775513,-0.6177436113357544,-16.31045913696289,-54.158477783203125, -10.26093864440918
104,1135569128,0.66885376,-0.020363435,-0.74294245,0.01602371,13.290145874023438,0.1982841193675995,-1.814902424812317,-23.151870727539062,-57.19486999511719, -12.174641609191895
105,1135585795,0.66262543,-0.018493507,-0.74859136,0.014028769,14.276315689086914,-0.8415292501449585,-0.9271755218505859,-2.1943066120147705,-57.98391342163086, -18.334959030151367
106,1135602462,0.65846187,-0.017496195,-0.75233126,0.010946408,17.531850814819336,0.12069065868854523,2.9578325748443604,-11.218477249145508,-38.486698150634766, -18.79557228088379
107,1135619129,0.65679425,-0.020557268,-0.7537593,0.0067588617,19.610641479492188,-1.4073628187179565,2.544919729232788,-35.02838134765625,-15.053427696228027, -2.6453187465667725
108,1135635796,0.65551716,-0.028297188,-0.75465024,-0.0000024962937,15.54641056060791,-3.5553033351898193,0.25224214792251587,-69.8252182006836,-10.394357681274414, 10.014175415039062
109,1135652463,0.65411115,-0.03904202,-0.7553672,-0.0058893613,8.527761459350586,-6.607157230377197,-3.63836669921875,-79.21044921875,-10.604376792907715, 29.369705200195312
110,1135669130,0.6528191,-0.052362327,-0.7556126,-0.011624612,7.59838342666626,-5.63799524307251,-6.144559383392334,-90.73057556152344,-7.795657634735107, 43.1693115234375
111,1135685797,0.6522814,-0.06806619,-0.75471425,-0.01739476,10.537629127502441,-7.297097206115723,-3.3343584537506104,-100.708251953125,1.4517890214920044, 55.358890533447266
112,1135702464,0.6540044,-0.074608535,-0.7527561,-0.008377339,9.354390144348145,-10.958901405334473,-3.3271279335021973,17.9793758392334,12.26882553100586, 74.42024993896484
113,1135719131,0.65891427,-0.07080591,-0.7486871,0.016916849,7.201942443847656,-5.909279823303223,-2.3612332344055176,150.17779541015625,30.613407135009766, 94.6231689453125
114,1135735798,0.66583145,-0.06641837,-0.7419898,0.041331276,8.03165340423584,1.811582326889038,-2.4615163803100586,149.24273681640625,53.27344512939453, 88.3735580444336
115,1135752465,0.6733444,-0.06866515,-0.7342145,0.053118344,7.7767109870910645,5.191948413848877,-4.483281135559082,56.07689666748047,68.79788208007812, 64.8612060546875
116,1135769132,0.67951083,-0.07743202,-0.72764647,0.05291533,5.573858261108398,3.0231573581695557,-5.478840351104736,-35.249481201171875,64.64070892333984, 42.65633010864258
117,1135785799,0.6838121,-0.083147265,-0.7228779,0.05417919,3.076559543609619,-1.333522081375122,-6.046912670135498,-15.282132148742676,45.379974365234375, 34.2914924621582
118,1135802466,0.6857974,-0.081296526,-0.7204586,0.0633422,3.9087464809417725,-0.3984125256538391,-7.6566290855407715,57.450321197509766,15.878950119018555, 33.31559753417969
119,1135819133,0.6841306,-0.079648055,-0.7214289,0.07184834,6.184606552124023,2.298261880874634,-6.8901591300964355,48.9306755065918,-17.063745498657227, 30.994657516479492
120,1135835800,0.6797103,-0.08006061,-0.7248323,0.07875543,6.023365497589111,2.784364938735962,-5.195224761962891,28.704004287719727,-39.8459587097168, 33.97202682495117
121,1135852467,0.67391014,-0.08294048,-0.72942483,0.08309899,4.17133092880249,4.061206340789795,-3.7213926315307617,3.0864529609680176,-49.226295471191406, 34.666236877441406
122,1135869134,0.66818565,-0.08679836,-0.73385894,0.086285904,3.1398985385894775,3.9802229404449463,-0.9310771226882935,-7.027210235595703,-46.688873291015625, 34.609554290771484
123,1135885801,0.66326296,-0.08991988,-0.73755056,0.089532115,1.7082496881484985,5.005496025085449,1.2213325500488281,-2.3783528804779053,-39.690792083740234, 31.458574295043945
124,1135902468,0.65830266,-0.09358114,-0.7413038,0.09137329,2.6706690788269043,5.520195960998535,0.8916995525360107,-12.002650260925293,-39.08832931518555, 28.138633728027344
125,1135919135,0.6525403,-0.10065189,-0.7460516,0.08641463,3.2219340801239014,3.9518587589263916,4.22653865814209,-63.1988525390625,-41.2786979675293, 15.030135154724121
126,1135935802,0.64193916,-0.0959754,-0.75382894,0.10219971,13.299513816833496,-16.623674392700195,-3.8526644706726074,90.75201416015625,-101.36444854736328, 48.91378402709961
127,1135952469,0.63186526,-0.0832241,-0.76046365,0.12455998,16.959169387817383,3.635359525680542,7.397523880004883,161.56024169921875,-103.49609375, 35.537540435791016
128,1135969136,0.62029374,-0.09176793,-0.7690841,0.123791486,9.927830696105957,-0.11641523241996765,0.7395089864730835,-54.540000915527344,-89.16064453125, 47.080116271972656
129,1135985803,0.6101292,-0.09034466,-0.7760441,0.13166639,14.669132232666016,-3.448204755783081,-3.0148799419403076,35.98240661621094,-88.76836395263672, 31.26755714416504
130,1136002470,0.6035707,-0.08216012,-0.7800155,0.14327621,12.062705039978027,-5.421093463897705,-4.5415143966674805,89.25048828125,-65.44654083251953, 9.511772155761719
131,1136019137,0.60053694,-0.08083611,-0.78148764,0.14865437,26.129995346069336,-8.976503372192383,2.698497772216797,31.829559326171875,-25.78740692138672, 18.278472900390625
132,1136035804,0.6002266,-0.08555017,-0.7823982,0.14234605,32.04116439819336,7.836624622344971,-5.177130222320557,-53.36006164550781,3.0068137645721436, -0.16479375958442688
133,1136052471,0.60333204,-0.08028914,-0.78017277,0.14448048,11.734047889709473,-6.650059223175049,-9.689229965209961,38.33124542236328,19.451194763183594, -19.245210647583008
134,1136069138,0.6120511,-0.076901376,-0.7741956,0.14177676,16.249399185180664,-5.342736721038818,-6.0405144691467285,12.062685012817383,69.89810180664062, -33.06151580810547
135,1136085805,0.62531304,-0.0745334,-0.76549476,0.13208425,19.196853637695312,-4.228582859039307,-0.7741451263427734,-24.20835304260254,110.32430267333984, -60.02641296386719
136,1136102472,0.64179695,-0.07211181,-0.753233,0.12464642,13.956777572631836,-6.096159934997559,-0.8900116682052612,-7.1844096183776855,141.152587890625, -51.57600021362305
137,1136119139,0.65569854,-0.0680909,-0.7427202,0.11743012,6.463867664337158,-5.915783882141113,-2.337475538253784,-1.9192259311676025,118.51614379882812, -57.60100173950195
138,1136135806,0.6645857,-0.06987708,-0.7361369,0.107450195,2.222989559173584,-4.456052303314209,-4.948083877563477,-47.98676300048828,81.33423614501953, -38.402626037597656
139,1136152473,0.6672187,-0.07772116,-0.734343,0.09756773,2.3479361534118652,-9.674962043762207,-11.420684814453125,-81.73221588134766,32.52043151855469, -5.198956489562988
140,1136169140,0.6605494,-0.08830035,-0.7399545,0.09135272,7.76827335357666,-4.293299198150635,-15.974013328552246,-85.44612121582031,-47.8819465637207, 27.149572372436523
141,1136185807,0.6456531,-0.10015231,-0.7519226,0.08782924,2.982503890991211,-4.574551582336426,-12.455181121826172,-87.47288513183594,-118.20866394042969, 47.189083099365234
142,1136202474,0.626429,-0.10719055,-0.7667643,0.09038463,3.474471092224121,0.2855866551399231,-3.228440284729004,-39.191097259521484,-159.71588134765625, 49.71778869628906
143,1136219141,0.60608757,-0.111658365,-0.78186786,0.094196476,4.59952449798584,4.144260406494141,-0.6753177642822266,-22.379100799560547,-169.144775390625, 42.14268493652344
144,1136235808,0.58638054,-0.112641,-0.79582053,0.10069561,2.9043216705322266,0.8786060214042664,2.274031639099121,7.945496082305908,-165.32943725585938, 35.36771011352539
145,1136252475,0.57044077,-0.10635389,-0.8062092,0.11538233,0.48141905665397644,0.7399862408638,6.586393356323242,87.46385955810547,-141.9342498779297, 28.76605987548828
146,1136269142,0.56133235,-0.09806985,-0.81200516,0.12623869,-1.6887588500976562,9.011396408081055,12.320406913757324,82.6102066040039,-85.23793029785156, 0.5627837181091309
147,1136285809,0.5621181,-0.09543156,-0.8122212,0.123340145,-2.9438822269439697,6.936558246612549,13.42128849029541,-4.515888690948486,5.025908946990967, -25.390031814575195
148,1136302476,0.5550141,-0.09973597,-0.8160512,0.12677869,4.891816139221191,-20.241971969604492,-31.712095260620117,-4.310251235961914,-52.00104522705078, 42.500160217285156
149,1136319143,0.54588044,-0.09834894,-0.8212404,0.13381484,28.676183700561523,2.7331016063690186,13.27499008178711,35.19510269165039,-74.30683898925781, 24.07802963256836
150,1136335810,0.53521264,-0.10589013,-0.82768756,0.13140844,3.7524008750915527,-1.829136610031128,1.643511414527893,-53.99708938598633,-74.54620361328125, 40.30968475341797
151,1136352477,0.52576756,-0.10582524,-0.83227617,0.1403072,27.018753051757812,-1.9725511074066162,-3.4379923343658447,40.84286117553711,-76.05438232421875, 38.824745178222656
152,1136369144,0.51908493,-0.099787585,-0.8352163,0.15168083,16.848649978637695,-1.2656069993972778,-7.315114974975586,80.2387924194336,-62.34872055053711, 12.561412811279297
153,1136385811,0.5167678,-0.09339625,-0.83580786,0.16016786,19.918821334838867,-8.836877822875977,-6.037015914916992,70.4958267211914,-27.306751251220703, -2.4343698024749756
154,1136402478,0.5193078,-0.09183146,-0.8342495,0.16097951,21.827638626098633,-9.13115406036377,-3.919804811477661,14.625029563903809,18.29984474182129, -5.974520206451416
155,1136419145,0.5262324,-0.09519786,-0.8310542,0.15285866,20.055856704711914,-6.398290634155273,-5.066019058227539,-49.80350112915039,60.021244049072266, -13.404457092285156
156,1136435812,0.53698695,-0.09651784,-0.82563424,0.14372745,19.260818481445312,-3.62077260017395,-4.426606178283691,-43.41621780395508,88.20419311523438, -31.2261905670166
157,1136452479,0.5523761,-0.09538991,-0.8172971,0.1334431,16.78941535949707,-2.1013002395629883,-2.2800989151000977,-35.01840591430664,123.38292694091797, -51.815185546875
158,1136469146,0.5717682,-0.09507848,-0.8057838,0.1214655,11.228693962097168,-1.936242938041687,-0.3164657652378082,-42.17621994018555,159.5302276611328, -55.03472137451172
159,1136485813,0.588918,-0.096051864,-0.79489636,0.10995261,3.654538869857788,-3.055241346359253,-3.310133695602417,-46.75585174560547,145.1792449951172, -44.54120635986328
160,1136502480,0.6018917,-0.097240865,-0.7864075,0.0991665,0.7464858889579773,-3.1094491481781006,-5.768529415130615,-48.290428161621094,112.428955078125, -38.97602462768555
161,1136519147,0.6103144,-0.10095071,-0.78048986,0.09033768,2.209836959838867,-6.326923847198486,-7.324167251586914,-54.290870666503906,78.27667999267578, -15.698948860168457
162,1136535814,0.6157815,-0.103510715,-0.7763196,0.08617806,4.937961101531982,-3.0642800331115723,-3.1349527835845947,-27.552658081054688,51.5002326965332, -2.015244483947754
163,1136552481,0.62102175,-0.10601585,-0.7723257,0.08127718,2.402406692504883,2.4199438095092773,-1.3863495588302612,-31.430622100830078,50.10084533691406, -5.594908714294434
164,1136569148,0.62598836,-0.110701375,-0.76838636,0.073937185,1.8305405378341675,1.0171159505844116,-2.0422699451446533,-53.946170806884766,51.445648193359375, -4.160250186920166
165,1136585815,0.62976915,-0.115596324,-0.76497936,0.069535516,0.4321260154247284,-2.547339916229248,-3.302323341369629,-40.467735290527344,40.825233459472656, 9.84653091430664
166,1136602482,0.6313737,-0.11471251,-0.7634199,0.073474646,0.21452747285366058,-2.1427760124206543,-5.764653205871582,25.831045150756836,12.171818733215332, 14.975319862365723
167,1136619149,0.6283988,-0.11469694,-0.7655151,0.07711342,0.3829731047153473,0.17844930291175842,-6.317119121551514,16.284250259399414,-27.029373168945312, 17.29534149169922
168,1136635816,0.6205943,-0.11901162,-0.77118796,0.07725488,0.3268863558769226,-1.4384219646453857,-3.2741851806640625,-26.433162689208984,-62.5018310546875, 24.720439910888672
169,1136652483,0.6115545,-0.12396032,-0.7776632,0.07664852,0.35491928458213806,-1.0404136180877686,0.6617946624755859,-34.48670196533203,-71.36358642578125, 24.80299949645996
170,1136669150,0.598972,-0.122232005,-0.78609073,0.09139737,4.5228047370910645,-9.777969360351562,-5.855785369873047,71.65689086914062,-115.17449188232422, 53.790279388427734
171,1136685817,0.5835212,-0.114238575,-0.7959844,0.11340786,19.64333152770996,0.5855101346969604,-0.2676684856414795,133.37692260742188,-146.4998016357422, 49.88718032836914
172,1136702484,0.57106686,-0.11187653,-0.80344844,0.12584457,12.018148422241211,0.8272728323936462,0.8333481550216675,62.67048263549805,-108.73816680908203, 42.20157241821289
173,1136719151,0.5584822,-0.11278528,-0.8103291,0.13690846,17.908117294311523,-0.6251251101493835,-1.0211485624313354,42.67999267578125,-103.54417419433594, 55.680084228515625
174,1136735818,0.5487603,-0.11030869,-0.81529987,0.14825754,19.316532135009766,-4.174681663513184,-5.831215858459473,61.32502365112305,-83.9569320678711, 36.99301528930664
175,1136752485,0.5438728,-0.108108506,-0.81736743,0.15628652,18.944913864135742,-6.652706623077393,-6.191134929656982,48.34891128540039,-43.18290328979492, 23.452566146850586
176,1136769152,0.5438065,-0.110691324,-0.8172929,0.15509538,21.853002548217773,-7.594200611114502,-4.504790306091309,-15.472371101379395,3.831671714782715, 12.318387031555176
177,1136785819,0.5484914,-0.11479882,-0.81505597,0.14718038,20.747961044311523,-6.279000282287598,-4.892476558685303,-53.112342834472656,45.10249710083008, -7.598138332366943
178,1136802486,0.5576631,-0.11825987,-0.810214,0.13630816,19.436471939086914,-4.27999210357666,-3.666896104812622,-61.13230514526367,81.53534698486328, -24.744556427001953
179,1136819153,0.5700379,-0.12053125,-0.8033309,0.12324305,16.81909942626953,-2.4250733852386475,-2.248218536376953,-64.33390808105469,107.6371841430664, -40.95693588256836
180,1136835820,0.5861922,-0.12144837,-0.79375964,0.10758677,13.757041931152344,-0.5901539325714111,-0.665260374546051,-68.0008773803711,139.81556701660156, -59.38808059692383
181,1136852487,0.60422,-0.12307106,-0.78199846,0.090831295,7.69794225692749,-0.9032015800476074,-0.3990207612514496,-73.74455261230469,160.06884765625, -59.336605072021484
182,1136869154,0.6176678,-0.123902164,-0.77270687,0.0778402,0.2604488730430603,-3.7325050830841064,-4.986846923828125,-55.71331787109375,121.36721801757812, -47.136497497558594
183,1136885821,0.6266183,-0.12049865,-0.7664932,0.0729241,-0.3485424220561981,-5.6736345291137695,-7.737207889556885,-2.404144525527954,76.07936096191406, -35.34090805053711
184,1136902488,0.6311463,-0.11636374,-0.7633851,0.07319137,3.3478360176086426,-6.846785068511963,-7.825735569000244,23.3056583404541,35.04048156738281, -17.663516998291016
185,1136919155,0.6331362,-0.10971309,-0.7623505,0.07696392,4.890709400177002,0.6731837391853333,-2.914159059524536,49.66472244262695,9.032733917236328, -16.40110206604004
186,1136935822,0.6344992,-0.10844498,-0.7618448,0.07240731,2.0831172466278076,3.4945929050445557,-0.08147063851356506,-17.775896072387695,12.588144302368164, -24.490379333496094
187,1136952489,0.6366195,-0.10870342,-0.76050884,0.06727152,1.4416766166687012,1.0983476638793945,0.239829882979393,-26.71561050415039,21.38970947265625, -18.540952682495117
188,1136969156,0.6383976,-0.10840911,-0.759129,0.06647712,0.7859854102134705,-3.5693612098693848,-0.22270731627941132,-1.7453534603118896,16.229188919067383, -2.199838399887085
189,1136985823,0.6376699,-0.10614676,-0.75951487,0.072437994,0.48407474160194397,-3.241176128387451,-3.1717782020568848,39.68069076538086,-10.56938362121582, 16.767091751098633
190,1137002490,0.6330502,-0.10127425,-0.763096,0.0817045,-0.4001442492008209,0.35087403655052185,-5.803915977478027,64.15315246582031,-48.46373748779297, 17.026914596557617
191,1137019157,0.62338656,-0.10445002,-0.77072287,0.080410615,-0.07134523242712021,1.446019172668457,-5.766395092010498,-31.77423095703125,-80.3900146484375, 13.277603149414062
192,1137035824,0.60669035,-0.10861378,-0.7827073,0.0865985,4.534773826599121,-13.760692596435547,-5.670955181121826,-4.571627140045166,-140.64573669433594, 51.613853454589844
193,1137052491,0.59064007,-0.097618744,-0.79281384,0.114286296,17.506502151489258,0.7914592623710632,-0.30207863450050354,176.05023193359375,-154.17889404296875, 60.078182220458984
194,1137069158,0.57728475,-0.0942815,-0.80114263,0.1265868,11.855368614196777,2.284938097000122,-1.1202839612960815,64.62284851074219,-116.18673706054688, 38.6142692565918
195,1137085825,0.56550246,-0.094477825,-0.80787045,0.13647926,17.666709899902344,-2.9372756481170654,-1.7932922840118408,40.96083450317383,-97.01292419433594, 48.13178253173828
196,1137102492,0.55802435,-0.09463673,-0.8119909,0.14255987,21.55353546142578,-6.583101749420166,-4.25527286529541,25.183324813842773,-60.74135208129883, 30.890090942382812
197,1137119159,0.55563605,-0.09567768,-0.81301415,0.14533602,19.122709274291992,-7.382696151733398,-4.961912155151367,9.66901969909668,-17.61305809020996, 20.211671829223633
198,1137135826,0.5573287,-0.098868765,-0.81206346,0.14199553,23.888731002807617,-5.883467674255371,-3.848574161529541,-28.128108978271484,18.787765502929688, 6.068703651428223
199,1137152493,0.5626096,-0.10245193,-0.8093602,0.13382892,22.13788414001465,-5.229578495025635,-3.01505970954895,-52.48200607299805,48.9251594543457, -12.401978492736816
200,1137169160,0.5717849,-0.10546699,-0.8041865,0.12338014,18.562393188476562,-3.997117042541504,-2.718092918395996,-58.03834533691406,80.95857238769531, -26.104022979736328
201,1137185827,0.5839231,-0.10771455,-0.797017,0.1104327,15.066706657409668,-2.54154109954834,-1.7528917789459229,-65.06083679199219,106.13524627685547, -41.130123138427734
202,1137202494,0.5986268,-0.10988408,-0.7877946,0.09461143,10.4992036819458,-1.9650671482086182,-1.2576091289520264,-77.1040267944336,130.321533203125, -53.42913055419922
203,1137219161,0.61573833,-0.1085119,-0.77634144,0.07991088,6.599953651428223,-0.9462870359420776,-1.3066279888153076,-53.251861572265625,149.28271484375, -67.84960174560547
204,1137235828,0.6314178,-0.10916289,-0.7647615,0.06734344,2.214986562728882,-3.0988576412200928,-2.512010097503662,-51.483646392822266,141.6573944091797, -47.11943435668945
205,1137252495,0.6415939,-0.10857195,-0.7568035,0.061790667,0.22450120747089386,-5.605066299438477,-8.09717845916748,-16.76523208618164,91.63197326660156, -23.240036010742188
206,1137269162,0.6459481,-0.104160644,-0.7535435,0.063826784,2.993464469909668,-6.003683567047119,-9.986631393432617,33.93193435668945,33.591312408447266, -11.09479808807373
207,1137285829,0.6460357,-0.099342875,-0.7536255,0.06940816,4.358176231384277,-1.6127058267593384,-7.6877522468566895,50.241031646728516,-5.703820705413818, 1.6604799032211304
208,1137302496,0.64284724,-0.09688064,-0.75637734,0.07249269,2.909522294998169,0.8937114477157593,-4.151791572570801,23.681827545166016,-31.40496063232422, 2.435889720916748
209,1137319163,0.6394614,-0.097072095,-0.75909996,0.073712625,1.0951309204101562,2.3770248889923096,0.5534025430679321,2.1228325366973877,-29.53858757019043, 8.190053939819336
210,1137335830,0.63553673,-0.09922312,-0.7620347,0.07450563,0.3465375602245331,0.6096528172492981,-1.8133697509765625,-9.271124839782715,-32.02783203125, 16.80574607849121
211,1137352497,0.6293479,-0.101418726,-0.7666806,0.07639655,0.5617499351501465,-0.8305407166481018,-2.126150131225586,-6.57380485534668,-51.90659713745117, 21.932140350341797
212,1137369164,0.6214628,-0.09954257,-0.77264875,0.08300239,-0.07563628256320953,-0.5711807012557983,-2.829953670501709,33.86272430419922,-71.85063934326172, 20.834333419799805
213,1137385831,0.6118939,-0.0982223,-0.7800171,0.08667112,-0.43428903818130493,0.9403980374336243,-3.5088465213775635,14.011824607849121,-84.31465911865234, 11.20018196105957
214,1137402498,0.59696835,-0.09466755,-0.79011095,0.1019396,4.412537097930908,-13.630438804626465,-8.647469520568848,79.87773895263672,-133.34567260742188, 49.54362487792969
215,1137419165,0.58217967,-0.08252695,-0.7983162,0.13018274,19.763015747070312,0.18961301445960999,2.4337687492370605,187.34341430664062,-139.0189971923828, 56.59586715698242
216,1137435832,0.57077557,-0.08077379,-0.8049289,0.14064386,9.850790023803711,-0.08605094254016876,0.7759547829627991,52.175193786621094,-95.23434448242188, 40.363304138183594
217,1137452499,0.5603704,-0.08348474,-0.81088835,0.1465454,20.457860946655273,0.8364790081977844,-1.0826826095581055,10.515093803405762,-80.44503021240234, 46.74098587036133
218,1137469166,0.5538696,-0.08355494,-0.8145949,0.15060651,23.42463493347168,-4.370500564575195,-5.375432968139648,15.600696563720703,-52.095298767089844, 22.433019638061523
219,1137485833,0.5517452,-0.08052929,-0.8151269,0.1570363,21.56346893310547,-5.175199508666992,-4.326582908630371,46.485294342041016,-20.21930694580078, 11.580924987792969
220,1137502500,0.55348605,-0.08298864,-0.81423026,0.15425692,25.66151237487793,-5.083672523498535,-2.1833603382110596,-22.289005279541016,17.709701538085938, 4.132742404937744
221,1137519167,0.5584893,-0.08859414,-0.812096,0.14401677,21.366291046142578,-6.852581024169922,-2.1200597286224365,-72.91664123535156,47.91160202026367, -9.206619262695312
222,1137535834,0.5668963,-0.094025515,-0.80780166,0.13131759,17.726381301879883,-4.5281548500061035,-1.4150726795196533,-81.8704833984375,76.24057006835938, -21.648792266845703
223,1137552501,0.57779497,-0.097384855,-0.80183566,0.11717054,13.69689655303955,-2.9627528190612793,-0.6809945106506348,-78.81703186035156,95.41130065917969, -39.9146614074707
224,1137569168,0.5922761,-0.09614524,-0.7932161,0.103794985,9.763270378112793,-1.4098457098007202,0.14040841162204742,-51.834659576416016,121.28499603271484, -63.273555755615234
225,1137585835,0.6079591,-0.09656793,-0.7827947,0.0910655,4.296432971954346,-3.0642213821411133,-1.132387399673462,-53.08645248413086,135.7871551513672, -51.199485778808594
226,1137602502,0.61754006,-0.0926906,-0.776266,0.08639414,-1.0490902662277222,-6.800919055938721,-7.1745500564575195,0.5763719081878662,78.89447784423828, -39.2873420715332
227,1137619169,0.6233783,-0.08425107,-0.77201515,0.09107236,1.650935411453247,-7.846601963043213,-7.298256874084473,67.19223022460938,40.68910217285156, -23.727066040039062
228,1137635836,0.62842077,-0.07466947,-0.76791775,0.099066764,6.007215976715088,1.7300254106521606,-0.40099185705184937,90.02931213378906,33.319969177246094, -15.661150932312012
229,1137652503,0.63483196,-0.07337902,-0.76308584,0.09645756,2.708242654800415,4.175551891326904,0.06394978612661362,-0.018108388409018517,54.67087173461914, -18.184932708740234
230,1137669170,0.64205956,-0.07696217,-0.75751144,0.08951535,1.0810093879699707,-0.3502408564090729,-0.12089892476797104,-42.8643684387207,67.54077911376953, -11.500545501708984
231,1137685837,0.648863,-0.083742805,-0.7516772,0.08333928,0.9638700485229492,-1.8943380117416382,-0.9608202576637268,-53.221309661865234,68.06278991699219, 8.953739166259766
232,1137702504,0.65193313,-0.09115015,-0.74863404,0.07887971,0.1430031955242157,-1.9293266534805298,-9.037108421325684,-51.1180534362793,35.75440216064453, 20.32611656188965
233,1137719171,0.64845616,-0.09659953,-0.75125086,0.07612828,-0.800391435623169,-1.1844316720962524,-10.543158531188965,-41.00067138671875,-24.97414779663086, 17.85133171081543
234,1137735838,0.6379856,-0.103856385,-0.7595818,0.07227573,0.0028731077909469604,-0.6534050703048706,-8.171314239501953,-62.494407653808594,-84.38520812988281, 22.09034538269043
235,1137752505,0.6222985,-0.109962784,-0.7716921,0.07172309,2.461848258972168,-6.485508918762207,0.6544569134712219,-47.02014923095703,-130.5044403076172, 30.61396598815918
236,1137769172,0.6069094,-0.10374599,-0.78244567,0.09314947,10.748867988586426,-2.6574060916900635,-1.916042447090149,122.58797454833984,-145.71800231933594, 60.01962661743164
237,1137785839,0.59051347,-0.10208372,-0.7937043,0.104434036,24.338302612304688,3.592686891555786,-0.160605788230896,48.18754959106445,-143.13446044921875, 42.45994567871094
238,1137802506,0.578578,-0.09745434,-0.8012172,0.11747853,13.420023918151855,-2.2618675231933594,-3.465996265411377,76.82648468017578,-107.52180480957031, 33.00250244140625
239,1137819173,0.56969607,-0.09150221,-0.8062694,0.13039781,21.048688888549805,-1.8816249370574951,-4.766970157623291,85.4728775024414,-81.91315460205078, 24.45313262939453
240,1137835840,0.5661461,-0.08984184,-0.8080739,0.13573454,19.70963478088379,-6.905073642730713,-5.647120475769043,32.9459228515625,-31.10342788696289, 15.9974946975708
241,1137852507,0.5679244,-0.092248574,-0.80686146,0.13389148,22.95803451538086,-7.490879058837891,-4.094969272613525,-16.69161605834961,18.414798736572266, 7.524932384490967
242,1137869174,0.5745514,-0.098323375,-0.8030615,0.123756535,21.310344696044922,-6.056619644165039,-3.215937614440918,-71.62777709960938,63.868656158447266, -7.3072590827941895
243,1137885841,0.5852682,-0.104014546,-0.7964849,0.11069761,19.976015090942383,-4.427668571472168,-2.2414345741271973,-81.20809173583984,98.8738784790039, -22.53329086303711
244,1137902508,0.59950304,-0.10730948,-0.7873087,0.096052624,15.901045799255371,-2.4430105686187744,-1.009286642074585,-75.82931518554688,127.71121978759766, -42.78373718261719
245,1137919175,0.61633235,-0.10736348,-0.77588344,0.08131749,11.370133399963379,-0.8736435174942017,0.06820034980773926,-59.630741119384766,148.78208923339844, -60.67096710205078
246,1137935842,0.63310754,-0.10675436,-0.7636231,0.068252034,5.20831298828125,-1.40568208694458,-0.9334924817085266,-48.682926177978516,150.5447235107422, -56.206329345703125
247,1137952509,0.64473194,-0.10733324,-0.75445396,0.059997387,1.8312981128692627,-4.6541643142700195,-5.598959445953369,-32.902774810791016,106.82675170898438, -29.08064079284668
248,1137969176,0.65016794,-0.106608585,-0.75002176,0.05817029,2.6956517696380615,-4.4723801612854,-9.501826286315918,-0.040583666414022446,48.6168098449707, -8.519829750061035
249,1137985843,0.65031904,-0.104773924,-0.7500181,0.059836306,3.8755886554718018,-1.0429408550262451,-6.588803291320801,17.372220993041992,-1.050275444984436, 0.06479378044605255
250,1138002510,0.64737076,-0.10134761,-0.7527499,0.0633049,2.7212464809417725,-0.030805442482233047,-4.884555816650391,30.280704498291016,-30.91399383544922, -0.7736751437187195
251,1138019177,0.6436927,-0.0957835,-0.7561474,0.06875128,1.9848757982254028,0.7352981567382812,-1.4279758930206299,49.50735092163086,-39.80947494506836, -3.2004802227020264
252,1138035844,0.6403566,-0.08989696,-0.7590762,0.07526924,0.7985709309577942,0.3213704228401184,-0.014090312644839287,57.149715423583984,-36.7921257019043, 0.016501247882843018
253,1138052511,0.6374618,-0.08395398,-0.76140475,0.082808025,0.04919680953025818,0.0678328424692154,0.6102721095085144,63.518798828125,-32.538368225097656, 4.326632499694824
254,1138069178,0.6337235,-0.07989878,-0.764258,0.0889973,-0.28638580441474915,0.5699253678321838,-3.0041277408599854,47.66494369506836,-37.471065521240234, 8.40930461883545
255,1138085845,0.6275764,-0.081492744,-0.76925737,0.08803403,0.026625171303749084,2.3967249393463135,-3.2025833129882812,-16.938127517700195,-52.01142501831055, 7.186225891113281
256,1138102512,0.62000716,-0.086878926,-0.77519786,0.08433062,-1.0100847482681274,-5.697966575622559,-5.133480548858643,-49.64777374267578,-59.539859771728516, 15.918611526489258
257,1138119179,0.6024898,-0.081975915,-0.78689915,0.105242185,8.210519790649414,-14.609346389770508,-15.009834289550781,115.51285552978516,-157.45445251464844, 68.20065307617188
258,1138135846,0.58746314,-0.06959368,-0.795672,0.13019255,21.172897338867188,3.351522207260132,8.199187278747559,171.9666290283203,-139.0308074951172, 43.74372863769531
259,1138152513,0.57480896,-0.06757817,-0.8032218,0.14093587,11.2465181350708,0.5315044522285461,0.9575523734092712,55.251060485839844,-105.76124572753906, 41.664817810058594
260,1138169180,0.56495965,-0.07360384,-0.80931777,0.14285675,22.523822784423828,0.15351195633411407,-3.4557435512542725,-22.713748931884766,-72.76762390136719, 49.341827392578125
261,1138185847,0.5596253,-0.07377481,-0.81236964,0.14639837,20.603389739990234,-6.03658390045166,-5.9916605949401855,13.976337432861328,-42.44677734375, 20.56467056274414
262,1138202514,0.55935264,-0.07127194,-0.81166285,0.1524754,21.645618438720703,-5.36906623840332,-3.0478172302246094,44.90756607055664,-3.7888002395629883, 12.182830810546875
263,1138219181,0.563305,-0.075538404,-0.80952793,0.1471269,23.77366828918457,-6.906583309173584,-0.5906616449356079,-40.99723815917969,37.674346923828125, 2.250542163848877
264,1138235848,0.5706343,-0.0819393,-0.8057238,0.13591015,20.17997169494629,-7.199936866760254,-0.27762535214424133,-78.7143325805664,67.86769104003906, -11.052624702453613
265,1138252515,0.580918,-0.087507784,-0.79997855,0.12211048,16.989347457885742,-4.256054878234863,-0.26570576429367065,-86.70668029785156,92.3515853881836, -27.392520904541016
266,1138269182,0.59450775,-0.089433566,-0.791691,0.108571224,12.541296005249023,-1.066429615020752,-0.5120213627815247,-67.32813262939453,117.43222045898438, -47.43708419799805
267,1138285849,0.61059946,-0.08826048,-0.7811514,0.09581736,7.876990795135498,0.6726875305175781,-0.5222419500350952,-46.76319885253906,137.20242309570312, -61.626434326171875
268,1138302516,0.6245607,-0.08876144,-0.77103716,0.08687386,1.6308972835540771,-4.029211044311523,-5.327728748321533,-34.24040603637695,122.53759765625, -35.54436111450195
269,1138319183,0.6329349,-0.083943404,-0.76454055,0.08845702,1.867594838142395,-6.118973731994629,-8.886377334594727,39.212623596191406,67.8995361328125, -17.602445602416992
270,1138335850,0.6376051,-0.07552784,-0.7606134,0.09603649,4.0266032218933105,-1.7667418718338013,-5.755056381225586,83.01313781738281,31.885221481323242, -9.892250061035156
271,1138352517,0.6421311,-0.0717945,-0.7569552,0.09763262,4.031303882598877,5.797869682312012,-0.3109908401966095,31.14173126220703,36.32554244995117, -11.72148323059082
272,1138369184,0.6473601,-0.073296845,-0.753199,0.09079552,1.3164836168289185,4.212399959564209,0.11125212162733078,-35.384971618652344,48.07778549194336, -21.872312545776367
273,1138385851,0.652817,-0.076277,-0.7490398,0.0833743,1.629531979560852,-0.13203014433383942,0.9189614653587341,-44.56593704223633,52.241703033447266, -16.5914306640625
274,1138402518,0.6566416,-0.07999838,-0.745872,0.07808497,1.1131786108016968,-1.4468384981155396,-2.2164323329925537,-38.41611099243164,38.65285873413086, -2.7774832248687744
275,1138419185,0.6563764,-0.08244164,-0.7460983,0.0755701,0.3364810049533844,-1.5886873006820679,-8.02783203125,-22.598121643066406,0.23570767045021057, 3.4780759811401367
276,1138435852,0.6515373,-0.08482797,-0.75028175,0.0733542,0.07415562868118286,0.41779378056526184,-6.209362506866455,-25.378976821899414,-40.995758056640625, 4.590762138366699
277,1138452519,0.64145243,-0.09042214,-0.75841767,0.07187167,-0.751072883605957,-9.627466201782227,-9.041162490844727,-41.32206344604492,-84.29015350341797, 24.788022994995117
278,1138469186,0.62459564,-0.08742062,-0.7707357,0.09057867,7.32503604888916,-8.277135848999023,-6.105104923248291,94.8333969116211,-154.3695831298828, 69.47242736816406
279,1138485853,0.6080488,-0.08472999,-0.7822039,0.10608814,17.376039505004883,1.1231815814971924,4.75178337097168,77.21843719482422,-146.77049255371094, 57.44142150878906
280,1138502520,0.59308517,-0.08549748,-0.7920174,0.11682723,11.37813949584961,-2.7489614486694336,-0.9887630343437195,39.10976028442383,-126.32201385498047, 56.10966491699219
281,1138519187,0.58129436,-0.08357139,-0.79923105,0.12783785,17.082015991210938,-1.1454442739486694,-4.469488143920898,55.33775329589844,-100.78247833251953, 41.581363677978516
282,1138535854,0.57402843,-0.08092261,-0.8033005,0.13657047,19.279876708984375,-5.381011486053467,-4.852129936218262,51.222084045410156,-62.72336196899414, 26.43887710571289
283,1138552521,0.5714701,-0.08136839,-0.80444086,0.14027211,21.47037124633789,-6.337829113006592,-2.3932125568389893,16.941120147705078,-19.610416412353516, 20.803722381591797
284,1138569188,0.5729413,-0.08531889,-0.80360514,0.13666666,23.080310821533203,-6.414517879486084,-3.3267600536346436,-33.055870056152344,17.712663650512695, 8.703373908996582
285,1138585855,0.57841,-0.08833432,-0.8004428,0.13011624,20.881362915039062,-4.709310531616211,-4.13081693649292,-41.3995475769043,49.722328186035156, -10.334074020385742
286,1138602522,0.5876909,-0.09035606,-0.7948281,0.12125867,18.126174926757812,-3.4973504543304443,-3.1992602348327637,-45.58872985839844,80.83905792236328, -26.843584060668945
287,1138619189,0.5999642,-0.09249,-0.7871251,0.10919236,15.516929626464844,-2.8488552570343018,-1.4521167278289795,-59.91009521484375,107.59490966796875, -40.3419303894043
288,1138635856,0.6141796,-0.09512413,-0.7777047,0.09439452,10.900727272033691,-2.496490001678467,-0.5756118297576904,-74.17343139648438,127.16175842285156, -49.23420715332031
289,1138652523,0.63011926,-0.09596648,-0.76641226,0.079704344,7.453704357147217,-0.929766058921814,-0.5075262784957886,-63.773921966552734,142.976318359375, -58.23508071899414
290,1138669190,0.64515436,-0.097449906,-0.75486994,0.06671665,3.5397818088531494,-1.7327581644058228,-0.7590022087097168,-57.51171112060547,138.352783203125, -46.87274932861328
291,1138685857,0.65490294,-0.09887559,-0.74678797,0.060280945,0.009878158569335938,-5.493527889251709,-6.497992515563965,-28.418210983276367,91.15034484863281, -18.02191162109375
292,1138702524,0.65801406,-0.095148146,-0.74433506,0.06268741,2.3729519844055176,-6.1137495040893555,-9.866424560546875,33.18769454956055,23.839759826660156, -5.911651611328125
293,1138719191,0.6562248,-0.08979215,-0.74590135,0.070270486,4.69542121887207,-2.6025590896606445,-8.365018844604492,62.33210754394531,-23.203384399414062, 8.442610740661621
294,1138735858,0.65068185,-0.08824165,-0.7505124,0.074550815,2.9441633224487305,1.09702730178833,-5.7617058753967285,24.625919342041016,-52.07234573364258, 12.907465934753418
295,1138752525,0.6435233,-0.090351544,-0.7563949,0.07470847,1.7838999032974243,3.0639188289642334,-1.8429073095321655,-14.715813636779785,-61.52431106567383, 13.45927906036377
296,1138769192,0.6359143,-0.09501124,-0.7624294,0.07271366,0.7399964332580566,0.1765604019165039,-1.5400744676589966,-37.9571418762207,-61.76840591430664, 17.48966407775879
297,1138785859,0.6278292,-0.09593745,-0.76861715,0.076514296,-0.07104302197694778,-1.8789992332458496,-0.6178016066551208,7.793923854827881,-70.43397521972656, 23.48285484313965
298,1138802526,0.6205868,-0.089011855,-0.77418905,0.08706437,-0.6967918276786804,2.7384777069091797,1.0440860986709595,78.23297119140625,-71.88264465332031, 11.008556365966797
299,1138819193,0.6110953,-0.08817325,-0.7815232,0.08949624,-1.3070489168167114,-2.3777542114257812,-6.254222393035889,6.949786186218262,-82.85647583007812, 9.044112205505371
300,1138835860,0.5959475,-0.08384622,-0.79122525,0.10853246,12.26032543182373,-9.6827974319458,-9.86704158782959,105.416748046875,-135.07713317871094, 62.129737854003906
301,1138852527,0.58467305,-0.08289017,-0.7979686,0.120552175,15.32517147064209,-1.0031523704528809,6.299012660980225,58.08304214477539,-95.14463806152344, 50.25779724121094
302,1138869194,0.5739087,-0.08460848,-0.80401677,0.13048929,10.312383651733398,-5.162506580352783,2.0311272144317627,36.69816970825195,-86.48780059814453, 56.636207580566406
303,1138885861,0.5658378,-0.08910346,-0.80844766,0.13527974,25.26700782775879,-1.1418436765670776,-2.2702391147613525,0.23430363833904266,-59.89368438720703, 50.144386291503906
304,1138902528,0.56125486,-0.0887101,-0.81099635,0.13931438,21.399492263793945,-5.151634216308594,-5.238304138183594,18.827810287475586,-37.432289123535156, 18.20952606201172
305,1138919195,0.5601263,-0.08541476,-0.81141365,0.14342602,24.493507385253906,-4.095665454864502,-3.092471122741699,35.1976432800293,-13.035174369812012, 0.19135984778404236
306,1138935862,0.56283534,-0.085193366,-0.81015205,0.14004359,23.084299087524414,-6.139077186584473,-2.755370616912842,-14.565474510192871,22.091691970825195, -14.179309844970703
307,1138952529,0.56980336,-0.08680278,-0.806457,0.13197237,19.490184783935547,-5.097176551818848,-2.217216730117798,-43.39640808105469,59.6908073425293, -24.611013412475586
308,1138969196,0.58012676,-0.088094875,-0.80063576,0.12114009,14.938304901123047,-4.0042266845703125,-2.1429882049560547,-53.186256408691406,87.7156753540039, -39.04597091674805
309,1138985863,0.59311163,-0.08739929,-0.7928027,0.10974549,11.43459415435791,-2.539970636367798,-1.5104893445968628,-45.076934814453125,108.97618865966797, -53.219947814941406
310,1139002530,0.6093301,-0.08465499,-0.78218275,0.09869473,8.577428817749023,-0.9524109959602356,-0.6469764709472656,-31.196250915527344,136.24090576171875, -63.64948272705078
311,1139019197,0.6253989,-0.08286407,-0.7707151,0.089487195,2.965252637863159,-2.1542208194732666,-2.922419548034668,-23.986865997314453,138.3187713623047, -50.34233856201172
312,1139035864,0.6352264,-0.07955401,-0.7632597,0.08713984,-0.2524625062942505,-6.258870601654053,-7.971822738647461,13.589288711547852,83.07516479492188, -27.484121322631836
313,1139052531,0.6405533,-0.07268599,-0.75886166,0.092399165,2.998274087905884,-5.385528087615967,-7.582455635070801,64.5376968383789,40.12317657470703, -12.050642967224121
314,1139069198,0.64422864,-0.06647243,-0.75562316,0.09790106,4.82247257232666,1.4478175640106201,-3.4173901081085205,61.41951370239258,26.916688919067383, -7.237598896026611
315,1139085865,0.6491516,-0.06396302,-0.7516621,0.09754665,3.000890016555786,3.4975202083587646,1.7847427129745483,15.654057502746582,41.858768463134766, -14.354363441467285
316,1139102532,0.65461576,-0.066557124,-0.74729425,0.09273555,0.9638683199882507,0.4663490653038025,0.2783687114715576,-29.684627532958984,51.79090881347656, -7.9156293869018555
317,1139119199,0.65817416,-0.07248228,-0.7441592,0.08820627,0.3135705888271332,-0.5988731384277344,-2.5863943099975586,-44.94700622558594,38.43419647216797, 11.148076057434082
318,1139135866,0.6577127,-0.07574268,-0.7444651,0.08630757,-0.3477160334587097,-0.12086843699216843,-6.89413595199585,-23.466934204101562,-0.5706778764724731, 10.11940860748291
319,1139152533,0.6511117,-0.08076911,-0.7500907,0.08303052,-0.6641973257064819,0.9290735125541687,-8.281866073608398,-44.796207427978516,-54.090118408203125, 13.778338432312012
320,1139169200,0.6395312,-0.089984044,-0.7594855,0.078003794,1.818483829498291,-5.676379203796387,-2.4797370433807373,-77.516845703125,-93.03419494628906, 28.309152603149414
321,1139185867,0.6252135,-0.087336436,-0.76979667,0.09430589,8.797564506530762,-6.995965480804443,-1.539679765701294,83.01544189453125,-130.6991424560547, 60.980899810791016
322,1139202534,0.60910964,-0.08585231,-0.7812713,0.10597172,17.565805435180664,0.8902607560157776,-0.7260716557502747,51.806522369384766,-141.6641387939453, 47.468170166015625
323,1139219201,0.5955028,-0.08726629,-0.7904505,0.11379383,9.963191986083984,-4.717345714569092,-0.2502613365650177,21.98777961730957,-114.30633544921875, 46.65976333618164
324,1139235868,0.5838874,-0.08506479,-0.79764616,0.12490012,19.71434783935547,-4.974801063537598,-0.5061588287353516,57.20527648925781,-100.18932342529297, 40.062591552734375
325,1139252535,0.57634854,-0.08296791,-0.80207425,0.13272493,20.736034393310547,-6.116023063659668,-3.2724037170410156,43.43698501586914,-64.83637237548828, 25.626747131347656
326,1139269202,0.57323635,-0.08384252,-0.80393535,0.13438153,22.27968406677246,-3.5919017791748047,-4.527978897094727,2.626262903213501,-24.155582427978516, 14.972118377685547
327,1139285869,0.5744648,-0.085814744,-0.80345774,0.13069762,23.235544204711914,-4.35625696182251,-4.137454032897949,-26.539688110351562,13.057333946228027, -2.5689868927001953
328,1139302536,0.58028644,-0.08629073,-0.80001956,0.12566003,20.847591400146484,-3.809307336807251,-3.6867148876190186,-22.76321792602539,49.47367858886719, -18.46578025817871
329,1139319203,0.5899351,-0.087484755,-0.79417545,0.11665615,17.740190505981445,-3.4796814918518066,-1.7273588180541992,-43.0600700378418,82.98863220214844, -32.15641784667969
330,1139335870,0.6023264,-0.0887617,-0.7864018,0.10438676,14.393936157226562,-4.210582256317139,-0.12804728746414185,-57.905155181884766,107.6681137084961, -45.979156494140625
331,1139352537,0.6179301,-0.08661641,-0.7759886,0.09220628,9.9071683883667,-3.107560873031616,0.5337185859680176,-39.26721954345703,133.30589294433594, -64.85536193847656
332,1139369204,0.6341529,-0.08656861,-0.7641257,0.08042446,4.636825084686279,-2.8696556091308594,0.17996636033058167,-44.428749084472656,143.6995849609375, -51.57681655883789
333,1139385871,0.6453814,-0.08759629,-0.75536275,0.07236709,-0.7272695302963257,-4.587948322296143,-6.788674354553223,-33.656005859375,102.17192077636719, -28.888599395751953
334,1139402538,0.65096694,-0.085832484,-0.7508958,0.07092672,1.2671587467193604,-5.9046854972839355,-10.138848304748535,7.073274612426758,48.7261962890625, -13.859018325805664
335,1139419205,0.65319073,-0.083125874,-0.7489476,0.07422628,4.935636520385742,-0.8857691287994385,-7.91323709487915,32.54629135131836,17.13325309753418, 2.4936065673828125
336,1139435872,0.653126,-0.08325126,-0.7490515,0.07360418,3.910098075866699,1.6728296279907227,-2.834543466567993,-2.550717353820801,-0.0006147047388367355, -0.5465878248214722
337,1139452539,0.6531119,-0.08486872,-0.74904805,0.07189937,0.4145095646381378,1.7935492992401123,-1.016068458557129,-14.814504623413086,2.1933321952819824, 2.3888726234436035
338,1139469206,0.651799,-0.08780338,-0.7499701,0.07066513,0.7773622274398804,-0.729267418384552,-1.5433624982833862,-19.548137664794922,-8.248125076293945, 11.438455581665039
339,1139485873,0.6477063,-0.08959641,-0.7531008,0.072720505,0.490138977766037,-0.6335833072662354,-4.399153232574463,-0.36151251196861267,-34.961997985839844, 20.30176544189453
340,1139502540,0.64011776,-0.08872656,-0.75921345,0.07727841,0.5073534250259399,1.0566970109939575,-4.0491204261779785,20.782386779785156,-69.09233856201172, 17.54646873474121
341,1139519207,0.6302783,-0.090507425,-0.7670875,0.07832422,1.5319080352783203,2.687575101852417,0.5903477072715759,-11.597023963928223,-84.92340850830078, 16.07550621032715
342,1139535874,0.61850643,-0.09180664,-0.77599204,0.08281333,1.4973523616790771,-7.223911285400391,-6.155616283416748,6.385966777801514,-101.90959930419922, 29.00971221923828
343,1139552541,0.6018229,-0.087227836,-0.7876143,0.09931972,12.917080879211426,-4.60133171081543,-7.197646141052246,90.74794006347656,-150.4348907470703, 49.66651153564453
344,1139569208,0.58846235,-0.085150406,-0.7962464,0.11159449,13.833995819091797,-3.8505725860595703,5.591036796569824,61.32768249511719,-115.6556625366211, 45.229366302490234
345,1139585875,0.5755291,-0.083422534,-0.80379957,0.12535399,13.214432716369629,-3.913344144821167,1.7073657512664795,69.23047637939453,-109.83930206298828, 53.4051399230957
346,1139602542,0.56561327,-0.083639614,-0.8095944,0.13282792,23.64837074279785,-2.801870107650757,-4.399316310882568,29.991586685180664,-81.06502532958984, 37.69163513183594
347,1139619209,0.5602878,-0.081345536,-0.8125194,0.1388274,18.832813262939453,-5.175105571746826,-6.2624993324279785,36.81499481201172,-45.888973236083984, 15.565773963928223
348,1139635876,0.5592617,-0.079783104,-0.8130481,0.14076222,23.888736724853516,-4.821030139923096,-4.103809356689453,16.371715545654297,-9.800750732421875, 1.134509563446045
349,1139652543,0.5628973,-0.08068019,-0.8111887,0.13641894,22.389917373657227,-5.472870349884033,-3.863640308380127,-23.323150634765625,31.14350128173828, -12.374399185180664
350,1139669210,0.5707604,-0.08207159,-0.80688655,0.12818302,19.97477912902832,-3.930094003677368,-3.5093939304351807,-42.493690490722656,66.72978973388672, -27.188560485839844
351,1139685877,0.5829166,-0.08310001,-0.79967874,0.11754464,16.40599822998047,-3.837684154510498,-2.6793954372406006,-49.30296325683594,102.85391998291016, -40.752220153808594
352,1139702544,0.5991228,-0.07945362,-0.7893711,0.10785349,12.52094554901123,-2.9082772731781006,-1.198079228401184,-20.497541427612305,133.14010620117188, -64.15137481689453
353,1139719211,0.6180852,-0.078397244,-0.77616066,0.09695025,8.137633323669434,-2.656890630722046,0.10635341703891754,-33.26305389404297,162.387451171875, -55.712093353271484
354,1139735878,0.63286316,-0.077440426,-0.7652545,0.0887294,0.007496923208236694,-4.19406795501709,-5.576674938201904,-23.194700241088867,128.83819580078125, -42.21109390258789
355,1139752545,0.64111495,-0.07459549,-0.7590041,0.085556045,0.08099526166915894,-5.337067127227783,-10.64085578918457,5.32220458984375,70.54069519042969, -28.767610549926758
356,1139769212,0.64386314,-0.072467454,-0.75673866,0.086807,4.500332832336426,-3.4774715900421143,-8.507426261901855,20.042831420898438,22.699310302734375, -4.442230224609375
357,1139785879,0.64204043,-0.07191635,-0.7581425,0.0885005,4.650391101837158,-1.559378981590271,-7.126588821411133,10.947979927062988,-16.413246154785156, 6.557072162628174
358,1139802546,0.6382302,-0.0717175,-0.7611294,0.09055885,2.268660545349121,-0.3873997926712036,-1.0426591634750366,9.319961547851562,-33.5616455078125, 10.417265892028809
359,1139819213,0.6342446,-0.07162239,-0.76405394,0.093944974,0.6674947738647461,-0.4303241968154907,-0.04678410664200783,15.692798614501953,-34.77283477783203, 16.926916122436523
360,1139835880,0.63024354,-0.073273145,-0.7668851,0.096495524,0.7670080065727234,0.6820404529571533,0.8008807301521301,3.6499643325805664,-32.90110778808594, 22.504629135131836
361,1139852547,0.62547755,-0.07758838,-0.7703517,0.09651998,1.138675332069397,1.8621054887771606,-0.7147638201713562,-22.04815673828125,-36.6768913269043, 25.80978012084961
362,1139869214,0.61901754,-0.0831257,-0.7753354,0.09360914,0.02855878695845604,1.7552626132965088,-1.4862931966781616,-44.95500946044922,-49.75273132324219, 20.054340362548828
363,1139885881,0.6120531,-0.08796108,-0.7808604,0.0889437,0.09498241543769836,1.8851338624954224,1.927137017250061,-52.373435974121094,-54.076873779296875, 8.981396675109863
364,1139902548,0.5992237,-0.08668439,-0.78952605,0.10032711,0.7751615047454834,-15.1482572555542,-16.786617279052734,53.69378662109375,-112.20152282714844, 45.50869369506836
365,1139919215,0.5816811,-0.074509226,-0.8002011,0.12559384,21.520919799804688,2.5233848094940186,-0.5633108019828796,169.80113220214844,-161.48248291015625, 45.236324310302734
366,1139935882,0.5700893,-0.07272302,-0.8069758,0.13601467,9.704886436462402,0.13533198833465576,4.326839923858643,53.50563430786133,-96.81593322753906, 39.91035461425781
367,1139952549,0.5582821,-0.07391585,-0.81353235,0.14499287,19.860523223876953,-2.3424127101898193,-0.8827694654464722,33.65641403198242,-93.75929260253906, 51.22774887084961
368,1139969216,0.5517756,-0.07241635,-0.816924,0.15144321,22.07310676574707,-7.171612739562988,-6.141139030456543,35.70069885253906,-53.5052490234375, 22.876903533935547
369,1139985883,0.5504899,-0.069721915,-0.816893,0.1574351,19.95404624938965,-7.099880695343018,-5.3457722663879395,43.96611785888672,-12.314603805541992, 10.65020751953125
370,1140002550,0.55395395,-0.07156289,-0.81487393,0.15490077,25.2686767578125,-5.654167652130127,-3.690751314163208,-16.517776489257812,30.774322509765625, -0.386177122592926
371,1140019217,0.5617131,-0.07529089,-0.8108535,0.14603539,22.844942092895508,-5.44042444229126,-2.9037113189697266,-54.896244049072266,67.42967224121094, -17.452131271362305
372,1140035884,0.57361513,-0.08024521,-0.80424833,0.13308308,20.52979278564453,-3.0331878662109375,-1.1144551038742065,-77.71793365478516,103.73178100585938, -29.154584884643555
373,1140052551,0.5890293,-0.082636766,-0.7949181,0.11967012,14.977751731872559,-2.1122796535491943,-0.6761468052864075,-65.8133773803711,131.68858337402344, -46.74824905395508
374,1140069218,0.6067519,-0.08253884,-0.78340894,0.10634864,9.896096229553223,-0.4965120255947113,0.9466066360473633,-52.105281829833984,150.9264678955078, -60.60012435913086
375,1140085885,0.6236735,-0.08612092,-0.7713828,0.0926452,2.7463021278381348,-2.134838342666626,-3.095461368560791,-69.19989013671875,151.49349975585938, -41.521339416503906
376,1140102552,0.63442576,-0.086639784,-0.76349354,0.08411394,-0.24761749804019928,-4.739453315734863,-9.238012313842773,-34.8161506652832,96.04916381835938, -34.141334533691406
377,1140119219,0.6399153,-0.08507879,-0.7592492,0.08252748,2.580810546875,-6.501477241516113,-11.1317138671875,5.398544788360596,47.42193603515625, -13.975141525268555
378,1140135886,0.64080006,-0.08256957,-0.7585205,0.08487831,4.21738338470459,-2.562293291091919,-8.433731079101562,25.28867530822754,5.360628604888916, -1.151037335395813
379,1140152553,0.638906,-0.08199638,-0.7602983,0.083800465,2.8520262241363525,2.385345697402954,-3.1705963611602783,-3.9948556423187256,-16.949031829833984, -6.017018795013428
380,1140169220,0.63580805,-0.08561664,-0.7631012,0.07806762,0.2995719313621521,1.239314317703247,-2.05509877204895,-48.188011169433594,-22.61073112487793, -4.337361812591553
381,1140185887,0.6327582,-0.0890573,-0.765664,0.07378849,0.21943989396095276,-2.00799560546875,0.045096587389707565,-39.82340621948242,-22.18090057373047, 1.2494927644729614
382,1140202554,0.6299684,-0.08961262,-0.76763225,0.07648837,-0.0446479432284832,-3.850677728652954,-0.35670599341392517,9.66466999053955,-23.920162200927734, 16.64569091796875
383,1140219221,0.626842,-0.085165896,-0.7696862,0.08601808,0.2539524734020233,-0.36197108030319214,-1.8387720584869385,67.06587982177734,-32.890602111816406, 19.86518669128418
384,1140235888,0.6220048,-0.08569701,-0.7733649,0.08759497,-0.4786759912967682,4.235349655151367,-0.8599635362625122,1.8934118747711182,-41.37366485595703, 11.922871589660645
385,1140252555,0.61445886,-0.09340707,-0.77910787,0.08189172,-2.6594440937042236,-6.408820152282715,-9.277087211608887,-70.67591094970703,-55.90873718261719, 19.528099060058594
386,1140269222,0.595725,-0.092500806,-0.79187053,0.097450085,11.686927795410156,-11.231832504272461,-10.877528190612793,68.33952331542969,-163.76756286621094, 64.8780288696289
387,1140285889,0.5820251,-0.087471835,-0.80012,0.115774006,18.56245994567871,-0.7285598516464233,10.104437828063965,106.1319808959961,-122.12664031982422, 53.167930603027344
388,1140302556,0.56984437,-0.085715435,-0.8072505,0.12758186,11.972756385803223,1.9336826801300049,-1.0999668836593628,59.62332534790039,-103.28068542480469, 44.4505729675293
389,1140319223,0.5613699,-0.08684253,-0.81216645,0.13307099,24.1650333404541,0.08031326532363892,-5.948885440826416,16.94961929321289,-67.71025848388672, 34.00667953491211
390,1140335890,0.55779773,-0.08318753,-0.8137273,0.14067468,20.651403427124023,-6.1605377197265625,-5.149741172790527,53.708805084228516,-33.217369079589844, 12.998321533203125
391,1140352557,0.5587264,-0.08133502,-0.8126596,0.14420137,25.56997299194336,-6.783054351806641,-2.2722268104553223,29.092361450195312,6.0651774406433105, 4.61306095123291
392,1140369224,0.56388956,-0.08488007,-0.80990595,0.13739248,24.235994338989258,-7.827794075012207,-1.0635746717453003,-45.408512115478516,47.18727493286133, -8.135845184326172
393,1140385891,0.5723767,-0.09005682,-0.80520785,0.12615477,21.973588943481445,-5.048178672790527,-0.8593795895576477,-72.68053436279297,77.19681549072266, -18.212602615356445
394,1140402558,0.5835729,-0.09423152,-0.79866517,0.1126816,17.61807632446289,-2.5039892196655273,-0.25672397017478943,-77.89350128173828,99.82769012451172, -33.71853256225586
395,1140419225,0.59753555,-0.09571495,-0.7899491,0.098844595,12.751129150390625,-0.167292520403862,0.45753368735313416,-65.64299774169922,121.77067565917969, -50.640106201171875
396,1140435892,0.6132078,-0.09440014,-0.77965724,0.08484911,7.237328052520752,0.3390091359615326,0.8579099774360657,-53.346900939941406,135.76190185546875, -66.43701171875
397,1140452559,0.6276859,-0.095097244,-0.76909274,0.07391513,1.3126814365386963,-3.4639172554016113,-3.1856298446655273,-45.748313903808594,129.55810546875, -41.909332275390625
398,1140469226,0.63626397,-0.091080084,-0.7626689,0.07217364,0.2732393443584442,-6.484885215759277,-10.340383529663086,17.431856155395508,72.09852600097656, -26.98174285888672
399,1140485893,0.64066005,-0.0837313,-0.7592502,0.07799423,4.029598236083984,-5.3495001792907715,-10.001742362976074,67.89041900634766,30.796220779418945, -11.354490280151367
400,1140502560,0.6429512,-0.07864004,-0.7575418,0.080992974,4.6884236335754395,2.495818614959717,-3.074073076248169,41.45537567138672,15.243157386779785, -11.989315032958984
401,1140519227,0.6456552,-0.08022752,-0.7556111,0.07579486,0.8846023678779602,4.6365838050842285,-1.207538366317749,-30.395586013793945,26.577421188354492, -13.472067832946777
402,1140535894,0.6483123,-0.08449457,-0.7536539,0.0675112,0.7121687531471252,-0.08943772315979004,-0.9800257086753845,-58.368194580078125,29.577878952026367, -13.1021146774292
403,1140552561,0.6499145,-0.087951615,-0.7521985,0.06382176,0.21153637766838074,-3.8246350288391113,-2.020392656326294,-31.915725708007812,18.8643741607666, 3.391669273376465
404,1140569228,0.6479894,-0.08688253,-0.75357795,0.06842149,0.29737046360969543,-4.509551048278809,-5.090879440307617,27.666048049926758,-18.98174285888672, 16.789817810058594
405,1140585895,0.6419274,-0.082314335,-0.758371,0.07763402,0.002587202936410904,-0.7427238821983337,-5.37810754776001,63.15885543823242,-59.934993743896484, 19.00975799560547
406,1140602562,0.6319258,-0.08277052,-0.766384,0.08046374,0.5344477891921997,3.7738890647888184,-1.7016916275024414,3.794008255004883,-88.29096221923828, 17.285280227661133
407,1140619229,0.6176647,-0.091221765,-0.7773019,0.07727134,-1.7298247814178467,-9.856791496276855,-6.433830738067627,-67.0261001586914,-115.41991424560547, 34.07689666748047
408,1140635896,0.5976756,-0.080667086,-0.7899883,0.11043361,12.457598686218262,-12.489031791687012,-10.147274017333984,202.83236694335938,-186.20562744140625, 88.77166748046875
409,1140652563,0.58241534,-0.07079961,-0.7984201,0.13529718,19.31344223022461,3.356945037841797,5.591057300567627,161.4211883544922,-137.91217041015625, 56.79045104980469
410,1140669230,0.56828535,-0.07458642,-0.80729204,0.14060059,14.164996147155762,1.060939908027649,-0.8592668771743774,-0.2828945517539978,-111.52494812011719, 52.237274169921875
411,1140685897,0.55843043,-0.0829172,-0.81340224,0.14020379,22.083477020263672,-2.315068006515503,-4.527250289916992,-45.11515426635742,-69.6736068725586, 52.66938400268555
412,1140702564,0.5536283,-0.082495704,-0.81573474,0.14583242,21.402645111083984,-6.2103447914123535,-6.419526100158691,28.484050750732422,-38.775604248046875, 24.319805145263672
413,1140719231,0.5534688,-0.07815319,-0.81522554,0.1515657,23.130905151367188,-5.390209197998047,-4.886288642883301,49.757484436035156,-6.034687519073486, -0.3903025984764099
414,1140735898,0.5584458,-0.07943384,-0.81270134,0.1460998,21.809284210205078,-8.487056732177734,-2.9612104892730713,-29.482641220092773,42.19886779785156, -15.729840278625488
415,1140752565,0.56786275,-0.08294707,-0.80770797,0.13512823,19.189199447631836,-7.864838600158691,-1.9745229482650757,-64.196533203125,81.71334838867188, -27.43610954284668
416,1140769232,0.58080524,-0.08668884,-0.800363,0.120704725,16.259801864624023,-4.290750503540039,-0.8731942176818848,-79.97195434570312,112.51834869384766, -41.6486701965332
417,1140785899,0.5962022,-0.08879253,-0.7909311,0.105294175,12.544486999511719,-2.335444211959839,-0.10786809027194977,-75.92486572265625,133.5607452392578, -55.32461166381836
418,1140802566,0.61364585,-0.087895304,-0.7793917,0.09089561,8.776665687561035,-0.4230533838272095,0.8820873498916626,-55.282135009765625,150.44317626953125, -67.70054626464844
419,1140819233,0.6305401,-0.09009174,-0.7668647,0.07887566,3.210659980773926,-1.8538421392440796,-1.463918685913086,-54.744422912597656,151.9714813232422, -40.22654724121094
420,1140835900,0.640732,-0.091314144,-0.7588202,0.07291314,0.09754057228565216,-4.788329601287842,-9.308564186096191,-25.366472244262695,92.96691131591797, -18.22233772277832
421,1140852567,0.64543855,-0.087932184,-0.7550007,0.07517447,4.293208122253418,-4.511653423309326,-9.719453811645508,32.645606994628906,38.372901916503906, -6.050426959991455
422,1140869234,0.6479933,-0.08609611,-0.7528936,0.07644426,5.128459930419922,1.592854619026184,-4.5984721183776855,18.418954849243164,21.187503814697266, -2.402029514312744
423,1140885901,0.65190727,-0.08580813,-0.74971175,0.074741654,2.0533084869384766,2.9847257137298584,0.7761397957801819,-2.4449996948242188,35.65157699584961, -7.655606746673584
424,1140902568,0.65630054,-0.087788746,-0.74604595,0.07055815,0.12117475271224976,1.143615961074829,-0.08795088529586792,-24.8121280670166,42.88762664794922, -6.97889518737793
425,1140919235,0.6600975,-0.089807056,-0.74265605,0.06832447,0.1977834403514862,0.2540843188762665,-1.1092050075531006,-15.56623363494873,37.44197082519531, 2.1702983379364014
426,1140935902,0.659115,-0.091091074,-0.7434455,0.06751882,0.004594089463353157,-0.9383275508880615,-7.680307865142822,-9.802857398986816,-7.148009300231934, 4.567112445831299
427,1140952569,0.6522455,-0.09107043,-0.7493217,0.0692756,-0.3931180536746979,-0.6535635590553284,-7.2800493240356445,3.107344388961792,-62.34506607055664, 9.040328025817871
428,1140969236,0.63970435,-0.09308827,-0.7596305,0.071235284,0.8506443500518799,-0.6880406737327576,-4.273515224456787,-10.735389709472656,-110.44871520996094, 20.36300277709961
429,1140985903,0.62406826,-0.09476636,-0.77178466,0.07685405,3.338362455368042,-6.702816486358643,2.0732877254486084,6.572022438049316,-137.08529663085938, 35.058876037597656
430,1141002570,0.60676086,-0.08994421,-0.7835122,0.09929758,12.350067138671875,-4.827225685119629,-6.284313201904297,122.57711791992188,-158.52223205566406, 73.86550903320312
431,1141019237,0.5906206,-0.08933655,-0.79412585,0.11202999,19.30268669128418,-0.2434278279542923,2.5227150917053223,54.24007797241211,-138.64559936523438, 55.893741607666016
432,1141035904,0.5758843,-0.08640845,-0.80293936,0.12719935,11.55628776550293,-3.010132312774658,-1.430035948753357,79.15612030029297,-127.07295227050781, 53.252403259277344
433,1141052571,0.5644112,-0.08652433,-0.8095927,0.13606334,23.145469665527344,-4.439173221588135,-2.309796094894409,36.16469955444336,-94.13836669921875, 43.51462936401367
434,1141069238,0.55837995,-0.08688346,-0.81300646,0.14029902,19.85672378540039,-8.69823932647705,-4.959169387817383,15.663471221923828,-48.372371673583984, 23.82050132751465
435,1141085905,0.5574542,-0.087019295,-0.81359005,0.14051203,22.236961364746094,-7.040803909301758,-4.923459529876709,0.16072611510753632,-6.938647747039795, 3.7430341243743896
436,1141102572,0.56231505,-0.08710628,-0.8110586,0.13564081,20.46693229675293,-6.898955345153809,-5.606912136077881,-21.632047653198242,40.301605224609375, -19.727970123291016
437,1141119239,0.572607,-0.085283615,-0.8051404,0.12883002,18.44952392578125,-5.277219295501709,-4.680079936981201,-18.67118263244629,83.02796173095703, -40.904422760009766
438,1141135906,0.58681476,-0.083838776,-0.796649,0.11819484,16.979839324951172,-4.622974395751953,-1.6234097480773926,-36.91249084472656,117.42457580566406, -55.769981384277344
439,1141152573,0.60375506,-0.083160475,-0.7858744,0.10471753,14.025049209594727,-3.7284092903137207,1.0086541175842285,-52.01600646972656,143.75990295410156, -63.975608825683594
440,1141169240,0.6224989,-0.08168041,-0.7730652,0.09051954,9.091294288635254,-0.2711087763309479,1.764408826828003,-49.74747848510742,161.61990356445312, -71.50849151611328
441,1141185907,0.63938457,-0.08464386,-0.760371,0.07654391,2.7957427501678467,-0.6116356253623962,-0.8502631783485413,-68.2931900024414,153.73968505859375, -45.8644905090332
442,1141202574,0.64924335,-0.08814315,-0.75236106,0.06831386,0.8728018403053284,-3.9702441692352295,-7.116734027862549,-47.25666427612305,93.36819458007812, -16.795936584472656
443,1141219241,0.6522209,-0.08689754,-0.74979967,0.06969461,4.011958599090576,-4.827147960662842,-9.437817573547363,16.67122459411621,25.5681209564209, 1.4641610383987427
444,1141235908,0.65156573,-0.08216903,-0.75029325,0.07596354,5.645859718322754,0.966362714767456,-4.748899936676025,53.89653778076172,-11.295308113098145, 5.276355743408203
445,1141252575,0.6504528,-0.07821099,-0.75120276,0.08055192,2.8967840671539307,1.5122780799865723,-1.8286383152008057,41.42396545410156,-14.119404792785645, 1.7507487535476685
446,1141269242,0.65145046,-0.074335955,-0.75027025,0.08474215,0.5152502655982971,1.9272239208221436,1.5164101123809814,41.19757843017578,5.296705722808838, 0.2511788606643677
447,1141285909,0.6536309,-0.07393876,-0.74837935,0.08501825,-0.13304172456264496,1.7715075016021729,1.273449420928955,6.6343841552734375,19.6812801361084, 0.490951269865036
448,1141302576,0.65510225,-0.075811796,-0.74719447,0.082427196,0.2828427851200104,2.8923301696777344,-0.9343783259391785,-19.11298942565918,15.623867988586426, -0.6250023245811462
449,1141319243,0.65259165,-0.082569614,-0.74947953,0.07474528,0.05187352001667023,-0.0024155713617801666,-5.12145471572876,-71.32845306396484,-15.023384094238281, 2.0378549098968506
450,1141335910,0.64529854,-0.08726003,-0.7556865,0.070096076,0.6244012117385864,-0.6546140313148499,-6.168642520904541,-51.24052429199219,-59.94888687133789, 5.227174282073975
451,1141352577,0.63162476,-0.09219767,-0.7665282,0.07060079,0.3371666669845581,-13.507163047790527,-9.313559532165527,-31.929737091064453,-116.48189544677734, 29.69806671142578
452,1141369244,0.61366135,-0.081763886,-0.77943337,0.09601085,13.323648452758789,-2.4802188873291016,-7.30156946182251,161.93191528320312,-171.08038330078125, 57.467464447021484
453,1141385911,0.598317,-0.0825803,-0.790158,0.10415181,14.72455883026123,1.2566072940826416,5.893265724182129,25.151920318603516,-130.68582153320312, 44.318504333496094
454,1141402578,0.5845402,-0.082948945,-0.7986535,0.11655525,11.614990234375,-6.127224922180176,-0.7731683254241943,52.31072998046875,-115.82460021972656, 59.72022247314453
455,1141419245,0.57414144,-0.080345765,-0.80462265,0.1284082,21.969667434692383,-5.5015788078308105,-2.4995176792144775,65.21099090576172,-89.2394027709961, 39.86212921142578
456,1141435912,0.5688294,-0.07959808,-0.80741906,0.13480324,20.524253845214844,-5.951646327972412,-4.61327600479126,33.40251922607422,-44.023685455322266, 25.828996658325195
457,1141452579,0.56752944,-0.08204854,-0.8082888,0.13359572,24.960330963134766,-4.861531734466553,-3.4042575359344482,-17.284954071044922,-7.146557807922363, 11.183222770690918
458,1141469246,0.5704447,-0.083458215,-0.8068407,0.12897918,24.88323974609375,-5.725384712219238,-3.7217190265655518,-27.68158531188965,26.20509147644043, -10.408493995666504
459,1141485913,0.57749426,-0.083921894,-0.8028528,0.12200373,21.96417236328125,-3.099238634109497,-2.2489805221557617,-32.52433776855469,59.558067321777344, -27.054258346557617
460,1141502580,0.5882983,-0.08470248,-0.79642564,0.11152143,17.36187171936035,-3.0284111499786377,-1.722639560699463,-48.932579040527344,92.17200469970703, -40.91701126098633
461,1141519247,0.6027081,-0.082820475,-0.78729796,0.100229226,12.54234504699707,-3.1042184829711914,-0.6418208479881287,-38.36216354370117,121.188720703125, -59.95881652832031
462,1141535914,0.61972994,-0.07890524,-0.77577305,0.08879947,7.737776279449463,-2.3160488605499268,1.1142733097076416,-27.101173400878906,143.79196166992188, -72.06913757324219
463,1141552581,0.63546526,-0.07889851,-0.7640154,0.07899106,0.9409375190734863,-4.3836283683776855,-3.9909260272979736,-35.24693298339844,139.2991485595703, -43.46739959716797
464,1141569248,0.6446825,-0.077738,-0.75681007,0.07469886,-0.067798912525177,-7.25048303604126,-10.633520126342773,-7.352916240692139,81.63531494140625, -24.38090705871582
465,1141585915,0.6492765,-0.07524341,-0.7528806,0.07713294,4.394021987915039,-4.741761207580566,-8.879071235656738,29.380903244018555,38.95900344848633, -0.9817302227020264
466,1141602582,0.6510343,-0.07628551,-0.7513123,0.076582745,4.60724401473999,1.7791023254394531,-4.108097553253174,-4.541956424713135,17.284639358520508, 4.231036186218262
467,1141619249,0.6511435,-0.0802784,-0.75115997,0.0729823,0.4012245535850525,0.6551322937011719,-3.9997446537017822,-35.183597564697266,5.652255535125732, 6.0020880699157715
468,1141635916,0.6487254,-0.08456978,-0.7530305,0.0703458,0.7411764860153198,-2.0301945209503174,-3.9217898845672607,-34.01869583129883,-16.76544952392578, 12.031856536865234
469,1141652583,0.64408094,-0.08622324,-0.7566299,0.072364554,0.2544744312763214,-1.038259506225586,-2.566894292831421,-0.3707848787307739,-39.9111328125, 19.188114166259766
470,1141669250,0.6370569,-0.08520583,-0.7620927,0.078187704,-0.04074941202998161,0.0005211895331740379,-2.2930033206939697,28.777793884277344,-64.06712341308594, 22.215593338012695
471,1141685917,0.6277423,-0.08318919,-0.7693031,0.08480693,0.42776429653167725,1.9064899682998657,-1.669445276260376,34.92304611206055,-84.66981506347656, 20.68467140197754
472,1141702584,0.61847186,-0.083378695,-0.7766382,0.085870676,1.339606761932373,5.0724287033081055,3.4242665767669678,-4.153066635131836,-80.46243286132812, 8.326784133911133
473,1141719251,0.60618216,-0.0893502,-0.7857373,0.08471638,-1.3563876152038574,-11.11905574798584,-11.108150482177734,-43.44916534423828,-99.44288635253906, 30.643325805664062
474,1141735918,0.5886592,-0.0769949,-0.79628056,0.11614446,18.20633316040039,-6.355289936065674,-8.019116401672363,204.5352020263672,-164.19338989257812, 69.52980041503906
475,1141752585,0.57778096,-0.07105124,-0.8023132,0.13196447,18.504060745239258,3.724383592605591,6.360503196716309,100.63199615478516,-96.20455932617188, 38.382930755615234
476,1141769252,0.5654246,-0.07391562,-0.8100675,0.13646334,15.574244499206543,-0.8697956800460815,1.6512763500213623,1.0635652542114258,-97.90129852294922, 42.57468795776367
477,1141785919,0.55712444,-0.077358805,-0.8150954,0.13873595,23.945669174194336,-5.112410068511963,-4.311743259429932,-9.118111610412598,-63.097389221191406, 34.827354431152344
478,1141802586,0.5533736,-0.07486568,-0.8166319,0.14589459,20.92793083190918,-7.168577671051025,-4.318018913269043,46.5916633605957,-32.50617599487305, 17.888845443725586
479,1141819253,0.55331117,-0.07527088,-0.8166527,0.14580618,25.986745834350586,-3.757155418395996,-2.128533124923706,-1.4784674644470215,0.47806745767593384, 3.5844268798828125
480,1141835920,0.5579716,-0.079201266,-0.8146275,0.13702889,19.956018447875977,-6.4522786140441895,-3.2980849742889404,-59.1940803527832,42.69594955444336, -13.275677680969238
481,1141852587,0.5672279,-0.08041074,-0.8096677,0.12737794,15.998970031738281,-5.182354927062988,-3.8330390453338623,-48.40375518798828,77.54486083984375, -34.593048095703125
482,1141869254,0.58043814,-0.0777976,-0.802046,0.117309235,12.487882614135742,-4.554331302642822,-2.9691877365112305,-31.32093620300293,106.7933120727539, -59.4931526184082
483,1141885921,0.59714043,-0.07125765,-0.79168224,0.10763452,9.607378959655762,-2.546872138977051,-1.54195237159729,-9.403515815734863,133.5998992919922, -80.94013214111328
484,1141902588,0.6148287,-0.065176934,-0.77969843,0.09903626,5.682818412780762,-3.2764649391174316,-1.4118738174438477,-3.1707653999328613,145.28500366210938, -74.08678436279297
485,1141919255,0.62846357,-0.062019162,-0.7695998,0.094357215,1.9298723936080933,-5.949882507324219,-6.699285984039307,2.5829148292541504,115.7825698852539, -39.97306442260742
486,1141935922,0.6355547,-0.05830203,-0.76390976,0.09546279,2.776195764541626,-5.815370559692383,-10.027145385742188,29.949119567871094,59.37607955932617, -15.626895904541016
487,1141952589,0.6383214,-0.055067316,-0.7613326,0.09943039,4.124504566192627,-0.7296273112297058,-6.1067304611206055,39.069366455078125,22.379125595092773, 0.9459030628204346
488,1141969256,0.6401638,-0.05452374,-0.7597762,0.09978916,2.868756055831909,2.002142906188965,0.07980175316333771,7.314041614532471,16.34834098815918, -0.5485605597496033
489,1141985923,0.64289063,-0.056580946,-0.75757515,0.09782856,0.256293386220932,1.7072964906692505,0.2515435218811035,-15.511034965515137,26.457332611083984, 2.511441946029663
490,1142002590,0.64557374,-0.061870713,-0.7554073,0.09363075,0.615622341632843,0.17230741679668427,-0.3161032497882843,-41.55878829956055,29.133087158203125, 9.515841484069824
491,1142019257,0.64619064,-0.06950502,-0.7549861,0.0871939,0.05738915503025055,0.5852096676826477,-4.421043395996094,-65.58271026611328,13.107864379882812, 12.347847938537598
492,1142035924,0.64310765,-0.07857297,-0.75772876,0.07801454,0.972457230091095,1.5815521478652954,-6.547027587890625,-89.86449432373047,-17.920766830444336, 8.324918746948242
493,1142052591,0.6362201,-0.08764425,-0.7634035,0.06897612,-0.17046710848808289,0.23295365273952484,-4.07733678817749,-92.92230987548828,-50.66231918334961, 9.471037864685059
494,1142069258,0.62476826,-0.09228485,-0.77220136,0.06966601,2.356217861175537,-9.068326950073242,-5.084029197692871,-27.196815490722656,-96.0960693359375, 29.133575439453125
495,1142085925,0.60897225,-0.086701065,-0.78368616,0.08644037,12.616644859313965,-1.2179838418960571,-6.959089279174805,97.83964538574219,-145.70399475097656, 44.244972229003906
496,1142102592,0.5951589,-0.0884286,-0.79343516,0.091798715,15.008196830749512,0.355474054813385,6.206793785095215,7.8722662925720215,-116.52122497558594, 35.73917007446289
497,1142119259,0.5827308,-0.08859638,-0.8012493,0.10283594,10.991128921508789,-6.661080360412598,0.32770490646362305,47.1761360168457,-105.59707641601562, 50.86473846435547
498,1142135926,0.5736467,-0.08568021,-0.80643433,0.11511915,23.94647216796875,-4.825578212738037,-2.135531425476074,70.7829360961914,-79.75821685791016, 37.90520477294922
499,1142152593,0.5686216,-0.08454046,-0.8091849,0.121417895,21.338642120361328,-3.2630553245544434,-3.9092838764190674,34.89958572387695,-42.79888916015625, 22.398576736450195
500,1142169260,0.5674654,-0.087376185,-0.8098634,0.12029117,24.130796432495117,-4.0279107093811035,-3.985225200653076,-17.97781753540039,-5.585384845733643, 13.506505966186523
501,1142185927,0.5701085,-0.09084257,-0.8083595,0.115235254,23.52702522277832,-4.93217658996582,-3.2667088508605957,-38.232845306396484,26.900297164916992, -0.0942554622888565
502,1142202594,0.5765725,-0.09400578,-0.8044811,0.10741232,21.873332977294922,-3.567295551300049,-1.7519869804382324,-48.166717529296875,58.86231231689453, -14.136536598205566
503,1142219261,0.5866543,-0.098209664,-0.7981852,0.09535325,17.791276931762695,-2.804863452911377,-0.43290460109710693,-71.61759948730469,91.88522338867188, -26.242950439453125
504,1142235928,0.6004882,-0.09840121,-0.7891752,0.08326836,12.932868003845215,-1.955306887626648,-0.11090892553329468,-51.28135299682617,120.73902130126953, -48.966651916503906
505,1142252595,0.61551666,-0.095986746,-0.77897805,0.07154739,7.443827152252197,-1.3245823383331299,0.381020724773407,-37.07475280761719,130.33560180664062, -61.46892166137695
506,1142269262,0.6290845,-0.09403493,-0.76899034,0.06375,2.5150177478790283,-4.097179889678955,-2.768975019454956,-19.47832489013672,119.3055648803711, -41.727989196777344
507,1142285929,0.6378226,-0.090838715,-0.7622511,0.062481847,1.6087501049041748,-6.460818290710449,-9.503210067749023,16.210886001586914,74.91187286376953, -20.16368293762207
508,1142302596,0.6419029,-0.08415218,-0.759121,0.06793071,3.946014404296875,-3.8888187408447266,-7.243311405181885,62.52338790893555,29.059083938598633, -9.371615409851074
509,1142319263,0.64478326,-0.07897833,-0.75691986,0.0713409,3.372319459915161,2.367711067199707,0.11621439456939697,44.31074905395508,20.6322021484375, -10.519278526306152
510,1142335930,0.649001,-0.076095685,-0.7536165,0.07119974,0.2520332336425781,3.038759469985962,-0.9982911944389343,17.065200805664062,35.50197219848633, -14.367056846618652
511,1142352597,0.65316993,-0.075698994,-0.7503559,0.06786045,0.4966391324996948,0.020425764843821526,-1.6440130472183228,-10.652862548828125,37.967140197753906, -15.707162857055664
512,1142369264,0.65630436,-0.0769302,-0.7477032,0.06547052,0.8083043694496155,-1.540318489074707,-1.9022270441055298,-13.893982887268066,30.189002990722656, -2.872718572616577
513,1142385931,0.65610355,-0.077482924,-0.7476475,0.06743743,-0.13031792640686035,-4.335063457489014,-8.006796836853027,8.686982154846191,-1.271607518196106, 13.403538703918457
514,1142402598,0.65065,-0.07439767,-0.75214946,0.07342133,0.4171387553215027,-1.5867741107940674,-7.507960796356201,40.77572250366211,-52.54099655151367, 12.775086402893066
515,1142419265,0.6395954,-0.07500174,-0.76121044,0.07649315,1.0555700063705444,0.8649846911430359,-5.315807819366455,4.142777442932129,-98.47004699707031, 19.27925682067871
516,1142435932,0.62402695,-0.0788551,-0.77347636,0.078144364,2.0960142612457275,-6.595381736755371,-1.434403657913208,-21.82548713684082,-133.64356994628906, 30.79315948486328
517,1142452599,0.60547346,-0.07237265,-0.7862568,0.09982173,10.492525100708008,-4.584880352020264,-5.9105143547058105,126.66475677490234,-168.05311584472656, 63.07738494873047
518,1142469266,0.58813906,-0.06757522,-0.79758066,0.11572095,21.5250244140625,0.7302682995796204,3.5673766136169434,90.18537139892578,-151.3540802001953, 47.93898391723633
519,1142485933,0.5739736,-0.06347483,-0.80600125,0.12995224,12.947568893432617,-2.815058708190918,-2.0769846439361572,82.09661865234375,-121.0523452758789, 43.884883880615234
520,1142502600,0.56317025,-0.0639765,-0.81240124,0.13693328,22.275285720825195,-2.1061127185821533,-3.0016112327575684,26.963233947753906,-87.17757415771484, 38.673828125
521,1142519267,0.5575097,-0.0660622,-0.8156897,0.13953279,19.25899887084961,-6.200413227081299,-6.168928146362305,1.5475269556045532,-43.044029235839844, 27.140186309814453
522,1142535934,0.55716306,-0.06856224,-0.815711,0.139586,21.616437911987305,-4.850779056549072,-4.796205043792725,-8.817438125610352,0.8330475687980652, 16.105188369750977
523,1142552601,0.56154335,-0.07318092,-0.8133276,0.13346186,21.270776748657227,-5.646392822265625,-4.135127067565918,-47.015995025634766,41.447532653808594, 0.939569890499115
524,1142569268,0.5702005,-0.077022746,-0.8083413,0.12459246,19.898822784423828,-5.120446681976318,-3.156059503555298,-55.039119720458984,76.09161376953125, -16.534423828125
525,1142585935,0.58260053,-0.08043072,-0.8009741,0.11201869,16.612401962280273,-4.223405361175537,-1.7216646671295166,-69.83709716796875,107.74414825439453, -35.428401947021484
526,1142602602,0.59781957,-0.08249678,-0.79135555,0.09778825,12.184938430786133,-3.39809513092041,-0.7452272176742554,-70.30276489257812,132.1208953857422, -50.37802505493164
527,1142619269,0.615543,-0.0819075,-0.7793302,0.08392056,8.17563247680664,-1.3119406700134277,-0.7088422179222107,-54.30796813964844,153.59523010253906, -63.67915344238281
528,1142635936,0.6320029,-0.08138414,-0.76726925,0.072436035,3.2711093425750732,-2.233680248260498,-2.3853325843811035,-42.141014099121094,145.57447814941406, -52.55067825317383
529,1142652603,0.6436494,-0.08198288,-0.75806427,0.06582707,1.5827900171279907,-4.618247032165527,-6.725476264953613,-25.448148727416992,105.62725830078125, -24.643352508544922
530,1142669270,0.6488163,-0.07878752,-0.7538483,0.06740244,2.7685914039611816,-4.485776424407959,-10.094464302062988,28.183330535888672,43.51136016845703, -8.134672164916992
531,1142685937,0.64909685,-0.073917165,-0.7536181,0.0725904,4.208699703216553,-0.7533783912658691,-6.851742744445801,50.024391174316406,-2.2281322479248047, -0.6564208269119263
532,1142702604,0.6466814,-0.07055902,-0.7556064,0.07670651,2.5700652599334717,0.7092424631118774,-3.781306266784668,35.294498443603516,-24.728466033935547, 2.6077163219451904
533,1142719271,0.64441854,-0.06674346,-0.7574165,0.08118215,1.8699768781661987,1.6378899812698364,0.4525038003921509,39.34757995605469,-23.51419448852539, 1.8491545915603638
534,1142735938,0.64244026,-0.06364717,-0.758853,0.085801564,0.023600611835718155,0.6669721603393555,0.22501742839813232,37.22334671020508,-20.047853469848633, 6.26680850982666
535,1142752605,0.63967156,-0.0621756,-0.76089394,0.089415506,0.5396010875701904,0.9101518392562866,0.04337391257286072,24.121110916137695,-25.45358657836914, 10.503363609313965
536,1142769272,0.63476396,-0.064274415,-0.7647398,0.09009227,0.5054064989089966,0.07631625980138779,-2.273592472076416,-8.96958065032959,-41.13721466064453, 16.812612533569336
537,1142785939,0.6271499,-0.06739456,-0.7708733,0.08885593,0.6403722167015076,1.1099239587783813,-1.8831676244735718,-26.1303653717041,-63.84444808959961, 14.497958183288574
538,1142802606,0.61317873,-0.072617255,-0.78143203,0.090013936,0.45920926332473755,-12.682339668273926,-12.20875072479248,-28.293392181396484,-116.40406036376953, 37.82911682128906
539,1142819273,0.59377795,-0.06440297,-0.7939047,0.11399713,16.621841430664062,-2.950326919555664,-3.2164132595062256,146.67567443847656,-173.15028381347656, 64.20985412597656
540,1142835940,0.57899284,-0.06143394,-0.8029229,0.1277029,11.653942108154297,-0.20090128481388092,5.519467353820801,74.17475128173828,-125.25540924072266, 48.71470260620117
541,1142852607,0.56409615,-0.060325816,-0.8112359,0.14160778,15.508356094360352,-3.9113876819610596,-0.5915650129318237,68.31824493408203,-121.5997543334961, 60.22951126098633
542,1142869274,0.55404747,-0.05940555,-0.8165537,0.15080658,21.64180564880371,-4.139359951019287,-5.418482780456543,46.17667007446289,-80.83782196044922, 39.57341766357422
543,1142885941,0.5493745,-0.05876473,-0.8186813,0.15651062,18.87796401977539,-5.2226033210754395,-6.267978191375732,31.08014488220215,-36.8433952331543, 23.561420440673828
544,1142902608,0.54903114,-0.05947256,-0.81873614,0.15716062,24.094192504882812,-5.1991496086120605,-3.8808209896087646,1.6510140895843506,-1.2063839435577393, 8.208749771118164
545,1142919275,0.5534486,-0.060705386,-0.8164705,0.15292336,23.18248176574707,-5.979037761688232,-4.155494689941406,-23.388967514038086,36.854000091552734, -11.44222354888916
546,1142935942,0.5620869,-0.062192466,-0.8118767,0.14507537,21.029247283935547,-4.401381969451904,-2.9361789226531982,-40.317073822021484,71.0956039428711, -27.229564666748047
547,1142952609,0.5749722,-0.063997895,-0.8045145,0.1344168,17.653676986694336,-3.888943910598755,-1.6463470458984375,-52.54769515991211,106.9395523071289, -39.36695861816406
548,1142969276,0.5905896,-0.06477042,-0.79508656,0.12184468,13.57327651977539,-2.418534994125366,-0.28775617480278015,-55.79465103149414,130.025390625, -54.27249526977539
549,1142985943,0.60879326,-0.063538924,-0.783325,0.10833063,8.8456449508667,-1.050028681755066,-0.05454929172992706,-49.67537307739258,152.34713745117188, -70.15047454833984
550,1143002610,0.6269622,-0.06333663,-0.7705023,0.096089706,3.8864810466766357,-2.041904926300049,-0.2576640546321869,-46.12654495239258,156.75, -58.79235076904297
551,1143019277,0.63961524,-0.065391816,-0.760768,0.08859263,-0.21101246774196625,-6.490741729736328,-8.924209594726562,-35.25735092163086,113.65528106689453, -24.048961639404297
552,1143035944,0.6452757,-0.06362711,-0.7560501,0.089214794,3.848036050796509,-7.086801052093506,-10.66187858581543,17.73849868774414,49.16256332397461, -6.36430549621582
553,1143052611,0.64733386,-0.063184634,-0.75425655,0.08979945,5.096214294433594,0.8424594402313232,-4.7076334953308105,8.292975425720215,18.41328239440918, 1.2129486799240112
554,1143069278,0.64918697,-0.06876585,-0.7529716,0.08283458,2.6755218505859375,4.868444442749023,-1.6758747100830078,-58.12577819824219,22.14370346069336, -1.2088207006454468
555,1143085945,0.6508036,-0.076978564,-0.75182724,0.07269666,0.6319419145584106,0.712955117225647,-2.6764562129974365,-86.52001190185547,23.311168670654297, -1.60830557346344
556,1143102612,0.6509319,-0.0834717,-0.7515906,0.06657221,-0.6161004304885864,-2.457000970840454,-1.7008339166641235,-59.41817855834961,8.619277000427246, 7.750124454498291
557,1143119279,0.6484787,-0.08426779,-0.7533897,0.06912723,-0.27600374817848206,-1.9366694688796997,-4.367960453033447,8.349858283996582,-21.37126922607422, 17.157142639160156
558,1143135946,0.6417324,-0.08203016,-0.75888973,0.07441138,0.7299396395683289,1.5362979173660278,-5.762834548950195,31.802656173706055,-63.091529846191406, 13.475335121154785
559,1143152613,0.6301798,-0.086259216,-0.7682545,0.0722357,1.392724871635437,2.5788917541503906,-3.4626731872558594,-40.44786834716797,-97.62264251708984, 14.611472129821777
560,1143169280,0.61739594,-0.093795024,-0.778133,0.06733488,1.3582650423049927,-0.8872121572494507,2.4979660511016846,-70.68824768066406,-102.95502471923828, 20.71002769470215
561,1143185947,0.60216016,-0.092663065,-0.7886944,0.08232889,1.7964295148849487,-13.326929092407227,-11.542887687683105,70.48230743408203,-135.81527709960938, 59.527549743652344
562,1143202614,0.5825804,-0.08039118,-0.8011613,0.110806525,20.632949829101562,1.3601617813110352,-0.968977689743042,185.8585205078125,-182.04415893554688, 56.07229232788086
563,1143219281,0.5680183,-0.08028351,-0.8096549,0.12397108,12.720657348632812,-0.8668720722198486,2.388136863708496,58.75452423095703,-120.81991577148438, 60.12604522705078
564,1143235948,0.55429345,-0.08397863,-0.8175305,0.1317214,19.581340789794922,-2.086923837661743,-0.3759419322013855,14.704912185668945,-107.56790924072266, 59.82860565185547
565,1143252615,0.5448111,-0.08858601,-0.82301295,0.13410102,21.9207763671875,-7.730854511260986,-4.496184825897217,-13.943779945373535,-70.8665542602539, 41.929161071777344
566,1143269282,0.5415414,-0.08839045,-0.824554,0.1379523,17.440319061279297,-8.321386337280273,-7.410402297973633,19.778409957885742,-26.319917678833008, 16.93434715270996
567,1143285949,0.5441369,-0.088424996,-0.82304657,0.13671347,21.162527084350586,-6.764138698577881,-5.806901454925537,-3.487879753112793,21.59194564819336, -4.443606376647949
568,1143302616,0.55200213,-0.08933955,-0.81883544,0.1296954,20.06817054748535,-8.130627632141113,-4.6120123863220215,-33.748783111572266,65.8358383178711, -24.383182525634766
569,1143319283,0.564026,-0.089683875,-0.8120064,0.12032065,19.899904251098633,-5.3421831130981445,-2.477961540222168,-39.98504638671875,100.08769226074219, -38.64738082885742
570,1143335950,0.5787719,-0.09106061,-0.80337316,0.10640795,17.067230224609375,-2.817232370376587,-0.4059288799762726,-66.17171478271484,125.88394165039062, -51.60786056518555
571,1143352617,0.595329,-0.093016036,-0.7930253,0.08967929,12.670602798461914,-1.1130069494247437,0.5076475143432617,-81.65634155273438,144.84423828125, -59.84632873535156
572,1143369284,0.61313856,-0.09449705,-0.7810562,0.07129365,8.355026245117188,0.6775678992271423,0.4982109069824219,-87.50029754638672,159.1541290283203, -68.80047607421875
573,1143385951,0.62945473,-0.096752614,-0.7690301,0.054938782,3.179111957550049,-1.4293253421783447,-0.8919354677200317,-80.70249938964844,150.3645782470703, -55.32609176635742
574,1143402618,0.6406256,-0.09994882,-0.7599306,0.045986947,1.507638692855835,-6.804863452911377,-7.150154113769531,-50.107582092285156,105.89739990234375, -18.34683609008789
575,1143419285,0.6449332,-0.09516232,-0.7566156,0.050379913,3.98691463470459,-7.746458530426025,-8.409215927124023,48.2811279296875,32.92615509033203, -3.165396213531494
576,1143435952,0.6460273,-0.085070126,-0.75606954,0.06140616,4.504007339477539,-0.41489511728286743,-3.2637298107147217,103.52828979492188,-2.211509943008423, -2.1648035049438477
577,1143452619,0.64740473,-0.080746904,-0.7549483,0.06633356,2.4990642070770264,4.582074165344238,-0.1932632029056549,46.92953872680664,7.78810977935791, 0.9155011773109436
578,1143469286,0.64955723,-0.08170938,-0.75314295,0.06461378,0.4166699945926666,1.8604766130447388,0.8545003533363342,-10.20296573638916,20.92816925048828, -1.1733328104019165
579,1143485953,0.6521587,-0.08239602,-0.7507649,0.065209076,-0.3085572123527527,-1.3357384204864502,0.8965272307395935,3.479884147644043,24.383800506591797, 7.887571811676025
580,1143502620,0.6529107,-0.07910641,-0.7499703,0.07066981,-0.3768797218799591,-0.6846295595169067,-3.816640853881836,44.68050765991211,3.1860828399658203, 9.094796180725098
581,1143519287,0.64922863,-0.07532291,-0.7530236,0.07605299,0.465402215719223,-0.8592833876609802,-6.751458168029785,42.306732177734375,-37.12515640258789, 6.242057800292969
582,1143535954,0.6408808,-0.07321666,-0.7598895,0.08049405,0.6617361307144165,0.7878883481025696,-7.659887790679932,25.53270721435547,-76.86460876464844, 11.171557426452637
583,1143552621,0.629168,-0.0756988,-0.76932853,0.08093869,0.7265568375587463,-3.5660829544067383,-6.71071195602417,-18.688318252563477,-101.15380859375, 18.102859497070312
584,1143569288,0.6121784,-0.07294638,-0.7814051,0.096554086,6.145579814910889,-9.224534034729004,-11.295862197875977,79.64322662353516,-151.158203125, 57.626155853271484
585,1143585955,0.5958244,-0.0672308,-0.7920035,0.11490874,22.72709083557129,0.8392587900161743,5.502501010894775,108.23505401611328,-144.7900390625, 53.441246032714844
586,1143602622,0.58281124,-0.065608226,-0.7999924,0.12664527,10.802997589111328,-3.858649492263794,0.7463725805282593,59.072818756103516,-109.74346923828125, 47.22193908691406
587,1143619289,0.5726648,-0.06479417,-0.8059319,0.13539015,24.059925079345703,-1.9106402397155762,-3.1924736499786377,42.37297058105469,-83.73291778564453, 38.11178207397461
588,1143635956,0.56767064,-0.065476894,-0.80888325,0.13845868,19.818758010864258,-5.072381973266602,-5.348264694213867,10.031678199768066,-39.52094268798828, 20.66440773010254
589,1143652623,0.56730205,-0.06491295,-0.8088642,0.14033432,24.130699157714844,-5.227811813354492,-4.096635818481445,13.304303169250488,-2.9081192016601562, 5.978847026824951
590,1143669290,0.5714144,-0.066579856,-0.8066043,0.1358023,24.57868003845215,-5.223356246948242,-2.4716806411743164,-26.82061195373535,35.70463562011719, -9.920575141906738
591,1143685957,0.5791108,-0.06940113,-0.80228835,0.12707423,22.08713722229004,-4.958860874176025,-1.054481029510498,-50.96642303466797,66.56909942626953, -22.412601470947266
592,1143702624,0.5894521,-0.07267195,-0.7963087,0.11470751,18.030139923095703,-3.676398277282715,0.44511181116104126,-70.16767120361328,89.8678970336914, -35.901790618896484
593,1143719291,0.6020514,-0.07410068,-0.78854764,0.10117279,12.818196296691895,-2.0393896102905273,0.9147233963012695,-66.60455322265625,108.53529357910156, -51.58464431762695
594,1143735958,0.61658293,-0.0718285,-0.77900755,0.08839434,7.775543212890625,-0.3353637158870697,0.34907767176628113,-44.9119758605957,123.36493682861328, -68.95185089111328
595,1143752625,0.6309575,-0.07053302,-0.76860905,0.07847342,2.469045877456665,-3.5876660346984863,-1.642201542854309,-33.00210189819336,125.2678451538086, -51.11830520629883
596,1143769292,0.6408348,-0.06741574,-0.7609265,0.076005764,-0.1898556649684906,-7.1072869300842285,-8.820160865783691,10.734338760375977,85.11982727050781, -27.327800750732422
597,1143785959,0.6458828,-0.059727285,-0.7566899,0.081783935,3.3856000900268555,-6.408035755157471,-9.20839786529541,69.82467651367188,38.581424713134766, -14.01894760131836
598,1143802626,0.6490706,-0.054315772,-0.75389975,0.0859793,5.263611793518066,1.6944321393966675,-1.7458891868591309,49.9438362121582,24.492141723632812, -8.804065704345703
599,1143819293,0.6526581,-0.05692573,-0.7510114,0.082334556,1.2568167448043823,1.7494515180587769,-1.0322060585021973,-26.26955795288086,34.679412841796875, -2.3801655769348145
600,1143835960,0.65581554,-0.06186386,-0.7483809,0.07749316,0.34740570187568665,-2.4901857376098633,-0.7277515530586243,-43.26555252075195,33.107547760009766, 4.445969581604004
601,1143852627,0.658126,-0.0665102,-0.7461108,0.07593023,-0.12426595389842987,-2.1283209323883057,0.648695170879364,-25.648845672607422,25.582605361938477, 18.00641632080078
602,1143869294,0.6575275,-0.07098166,-0.7462257,0.0759367,-0.24941106140613556,-0.5772698521614075,-4.280783176422119,-19.398853302001953,-0.9486335515975952, 24.61977195739746
603,1143885961,0.6525616,-0.0778219,-0.7501686,0.07317311,0.7239766120910645,0.1632208228111267,-4.514762878417969,-48.47470474243164,-38.027122497558594, 24.657079696655273
604,1143902628,0.6433969,-0.087443024,-0.75731426,0.06978324,0.7041871547698975,-0.7975648641586304,-4.096855640411377,-68.117919921875,-72.26464080810547, 36.596622467041016
605,1143919295,0.6315887,-0.0956999,-0.76617825,0.070058756,1.1575433015823364,-5.50874137878418,-8.320457458496094,-45.69355392456055,-96.39521026611328, 45.97373580932617
606,1143935962,0.6135036,-0.094575845,-0.77926826,0.08608074,13.329704284667969,-3.319904327392578,-7.6702375411987305,71.45553588867188,-162.54420471191406, 65.20278930664062
607,1143952629,0.59882545,-0.09349366,-0.7892365,0.09885813,18.966934204101562,0.583825409412384,4.65191125869751,57.90449905395508,-128.91485595703125, 51.770286560058594
608,1143969296,0.5852983,-0.08985524,-0.7979521,0.11235856,14.830678939819336,-2.6997084617614746,-1.0390098094940186,73.92731475830078,-119.80022430419922, 40.96154022216797
609,1143985963,0.5755015,-0.088279754,-0.80411136,0.1200403,23.104286193847656,-3.454345464706421,-4.189490795135498,37.99794006347656,-83.88709259033203, 27.574565887451172
610,1144002630,0.57064736,-0.08661816,-0.80699813,0.124952145,20.18030548095703,-5.766382694244385,-5.130547523498535,28.741439819335938,-42.03400421142578, 14.080611228942871
611,1144019297,0.57053405,-0.08541724,-0.8070299,0.12608595,24.21394157409668,-4.891238212585449,-4.004939556121826,11.310619354248047,-1.9196727275848389, -0.5715093016624451
612,1144035964,0.5753609,-0.08658424,-0.80422425,0.12118892,22.45963478088379,-4.333820819854736,-2.9369499683380127,-26.092538833618164,42.175846099853516, -13.675797462463379
613,1144052631,0.5841692,-0.08953442,-0.7989684,0.11126365,19.952600479125977,-3.3754236698150635,-1.5554263591766357,-56.55394744873047,78.31776428222656, -25.54006576538086
614,1144069298,0.5965545,-0.090676464,-0.791261,0.09902832,16.386693954467773,-3.781646728515625,0.13721290230751038,-57.93284606933594,107.80790710449219, -45.955204010009766
615,1144085965,0.6111837,-0.08701297,-0.7817356,0.08816398,11.120189666748047,-2.970611095428467,0.9082826375961304,-28.02402687072754,123.26446533203125, -66.90055084228516
616,1144102632,0.62645066,-0.08391341,-0.77090615,0.07887924,5.405220031738281,-3.305856466293335,0.6080453395843506,-20.611141204833984,131.4995574951172, -56.8724365234375
617,1144119299,0.63782984,-0.082828365,-0.7622078,0.073158175,0.40652036666870117,-4.969054222106934,-5.987743377685547,-13.543301582336426,100.67350006103516, -30.02982521057129
618,1144135966,0.6444755,-0.07929179,-0.75692046,0.073725834,2.0762429237365723,-5.994499683380127,-8.797226905822754,25.912885665893555,56.120521545410156, -14.924158096313477
619,1144152633,0.6488303,-0.07662292,-0.7532576,0.07583732,4.4730095863342285,0.481564998626709,-3.6901440620422363,28.18758201599121,36.65232467651367, -3.358055353164673
620,1144169300,0.65332055,-0.07721745,-0.749518,0.07370751,3.13423228263855,3.3251302242279053,-0.6991155743598938,-8.252617835998535,41.66804504394531, -5.382235527038574
621,1144185967,0.65699786,-0.080285266,-0.74642336,0.06899589,0.9803236126899719,0.4803691506385803,-2.7195231914520264,-33.444095611572266,37.213279724121094, -4.118149757385254
622,1144202634,0.6593738,-0.08258095,-0.7442834,0.066701494,0.5694963335990906,-1.0330544710159302,-1.441857099533081,-18.737009048461914,24.551515579223633, 2.9416351318359375
623,1144219301,0.65943044,-0.08344541,-0.7439533,0.06871729,0.06858156621456146,-1.7749181985855103,-4.8167643547058105,7.583896160125732,1.400177240371704, 15.19393539428711
624,1144235968,0.6550804,-0.08179742,-0.74744725,0.0741736,0.6694697141647339,-1.7090836763381958,-8.162392616271973,32.27638244628906,-41.60053634643555, 17.807004928588867
625,1144252635,0.6460248,-0.07978246,-0.7549215,0.07987755,0.943244993686676,1.0859389305114746,-5.594669818878174,30.541826248168945,-83.96273803710938, 17.174028396606445
626,1144269302,0.63350374,-0.084066726,-0.76503545,0.07954192,1.6044998168945312,-0.37017107009887695,-2.150512933731079,-32.160614013671875,-106.84988403320312, 23.504718780517578
627,1144285969,0.618722,-0.08741722,-0.77579635,0.08764463,2.6920924186706543,-11.055421829223633,-1.672003984451294,14.248007774353027,-126.85143280029297, 56.26997756958008
628,1144302636,0.6000762,-0.07697609,-0.7879507,0.11452992,17.973186492919922,-4.618751049041748,-1.8647546768188477,169.76817321777344,-172.9661407470703, 64.04474639892578
629,1144319303,0.5854921,-0.075739175,-0.79723835,0.12599179,15.450065612792969,0.3420335352420807,1.6803125143051147,52.883365631103516,-123.79610443115234, 48.512474060058594
630,1144335970,0.5720495,-0.074770525,-0.80555904,0.1350678,15.47912883758545,-0.6354087591171265,-2.3812389373779297,40.03585433959961,-112.1956787109375, 39.96706771850586
631,1144352637,0.56289977,-0.07315609,-0.81103927,0.14144717,21.97569465637207,-2.0311391353607178,-6.14017915725708,32.44666290283203,-76.46827697753906, 23.30916976928711
632,1144369304,0.5586768,-0.06909012,-0.81323177,0.14751591,18.247365951538086,-6.347774505615234,-6.600028991699219,45.98403549194336,-38.54326629638672, 5.3148884773254395
633,1144385971,0.5599568,-0.06579536,-0.8120815,0.15047666,20.863006591796875,-6.883872032165527,-4.938221454620361,31.788400650024414,7.2766804695129395, -6.354702949523926
634,1144402638,0.56622636,-0.067155145,-0.8086288,0.14490543,20.375385284423828,-6.159094333648682,-3.9965758323669434,-29.049453735351562,52.62194061279297, -17.357866287231445
635,1144419305,0.5765058,-0.071360424,-0.8028393,0.13415678,20.236955642700195,-4.686689376831055,-2.932380437850952,-64.6758804321289,89.19365692138672, -24.6171875
636,1144435972,0.5896131,-0.075022765,-0.79500866,0.12119929,16.703292846679688,-3.6897926330566406,-1.4946916103363037,-71.49563598632812,113.45906829833984, -37.938209533691406
637,1144452639,0.60543513,-0.074906595,-0.7847532,0.109543405,12.78021240234375,-2.5248050689697266,-0.1974039077758789,-45.56465530395508,134.25897216796875, -54.326820373535156
638,1144469306,0.6225856,-0.07365759,-0.7729577,0.09745961,8.665165901184082,-0.4270627200603485,1.206295371055603,-41.085227966308594,147.1266632080078, -62.45582580566406
639,1144485973,0.6381782,-0.07641008,-0.7612324,0.08611293,2.862264394760132,-2.8140673637390137,-2.46767520904541,-55.03253173828125,140.80905151367188, -37.00363540649414
640,1144502640,0.64746886,-0.07773077,-0.75391924,0.0796743,0.40821021795272827,-4.220773220062256,-7.0049309730529785,-29.031009674072266,85.06705474853516, -21.539045333862305
641,1144519307,0.65120155,-0.077205926,-0.7508144,0.07908009,2.66241192817688,-5.003253936767578,-8.843378067016602,4.110195636749268,33.47665023803711, -4.307612895965576
642,1144535974,0.6508401,-0.07694636,-0.750981,0.08071091,5.196054935455322,-0.10038017481565475,-5.718136310577393,10.460034370422363,-3.2619969844818115, 7.475934982299805
643,1144552641,0.6482285,-0.077380836,-0.7531359,0.081230775,2.753019094467163,0.3337155878543854,-3.5100631713867188,-0.6742940545082092,-22.757720947265625, 6.294404029846191
644,1144569308,0.6455144,-0.07829505,-0.7554204,0.08075427,0.604814350605011,2.223531723022461,-0.013135405257344246,-8.133841514587402,-23.031808853149414, 4.337321758270264
645,1144585975,0.6429021,-0.07908031,-0.75757086,0.08068275,-0.07819826155900955,1.115469217300415,-0.4613507390022278,-5.399283409118652,-22.185152053833008, 5.508925437927246
646,1144602642,0.6390344,-0.08014534,-0.7607069,0.08085075,0.24779853224754333,0.7994948625564575,-1.9696236848831177,-6.681011199951172,-33.039649963378906, 8.201610565185547
647,1144619309,0.63255817,-0.08064867,-0.765896,0.08227704,0.8425572514533997,0.8503923416137695,-4.8147807121276855,-0.28357431292533875,-56.67644500732422, 11.1265230178833
648,1144635976,0.623462,-0.081586204,-0.77315515,0.08288601,-0.8423444628715515,-4.2270941734313965,-4.894209384918213,-9.234917640686035,-78.70497131347656, 10.22326374053955
649,1144652643,0.6089749,-0.07457989,-0.78304183,0.102142826,7.225655555725098,-10.141473770141602,-6.403776168823242,119.19468688964844,-133.5262908935547, 49.536354064941406
650,1144669310,0.59463364,-0.06589656,-0.7919525,0.121983044,19.929664611816406,0.19725918769836426,3.6171481609344482,130.36708068847656,-130.15426635742188, 43.20277404785156
651,1144685977,0.58308053,-0.06924118,-0.7992218,0.12832636,9.401362419128418,-4.8692545890808105,2.07100510597229,10.491436958312988,-92.18013000488281, 51.91189193725586
652,1144702644,0.57273555,-0.072254255,-0.8052032,0.13565192,19.132230758666992,-3.10427188873291,-0.5700991153717041,18.74611473083496,-81.14015197753906, 53.59714889526367
653,1144719311,0.5655918,-0.07238096,-0.8092353,0.1414403,21.82733726501465,-4.674333572387695,-4.79559850692749,24.861047744750977,-57.676509857177734, 29.615625381469727
654,1144735978,0.5623589,-0.069995426,-0.8106745,0.14717405,21.174535751342773,-4.601190567016602,-4.5192952156066895,38.8052978515625,-28.279146194458008, 12.930984497070312
655,1144752645,0.5629176,-0.070777394,-0.8103608,0.14638996,23.56117057800293,-4.5023417472839355,-2.999804973602295,-6.045109748840332,5.904182434082031, 2.3725876808166504
656,1144769312,0.5675561,-0.07341134,-0.80799633,0.14011735,20.82848358154297,-5.607637405395508,-2.486032009124756,-39.78461456298828,41.07112503051758, -11.614511489868164
657,1144785979,0.57628816,-0.075466454,-0.80302167,0.13173099,17.813081741333008,-4.372396469116211,-2.088345766067505,-44.71363830566406,74.4697036743164, -25.685272216796875
658,1144802646,0.5880474,-0.076340795,-0.79605263,0.12113096,13.807955741882324,-3.339069366455078,-1.4860408306121826,-48.873443603515625,99.12767791748047, -42.674861907958984
659,1144819313,0.60381496,-0.07350533,-0.78593826,0.11092996,9.650593757629395,-2.4731407165527344,0.5144848823547363,-26.779882431030273,130.41151428222656, -63.096797943115234
660,1144835980,0.62014204,-0.071818024,-0.77445436,0.10240377,2.5238022804260254,-2.9606552124023438,-3.4131641387939453,-21.004764556884766,139.08493041992188, -49.699317932128906
661,1144852647,0.6304105,-0.0677795,-0.7670192,0.09833663,-0.8517476320266724,-5.114894390106201,-7.568889141082764,7.078968048095703,85.69371795654297, -40.97248458862305
662,1144869314,0.63646424,-0.06252272,-0.7622194,0.100128494,1.6296319961547852,-5.328401565551758,-9.894472122192383,39.495243072509766,48.569969177246094, -20.411033630371094
663,1144885981,0.63898164,-0.06063928,-0.75993663,0.102575086,5.843698978424072,-0.4394485354423523,-7.9687018394470215,24.897756576538086,21.157968521118164, 1.4513299465179443
664,1144902648,0.63928026,-0.06359883,-0.75977385,0.10009787,4.761660099029541,2.166978597640991,-2.7566165924072266,-24.519912719726562,5.784430503845215, 5.818226337432861
665,1144919315,0.637741,-0.070234664,-0.7613595,0.09319362,0.11350225657224655,1.8943665027618408,-3.638948678970337,-65.81553649902344,-7.016490936279297, 6.096896648406982
666,1144935982,0.63459194,-0.07628527,-0.76406515,0.08762443,0.3427099585533142,0.3740919828414917,-1.2131404876708984,-57.839847564697266,-21.32204818725586, 9.409769058227539
667,1144952649,0.6292259,-0.080309235,-0.76825136,0.086112164,0.9765772223472595,-1.5356637239456177,-1.9759410619735718,-29.95410919189453,-42.72132873535156, 17.060739517211914
668,1144969316,0.62157345,-0.07903053,-0.7739988,0.09125004,1.5417804718017578,0.21544550359249115,-2.70808744430542,25.820186614990234,-68.32740020751953, 18.31800079345703
669,1144985983,0.6127267,-0.07892454,-0.7809011,0.0923606,1.3418396711349487,4.404846668243408,2.3639495372772217,-2.013085126876831,-76.66940307617188, 7.47570276260376
670,1145002650,0.60244745,-0.08402687,-0.78837526,0.091984995,-0.7386979460716248,-9.557175636291504,-7.735637664794922,-33.25473403930664,-82.63935089111328, 29.861562728881836
671,1145019317,0.58587533,-0.07545425,-0.7984163,0.116568275,13.73379135131836,-7.123506546020508,-8.968340873718262,153.19537353515625,-150.33993530273438, 61.60287094116211
672,1145035984,0.57340086,-0.07389925,-0.8056391,0.12921372,12.89089584350586,-2.219163179397583,4.748856067657471,63.948486328125,-104.66020965576172, 50.125770568847656
673,1145052651,0.56095165,-0.075318605,-0.812784,0.13799545,12.153929710388184,-4.575067043304443,0.2898840308189392,30.87184715270996,-99.67747497558594, 51.40500259399414
674,1145069318,0.55265766,-0.07912505,-0.81774056,0.1400336,22.544124603271484,-4.7864179611206055,-4.35791015625,-11.86301326751709,-62.27703857421875, 35.94477462768555
675,1145085985,0.550047,-0.07895146,-0.81910473,0.14241701,18.435890197753906,-7.851008892059326,-6.191420555114746,11.68680191040039,-20.706893920898438, 11.41456413269043
676,1145102652,0.5517216,-0.07504671,-0.8176782,0.14619838,25.448551177978516,-5.445830345153809,-4.147916316986084,38.78469467163086,9.53648853302002, -7.026910305023193
677,1145119319,0.5575652,-0.074754275,-0.8145033,0.14183499,24.668636322021484,-4.120173931121826,-3.366262435913086,-16.648006439208984,47.33663558959961, -20.931133270263672
678,1145135986,0.5666958,-0.076284215,-0.80939853,0.13383093,22.453536987304688,-3.705909013748169,-1.9764251708984375,-40.42197036743164,76.7278823852539, -26.870498657226562
679,1145152653,0.57830817,-0.078566775,-0.8026757,0.12287709,18.215417861938477,-2.7962517738342285,-0.27706703543663025,-56.959964752197266,99.02135467529297, -35.58897399902344
680,1145169320,0.59156954,-0.07973981,-0.7946919,0.11023606,12.812654495239258,-2.415318250656128,0.9515429139137268,-60.00685119628906,113.08523559570312, -49.083351135253906
681,1145185987,0.60666645,-0.07796816,-0.785134,0.09716836,7.726386070251465,-0.9554355144500732,0.7745874524116516,-48.056732177734375,127.44540405273438, -67.46293640136719
682,1145202654,0.62129027,-0.07674774,-0.7752483,0.08425228,3.2812275886535645,-2.3097195625305176,0.1348278969526291,-49.32429122924805,126.46143341064453, -63.411468505859375
683,1145219321,0.6319533,-0.07616802,-0.7674124,0.07688905,-0.12916168570518494,-6.438778400421143,-6.131132125854492,-25.674283981323242,94.01016998291016, -35.08195114135742
684,1145235988,0.63775784,-0.07042202,-0.76288754,0.07942582,2.653301239013672,-8.610369682312012,-10.481620788574219,44.731346130371094,46.126220703125, -18.5437068939209
