PacketCounter,SampleTimeFine,Quat_W,Quat_X,Quat_Y,Quat_Z,Acc_X,Acc_Y,Acc_Z,Gyr_X,Gyr_Y,Gyr_Z 
1,1133784238,0.73267627,0.0106541505,-0.67545515,-0.08265724,-0.9141340255737305,0.36004161834716797,-1.276475429534912,-1.3236066102981567,2.0733752250671387, 0.3468758463859558
2,1133800905,0.7324317,0.011293268,-0.6757193,-0.08258234,9.713337898254395,1.3196097612380981,0.8068376779556274,0.8109428882598877,-0.7689956426620483, -0.30694255232810974
3,1133817572,0.732026,0.012427239,-0.6761608,-0.08240302,9.759822845458984,1.2979892492294312,0.8361502885818481,1.154242753982544,-0.6703612208366394, -0.3396628201007843
4,1133834239,0.7317993,0.013325257,-0.67642564,-0.08210205,9.806472778320312,1.3390272855758667,0.8598836660385132,1.259177803993225,-0.5975314974784851, -0.32165709137916565
5,1133850906,0.73175055,0.0141975805,-0.67649376,-0.081828065,9.746986389160156,1.3083170652389526,0.8309473991394043,1.0710526704788208,-0.4538570046424866, -0.3812578320503235
6,1133867573,0.7316656,0.014507926,-0.6765656,-0.0819401,9.695945739746094,1.299342155456543,0.8167856335639954,1.2959706783294678,-0.41274866461753845, -0.4516158998012543
7,1133884240,0.73158675,0.014860067,-0.676652,-0.08186617,9.72701644897461,1.3049328327178955,0.8046679496765137,1.5352187156677246,-0.4298194944858551, -0.46390998363494873
8,1133900907,0.7315192,0.015318989,-0.67674196,-0.0816426,9.739960670471191,1.2915562391281128,0.8364630341529846,1.769741177558899,-0.28021568059921265, -0.6622033715248108
9,1133917574,0.73142856,0.015195048,-0.67680305,-0.081970446,9.723315238952637,1.3070893287658691,0.8076402544975281,1.609354853630066,-0.19154459238052368, -0.6694135069847107
10,1133934241,0.73137015,0.015366081,-0.6768597,-0.081992485,9.734678268432617,1.3285014629364014,0.8064701557159424,1.266387939453125,-0.19762758910655975, -0.830056369304657
11,1133950908,0.7313517,0.015896166,-0.6769083,-0.08165347,9.795883178710938,1.3070906400680542,0.8093920946121216,1.6821843385696411,-0.11971375346183777, -0.8556050062179565
12,1133967575,0.7312972,0.016131327,-0.67697346,-0.08155488,9.683063507080078,1.4062162637710571,0.8460482954978943,1.226701021194458,-0.2657829821109772, -0.6656100749969482
13,1133984242,0.7312918,0.01656241,-0.6769988,-0.08130595,9.803972244262695,1.3655085563659668,0.838175356388092,0.942092776298523,-0.1744096875190735, -0.5670651793479919
14,1134000909,0.7312899,0.016879179,-0.67701447,-0.08112786,9.802383422851562,1.3763340711593628,0.8240522146224976,1.8581820726394653,0.0030030887573957443, -0.2228688895702362
15,1134017576,0.7312826,0.017144859,-0.67704666,-0.08086852,9.63136100769043,1.4706432819366455,0.8351406455039978,1.795968770980835,-0.14941167831420898, 0.43327081203460693
16,1134034243,0.73126996,0.017584762,-0.6771102,-0.08035449,9.692024230957031,1.4760154485702515,0.8782731294631958,0.558734655380249,-0.720831036567688, 0.9390320181846619
17,1134050910,0.7310916,0.016832283,-0.6772407,-0.081035845,9.690677642822266,1.439958095550537,0.8884637355804443,0.2998414635658264,-1.2338917255401611, 1.523026943206787
18,1134067577,0.7309261,0.016521085,-0.6774107,-0.08117087,9.672630310058594,1.372808575630188,0.8798039555549622,-0.3679136335849762,-1.9218231439590454, 1.8183673620224
19,1134084244,0.73079777,0.017054742,-0.67763656,-0.080328606,9.682686805725098,1.3000402450561523,0.8639177680015564,-0.18558965623378754,-2.690319538116455, 2.019324541091919
20,1134100911,0.7305918,0.017240947,-0.6779097,-0.07985713,9.74974250793457,1.321351170539856,0.8534000515937805,-0.07690214365720749,-3.0717058181762695, 1.8471431732177734
21,1134117578,0.73036975,0.01749925,-0.6781993,-0.07937019,9.775975227355957,1.2252519130706787,0.8192692399024963,0.20299984514713287,-3.2124085426330566, 1.4513499736785889
22,1134134245,0.73009676,0.017306568,-0.6784917,-0.079426765,9.794118881225586,1.2185351848602295,0.7887234091758728,0.5775856375694275,-3.0432240962982178, 0.9974930286407471
23,1134150912,0.7299271,0.018053621,-0.6787571,-0.0785464,9.716760635375977,1.2319977283477783,0.7472595572471619,0.5533559918403625,-2.9669241905212402, 0.4752756655216217
24,1134167579,0.7295596,0.0170014,-0.6790463,-0.07968672,9.73233413696289,1.21210777759552,0.7066001296043396,0.8124412894248962,-2.6410536766052246, -0.008349740877747536
25,1134184246,0.72913164,0.0153250825,-0.6793244,-0.08155179,9.744332313537598,1.2749520540237427,0.7400850057601929,0.704137921333313,-2.33695387840271, -0.37938815355300903
26,1134200913,0.72911644,0.01676829,-0.6794773,-0.08011755,9.783517837524414,1.2394975423812866,0.7301026582717896,0.8372471332550049,-1.7943487167358398, -0.6100816130638123
27,1134217580,0.72886634,0.015949305,-0.6796432,-0.08114614,9.748554229736328,1.2964508533477783,0.7284994125366211,1.2102832794189453,-1.3196302652359009, -0.7857592105865479
28,1134234247,0.72911704,0.019286644,-0.6796835,-0.07776112,9.732524871826172,1.289379358291626,0.7440687417984009,1.598892092704773,-1.0557554960250854, -0.9569289088249207
29,1134250914,0.72885275,0.018087052,-0.6798297,-0.079234615,9.75632095336914,1.335343360900879,0.7224088311195374,1.191048264503479,-0.9769965410232544, -0.9511533975601196
30,1134267581,0.72869754,0.017659768,-0.67993265,-0.079873644,9.84723949432373,1.3002305030822754,0.7790496945381165,1.695989727973938,-0.6820276975631714, -0.854695737361908
31,1134284248,0.7284719,0.016351197,-0.6800169,-0.08147795,9.697900772094727,1.3214608430862427,0.7533469200134277,1.972453236579895,-0.27862775325775146, -0.9297282695770264
32,1134300915,0.7285043,0.017154936,-0.68004274,-0.0808041,9.706597328186035,1.3556956052780151,0.7269638180732727,1.5736762285232544,-0.28278979659080505, -0.8750834465026855
33,1134317582,0.7283433,0.016363781,-0.68011564,-0.081800215,9.75774097442627,1.3431309461593628,0.7361884117126465,1.3248487710952759,-0.3777104616165161, -0.6899164319038391
34,1134334249,0.7282777,0.016182419,-0.6801521,-0.082116455,9.761600494384766,1.3895697593688965,0.7766602635383606,0.8152971267700195,-0.2421424835920334, -0.5819589495658875
35,1134350916,0.72823536,0.016107673,-0.68017703,-0.08229917,9.738930702209473,1.3227232694625854,0.7116923928260803,1.4128159284591675,-0.089452363550663, -0.41223645210266113
36,1134367583,0.72804826,0.014777171,-0.6802281,-0.083768696,9.691472053527832,1.3977285623550415,0.73984694480896,1.2472680807113647,-0.07638987898826599, -0.15603256225585938
37,1134384250,0.7281952,0.016178152,-0.68022037,-0.082281575,9.777249336242676,1.3759431838989258,0.7864044904708862,1.0219275951385498,-0.13907696306705475, 0.009508715011179447
38,1134400917,0.72813064,0.015738381,-0.68024427,-0.08273946,9.716300964355469,1.3768471479415894,0.7734191417694092,0.7470520734786987,-0.09166786074638367, 0.12741677463054657
39,1134417584,0.72803694,0.015106304,-0.680281,-0.08337835,9.710640907287598,1.3039450645446777,0.7213215231895447,1.0254491567611694,-0.14694003760814667, 0.27497151494026184
40,1134434251,0.72808576,0.0157488,-0.6803063,-0.0826238,9.711698532104492,1.3588670492172241,0.7585166096687317,1.0627925395965576,-0.2993484139442444, 0.395978718996048
41,1134450918,0.72805953,0.015756276,-0.68033886,-0.08258459,9.894487380981445,1.3123283386230469,0.8383496999740601,1.1218938827514648,-0.23019416630268097, 0.2425074428319931
42,1134467585,0.727976,0.0149856405,-0.68034947,-0.08337258,9.802672386169434,1.3427798748016357,0.7942412495613098,1.3007346391677856,0.1442699432373047, 0.28429457545280457
43,1134484252,0.7279762,0.014753236,-0.6803292,-0.083579086,9.735485076904297,1.3317569494247437,0.725006103515625,1.0955640077590942,0.2812722623348236, 0.3037729859352112
44,1134500919,0.7280322,0.014905569,-0.6802857,-0.08341764,9.707608222961426,1.3254040479660034,0.7294443845748901,1.4049397706985474,0.47121602296829224, 0.12701977789402008
45,1134517586,0.7279999,0.014368694,-0.68025357,-0.08405247,9.615262031555176,1.311943769454956,0.7033449411392212,1.5964974164962769,0.5377963185310364, -0.13561925292015076
46,1134534253,0.7281587,0.015378067,-0.6801837,-0.083057895,9.710624694824219,1.2525014877319336,0.6882331967353821,1.778769850730896,0.6126366257667542, -0.2420271933078766
47,1134550920,0.72814095,0.014678826,-0.6800997,-0.084021956,9.724316596984863,1.3064944744110107,0.7412634491920471,2.496950149536133,1.21737802028656, -0.7925849556922913
48,1134567587,0.7284615,0.016746482,-0.6799488,-0.082054496,9.775938987731934,1.3425354957580566,0.7517477869987488,2.1499876976013184,1.2051095962524414, -0.9715665578842163
49,1134584254,0.7285429,0.016738363,-0.6798327,-0.082294956,9.762327194213867,1.3185099363327026,0.7256763577461243,1.7978644371032715,1.2842016220092773, -0.9199826121330261
50,1134600921,0.72850335,0.015760954,-0.6797461,-0.083544165,9.744593620300293,1.333364725112915,0.7708626985549927,1.7540794610977173,1.2250746488571167, -0.7884229421615601
51,1134617588,0.72856563,0.01554522,-0.6796328,-0.0839627,9.663496971130371,1.3515100479125977,0.7969450950622559,1.7397747039794922,1.2998765707015991, -0.7164256572723389
52,1134634255,0.72867024,0.015804108,-0.6795342,-0.08380424,9.740724563598633,1.4010069370269775,0.8143189549446106,1.3826440572738647,0.999029815196991, -0.42988356947898865
53,1134650922,0.72894484,0.017747194,-0.67944306,-0.08174227,9.853717803955078,1.3908954858779907,0.8584401607513428,1.3485151529312134,0.519790530204773, 0.012620658613741398
54,1134667589,0.7287718,0.016297683,-0.6794801,-0.08326498,9.761600494384766,1.4089369773864746,0.9268963932991028,1.3108516931533813,0.08117304742336273, 0.24846240878105164
55,1134684256,0.7286369,0.015398865,-0.679543,-0.08409836,9.683969497680664,1.4391534328460693,0.8126047849655151,0.7357823848724365,-0.41610389947891235, 0.6592772603034973
56,1134700923,0.7284876,0.014680663,-0.67964834,-0.0846671,9.765096664428711,1.3874907493591309,0.8114362359046936,0.33587852120399475,-0.9254764318466187, 0.9550654888153076
57,1134717590,0.72834307,0.014091735,-0.6797678,-0.08505193,9.704315185546875,1.3808850049972534,0.8217463493347168,0.47402068972587585,-1.0756053924560547, 1.1741950511932373
58,1134734257,0.7282062,0.013567831,-0.6798907,-0.08532398,9.700701713562012,1.3539851903915405,0.7592306137084961,-0.10441017150878906,-1.2149385213851929, 1.3339670896530151
59,1134750924,0.7282413,0.0142658325,-0.679968,-0.084289126,9.664199829101562,1.3324047327041626,0.7179462909698486,-0.39969903230667114,-1.0544365644454956, 1.3154363632202148
60,1134767591,0.7281185,0.013623744,-0.68006027,-0.084710896,9.687015533447266,1.3029828071594238,0.7170270085334778,-0.24431955814361572,-0.9068945050239563, 1.2309143543243408
61,1134784258,0.72802895,0.012999074,-0.6801136,-0.0851495,9.795958518981934,1.286331057548523,0.7773114442825317,-0.49595147371292114,-0.5737372040748596, 1.057234525680542
62,1134800925,0.7278895,0.011690894,-0.68012834,-0.08640464,9.79770278930664,1.2460542917251587,0.7828890085220337,-0.08070562034845352,-0.04309336841106415, 0.7042531967163086
63,1134817592,0.72797894,0.0121337995,-0.6800968,-0.08583591,9.850892066955566,1.2519800662994385,0.826361358165741,0.37322187423706055,0.15666647255420685, 0.49410101771354675
64,1134834259,0.7281124,0.012855278,-0.68004024,-0.085043706,9.841402053833008,1.2782714366912842,0.8263985514640808,0.7902734279632568,0.3925210237503052, 0.16975457966327667
65,1134850926,0.72811174,0.012498811,-0.6799983,-0.08543664,9.697103500366211,1.2922197580337524,0.7885344624519348,0.9916915893554688,0.46378830075263977, 0.03290591761469841
66,1134867593,0.72817534,0.012821024,-0.67996174,-0.08513787,9.648353576660156,1.3226921558380127,0.7589916586875916,0.9401973485946655,0.28151556849479675, -0.14877136051654816
67,1134884260,0.728242,0.013366913,-0.6799492,-0.084581055,9.673226356506348,1.3674952983856201,0.7966110110282898,0.7565030455589294,-0.011999550275504589, -0.08754421025514603
68,1134900927,0.7281748,0.012831351,-0.6799567,-0.0851811,9.730473518371582,1.326915979385376,0.78068608045578,0.683519721031189,-0.015303587540984154, -0.07987319678068161
69,1134917594,0.72803426,0.011863347,-0.6799895,-0.08625431,9.745668411254883,1.3080344200134277,0.7985050082206726,1.3421630859375,-0.0978149026632309, -0.0861867293715477
70,1134934261,0.728166,0.012989203,-0.67997104,-0.08511866,9.83951473236084,1.2585541009902954,0.8102045655250549,1.7813441753387451,0.08244087547063828, -0.2055162936449051
71,1134950928,0.7282527,0.0137091,-0.67994744,-0.08444958,9.723780632019043,1.301400065422058,0.7952575087547302,1.9964905977249146,0.21875165402889252, -0.34368398785591125
72,1134967595,0.72818303,0.0132323345,-0.67995304,-0.08507855,9.839545249938965,1.3202327489852905,0.8277985453605652,1.3227102756500244,0.07183722406625748, -0.47658830881118774
73,1134984262,0.72822815,0.01276522,-0.6798145,-0.085868284,10.032076835632324,1.2689356803894043,1.029288411140442,2.4131712913513184,1.5761864185333252, -1.1298274993896484
74,1135000929,0.728551,0.01298643,-0.6794283,-0.086151905,10.082022666931152,1.1565710306167603,0.9238274693489075,4.387668132781982,4.039783477783203, -1.9579378366470337
75,1135017596,0.7290604,0.012900554,-0.6787752,-0.08699909,10.13891887664795,1.3663387298583984,0.959151566028595,7.422006130218506,7.02876091003418, -2.6985676288604736
76,1135034263,0.7310311,0.017806986,-0.6768758,-0.08435463,10.123127937316895,1.4777147769927979,1.171028733253479,25.886737823486328,20.319551467895508, -9.486700057983398
77,1135050930,0.73317945,0.022431104,-0.67462546,-0.08261683,9.31163215637207,1.0908005237579346,0.4559810757637024,33.24772262573242,24.475236892700195, -11.55876636505127
78,1135067597,0.7346537,0.02710067,-0.67324287,-0.07933279,9.033075332641602,1.2418423891067505,0.25539666414260864,19.200687408447266,14.037479400634766, -6.252482891082764
79,1135084264,0.73560995,0.030375244,-0.6723388,-0.07691667,9.245901107788086,1.4558465480804443,0.7154722809791565,6.377289295196533,8.011008262634277, -4.627447605133057
80,1135100931,0.73648435,0.03347691,-0.6714993,-0.07455758,9.793198585510254,1.4327499866485596,1.190474033355713,2.4559319019317627,6.761286735534668, -4.450296878814697
81,1135117598,0.7375083,0.038309578,-0.67060393,-0.07003231,10.294782638549805,1.3851350545883179,1.3446190357208252,1.9556001424789429,6.14491605758667, -3.344557762145996
82,1135134265,0.7378706,0.03725709,-0.67011184,-0.0714791,10.283390045166016,1.3320232629776,1.354727864265442,1.5135763883590698,5.241927623748779, -1.1306599378585815
83,1135150932,0.73846364,0.039599814,-0.6695895,-0.068945765,9.725732803344727,1.4072985649108887,1.177448034286499,3.3081939220428467,3.956387519836426, 0.10789989680051804
84,1135167599,0.73870105,0.040187813,-0.669357,-0.06831472,9.293572425842285,1.8903465270996094,0.9966316223144531,1.6708636283874512,1.9071792364120483, 0.03191982954740524
85,1135184266,0.7387314,0.039778147,-0.6693189,-0.06860028,9.252594947814941,1.8810127973556519,0.7902142405509949,-1.3378026485443115,0.1855960190296173, 0.598280668258667
86,1135200933,0.73865706,0.039227474,-0.6694065,-0.06886193,9.195403099060059,2.048243522644043,0.8932349681854248,-2.7689247131347656,-1.1142677068710327, 1.3045763969421387
87,1135217600,0.73858607,0.039050777,-0.6695189,-0.0686322,9.169929504394531,1.9806888103485107,0.9352803826332092,-0.035409558564424515,-1.126203179359436, 1.9989112615585327
88,1135234267,0.7385031,0.038906366,-0.66966367,-0.068193115,9.314327239990234,1.8430110216140747,0.9138070344924927,1.694375991821289,-1.181923508644104, 3.0273377895355225
89,1135250934,0.7383298,0.03849151,-0.6699169,-0.06781678,9.472068786621094,1.6703413724899292,1.0546549558639526,3.3435909748077393,-1.7982934713363647, 4.305015563964844
90,1135267601,0.73819214,0.038501166,-0.67019963,-0.06650263,9.694314002990723,1.5837260484695435,1.2025519609451294,2.741705894470215,-2.405020236968994, 6.43754243850708
91,1135284268,0.73792565,0.03779041,-0.6706283,-0.06554044,9.902050971984863,1.4663264751434326,1.2522598505020142,-1.6992876529693604,-4.064313888549805, 8.035197257995605
92,1135300935,0.73748803,0.036171153,-0.6712106,-0.06541839,9.91032886505127,1.3054732084274292,1.0836468935012817,-6.774600505828857,-5.798487663269043, 8.249079704284668
93,1135317602,0.73693347,0.03440751,-0.67190623,-0.06547737,9.685296058654785,1.3664193153381348,1.000003695487976,-9.195233345031738,-7.164273262023926, 7.866312026977539
94,1135334269,0.7361338,0.031136643,-0.6728328,-0.06658619,9.253907203674316,1.4219067096710205,0.5900448560714722,-19.51882553100586,-10.117676734924316, 9.63988971710205
95,1135350936,0.7350488,0.02722038,-0.6740344,-0.06811735,9.461520195007324,1.090563178062439,0.34001651406288147,-28.7960205078125,-13.771629333496094, 10.02685260772705
96,1135367603,0.7338278,0.023116264,-0.67534846,-0.06976518,10.042961120605469,0.9130305647850037,0.5978705883026123,-29.849319458007812,-14.976948738098145, 10.285367965698242
97,1135384270,0.73262817,0.020716574,-0.67673844,-0.069656655,10.318501472473145,0.33651596307754517,0.23367485404014587,-19.786026000976562,-14.992060661315918, 10.647295951843262
98,1135400937,0.731345,0.021810023,-0.67840624,-0.066512935,9.813016891479492,1.153974175453186,0.41954484581947327,4.178775310516357,-15.579354286193848, 8.991304397583008
99,1135417604,0.7301161,0.02578677,-0.6800319,-0.061823834,8.820361137390137,2.330836534500122,2.147340774536133,9.034857749938965,-15.582745552062988, 2.1101109981536865
100,1135434271,0.7280975,0.021875793,-0.6817698,-0.06771675,8.63032341003418,1.8049951791763306,2.6703169345855713,1.6218682527542114,-15.10007095336914, -8.301941871643066
101,1135450938,0.7260706,0.021335332,-0.6835937,-0.07117679,9.322790145874023,-0.8322688937187195,3.2625210285186768,1.4170440435409546,-17.275062561035156, -14.016277313232422
102,1135467605,0.7241189,0.020998029,-0.68519104,-0.075659245,8.662263870239258,-0.08589821308851242,4.017806053161621,-7.454416275024414,-16.608366012573242, -20.644569396972656
103,1135484272,0.72220004,0.024267413,-0.68682724,-0.07814609,10.266584396362305,-0.9563868641853333,-0.5954124927520752,-25.171024322509766,-20.948623657226562, -30.481700897216797
104,1135500939,0.71848476,0.02737654,-0.69009703,-0.08244105,10.791902542114258,0.896999180316925,-1.2451725006103516,-1.8562971353530884,-33.413055419921875, -37.74838638305664
105,1135517606,0.71434116,0.031093625,-0.6935446,-0.08801196,8.796672821044922,1.1677632331848145,2.1212072372436523,-10.4783935546875,-36.984092712402344, -47.44133377075195
106,1135534273,0.70957404,0.036023244,-0.69749933,-0.09328419,10.055986404418945,0.9039468169212341,0.19308476150035858,1.8293447494506836,-41.0551643371582, -51.850711822509766
107,1135550940,0.7043667,0.041258078,-0.70194256,-0.09717077,10.027688980102539,3.468151330947876,0.2285885065793991,10.638605117797852,-44.948455810546875, -46.768226623535156
108,1135567607,0.69887704,0.04398338,-0.7065958,-0.10177813,8.21248722076416,4.497000217437744,0.2781623303890228,-4.744138717651367,-49.19831466674805, -38.154747009277344
109,1135584274,0.6938018,0.043933216,-0.71081215,-0.1070291,9.202497482299805,5.023230075836182,-0.6788431406021118,-21.635595321655273,-47.232601165771484, -27.395883560180664
110,1135600941,0.68990535,0.03971467,-0.71373874,-0.11415097,10.69228744506836,3.3023529052734375,-1.6502354145050049,-51.97391128540039,-38.901611328125, -15.251666069030762
111,1135617608,0.6876536,0.034934435,-0.7154434,-0.11854569,11.703432083129883,3.018421173095703,-2.7651898860931396,-42.68071365356445,-24.618867874145508, 1.4593024253845215
112,1135634275,0.6885556,0.031398546,-0.71473795,-0.11855445,12.655179023742676,2.7531850337982178,-3.5035550594329834,-17.990093231201172,4.538356781005859, 18.091976165771484
113,1135650942,0.6922819,0.02767586,-0.7117881,-0.11548855,12.993115425109863,4.201564311981201,-2.5749459266662598,-6.257794380187988,29.786087036132812, 35.37844467163086
114,1135667609,0.69847745,0.021477833,-0.7067234,-0.110499166,15.803617477416992,5.501117706298828,-0.7104141712188721,-10.805652618408203,50.50470733642578, 58.30781555175781
115,1135684276,0.70734423,0.014906623,-0.69924724,-0.10244706,20.003467559814453,5.390838146209717,2.8691928386688232,0.04261486604809761,75.27529907226562, 76.66964721679688
116,1135700943,0.72017217,0.018066706,-0.68796456,-0.08792487,22.440418243408203,7.102200508117676,8.168180465698242,75.40792083740234,120.16934204101562, 63.8771858215332
117,1135717610,0.7344061,0.0357884,-0.67463624,-0.06506254,13.76680850982666,4.012889385223389,6.4779534339904785,185.59791564941406,146.3113555908203, 37.158958435058594
118,1135734277,0.739798,0.057940576,-0.66911167,-0.04039163,2.444366931915283,10.420760154724121,-1.5236101150512695,222.5840301513672,68.05697631835938, 23.934247970581055
119,1135750944,0.7371823,0.080577485,-0.67052394,-0.02161774,0.6865026354789734,7.1025919914245605,-12.034793853759766,202.37608337402344,-6.134065628051758, -7.0733418464660645
120,1135767611,0.7279048,0.10303409,-0.6778428,-0.008239295,5.834550857543945,6.080162525177002,-6.061807155609131,181.0164794921875,-68.83079528808594, -30.853343963623047
121,1135784278,0.71718353,0.09948594,-0.6892605,-0.025891805,2.0900747776031494,10.6599702835083,-0.11027633398771286,-92.56444549560547,-119.05940246582031, -61.802734375
122,1135800945,0.70768964,0.076047674,-0.6993142,-0.065969616,2.9700193405151367,-4.982185363769531,0.10751613974571228,-298.0517578125,-125.63081359863281, -78.1167984008789
123,1135817612,0.69842815,0.058807984,-0.707043,-0.09396915,1.969215989112854,-13.508271217346191,-3.013150691986084,-210.82086181640625,-104.27010345458984, -50.61236572265625
124,1135834279,0.68878216,0.052679207,-0.7155289,-0.10403168,1.990522027015686,-8.285429954528809,-2.315190553665161,-69.57119750976562,-95.19605255126953, -19.381336212158203
125,1135850946,0.6778307,0.05066365,-0.72549725,-0.10785528,2.9940590858459473,-3.5285587310791016,-0.03817716985940933,-17.87357521057129,-103.29998779296875, -11.069538116455078
126,1135867613,0.66497076,0.050000977,-0.7368423,-0.11125457,3.8244552612304688,-1.35769784450531,0.051098860800266266,-7.758362293243408,-118.10536193847656, -17.069765090942383
127,1135884280,0.6510626,0.047074337,-0.748236,-0.11850964,3.667418956756592,-0.9872137308120728,0.04750745743513107,-37.216148376464844,-126.73051452636719, -24.170686721801758
128,1135900947,0.63810164,0.044094034,-0.75817716,-0.12668726,3.3960556983947754,-2.6661150455474854,1.6496446132659912,-43.68267822265625,-115.74188995361328, -27.847013473510742
129,1135917614,0.6290693,0.045335807,-0.7654296,-0.12780574,5.59450626373291,-3.445697546005249,3.043426275253296,8.122986793518066,-77.79325866699219, -16.515810012817383
130,1135934281,0.6186587,0.052395552,-0.7740786,-0.12376887,5.284483909606934,9.941829681396484,-12.394245147705078,62.08648681640625,-84.63581085205078, -25.941038131713867
131,1135950948,0.60285777,0.02921335,-0.7819817,-0.15560934,17.994606018066406,21.074800491333008,0.021423310041427612,-256.3346252441406,-148.1409912109375, -21.87399673461914
132,1135967615,0.59458834,0.019890716,-0.78496224,-0.17292602,9.01021957397461,-11.299129486083984,-4.449934005737305,-127.1689453125,-69.8309097290039, -28.077537536621094
133,1135984282,0.59243375,0.037073754,-0.78973377,-0.15481776,27.293424606323242,6.569793701171875,-1.9026192426681519,173.44415283203125,-7.642384052276611, -19.707326889038086
134,1136000949,0.5966483,0.03928041,-0.7860428,-0.15685919,27.120193481445312,2.0156216621398926,-1.130054235458374,-7.558768272399902,40.01415252685547, -15.983047485351562
135,1136017616,0.60516846,0.04135377,-0.780345,-0.15206265,29.061737060546875,-9.317395210266113,-6.215554237365723,25.530065536499023,72.84104919433594, 16.47764778137207
136,1136034283,0.6187666,0.046407815,-0.77099407,-0.14332682,22.12004280090332,0.4338463544845581,-3.5413691997528076,53.58749008178711,119.46009063720703, 19.991466522216797
137,1136050950,0.63692635,0.052721374,-0.75778425,-0.13156192,19.217735290527344,1.1244919300079346,-1.6056303977966309,69.75540161132812,162.16921997070312, 29.079992294311523
138,1136067617,0.6599626,0.071013816,-0.7401744,-0.10746421,13.258129119873047,1.7650723457336426,-0.10630273818969727,180.83486938476562,222.01991271972656, 23.23727035522461
139,1136084284,0.6753011,0.07730808,-0.7280888,-0.088763535,3.8517892360687256,6.452133655548096,-5.734476566314697,106.8678970336914,146.07180786132812, 56.73265075683594
140,1136100951,0.68450844,0.07900427,-0.7200733,-0.08186012,2.2283084392547607,9.842388153076172,-13.662653923034668,32.150630950927734,87.708740234375, 23.763734817504883
141,1136117618,0.68793714,0.08660294,-0.71697193,-0.07206849,5.5569233894348145,-4.16981840133667,-11.308751106262207,79.96139526367188,41.72007369995117, 8.147539138793945
142,1136134285,0.684776,0.1010976,-0.71978974,-0.052573413,2.0344667434692383,0.7504644989967346,-9.399556159973145,167.13827514648438,-8.896065711975098, 19.920930862426758
143,1136150952,0.6777282,0.10300178,-0.72648865,-0.04785101,3.25736665725708,4.029879570007324,-4.003040790557861,38.721736907958984,-60.66758346557617, 13.949702262878418
144,1136167619,0.66731256,0.097517096,-0.73660266,-0.05100449,2.7951815128326416,0.6156755089759827,-0.8236878514289856,-31.59303092956543,-101.19071197509766, 15.704093933105469
145,1136184286,0.65490013,0.088036165,-0.7482565,-0.05889111,1.9380732774734497,0.22384166717529297,-0.8839895725250244,-72.02647399902344,-122.91514587402344, 14.618000030517578
146,1136200953,0.64122504,0.07399486,-0.7602404,-0.073421985,0.8393191695213318,1.88447105884552,1.5191129446029663,-125.87865447998047,-136.73121643066406, 7.928617000579834
147,1136217620,0.6263343,0.060547203,-0.77222806,-0.08777228,1.7105063199996948,0.5974393486976624,2.7979321479797363,-121.68437194824219,-142.82034301757812, 5.21750020980835
148,1136234287,0.6115679,0.050816573,-0.7834322,-0.09816895,2.446619987487793,-1.335564136505127,5.732358455657959,-85.1441650390625,-135.088623046875, 2.340423583984375
149,1136250954,0.6014492,0.049752757,-0.79134405,-0.09776962,2.291471242904663,-5.481968402862549,13.566095352172852,5.636168956756592,-86.98308563232422, 2.9593896865844727
150,1136267621,0.59580207,0.053894542,-0.79528874,-0.09814133,-2.8373639583587646,6.668657302856445,-5.264455795288086,18.868940353393555,-43.88689422607422, -27.2647647857666
151,1136284288,0.5828789,0.05279257,-0.80331796,-0.11020761,24.227092742919922,14.693988800048828,-6.669938087463379,-61.09068298339844,-107.92488098144531, -49.433937072753906
152,1136300955,0.5739837,0.0474861,-0.8074696,-0.1275966,8.298799514770508,6.313735485076904,7.490306854248047,-111.59090423583984,-75.31652069091797, -45.35280227661133
153,1136317622,0.5641242,0.06335181,-0.81431127,-0.121029325,20.21524429321289,5.762171745300293,0.6562780141830444,107.87397003173828,-65.50012969970703, -68.08682250976562
154,1136334289,0.55965036,0.07144173,-0.816683,-0.12131397,22.15158462524414,6.584179878234863,-2.6055026054382324,33.41941833496094,-27.899845123291016, -48.60178756713867
155,1136350956,0.55780405,0.0721333,-0.8175539,-0.12352094,21.978633880615234,-5.669521808624268,-6.685681343078613,-8.296479225158691,-14.808094024658203, -13.011246681213379
156,1136367623,0.5612287,0.06651307,-0.81517744,-0.12682495,24.435903549194336,2.9417788982391357,-6.019944667816162,-44.26441955566406,21.28162956237793, 20.404937744140625
157,1136384290,0.5700337,0.06390878,-0.80995,-0.12230522,22.298925399780273,6.218745231628418,-4.413325309753418,6.240494251251221,68.47108459472656, 36.809852600097656
158,1136400957,0.5837102,0.06432231,-0.80153257,-0.11265383,18.296293258666992,5.102302074432373,-2.8966903686523438,41.87800598144531,112.69137573242188, 42.795135498046875
159,1136417624,0.6005616,0.06809656,-0.7907399,-0.09705415,14.465664863586426,2.703047752380371,-1.5243953466415405,84.95993041992188,144.775634765625, 49.58369827270508
160,1136434291,0.6219678,0.08199948,-0.7752205,-0.07393041,10.348459243774414,2.845205545425415,1.7021552324295044,162.4722137451172,199.1979522705078, 26.41108512878418
161,1136450958,0.63833755,0.090537556,-0.7625407,-0.053481996,3.7964649200439453,2.762725830078125,-1.2783458232879639,129.59974670410156,155.69107055664062, 42.71624755859375
162,1136467625,0.6494634,0.09286689,-0.7533633,-0.044913854,1.2511130571365356,7.853653907775879,-4.980538845062256,44.61986541748047,103.16814422607422, 23.539592742919922
163,1136484292,0.65604514,0.09191253,-0.7476693,-0.046346225,2.8438501358032227,4.2867960929870605,-5.432575702667236,-17.89641761779785,56.96812057495117, -2.818533420562744
164,1136500959,0.65887433,0.094581574,-0.7449074,-0.0453033,3.437790870666504,-0.11020666360855103,-3.2884974479675293,14.448144912719727,27.483827590942383, -9.401612281799316
165,1136517626,0.65992934,0.09560907,-0.7437514,-0.04676268,3.4043588638305664,-0.3611047565937042,-2.7944207191467285,-4.190548419952393,9.162701606750488, -11.887042999267578
166,1136534293,0.6608174,0.09363689,-0.7429618,-0.050602973,1.4353657960891724,-2.8577041625976562,-0.6454214453697205,-29.778501510620117,4.265265464782715, -7.232385158538818
167,1136550960,0.66113,0.08978975,-0.74282175,-0.055327702,0.5489223599433899,-1.571929931640625,-0.7656747102737427,-42.24330520629883,-2.812330484390259, -1.650390386581421
168,1136567627,0.6593477,0.08491225,-0.7445577,-0.0607043,0.34576717019081116,-0.6369379758834839,-2.070946216583252,-48.266136169433594,-22.78436279296875, 0.9017488956451416
169,1136584294,0.65441453,0.07888225,-0.7490387,-0.066790275,0.8443523049354553,-0.52101069688797,-4.6061530113220215,-54.16798782348633,-52.12843704223633, 3.825660228729248
170,1136600961,0.6459587,0.07426026,-0.75639075,-0.071388446,0.7620343565940857,-0.6681950688362122,-5.603287220001221,-37.00563049316406,-81.46554565429688, 3.1686174869537354
171,1136617628,0.6355334,0.07039802,-0.76512426,-0.075675994,1.6276161670684814,0.3423803448677063,-0.2560487985610962,-30.40280532836914,-96.98902893066406, 0.2943838834762573
172,1136634295,0.6224454,0.06722393,-0.7751331,-0.08492252,2.3504483699798584,6.920753479003906,1.9321969747543335,-51.53168487548828,-118.61567687988281, -25.759475708007812
173,1136650962,0.60641456,0.06185037,-0.7863994,-0.100062355,19.472375869750977,4.3146538734436035,-7.23900842666626,-90.16830444335938,-143.8474884033203, -40.03233337402344
174,1136667629,0.5940573,0.06217736,-0.7947445,-0.10775791,15.28077507019043,3.505195379257202,4.429224967956543,-29.713388442993164,-104.55842590332031, -38.55208206176758
175,1136684296,0.58280975,0.06784812,-0.80216926,-0.11070034,15.752069473266602,2.9597225189208984,-1.7159825563430786,17.02046012878418,-89.23193359375, -47.93320846557617
176,1136700963,0.5757346,0.07134184,-0.806419,-0.11458156,19.724529266357422,3.883800983428955,-3.3552772998809814,-1.209015965461731,-55.754058837890625, -38.0709114074707
177,1136717630,0.5734695,0.07154343,-0.8074881,-0.118227094,18.929943084716797,-1.654233455657959,-8.676475524902344,-17.78226661682129,-19.137269973754883, -16.7542724609375
178,1136734297,0.5769545,0.06978109,-0.8051193,-0.118480824,21.658145904541016,6.442722797393799,-5.162080764770508,-12.466397285461426,26.544626235961914, 10.113138198852539
179,1136750964,0.5861321,0.07077849,-0.79921585,-0.112666994,24.986217498779297,5.7792067527771,-3.9918153285980225,26.490402221679688,77.12349700927734, 21.852962493896484
180,1136767631,0.5993792,0.0758469,-0.7906356,-0.09943633,20.727930068969727,3.5345802307128906,-1.968921184539795,79.64525604248047,116.82067108154297, 31.161767959594727
181,1136784298,0.6147445,0.081194684,-0.78003556,-0.083915055,17.073631286621094,1.099534273147583,-0.17743083834648132,90.8004379272461,137.81951904296875, 39.396644592285156
182,1136800965,0.63392717,0.092227764,-0.76524264,-0.06352054,13.2538480758667,0.4145963191986084,3.2274067401885986,136.4805908203125,181.7938232421875, 29.239906311035156
183,1136817632,0.64988786,0.10055076,-0.7520513,-0.044215467,5.3965606689453125,0.6063565611839294,0.5481190085411072,121.71969604492188,155.62167358398438, 38.291015625
184,1136834299,0.6604417,0.09860287,-0.7434186,-0.037732977,1.8047938346862793,7.222657203674316,-3.2569222450256348,14.653704643249512,95.21015167236328, 35.624820709228516
185,1136850966,0.66567534,0.090964384,-0.73931646,-0.044873483,1.995438575744629,6.820281028747559,-7.947786808013916,-76.03771209716797,36.913055419921875, 4.920778274536133
186,1136867633,0.6665739,0.082569204,-0.73883414,-0.05464886,3.502091407775879,-0.8826881647109985,-4.809851169586182,-89.11209106445312,-3.1297926902770996, -2.028646469116211
187,1136884300,0.6655783,0.07531957,-0.73992544,-0.061992,2.837606191635132,-2.4082984924316406,-2.232952356338501,-69.89602661132812,-17.891759872436523, 3.3774361610412598
188,1136900967,0.6645659,0.06839598,-0.7410875,-0.066812776,2.362596035003662,-3.495474100112915,-0.17311672866344452,-55.56987380981445,-16.734434127807617, 13.116643905639648
189,1136917634,0.6631906,0.061582312,-0.7425714,-0.07052912,0.9124531745910645,-1.2174137830734253,-0.33412399888038635,-49.14698791503906,-19.472549438476562, 17.36269760131836
190,1136934301,0.6606468,0.05339826,-0.7448899,-0.07638065,-0.01845015585422516,-0.1321684867143631,0.057274166494607925,-65.41493225097656,-30.782825469970703, 14.32859992980957
191,1136950968,0.65589064,0.04449392,-0.7489959,-0.0826644,0.711906909942627,-1.3094502687454224,-3.132730722427368,-69.16516876220703,-50.755821228027344, 15.535680770874023
192,1136967635,0.64825726,0.035030175,-0.75535035,-0.089340456,0.847766101360321,0.019122660160064697,-4.999499320983887,-71.59402465820312,-75.96485137939453, 15.620338439941406
193,1136984302,0.6382677,0.027092008,-0.7635197,-0.094437554,1.6133544445037842,0.6166819334030151,-0.6352567672729492,-54.98170852661133,-94.6931381225586, 13.727119445800781
194,1137000969,0.6249716,0.022459269,-0.7738563,-0.10026506,1.266981840133667,7.75962495803833,-3.7348058223724365,-42.30071258544922,-119.52377319335938, -8.549941062927246
195,1137017636,0.606709,0.013299942,-0.78554446,-0.12102804,15.869421005249023,12.891276359558105,-5.027707099914551,-139.5176544189453,-157.01361083984375, -51.451324462890625
196,1137034303,0.59227526,0.011231375,-0.79474944,-0.13212785,19.161907196044922,3.3478808403015137,5.554385662078857,-60.028587341308594,-119.11119079589844, -45.96748352050781
197,1137050970,0.58072495,0.023628768,-0.8033824,-0.12952721,14.921908378601074,5.487577438354492,-0.7151374816894531,73.1276626586914,-87.3714370727539, -66.71356201171875
198,1137067637,0.57297677,0.035879057,-0.8092411,-0.124658525,23.634986877441406,1.7465424537658691,-3.595200300216675,82.05350494384766,-55.22890853881836, -53.809200286865234
199,1137084304,0.5695462,0.037664074,-0.81115025,-0.12741396,19.227272033691406,-5.260769844055176,-7.657995223999023,-6.049350261688232,-26.688913345336914, -23.109046936035156
200,1137100971,0.571485,0.035438575,-0.8096837,-0.12869304,23.546695709228516,1.563859224319458,-5.257087707519531,-18.056053161621094,13.406704902648926, 8.350006103515625
201,1137117638,0.57881427,0.033165418,-0.8048842,-0.12663378,23.802391052246094,5.357523441314697,-3.2998814582824707,-3.959470510482788,57.150047302246094, 25.45319366455078
202,1137134305,0.5916648,0.036594473,-0.79678345,-0.11717614,17.144155502319336,6.768435001373291,-1.296778917312622,55.59589767456055,107.27403259277344, 27.36271095275879
203,1137150972,0.6072988,0.043970697,-0.7866696,-0.10201075,13.549736022949219,3.2337021827697754,-1.0354758501052856,100.69830322265625,135.1387176513672, 30.855926513671875
204,1137167639,0.62694633,0.057622187,-0.77272344,-0.08072819,9.9854154586792,3.4724273681640625,1.4003150463104248,156.14706420898438,178.98377990722656, 24.18140983581543
205,1137184306,0.64489645,0.073019326,-0.7586255,-0.057135884,3.846360206604004,2.4599387645721436,-3.1604859828948975,176.5948944091797,172.3164520263672, 24.019384384155273
206,1137200973,0.6557394,0.0811553,-0.749294,-0.044483937,1.7500135898590088,9.313821792602539,-7.58088493347168,92.72588348388672,105.87466430664062, 13.135443687438965
207,1137217640,0.6626443,0.07981429,-0.74318844,-0.046945114,3.9155919551849365,3.853959321975708,-5.306497573852539,-24.68764305114746,60.10077667236328, -5.10988712310791
208,1137234307,0.6666501,0.08236719,-0.73936784,-0.04613967,2.6252334117889404,-1.3884614706039429,-4.162374496459961,12.026368141174316,38.180381774902344, -9.646236419677734
209,1137250974,0.6696278,0.08415079,-0.7365353,-0.04509418,2.249929666519165,-2.4728541374206543,-0.4008879065513611,10.572015762329102,28.526697158813477, -4.499923229217529
210,1137267641,0.67252135,0.083154306,-0.73395157,-0.045999482,1.4619545936584473,-1.4706683158874512,1.7738113403320312,-11.999618530273438,24.979000091552734, 0.5643709301948547
211,1137284308,0.6748801,0.07925591,-0.7318698,-0.051209174,0.8279568552970886,1.3990436792373657,2.832200765609741,-46.67047882080078,16.488040924072266, -4.6732306480407715
212,1137300975,0.6752482,0.07504519,-0.7314398,-0.058346283,1.0430668592453003,-0.5452544093132019,-0.5565495491027832,-56.11478042602539,-2.4967808723449707, -11.79823112487793
213,1137317642,0.67249995,0.06942568,-0.73383784,-0.06638159,0.7644802331924438,-0.8125927448272705,-4.744302749633789,-64.44152069091797,-32.29787826538086, -8.727304458618164
214,1137334309,0.6661886,0.06461942,-0.7394283,-0.07254955,0.7776322960853577,-1.242842197418213,-5.216185092926025,-48.141422271728516,-63.532352447509766, -4.3565497398376465
215,1137350976,0.6568808,0.064186946,-0.74757415,-0.074303284,0.7436007857322693,-0.9741361141204834,-5.861083030700684,-3.12192440032959,-86.06578063964844, -6.803462028503418
216,1137367643,0.6391223,0.06805563,-0.76199794,-0.07906205,5.876534938812256,13.140570640563965,-4.107821941375732,7.721139430999756,-156.70965576171875, -44.08449172973633
217,1137384310,0.62071383,0.06293659,-0.77555484,-0.09627326,20.031667709350586,7.066224098205566,5.803887367248535,-97.09883880615234,-166.87799072265625, -51.898311614990234
218,1137400977,0.60709184,0.060713824,-0.7845813,-0.1103902,14.394880294799805,0.18113578855991364,1.0224641561508179,-73.137451171875,-119.24010467529297, -52.83173370361328
219,1137417644,0.59440297,0.06520978,-0.79355085,-0.11273966,23.199750900268555,-1.1994251012802124,-1.884401559829712,18.007923126220703,-104.15616607666016, -39.45817184448242
220,1137434311,0.5860682,0.06262138,-0.7988528,-0.12015509,19.15129852294922,1.3461289405822754,-4.799569606781006,-43.42999267578125,-73.3729476928711, -20.13463592529297
221,1137450978,0.58265513,0.059940927,-0.8008361,-0.12482911,21.055843353271484,-0.9467036724090576,-7.008573055267334,-33.654449462890625,-31.89634132385254, -6.140717506408691
222,1137467645,0.5855483,0.059188846,-0.7988652,-0.12427818,22.661693572998047,4.854506492614746,-5.01688289642334,-3.263704538345337,22.505443572998047, 7.633694648742676
223,1137484312,0.59358746,0.062026683,-0.79385906,-0.1165987,21.334880828857422,7.3792314529418945,-2.4353418350219727,45.657073974609375,68.87061309814453, 19.70802116394043
224,1137500979,0.6062018,0.06890157,-0.78556156,-0.103273705,17.513397216796875,4.588493347167969,-0.6532599925994873,88.43562316894531,112.7470932006836, 23.063365936279297
225,1137517646,0.620733,0.07721087,-0.7754295,-0.08624756,13.66972827911377,1.0702584981918335,0.09351551532745361,112.2614974975586,133.33822631835938, 31.26848030090332
226,1137534313,0.63763434,0.086795084,-0.76249117,-0.06705854,10.050061225891113,1.0533723831176758,1.908793330192566,126.32958221435547,159.70338439941406, 33.56694030761719
227,1137550980,0.6543094,0.09953338,-0.7482205,-0.046248104,3.53218936920166,0.6331525444984436,-1.6553738117218018,148.2088165283203,166.59640502929688, 23.25368309020996
228,1137567647,0.663734,0.10207231,-0.74006486,-0.03664846,-0.10843735933303833,7.706789016723633,-7.679260730743408,51.57550811767578,90.91353607177734, 27.205158233642578
229,1137584314,0.6689742,0.09274551,-0.73609704,-0.04509241,2.170008420944214,4.768429756164551,-5.818769454956055,-90.48967742919922,35.21978759765625, 7.493112087249756
230,1137600981,0.6715285,0.08500622,-0.7342625,-0.051794037,3.9523420333862305,-2.2777857780456543,-4.555329322814941,-71.9982681274414,13.687106132507324, 8.184432983398438
231,1137617648,0.67356217,0.08013725,-0.7327131,-0.054991633,3.075854539871216,-2.708523750305176,-0.90008145570755,-40.713134765625,13.013395309448242, 9.703571319580078
232,1137634315,0.67596334,0.078477964,-0.73065484,-0.055306327,1.314380168914795,-1.575063943862915,1.7006871700286865,-11.749735832214355,20.057519912719727, 6.5877604484558105
233,1137650982,0.67670214,0.07898503,-0.7298629,-0.056002278,-0.3653135597705841,2.5463500022888184,-1.1659431457519531,-2.207789421081543,6.363124370574951, -6.100805282592773
234,1137667649,0.67378026,0.07685611,-0.73243976,-0.060381398,0.8270048499107361,0.4151374399662018,-4.861479759216309,-29.66703224182129,-30.632856369018555, -9.470142364501953
235,1137684316,0.66622126,0.07671095,-0.7393248,-0.060530063,1.4251211881637573,-1.731433629989624,-8.560680389404297,5.02113151550293,-70.65918731689453, 0.5016399621963501
236,1137700983,0.6553555,0.07982762,-0.74890286,-0.05728504,1.8702119588851929,0.8445155024528503,-0.8926572799682617,39.980224609375,-96.27371978759766, -0.575501024723053
237,1137717650,0.6439715,0.085152715,-0.75801235,-0.058884483,0.02618999034166336,9.468395233154297,4.170914649963379,25.08441162109375,-98.59332275390625, -34.2148323059082
238,1137734317,0.6283079,0.07064808,-0.7696942,-0.08837037,12.046246528625488,11.21994686126709,-9.121706008911133,-204.4141845703125,-156.87051391601562, -54.16200637817383
239,1137750984,0.6133218,0.06396088,-0.77992857,-0.10703948,16.99915313720703,4.960434913635254,6.52889347076416,-114.5116958618164,-136.7285614013672, -48.71253967285156
240,1137767651,0.5993951,0.06944773,-0.7896525,-0.11114011,17.169092178344727,0.9490388035774231,-0.7081173658370972,14.253274917602539,-113.97920989990234, -51.99457931518555
241,1137784318,0.5899013,0.07685428,-0.79634935,-0.10926196,22.71006202697754,1.3879839181900024,-2.632016897201538,50.19962692260742,-73.25975799560547, -36.00143814086914
242,1137800985,0.5851997,0.073422864,-0.7990341,-0.117026836,21.29996681213379,-4.604861736297607,-6.337255001068115,-52.114654541015625,-44.14303970336914, -14.513351440429688
243,1137817652,0.5859844,0.070073806,-0.7984132,-0.11936814,25.926156997680664,3.6492526531219482,-4.9797468185424805,-27.579580307006836,2.0971672534942627, 9.149951934814453
244,1137834319,0.5929024,0.070055135,-0.7939843,-0.11466633,24.758132934570312,7.830389976501465,-2.7137653827667236,18.39957618713379,57.11314010620117, 22.279008865356445
245,1137850986,0.60460764,0.07498232,-0.78642553,-0.10179608,19.163192749023438,5.881579875946045,-1.096206545829773,78.45014953613281,103.65150451660156, 30.887737274169922
246,1137867653,0.618773,0.08090656,-0.7767884,-0.084700204,13.767139434814453,3.084414482116699,0.3007139563560486,102.78484344482422,128.3052215576172, 43.77172088623047
247,1137884320,0.6349048,0.085470304,-0.76485926,-0.067685455,9.62414264678955,2.6271045207977295,1.8066673278808594,94.15692138671875,147.57223510742188, 50.589881896972656
248,1137900987,0.6527599,0.09349126,-0.7501529,-0.049343828,5.238351345062256,1.7324109077453613,1.0642437934875488,113.98101806640625,171.0056610107422, 37.435733795166016
249,1137917654,0.66406584,0.09896221,-0.74023575,-0.035699155,0.030285239219665527,5.531310081481934,-6.516062259674072,84.10331726074219,111.752197265625, 30.442604064941406
250,1137934321,0.66970915,0.09371868,-0.7356221,-0.03958834,2.1421680450439453,7.438499450683594,-6.854203701019287,-48.884498596191406,44.4537353515625, 7.376771926879883
251,1137950988,0.6720292,0.08801847,-0.7338337,-0.04602309,3.6863226890563965,-0.6404187679290771,-5.625118732452393,-60.98744201660156,13.15411376953125, -0.8304775357246399
252,1137967655,0.6730007,0.08418526,-0.73304516,-0.05126604,3.1732237339019775,-0.6300911903381348,-2.2116103172302246,-45.27617263793945,3.2661361694335938, -4.632987022399902
253,1137984322,0.67480344,0.08033909,-0.73148745,-0.055790495,1.5763846635818481,-3.060178756713867,1.6578971147537231,-42.48919677734375,11.509944915771484, -1.457603096961975
254,1138000989,0.6768996,0.080065206,-0.72950673,-0.05671756,-0.29309672117233276,-0.6999196410179138,3.1992602348327637,-8.151368141174316,18.23479461669922, -3.0038232803344727
255,1138017656,0.6773486,0.08040014,-0.7289919,-0.057496615,0.3869953453540802,-0.3617396652698517,-1.8375333547592163,-3.078942060470581,3.343770742416382, -5.235339641571045
256,1138034323,0.67485356,0.08062352,-0.73129827,-0.057235155,0.7419014573097229,-1.9278978109359741,-6.13067626953125,4.336169242858887,-23.937217712402344, 0.5454812049865723
257,1138050990,0.66889316,0.0831933,-0.7366744,-0.054514628,1.4270622730255127,0.029683662578463554,-4.525576591491699,30.652137756347656,-53.060264587402344, 0.4115438759326935
258,1138067657,0.66046375,0.0875936,-0.7437882,-0.05379813,1.6085662841796875,2.696223258972168,-3.116178035736084,30.94455909729004,-73.83314514160156, -18.016645431518555
259,1138084324,0.64667696,0.0848656,-0.7552081,-0.06532674,7.232419967651367,8.682836532592773,-9.646993637084961,-59.219207763671875,-130.6806182861328, -36.46411895751953
260,1138100991,0.6315456,0.07653669,-0.7668763,-0.08481281,21.08200454711914,8.013517379760742,6.555462837219238,-124.57423400878906,-145.60154724121094, -42.923736572265625
261,1138117658,0.6188512,0.07698757,-0.7760355,-0.094155155,14.098594665527344,2.5043094158172607,0.7394188642501831,-35.52822494506836,-111.80813598632812, -44.961402893066406
262,1138134325,0.6079473,0.08409266,-0.7840332,-0.0928475,20.684303283691406,2.4440722465515137,-0.3162950277328491,47.958621978759766,-87.50567626953125, -34.659759521484375
263,1138150992,0.6019819,0.08335262,-0.78814006,-0.09749733,17.969623565673828,-0.1982991248369217,-5.085245132446289,-22.268884658813477,-53.24977111816406, -16.49152183532715
264,1138167659,0.60113233,0.08189065,-0.7887625,-0.09893289,23.110578536987305,0.2908077836036682,-4.63303804397583,-13.183753967285156,-9.735589981079102, 1.9614801406860352
265,1138184326,0.60555923,0.08102248,-0.7857647,-0.0964762,24.407615661621094,4.552468776702881,-1.8610360622406006,4.87261962890625,36.371768951416016, 16.153528213500977
266,1138200993,0.6141912,0.081072554,-0.779892,-0.08924653,21.732227325439453,5.717047691345215,0.02377304434776306,30.257963180541992,74.15418243408203, 32.17991256713867
267,1138217660,0.62549573,0.08237035,-0.771989,-0.07748083,16.914997100830078,4.268504619598389,1.2228713035583496,57.164955139160156,100.15017700195312, 45.17055892944336
268,1138234327,0.6386551,0.084387705,-0.7622695,-0.06279815,11.662863731384277,2.4605395793914795,1.677958607673645,73.7792739868164,119.66130828857422, 53.885005950927734
269,1138250994,0.65473384,0.091519095,-0.7489664,-0.04469522,6.912546157836914,2.261347770690918,1.4709832668304443,110.9432373046875,154.7556915283203, 41.318382263183594
270,1138267661,0.6661141,0.09759298,-0.7388391,-0.029746398,1.3815444707870483,4.333871841430664,-6.386003494262695,93.87443542480469,113.85572814941406, 33.195960998535156
271,1138284328,0.67190087,0.09286437,-0.73407984,-0.032447066,1.7236812114715576,6.46241569519043,-5.8116278648376465,-40.45305633544922,47.05010223388672, 9.867231369018555
272,1138300995,0.67502487,0.087706,-0.73158544,-0.03784888,3.313624858856201,-0.6222744584083557,-3.525653839111328,-53.834651947021484,21.55558967590332, 0.6352344751358032
273,1138317662,0.67636186,0.085121274,-0.7304274,-0.042011384,3.6171000003814697,-0.26327335834503174,-6.367245674133301,-34.28099822998047,7.907373905181885, -6.273884296417236
274,1138334329,0.6774051,0.08016326,-0.7296247,-0.048419576,2.790660858154297,-1.4409853219985962,-0.8834360241889954,-56.37531661987305,3.0146937370300293, -4.716362953186035
275,1138350996,0.67841417,0.07605249,-0.7287904,-0.05324664,0.22890645265579224,-0.6303765177726746,1.0266953706741333,-44.514854431152344,4.167516231536865, -1.7136938571929932
276,1138367663,0.67839384,0.07223843,-0.7288256,-0.058113676,-0.7831255793571472,-0.15205448865890503,0.37592965364456177,-42.46616744995117,-4.995622158050537, -3.3433752059936523
277,1138384330,0.67590004,0.06814405,-0.73113084,-0.062954694,0.30346372723579407,-1.233498215675354,-3.053938388824463,-41.497257232666016,-28.084932327270508, -1.6872260570526123
278,1138400997,0.6701144,0.06549236,-0.7364555,-0.06550611,0.8299998044967651,-0.8413810133934021,-6.152896881103516,-20.479257583618164,-56.852474212646484, 1.638574242591858
279,1138417664,0.66169786,0.06630954,-0.7439353,-0.065722786,1.6644197702407837,1.0237536430358887,-2.6941399574279785,9.433351516723633,-77.26067352294922, -5.420466899871826
280,1138434331,0.6484443,0.06784235,-0.7549529,-0.07045476,4.121340274810791,6.327822208404541,-9.236710548400879,-6.6190876960754395,-119.74324798583984, -30.171337127685547
281,1138450998,0.6301396,0.060508188,-0.76943374,-0.085057415,17.910184860229492,10.495200157165527,1.1001462936401367,-93.3636245727539,-170.0039825439453, -28.779155731201172
282,1138467665,0.61681706,0.05427061,-0.778728,-0.10086858,11.783124923706055,5.874422073364258,6.519941329956055,-99.98035430908203,-121.19763946533203, -38.82524871826172
283,1138484332,0.6055499,0.05832776,-0.7867184,-0.10479423,22.35394287109375,-0.5293093919754028,-3.0849575996398926,5.790881633758545,-93.41075897216797, -42.508880615234375
284,1138500999,0.59866667,0.06332039,-0.79165566,-0.104262866,20.057287216186523,1.5294311046600342,-3.3440732955932617,29.801576614379883,-54.599998474121094, -27.298418045043945
285,1138517666,0.59582317,0.06388543,-0.7934758,-0.10634855,23.343894958496094,-3.203984260559082,-4.818134307861328,-6.690849781036377,-24.163347244262695, -12.559951782226562
286,1138534333,0.59782714,0.06337745,-0.7920721,-0.10586909,24.206462860107422,0.855442225933075,-4.278264999389648,-1.6900297403335571,15.76911735534668, 5.61426305770874
287,1138551000,0.60473084,0.06390949,-0.7874092,-0.101012304,22.667400360107422,4.07586145401001,-2.4155197143554688,21.862796783447266,58.424190521240234, 19.907800674438477
288,1138567667,0.61593777,0.06809085,-0.7796565,-0.09011256,18.484102249145508,4.6976542472839355,-1.0329580307006836,65.72980499267578,99.63434600830078, 26.860116958618164
289,1138584334,0.6296973,0.074525684,-0.769611,-0.075011574,13.200525283813477,3.6556098461151123,0.10427950322628021,95.21792602539062,126.27495574951172, 33.10826110839844
290,1138601001,0.6471146,0.08561186,-0.7555575,-0.05519686,10.403213500976562,2.407670021057129,1.5209343433380127,136.42071533203125,167.7146453857422, 28.790271759033203
291,1138617668,0.66343087,0.100614205,-0.74076146,-0.031765144,3.935976028442383,2.8626487255096436,-3.1939454078674316,173.02828979492188,168.80422973632812, 23.74160385131836
292,1138634335,0.6726259,0.1044956,-0.73220325,-0.023104867,1.5565483570098877,9.902904510498047,-7.539330005645752,53.34457015991211,91.51148223876953, 15.862503051757812
293,1138651002,0.6783986,0.098417,-0.7274713,-0.029583761,3.442249298095703,2.219968318939209,-6.6067609786987305,-65.86115264892578,44.3917236328125, -1.464733362197876
294,1138667669,0.6803604,0.09763754,-0.72566605,-0.031400066,2.4249308109283447,-1.5090196132659912,-5.195075511932373,-14.697208404541016,16.129236221313477, -4.96394157409668
295,1138684336,0.6796968,0.0958988,-0.7264006,-0.034031283,1.5656124353408813,-0.5840906500816345,-3.940297842025757,-20.986740112304688,-9.429244041442871, -2.922414541244507
296,1138701003,0.6772808,0.090714216,-0.7290034,-0.04019858,1.4739680290222168,0.2966306805610657,-1.700069785118103,-53.18782424926758,-29.92149543762207, -1.448289155960083
297,1138717670,0.67365474,0.083348654,-0.7327077,-0.048804764,0.7383453845977783,-0.2897355854511261,0.06913365423679352,-74.52056121826172,-43.1911735534668, -1.522330641746521
298,1138734337,0.66847795,0.07633143,-0.7375835,-0.057285003,0.33534935116767883,-1.055243730545044,-0.6272034049034119,-70.9844970703125,-56.251617431640625, -2.5606653690338135
299,1138751004,0.66163874,0.069771916,-0.743739,-0.06495078,1.2311711311340332,-0.9569355845451355,-1.3978134393692017,-63.38791275024414,-69.9437026977539, -1.161367416381836
300,1138767671,0.65308106,0.0648007,-0.7511855,-0.07075832,1.6256396770477295,-1.1047253608703613,-1.9890848398208618,-45.27593231201172,-82.96536254882812, -1.0189181566238403
301,1138784338,0.64324,0.061941735,-0.7594784,-0.0748225,0.9615994095802307,0.2887689471244812,-2.7611336708068848,-25.83042335510254,-91.5358657836914, -4.393589019775391
302,1138801005,0.62670124,0.059344552,-0.7723417,-0.08492442,6.739316463470459,10.853690147399902,-7.830699443817139,-51.001712799072266,-149.08384704589844, -33.96056365966797
303,1138817672,0.6111856,0.049937665,-0.78314894,-0.103132315,19.411399841308594,7.090341567993164,5.279752731323242,-124.94913482666016,-141.8772735595703, -32.65577697753906
304,1138834339,0.6016106,0.04732079,-0.7888838,-0.11613737,11.217025756835938,4.832718849182129,0.35021084547042847,-73.9027328491211,-82.28791046142578, -44.80770492553711
305,1138851006,0.5945588,0.05421763,-0.7938656,-0.11548971,23.9569091796875,1.8217519521713257,-1.2596020698547363,38.15983200073242,-53.543617248535156, -38.11897277832031
306,1138867673,0.5913044,0.05886076,-0.79604447,-0.11492577,22.26189613342285,2.872891426086426,-3.358433485031128,24.836456298828125,-23.34166145324707, -24.333938598632812
307,1138884340,0.5920501,0.059820898,-0.79547745,-0.114516675,25.30231475830078,-2.9942336082458496,-4.416236400604248,5.211948394775391,6.646939277648926, -2.856341600418091
308,1138901007,0.596991,0.059115358,-0.7921472,-0.11229465,25.953500747680664,0.08571378886699677,-3.1854283809661865,4.333729267120361,40.1773796081543, 15.502707481384277
309,1138917674,0.60622567,0.061486237,-0.78598356,-0.10459424,21.976421356201172,3.1536128520965576,-0.6643956899642944,42.81175994873047,79.66260528564453, 23.19496726989746
310,1138934341,0.6186496,0.066370964,-0.77733576,-0.092827715,16.144105911254883,2.9359915256500244,0.5193068981170654,72.15116882324219,110.62321472167969, 27.737327575683594
311,1138951008,0.6333915,0.07257576,-0.76651686,-0.077461824,11.69836711883545,2.2749106884002686,1.285142421722412,94.59489440917969,134.60122680664062, 36.47346496582031
312,1138967675,0.6513112,0.08395844,-0.7519734,-0.057279553,6.852416515350342,1.9402594566345215,1.2631323337554932,139.01467895507812,172.63418579101562, 30.01807403564453
313,1138984342,0.66284895,0.09255051,-0.7419165,-0.040322673,0.8103289604187012,6.452075004577637,-6.026332855224609,115.26940155029297,116.48980712890625, 30.13863754272461
314,1139001009,0.66914517,0.08787546,-0.73667073,-0.042887256,1.8121285438537598,8.179201126098633,-6.00861120223999,-40.070072174072266,51.91987609863281, 10.661368370056152
315,1139017676,0.6730695,0.07984151,-0.73356605,-0.04983778,2.3115782737731934,-1.8530209064483643,-3.0032267570495605,-75.66582489013672,26.602218627929688, 8.329689979553223
316,1139034343,0.6758769,0.07912977,-0.73112464,-0.0488456,2.5492122173309326,-2.187307834625244,-2.513612985610962,-0.9277709722518921,24.855615615844727, 8.059727668762207
317,1139051010,0.67950755,0.07807171,-0.72793114,-0.04786367,1.988978624343872,-2.2507214546203613,0.7527351379394531,-3.328242778778076,32.442039489746094, 9.536869049072266
318,1139067677,0.68382585,0.077139944,-0.72400284,-0.047453254,0.28883761167526245,1.3912439346313477,3.24965763092041,-6.2242021560668945,39.02692794799805, 5.984165191650391
319,1139084344,0.6869072,0.0787019,-0.72097796,-0.046428543,0.351971298456192,0.7361147403717041,-1.6994670629501343,9.537248611450195,29.665822982788086, -3.424391269683838
320,1139101011,0.68604016,0.08197419,-0.72156775,-0.044380154,0.9169372916221619,0.8304036259651184,-8.13851547241211,25.974184036254883,-5.818260192871094, -6.3498148918151855
321,1139117678,0.68053424,0.08610385,-0.7264588,-0.04143986,1.2707915306091309,0.15466691553592682,-7.457229137420654,38.32303237915039,-48.103389739990234, -5.364510536193848
322,1139134345,0.67097527,0.093830444,-0.7345269,-0.038190935,1.9818451404571533,1.6553977727890015,-3.7401087284088135,59.95561981201172,-81.78050231933594, -21.16311264038086
323,1139151012,0.65890175,0.09574175,-0.7448154,-0.04395777,3.9953932762145996,5.36308479309082,-4.3648200035095215,-10.21182918548584,-111.9601058959961, -32.57793045043945
324,1139167679,0.64330816,0.0852333,-0.7580246,-0.06548862,16.777626037597656,10.539236068725586,1.5594520568847656,-143.99815368652344,-157.2565460205078, -39.39740753173828
325,1139184346,0.62936234,0.07982783,-0.76872694,-0.08117768,17.580533981323242,5.760996341705322,5.070303916931152,-92.95697021484375,-131.98504638671875, -40.67806625366211
326,1139201013,0.6175589,0.08392865,-0.7773612,-0.08536146,19.68035316467285,1.7288466691970825,-1.166202425956726,6.806095600128174,-100.32103729248047, -41.05051803588867
327,1139217680,0.6097027,0.08860536,-0.783016,-0.08542779,21.781049728393555,1.4924087524414062,-2.0535428524017334,27.21551513671875,-63.945804595947266, -26.14353370666504
328,1139234347,0.6065718,0.08794381,-0.78522485,-0.08808524,23.49661636352539,-3.1216719150543213,-4.980626583099365,-14.03697681427002,-28.868743896484375, -7.7100138664245605
329,1139251014,0.60845697,0.0861995,-0.7839863,-0.08783793,23.420862197875977,0.5363614559173584,-3.3172409534454346,-8.103869438171387,13.652375221252441, 10.948169708251953
330,1139267681,0.6153433,0.08563444,-0.77909094,-0.08388709,21.02011489868164,3.592081069946289,-2.019385576248169,11.564916610717773,58.733642578125, 20.78883171081543
331,1139284348,0.62616897,0.08743207,-0.77114743,-0.07483236,16.886381149291992,3.9309000968933105,-0.7478991746902466,44.82888412475586,97.01374053955078, 30.162429809570312
332,1139301015,0.640713,0.09291705,-0.7597784,-0.059923034,13.14204216003418,3.616023540496826,1.2251619100570679,87.78221130371094,136.8188934326172, 35.681556701660156
333,1139317682,0.6584818,0.10489216,-0.74425113,-0.038604036,7.705133438110352,3.0611207485198975,0.8637106418609619,146.13807678222656,178.6687469482422, 28.733909606933594
334,1139334349,0.6699083,0.11081533,-0.73374164,-0.023801671,1.3991854190826416,8.240549087524414,-6.9184746742248535,91.26956176757812,117.11088562011719, 32.20625305175781
335,1139351016,0.6773166,0.10207552,-0.72794676,-0.03027655,2.991408586502075,7.459249019622803,-6.99004602432251,-79.7160873413086,56.718910217285156, 11.33811092376709
336,1139367683,0.68118036,0.09689323,-0.72482955,-0.035033226,3.379798173904419,-2.5199480056762695,-7.088830471038818,-51.503868103027344,28.64326286315918, 2.8672163486480713
337,1139384350,0.68286246,0.09720735,-0.72319853,-0.03512616,3.0334877967834473,-1.8999732732772827,-4.406467437744141,-0.7853885293006897,15.431402206420898, -2.308551549911499
338,1139401017,0.68374187,0.095809236,-0.7224781,-0.036653478,1.9890971183776855,-0.6508520841598511,-1.0937714576721191,-15.249560356140137,5.908938884735107, -0.18569225072860718
339,1139417684,0.68415624,0.09141281,-0.7223887,-0.041582428,0.2791481912136078,-0.5645644068717957,1.1423853635787964,-45.790863037109375,-2.3391737937927246, -1.0159223079681396
340,1139434351,0.68258905,0.088452324,-0.7240088,-0.045386642,0.9584747552871704,-0.7296203970909119,-1.6000562906265259,-31.71359634399414,-19.140644073486328, -2.369903564453125
341,1139451018,0.67852795,0.08493043,-0.72798985,-0.0491697,0.9227205514907837,-1.20033597946167,-3.3818960189819336,-32.00515365600586,-42.75580978393555, 1.1543439626693726
342,1139467685,0.67184716,0.08161606,-0.73433566,-0.052075468,0.9155091047286987,-0.7486804127693176,-4.349356651306152,-24.349590301513672,-66.22974395751953, 4.665634632110596
343,1139484352,0.6629731,0.08160659,-0.74231946,-0.05262462,1.014121174812317,0.07558411359786987,-1.3151675462722778,4.597928524017334,-82.2513427734375, -1.024378776550293
344,1139501019,0.65294015,0.08385273,-0.7507691,-0.054627825,-0.1014644056558609,3.6303300857543945,-5.064614295959473,8.268470764160156,-90.26024627685547, -19.3260555267334
345,1139517686,0.63688755,0.077401735,-0.76384926,-0.07012952,11.49007511138916,7.836244583129883,-6.121583938598633,-95.22358703613281,-153.0466766357422, -34.524295806884766
346,1139534353,0.6218078,0.07650112,-0.775316,-0.07992491,18.941972732543945,9.406543731689453,12.27843189239502,-42.23069381713867,-135.0541229248047, -38.918235778808594
347,1139551020,0.6104274,0.07815406,-0.78280514,-0.09212605,14.315685272216797,6.817708969116211,1.058375597000122,-48.04230499267578,-98.60411834716797, -62.769351959228516
348,1139567687,0.6017835,0.0837368,-0.78862864,-0.09439362,25.04517364501953,-1.1469879150390625,-2.157081365585327,19.46599006652832,-69.16681671142578, -41.31866455078125
349,1139584354,0.59749347,0.08369278,-0.7913174,-0.099068575,19.577545166015625,-2.81770396232605,-7.136104106903076,-21.466249465942383,-37.74342727661133, -19.94954490661621
350,1139601021,0.5983234,0.08070477,-0.7906307,-0.10197712,23.79393768310547,1.7595185041427612,-5.317041873931885,-29.323122024536133,3.0207390785217285, 4.670919418334961
351,1139617688,0.60447365,0.07943449,-0.78622484,-0.100761466,24.144296646118164,4.684716701507568,-3.4600741863250732,-5.452741622924805,50.69318771362305, 13.848648071289062
352,1139634355,0.6151299,0.08410782,-0.77864265,-0.0908701,20.91054344177246,5.30424165725708,-1.5549225807189941,61.488525390625,97.03296661376953, 19.118440628051758
353,1139651022,0.6286464,0.09137735,-0.76855683,-0.07599299,15.346504211425781,3.547006607055664,-0.3850707411766052,95.97465515136719,127.3540267944336, 26.64883804321289
354,1139667689,0.64483154,0.09984099,-0.7555325,-0.058266982,12.327705383300781,2.887639284133911,1.7298225164413452,112.99459075927734,156.50413513183594, 32.211875915527344
355,1139684356,0.6631776,0.11361687,-0.73889947,-0.03625833,6.8631720542907715,1.639939308166504,1.5654765367507935,155.94764709472656,188.72645568847656, 22.01274871826172
356,1139701023,0.67423594,0.11932472,-0.72850806,-0.021074811,0.752995491027832,5.527253150939941,-5.739170074462891,91.66866302490234,115.80044555664062, 34.9720573425293
357,1139717690,0.68105,0.11407863,-0.7228926,-0.0241591,1.666398048400879,6.998715877532959,-8.554112434387207,-46.402976989746094,55.98073959350586, 8.598044395446777
358,1139734357,0.6837007,0.11007043,-0.7208668,-0.028099304,3.1205670833587646,-1.8836084604263306,-7.3040547370910645,-41.00681686401367,18.22966766357422, 0.7328293919563293
359,1139751024,0.6832269,0.10933503,-0.721408,-0.028600613,2.7842042446136475,-1.8270398378372192,-5.26422119140625,-5.773948669433594,-5.908223628997803, 1.9513870477676392
360,1139767691,0.6812893,0.10643356,-0.7235524,-0.031455744,2.1571850776672363,-0.2066919207572937,-1.3271489143371582,-26.263233184814453,-22.771360397338867, 2.4947452545166016
361,1139784358,0.6789064,0.10031019,-0.7263263,-0.03839789,0.6343302726745605,0.6003223657608032,1.2371464967727661,-61.238853454589844,-31.59902000427246, -0.27321526408195496
362,1139801025,0.6750907,0.09562705,-0.73014593,-0.0446727,0.2818530797958374,-0.14586909115314484,-0.34154853224754333,-49.89208221435547,-42.827762603759766, -3.9980111122131348
363,1139817692,0.6691667,0.09266986,-0.73564804,-0.049506623,0.7199417352676392,-1.384060025215149,-3.585390090942383,-32.76552200317383,-59.7438850402832, -5.521510601043701
364,1139834359,0.66105694,0.093164966,-0.74285775,-0.04986918,1.5491219758987427,-1.5103693008422852,-1.1475123167037964,7.6873369216918945,-74.54621124267578, -2.1058285236358643
365,1139851026,0.6528975,0.09841185,-0.7495586,-0.046929482,1.512304425239563,-0.3839206397533417,1.662886142730713,45.98687744140625,-68.72235870361328, -11.75681209564209
366,1139867693,0.64134467,0.097917266,-0.75885206,-0.056862414,4.72388219833374,9.512715339660645,-9.732536315917969,-42.99384307861328,-108.46237182617188, -39.313297271728516
367,1139884360,0.6263425,0.09410676,-0.77067935,-0.06994991,19.16455841064453,3.8551199436187744,3.733492136001587,-70.7084732055664,-140.84007263183594, -35.360233306884766
368,1139901027,0.6142605,0.09719833,-0.7790554,-0.079434305,10.546557426452637,9.246971130371094,6.129917621612549,-25.38691520690918,-105.03206634521484, -57.2652473449707
369,1139917694,0.6034833,0.10294662,-0.7862165,-0.084109455,22.32904815673828,2.3741772174835205,-1.600409984588623,10.197851181030273,-88.43936920166016, -51.14680862426758
370,1139934361,0.5980923,0.10639142,-0.7895849,-0.086732745,17.88625717163086,0.9351270794868469,-6.020050048828125,5.7331461906433105,-43.55665969848633, -29.84422492980957
371,1139951028,0.5970351,0.1065553,-0.79022014,-0.08802072,21.49245262145996,0.5749619007110596,-6.017167568206787,-5.38242244720459,-9.756714820861816, -6.045727252960205
372,1139967695,0.6015082,0.10320309,-0.7871573,-0.088999584,25.720651626586914,4.60221004486084,-4.003472328186035,-24.501697540283203,33.55574035644531, 14.842870712280273
373,1139984362,0.6106411,0.104135215,-0.7808073,-0.08132548,23.34305191040039,5.12524938583374,-2.33099627494812,34.717037200927734,81.05401611328125, 27.900447845458984
374,1140001029,0.6232925,0.107364185,-0.7715436,-0.06855996,19.837556838989258,3.007349729537964,-0.9273676872253418,67.55996704101562,117.0228500366211, 36.80257034301758
375,1140017696,0.63802683,0.10961509,-0.7602667,-0.053865243,14.193703651428223,1.432589054107666,0.6350538730621338,71.13155364990234,137.58309936523438, 49.71361541748047
376,1140034363,0.6558803,0.1142395,-0.7452263,-0.037531354,10.420125961303711,1.9453034400939941,3.18414568901062,86.35910034179688,172.43650817871094, 42.78785705566406
377,1140051030,0.6721913,0.12017053,-0.73024476,-0.021471936,4.318017482757568,1.659028172492981,0.054979436099529266,92.04214477539062,164.26699829101562, 34.516273498535156
378,1140067697,0.6824804,0.11775844,-0.721186,-0.01564745,0.9518011212348938,6.5373077392578125,-7.172518730163574,7.986074924468994,96.95726013183594, 33.13041305541992
379,1140084364,0.6880025,0.11041424,-0.7169316,-0.021696454,2.037067413330078,4.579912185668945,-9.653746604919434,-69.60572052001953,40.81014633178711, 5.396072864532471
380,1140101031,0.6886214,0.106106326,-0.71682453,-0.02655588,3.270122766494751,-0.47502025961875916,-7.3296217918396,-45.08777618408203,-1.4049434661865234, -1.4270472526550293
381,1140117698,0.68630826,0.10135441,-0.71955067,-0.030914823,1.9415913820266724,-0.2536781132221222,-3.7062854766845703,-42.11398696899414,-28.823572158813477, 4.637510776519775
382,1140134365,0.6827241,0.09540071,-0.723536,-0.03581413,1.1415669918060303,-0.7433687448501587,-0.29983094334602356,-49.32253646850586,-41.605812072753906, 8.62619686126709
383,1140151032,0.6786843,0.090234905,-0.7277383,-0.040530473,-0.17133469879627228,-0.2801286578178406,2.473288059234619,-44.37910842895508,-44.57830047607422, 5.5729851722717285
384,1140167699,0.6736365,0.08599447,-0.7326233,-0.045635577,-0.23970913887023926,1.3281422853469849,-0.7184632420539856,-41.17461395263672,-52.8485221862793, -0.7377215027809143
385,1140184366,0.6668963,0.08215871,-0.7387837,-0.051946003,0.3310568034648895,0.5503920316696167,-3.1121747493743896,-43.95249938964844,-67.85044860839844, -8.107248306274414
386,1140201033,0.65917337,0.08315224,-0.74548453,-0.053196114,2.2182695865631104,-1.1681935787200928,0.49112555384635925,4.628509521484375,-70.67120361328125, -9.470452308654785
387,1140217700,0.6503551,0.09338412,-0.75233716,-0.04803113,2.0993309020996094,2.8746213912963867,-2.933553695678711,80.04016876220703,-69.94789123535156, -28.101106643676758
388,1140234367,0.6354051,0.090866305,-0.7643235,-0.0617569,8.680768013000488,12.012221336364746,-9.91750431060791,-69.01821899414062,-140.9026336669922, -45.3056640625
389,1140251034,0.6209773,0.08481098,-0.7752426,-0.078701094,18.656705856323242,5.924951553344727,9.32651424407959,-102.0989761352539,-136.83177185058594, -40.999759674072266
390,1140267701,0.6089254,0.087075576,-0.7833891,-0.08905037,12.899981498718262,-1.1827888488769531,-1.483150839805603,-34.17336654663086,-104.2596435546875, -57.5084228515625
391,1140284368,0.5990564,0.09524748,-0.7902645,-0.08684442,24.68608856201172,0.6709230542182922,-1.394157886505127,56.03929901123047,-76.08653259277344, -36.27958679199219
392,1140301035,0.5952163,0.0909818,-0.7926044,-0.09601513,19.633399963378906,-0.35938990116119385,-6.330287456512451,-63.679447174072266,-39.63633728027344, -15.058503150939941
393,1140317702,0.5964918,0.089773126,-0.79170614,-0.096645184,24.87729835510254,3.8839497566223145,-4.258205413818359,-10.052913665771484,8.856653213500977, 4.473907470703125
394,1140334369,0.60315174,0.09257759,-0.78713584,-0.08975079,25.070144653320312,8.012723922729492,-1.4158796072006226,41.5762825012207,60.471702575683594, 14.739548683166504
395,1140351036,0.6140838,0.09752192,-0.7794035,-0.07695018,21.493520736694336,6.213809013366699,-0.18152965605258942,77.80342102050781,101.68021392822266, 28.299320220947266
396,1140367703,0.6275511,0.10343771,-0.7693539,-0.059793655,16.212562561035156,3.051987409591675,0.9054391980171204,102.3694839477539,128.3841094970703, 41.295536041259766
397,1140384370,0.6444143,0.10974057,-0.7556286,-0.041390248,11.165263175964355,1.9402408599853516,3.1132843494415283,106.71878051757812,163.16969299316406, 43.41313171386719
398,1140401037,0.6615332,0.1207211,-0.7398709,-0.01980015,5.056897163391113,1.21025812625885,-1.104478359222412,143.27146911621094,177.14889526367188, 31.78304672241211
399,1140417704,0.67175484,0.12404476,-0.7302619,-0.00873746,1.0748451948165894,7.866273403167725,-8.54076862335205,61.41987609863281,104.30364227294922, 27.03868865966797
400,1140434371,0.6778788,0.11944191,-0.725301,-0.012366208,2.426326274871826,4.416191577911377,-6.2422051429748535,-45.18486785888672,49.437137603759766, 2.868417978286743
401,1140451038,0.68047535,0.1201571,-0.7227585,-0.011677341,2.752387523651123,-1.0617090463638306,-5.066232681274414,4.25493860244751,24.706697463989258, -1.7597883939743042
402,1140467705,0.68176,0.12145068,-0.7213369,-0.011249435,2.331681966781616,-0.20105166733264923,-1.3298243284225464,6.8001322746276855,12.877275466918945, -5.0678606033325195
403,1140484372,0.68296766,0.119864546,-0.7204138,-0.013865703,1.4224203824996948,-0.42851465940475464,1.3044884204864502,-21.713897705078125,7.416778564453125, -4.660866737365723
404,1140501039,0.68343335,0.11664283,-0.7203893,-0.018790606,-0.04550180956721306,1.0305182933807373,0.9275264143943787,-40.1296501159668,-2.5669198036193848, -6.750253677368164
405,1140517706,0.68197465,0.11188076,-0.7222913,-0.026250022,0.10878659039735794,0.005357770714908838,-0.02905155159533024,-58.11711883544922,-23.403064727783203, -9.719171524047852
406,1140534373,0.6776535,0.10586495,-0.72690666,-0.03443461,0.7687245607376099,-0.8106221556663513,-3.140493154525757,-64.90498352050781,-51.13037872314453, -5.330887317657471
407,1140551040,0.66994166,0.10044129,-0.7344092,-0.041634355,1.0181776285171509,0.2440183162689209,-5.277186870574951,-54.08491516113281,-80.6104507446289, -2.429765224456787
408,1140567707,0.6589974,0.095781654,-0.74443245,-0.04867927,1.8360792398452759,0.8461796641349792,-2.726475477218628,-46.861690521240234,-108.12015533447266, -4.761493682861328
409,1140584374,0.64626884,0.09377484,-0.7552922,-0.055472977,1.887690544128418,-0.15402215719223022,-5.158926963806152,-32.090126037597656,-119.94103240966797, -17.2450008392334
410,1140601041,0.62655365,0.08772658,-0.7711249,-0.07142365,11.257235527038574,10.666644096374512,-9.254945755004883,-91.22848510742188,-185.6929168701172, -36.422698974609375
411,1140617708,0.6108976,0.07912679,-0.78249335,-0.09081732,21.1967830657959,5.086536407470703,6.685120105743408,-125.0344009399414,-148.12356567382812, -38.272972106933594
412,1140634375,0.59896797,0.08005157,-0.79037446,-0.1006873,14.051515579223633,-0.3588167428970337,-2.6093358993530273,-37.91718292236328,-102.52043151855469, -49.09892654418945
413,1140651042,0.589592,0.09003583,-0.7969119,-0.09595247,25.66314697265625,2.9624898433685303,-1.278533697128296,76.40582275390625,-68.81639099121094, -37.24335861206055
414,1140667709,0.58492476,0.09130496,-0.79963917,-0.100519374,20.67741584777832,-0.49217742681503296,-4.301524639129639,-15.348939895629883,-39.200679779052734, -26.526161193847656
415,1140684376,0.58443546,0.09217362,-0.79996854,-0.0999498,25.56881332397461,-0.6452659368515015,-4.863124370574951,6.933020114898682,-3.6882424354553223, -2.399411201477051
416,1140701043,0.5891409,0.09097909,-0.79689574,-0.09794613,23.81975746154785,3.3240396976470947,-2.8832013607025146,0.8175173401832581,37.972660064697266, 15.985523223876953
417,1140717710,0.59875095,0.09345294,-0.79048824,-0.08884238,20.99235725402832,4.932987689971924,-1.5702955722808838,49.252716064453125,85.1783447265625, 25.803539276123047
418,1140734377,0.61185825,0.098281436,-0.7813624,-0.073783726,14.684639930725098,3.735729217529297,-0.5098749995231628,87.42937469482422,120.5616226196289, 37.9033317565918
419,1140751044,0.62897176,0.10551722,-0.7683264,-0.054181978,10.915043830871582,2.518796682357788,1.0950630903244019,117.30677795410156,162.7761993408203, 43.48906326293945
420,1140767711,0.64652866,0.11552034,-0.7534453,-0.031245176,4.822408199310303,2.1889045238494873,-2.934302568435669,145.8966827392578,176.48733520507812, 42.145233154296875
421,1140784378,0.6578211,0.118252195,-0.7435785,-0.01947698,1.3681206703186035,9.214227676391602,-8.620221138000488,61.80070495605469,111.34129333496094, 32.83052062988281
422,1140801045,0.6661089,0.10962141,-0.73729336,-0.02609529,4.084077835083008,5.556232452392578,-5.705820083618164,-80.71543884277344,63.46086502075195, 10.453184127807617
423,1140817712,0.67128146,0.106636964,-0.7329866,-0.027221348,2.2853870391845703,-3.4317142963409424,-5.070213317871094,-24.23745346069336,43.870704650878906, 8.00075626373291
424,1140834379,0.6748981,0.108523786,-0.72954047,-0.022503717,2.545093536376953,-2.445618152618408,-1.505702018737793,28.921907424926758,37.340972900390625, 10.691346168518066
425,1140851046,0.67817956,0.10787907,-0.72666353,-0.019884747,1.7294667959213257,-1.07033109664917,0.4037136435508728,6.945047378540039,31.081851959228516, 13.969141006469727
426,1140867713,0.6810924,0.10441261,-0.72439617,-0.021492483,0.40908607840538025,2.103404998779297,1.2548000812530518,-26.96817398071289,22.868450164794922, 8.732491493225098
427,1140884380,0.6823361,0.09994728,-0.72371,-0.02592982,0.008657865226268768,1.3781179189682007,-1.2061078548431396,-44.29472732543945,4.947992324829102, 1.3817827701568604
428,1140901047,0.6810947,0.094023935,-0.7254157,-0.0322822,0.9384685158729553,0.5379303693771362,-2.6956655979156494,-58.522544860839844,-20.191070556640625, 0.8765615820884705
429,1140917714,0.67637795,0.08936563,-0.73017466,-0.037040908,1.043327808380127,0.23982229828834534,-5.2234320640563965,-41.729434967041016,-50.46492004394531, 3.237398386001587
430,1140934381,0.66757286,0.088991836,-0.7381653,-0.03923668,0.6376160979270935,1.5484015941619873,-6.364305019378662,-5.646190166473389,-83.26197052001953, -5.406820297241211
431,1140951048,0.6564359,0.093110695,-0.7475562,-0.039782405,1.2539509534835815,0.7036138772964478,-2.650148630142212,25.194866180419922,-99.17662811279297, -20.386083602905273
432,1140967715,0.63849026,0.095481515,-0.76221186,-0.04740428,7.226463317871094,11.7007417678833,-4.877126693725586,-13.299589157104492,-162.9137725830078, -41.824851989746094
433,1140984382,0.6214475,0.09010068,-0.7756186,-0.0640409,23.19403648376465,9.541382789611816,5.657674789428711,-95.478515625,-161.07879638671875, -41.1251106262207
434,1141001049,0.610476,0.0868498,-0.78313565,-0.08046907,13.177114486694336,1.718521237373352,-0.05800457298755646,-91.46784210205078,-102.64336395263672, -52.512115478515625
435,1141017716,0.6014057,0.09252641,-0.7894768,-0.08047973,26.59048080444336,-2.455476999282837,-3.9958977699279785,32.61315155029297,-72.78352355957031, -31.351593017578125
436,1141034383,0.5971269,0.095056385,-0.7923181,-0.08146425,20.99948501586914,3.4949276447296143,-1.7856947183609009,9.244451522827148,-34.72578048706055, -18.028446197509766
437,1141051050,0.5974496,0.09323546,-0.7920591,-0.083691336,27.481487274169922,-2.2852444648742676,-4.7924933433532715,-20.138715744018555,-0.25619134306907654, 1.0885090827941895
438,1141067717,0.6029893,0.09187499,-0.7883215,-0.08070131,23.581819534301758,1.3069337606430054,-3.096254587173462,4.722249507904053,45.986572265625, 20.632064819335938
439,1141084384,0.6134138,0.092757925,-0.7809483,-0.072387524,20.49344253540039,4.620261192321777,-1.294097900390625,37.736690521240234,92.0788803100586, 30.884443283081055
440,1141101051,0.62748086,0.09611138,-0.77039206,-0.05938793,15.1381254196167,3.772264003753662,0.11306622624397278,69.43192291259766,129.2165985107422, 37.16352462768555
441,1141117718,0.6449491,0.10429426,-0.75601375,-0.04009235,11.124938011169434,2.8973453044891357,1.5956075191497803,119.84146118164062,169.81114196777344, 37.62743377685547
442,1141134385,0.6621506,0.11868096,-0.739754,-0.015361434,5.135261535644531,4.272666931152344,-3.4003241062164307,175.31076049804688,182.32717895507812, 28.092241287231445
443,1141151052,0.67203134,0.124124296,-0.7300328,-0.0044425656,1.9773224592208862,11.012079238891602,-7.9607720375061035,71.00923919677734,103.13363647460938, 15.328899383544922
444,1141167719,0.6790792,0.11993505,-0.7241482,-0.008776425,2.7457776069641113,2.402393102645874,-4.918866157531738,-47.451072692871094,58.02316665649414, -3.4201440811157227
445,1141184386,0.6821774,0.12384764,-0.7206038,-0.0051332796,2.227607250213623,-3.039989948272705,-5.121825695037842,33.45960998535156,34.57923889160156, -4.785977363586426
446,1141201053,0.68332684,0.12733452,-0.71891963,-0.0023551348,1.7659844160079956,-0.17396290600299835,-2.280769109725952,28.856409072875977,15.53518009185791, -5.278695106506348
447,1141217720,0.6843317,0.1240817,-0.7185111,-0.0059932205,1.3718185424804688,0.9603307247161865,0.16653573513031006,-34.38656997680664,3.1388041973114014, -1.0053151845932007
448,1141234387,0.6856893,0.116829656,-0.71831614,-0.014271642,0.4658431112766266,0.5326030850410461,0.5341436266899109,-76.4146957397461,-0.25553038716316223, -2.875392198562622
449,1141251054,0.6865617,0.11111813,-0.7181998,-0.02181005,0.007646481040865183,-0.7649607062339783,0.8501652479171753,-65.10913848876953,-2.2927815914154053, -6.9744954109191895
450,1141267721,0.6864867,0.10660854,-0.71874976,-0.027750777,0.4467359185218811,-1.2414076328277588,-1.4703946113586426,-50.71379852294922,-8.732731819152832, -5.0180745124816895
451,1141284388,0.68411195,0.10254154,-0.7214006,-0.03252444,0.3324344754219055,-0.13064520061016083,-4.7571306228637695,-40.792808532714844,-29.053647994995117, -0.6209468841552734
452,1141301055,0.6782615,0.101743706,-0.72692215,-0.03456218,0.4588693082332611,-0.426315039396286,-5.546677112579346,-8.771822929382324,-57.05612564086914, -2.7248640060424805
453,1141317722,0.66468143,0.10561492,-0.7387218,-0.036537502,0.4109947383403778,5.560021877288818,-16.73208236694336,20.199121475219727,-123.72370147705078, -23.226655960083008
454,1141334389,0.6466545,0.10389163,-0.754004,-0.050231222,15.511637687683105,7.218199253082275,3.2799110412597656,-60.82566833496094,-171.87704467773438, -46.85854721069336
455,1141351056,0.63126844,0.10152926,-0.766283,-0.06326781,16.11622428894043,4.760133266448975,12.734354972839355,-63.09894943237305,-144.67001342773438, -41.79734802246094
456,1141367723,0.6169114,0.104678266,-0.77674294,-0.07165123,17.218015670776367,2.876580238342285,-0.029943794012069702,-16.04973602294922,-125.9555435180664, -51.466102600097656
457,1141384390,0.607002,0.10560693,-0.78362066,-0.07959356,22.24546241760254,4.261130332946777,-3.353604316711426,-28.061012268066406,-87.8412857055664, -38.15731430053711
458,1141401057,0.6015141,0.104713745,-0.78726655,-0.08618612,20.179553985595703,-2.8111190795898438,-5.4682135581970215,-33.389976501464844,-50.59026336669922, -22.663257598876953
459,1141417724,0.60074586,0.103856355,-0.7878095,-0.08760753,25.68361473083496,4.1638689041137695,-4.102608680725098,-10.561941146850586,-8.473852157592773, -1.0371997356414795
460,1141434391,0.6047999,0.10306601,-0.78502506,-0.08562114,25.35551643371582,3.0090599060058594,-2.5627710819244385,2.6868679523468018,33.80495834350586, 13.161910057067871
461,1141451058,0.61317253,0.10488398,-0.77908516,-0.07775351,22.072547912597656,3.678133249282837,-0.9735214710235596,40.334503173828125,75.86534118652344, 23.78744125366211
462,1141467725,0.62479836,0.10744966,-0.7704772,-0.066686854,16.64403533935547,1.9490976333618164,0.18668977916240692,56.8583869934082,107.17539978027344, 33.052703857421875
463,1141484392,0.63950187,0.11143755,-0.75887805,-0.052191496,12.089181900024414,1.6545073986053467,1.54067063331604,77.48007202148438,139.4545440673828, 39.42458724975586
464,1141501059,0.6572225,0.11931949,-0.7434291,-0.03369438,7.089644908905029,1.3725876808166504,0.7638083696365356,111.80339813232422,176.5380401611328, 34.830718994140625
465,1141517726,0.66811657,0.12200468,-0.73368704,-0.02095459,0.010470360517501831,7.3512115478515625,-7.699127197265625,65.80260467529297,109.8819351196289, 38.485618591308594
466,1141534393,0.6754504,0.11128513,-0.72834337,-0.029986683,1.8855342864990234,7.03621244430542,-5.93675422668457,-101.95018768310547,51.65269470214844, 9.38766098022461
467,1141551060,0.6797876,0.10669896,-0.7248416,-0.03330805,2.9732837677001953,-4.970418930053711,-5.902081489562988,-42.15110778808594,33.82197952270508, 6.089694499969482
468,1141567727,0.68159795,0.111429974,-0.72267485,-0.027377343,3.5376811027526855,-1.2824996709823608,-2.810072422027588,49.57374572753906,23.99336051940918, 3.214076519012451
469,1141584394,0.682333,0.11388813,-0.7217194,-0.023934979,1.9624052047729492,0.6526114344596863,-0.8761618137359619,27.579986572265625,10.679305076599121, 3.5409982204437256
470,1141601061,0.6820624,0.11145921,-0.72226125,-0.026592981,0.2694312632083893,2.556642770767212,-0.222395658493042,-24.587528228759766,-6.904763221740723, 0.18318885564804077
471,1141617728,0.67970055,0.10781802,-0.7248331,-0.031625282,0.6987956166267395,-0.21270237863063812,-2.448176622390747,-40.06143569946289,-28.844667434692383, -3.720187187194824
472,1141634395,0.6744561,0.104212224,-0.73001856,-0.036359534,1.1980046033859253,-0.16657453775405884,-5.587532043457031,-35.721744537353516,-55.16070556640625, -1.199217677116394
473,1141651062,0.6662423,0.10034222,-0.73781997,-0.040929217,0.38772231340408325,-0.32957011461257935,-5.140877723693848,-33.356815338134766,-82.06051635742188, 2.0163965225219727
474,1141667729,0.6559657,0.098052174,-0.7470805,-0.044344347,1.2784290313720703,0.6066232323646545,-0.09974884241819382,-18.45746421813965,-97.89264678955078, -0.28762784600257874
475,1141684396,0.64343894,0.09794759,-0.7575525,-0.050074436,0.08885706216096878,6.254989147186279,-1.2880022525787354,-18.586837768554688,-115.81087493896484, -21.821500778198242
476,1141701063,0.6253522,0.08980222,-0.77185327,-0.07150695,16.143762588500977,11.334003448486328,-5.990288734436035,-130.85675048828125,-175.05897521972656, -48.65711975097656
477,1141717730,0.61299086,0.08348214,-0.7806831,-0.08835866,16.836641311645508,3.975661277770996,5.121391296386719,-104.77574157714844,-117.35256958007812, -39.10806655883789
478,1141734397,0.6018607,0.090409525,-0.78814375,-0.09175942,16.757293701171875,0.6278514266014099,-1.566670536994934,21.72437286376953,-89.3466567993164, -53.56565475463867
479,1141751064,0.5948359,0.09982927,-0.7925955,-0.089428745,22.201631546020508,4.363642692565918,-2.174858331680298,58.63688659667969,-49.5490837097168, -42.69709014892578
480,1141767731,0.5927116,0.09926843,-0.79366237,-0.09454841,20.874645233154297,-5.107414245605469,-6.97138786315918,-28.224374771118164,-20.309545516967773, -18.118276596069336
481,1141784398,0.595883,0.09543251,-0.79147476,-0.096873395,23.12828254699707,3.071671962738037,-4.88369607925415,-32.18979263305664,21.617956161499023, 12.223610877990723
482,1141801065,0.6043808,0.093648404,-0.78555846,-0.094087854,23.12015724182129,6.147143840789795,-2.6556975841522217,-1.9871103763580322,70.56490325927734, 23.050745010375977
483,1141817732,0.61690426,0.09761797,-0.77654994,-0.082887545,19.84601593017578,6.33524751663208,-0.5899648666381836,62.80183410644531,114.24920654296875, 27.548593521118164
484,1141834399,0.63138235,0.103239104,-0.76561993,-0.067266636,13.79369068145752,3.567103147506714,0.49990710616111755,91.037353515625,136.6890411376953, 37.32296371459961
485,1141851066,0.64701533,0.10898227,-0.7529809,-0.050144903,10.284329414367676,2.504136562347412,1.244646430015564,97.88927459716797,151.26902770996094, 42.52412033081055
486,1141867733,0.6644769,0.119376406,-0.73705465,-0.031158661,6.143035411834717,1.4463012218475342,1.4185636043548584,125.73670959472656,178.32461547851562, 24.92139434814453
487,1141884400,0.6764138,0.12767139,-0.7252142,-0.015150476,2.0466301441192627,2.5381431579589844,-4.760774612426758,106.4937744140625,128.7292022705078, 24.133790969848633
488,1141901067,0.68311507,0.12614915,-0.7191886,-0.014450075,1.30913245677948,6.812225818634033,-7.375758647918701,-10.328859329223633,61.176883697509766, 6.489750862121582
489,1141917734,0.6863487,0.12162528,-0.7167725,-0.019255241,3.4522602558135986,-0.38169217109680176,-5.90559196472168,-48.2603874206543,22.1154727935791, -1.641662359237671
490,1141934401,0.6869701,0.120210655,-0.71635723,-0.021312213,3.179192066192627,-0.75243079662323,-4.6428704261779785,-17.632455825805664,2.590362787246704, -2.6834328174591064
491,1141951068,0.6869859,0.11866366,-0.7165504,-0.022926448,1.8422842025756836,-1.7989996671676636,-1.141058325767517,-15.507314682006836,-2.85537052154541, 0.45318514108657837
492,1141967735,0.68677586,0.117663555,-0.716899,-0.023461865,-0.4681969881057739,-0.4516216814517975,1.5694328546524048,-7.437404155731201,-3.727301836013794, 2.9136946201324463
493,1141984402,0.6854938,0.11711454,-0.7181794,-0.024517862,0.06366769969463348,-0.4935864210128784,-0.975113570690155,-6.850518703460693,-13.782052040100098, -1.1940265893936157
494,1142001069,0.68142295,0.11820134,-0.7218549,-0.024841102,0.5284662246704102,-0.9212998151779175,-5.715583801269531,7.127675533294678,-37.96070098876953, -4.368359565734863
495,1142017736,0.6751091,0.12060057,-0.7273946,-0.024102407,2.0181849002838135,-0.15727540850639343,-1.70725679397583,20.655941009521484,-56.65977096557617, -4.789533615112305
496,1142034403,0.66659296,0.12699685,-0.7341427,-0.023682388,1.0193361043930054,3.0948219299316406,-6.180266380310059,39.64344787597656,-72.86373901367188, -25.63260269165039
497,1142051070,0.6524447,0.12039794,-0.7470315,-0.04200922,10.717174530029297,10.314130783081055,-4.629029750823975,-108.64547729492188,-147.85264587402344, -41.472835540771484
498,1142067737,0.6378104,0.11561697,-0.75936735,-0.056502912,15.474889755249023,6.549490451812744,11.284859657287598,-80.45994567871094,-144.1135711669922, -34.10317611694336
499,1142084404,0.62411964,0.118102886,-0.76943195,-0.067093,13.78351879119873,7.730815410614014,2.2966535091400146,-29.75420379638672,-123.4900131225586, -56.3396110534668
500,1142101071,0.61356956,0.121584125,-0.77688223,-0.07214194,23.268220901489258,4.253588676452637,-0.9611771702766418,0.14419803023338318,-90.7570571899414, -38.458099365234375
501,1142117738,0.60708714,0.1204119,-0.78151524,-0.07861728,20.280628204345703,-3.772397518157959,-5.37301778793335,-31.88170051574707,-60.70241928100586, -19.99710464477539
502,1142134405,0.6052589,0.117653705,-0.7830825,-0.081250764,24.41609001159668,1.2034411430358887,-5.875309944152832,-23.478870391845703,-20.59137535095215, 4.4218621253967285
503,1142151072,0.60897017,0.11482135,-0.7806879,-0.08061369,23.800613403320312,4.449820041656494,-3.1717588901519775,-12.937033653259277,28.304256439208984, 18.250574111938477
504,1142167739,0.61723566,0.116298586,-0.7746969,-0.07307507,22.57573699951172,4.606963634490967,-1.266125202178955,36.546566009521484,75.59907531738281, 23.6726131439209
505,1142184406,0.6284418,0.12077729,-0.76610196,-0.05968114,17.266481399536133,2.920433759689331,0.4028792381286621,76.82389068603516,108.4491958618164, 31.911884307861328
506,1142201073,0.641631,0.12500615,-0.7554808,-0.043957815,12.375394821166992,2.092515230178833,1.474743127822876,85.5497055053711,129.4302215576172, 42.40969467163086
507,1142217740,0.65805435,0.13285391,-0.7407296,-0.025195044,8.178488731384277,2.1255273818969727,2.527636766433716,113.25395202636719,168.10885620117188, 34.45296859741211
508,1142234407,0.6712914,0.13972853,-0.727873,-0.0067207227,2.3780577182769775,1.5810506343841553,-4.307950973510742,110.65444946289062,142.82627868652344, 39.29625701904297
509,1142251074,0.678758,0.1380032,-0.7212754,-0.0022276598,-0.5055320858955383,10.166861534118652,-8.344106674194336,6.789557456970215,71.27213287353516, 23.571578979492188
510,1142267741,0.6836497,0.12745515,-0.718513,-0.0108691715,3.3210904598236084,1.5425108671188354,-6.346491813659668,-96.9423599243164,28.134641647338867, 9.766814231872559
511,1142284408,0.6861796,0.12476859,-0.7165445,-0.012443371,3.487725257873535,-1.0125757455825806,-4.01861047744751,-22.97182273864746,19.593183517456055, 4.68127965927124
512,1142301075,0.68918943,0.12349738,-0.7138665,-0.0127113415,1.9259662628173828,-2.1346681118011475,0.4873792827129364,-10.348611831665039,26.597322463989258, 3.2804648876190186
513,1142317742,0.69187176,0.12433611,-0.7111506,-0.010937423,-0.448579877614975,1.4587382078170776,0.9649317264556885,9.91600513458252,27.07562828063965, 2.5045387744903564
514,1142334409,0.6936851,0.12394654,-0.7094202,-0.012726456,-0.3862612545490265,1.8011105060577393,-1.559613585472107,-12.516613006591797,14.989874839782715, -7.641432285308838
515,1142351076,0.69289875,0.12261323,-0.7103603,-0.015684374,0.3234478235244751,-0.9306297898292542,-5.224000930786133,-20.251070022583008,-11.480609893798828, -6.54072904586792
516,1142367743,0.68781537,0.12389351,-0.7150692,-0.01539048,0.295116662979126,-1.356158971786499,-7.2291579246521,12.08179759979248,-47.331565856933594, -1.1144564151763916
517,1142384410,0.67896074,0.12867929,-0.7226907,-0.013141253,1.3767529726028442,2.0877037048339844,-1.7286996841430664,41.750152587890625,-77.51948547363281, -7.040189743041992
518,1142401077,0.66819954,0.13335167,-0.7317213,-0.017646672,2.250807762145996,7.284584999084473,-1.9370218515396118,9.511713981628418,-99.52935028076172, -36.916996002197266
519,1142417744,0.65223145,0.12444365,-0.7466754,-0.03980243,13.229074478149414,9.537859916687012,-2.1738078594207764,-136.1691436767578,-170.77247619628906, -44.804229736328125
520,1142434411,0.63671744,0.118153505,-0.75977993,-0.05801379,16.853796005249023,5.739845275878906,7.793368816375732,-104.9718246459961,-156.03973388671875, -41.93632125854492
521,1142451078,0.6227747,0.12121775,-0.7701095,-0.06625412,17.486543655395508,-1.16386079788208,-1.8031671047210693,-14.221607208251953,-123.97301483154297, -48.77764129638672
522,1142467745,0.61177295,0.1279406,-0.77781457,-0.066106394,22.03556251525879,1.2609659433364868,-1.5652283430099487,42.17457580566406,-88.52845764160156, -33.1580924987793
523,1142484412,0.6060507,0.12535375,-0.7820467,-0.073434435,21.25481605529785,-3.535586357116699,-5.988787651062012,-43.24195861816406,-56.551143646240234, -15.526988983154297
524,1142501079,0.605303,0.12158,-0.7829125,-0.07664918,23.243961334228516,2.065089225769043,-5.762395858764648,-32.16132736206055,-12.844324111938477, 7.499413013458252
525,1142517746,0.6101299,0.1202711,-0.779656,-0.07357641,23.29903793334961,7.47830867767334,-3.1031782627105713,5.059359073638916,40.85898208618164, 19.840377807617188
526,1142534413,0.6197467,0.124839626,-0.7723098,-0.062187348,20.864492416381836,5.331332683563232,-1.7203352451324463,68.28675079345703,93.50788116455078, 22.27299690246582
527,1142551080,0.6322263,0.13150653,-0.76218724,-0.04546882,16.292348861694336,2.403794050216675,-0.5093138217926025,101.90618896484375,125.97855377197266, 32.68014144897461
528,1142567747,0.6473109,0.13748145,-0.7492344,-0.027122281,12.229899406433105,1.48839271068573,1.01116943359375,104.17984008789062,153.15570068359375, 41.627777099609375
529,1142584414,0.66536295,0.1472712,-0.73182887,-0.005517137,7.754872798919678,0.676931619644165,1.6998711824417114,134.34178161621094,192.0316925048828, 32.814735412597656
530,1142601081,0.6771097,0.15595546,-0.7190328,0.013887081,2.00750470161438,4.395846843719482,-5.247612476348877,124.75944519042969,136.89564514160156, 32.73365783691406
531,1142617748,0.6843735,0.15480079,-0.71230316,0.017161747,2.0571603775024414,8.370903015136719,-7.93148946762085,3.4237687587738037,70.18612670898438, 13.2712984085083
532,1142634415,0.68721396,0.1529119,-0.7099924,0.016316952,3.1937711238861084,0.7349966168403625,-7.122683525085449,-15.96729564666748,23.54070281982422, 2.8109185695648193
533,1142651082,0.68597937,0.15466833,-0.7107715,0.017731445,2.6519012451171875,0.6339410543441772,-4.903663158416748,16.194307327270508,-8.898093223571777, -0.6003111600875854
534,1142667749,0.68293244,0.15627657,-0.71331733,0.018968409,2.014029026031494,-1.3445916175842285,-0.9344028830528259,16.3289737701416,-26.19757080078125, 1.3869643211364746
535,1142684416,0.680364,0.15376328,-0.71639425,0.015529183,0.6079274415969849,-0.4914120137691498,1.8833470344543457,-26.55644989013672,-30.82449722290039, 0.1284932643175125
536,1142701083,0.6780407,0.14825271,-0.71987426,0.007966223,-0.2423201948404312,0.7586319446563721,1.4322046041488647,-61.18951416015625,-35.57100296020508, -4.007984161376953
537,1142717750,0.67491245,0.14050777,-0.72439325,-0.0023541395,0.2445986568927765,-1.235622763633728,-1.1745972633361816,-84.47001647949219,-47.10564041137695, -4.693477153778076
538,1142734417,0.6694776,0.13417749,-0.7305348,-0.010751692,0.7036585807800293,-1.978218674659729,-4.309241771697998,-66.10677337646484,-64.23796081542969, -1.301317572593689
539,1142751084,0.661755,0.13202082,-0.73787457,-0.013864741,1.5734367370605469,-2.7565174102783203,-2.0238089561462402,-18.157886505126953,-76.00704956054688, 2.96929931640625
540,1142767751,0.6508524,0.13515538,-0.746925,-0.015085226,0.03443214297294617,6.199707508087158,-9.409790992736816,18.52145004272461,-97.68805694580078, -14.049589157104492
541,1142784418,0.63412285,0.12657085,-0.7619323,-0.036437724,13.200753211975098,14.952319145202637,-3.2938709259033203,-131.26548767089844,-174.10121154785156, -38.95473098754883
542,1142801085,0.62057126,0.11923778,-0.7729224,-0.057140354,16.063806533813477,9.836549758911133,10.96000862121582,-126.0066909790039,-139.02464294433594, -45.25058364868164
543,1142817752,0.60818493,0.12652059,-0.7811071,-0.06305436,16.53895378112793,0.1469242423772812,-1.9921824932098389,13.046774864196777,-103.14071655273438, -61.62468719482422
544,1142834419,0.598426,0.13717407,-0.7871572,-0.05876546,23.074514389038086,1.9611841440200806,-2.8452305793762207,78.66056060791016,-69.79790496826172, -37.826114654541016
545,1142851086,0.59447974,0.13495518,-0.7900201,-0.06518851,20.77602195739746,-6.638545036315918,-6.910099506378174,-39.09062957763672,-40.577632904052734, -12.937997817993164
546,1142867753,0.59510386,0.13037209,-0.7901184,-0.06758543,25.45688247680664,1.288344144821167,-4.604460716247559,-32.50390625,-1.79120671749115, 15.722728729248047
547,1142884420,0.60027283,0.12692404,-0.7869351,-0.06554729,26.154617309570312,5.874650478363037,-1.6682298183441162,-9.419331550598145,40.782169342041016, 26.81562042236328
548,1142901087,0.6096802,0.12851135,-0.78017133,-0.055751346,21.770938873291016,6.469527244567871,-0.16975098848342896,48.03622055053711,87.46186828613281, 30.3592586517334
549,1142917754,0.62190497,0.13257025,-0.77073556,-0.04032903,16.531583786010742,3.846238613128662,0.7109638452529907,85.1045150756836,119.63859558105469, 39.414161682128906
550,1142934421,0.6375928,0.13727495,-0.75772643,-0.021957964,11.836697578430176,2.204702138900757,2.3666329383850098,99.37361907958984,156.09324645996094, 46.30904006958008
551,1142951088,0.65470666,0.1475116,-0.74134856,0.0014755176,5.835449695587158,1.9754633903503418,-1.4145804643630981,148.14559936523438,183.86256408691406, 36.730587005615234
552,1142967755,0.6652166,0.15111819,-0.731077,0.013298401,1.3293452262878418,9.462345123291016,-8.608864784240723,65.82203674316406,111.00241088867188, 24.526958465576172
553,1142984422,0.67386335,0.14409974,-0.7246256,0.0078614475,3.802081823348999,3.418893575668335,-4.074629306793213,-67.99525451660156,67.28959655761719, 3.250452756881714
554,1143001089,0.67902976,0.14448571,-0.71969,0.009435542,2.3530025482177734,-3.051257610321045,-5.857134819030762,4.63253927230835,49.51786804199219, 0.5650530457496643
555,1143017756,0.6825928,0.14726803,-0.715691,0.012883136,2.5899620056152344,-0.7820881605148315,-1.9789170026779175,26.604520797729492,38.98735046386719, -1.5503360033035278
556,1143034423,0.6860296,0.14560618,-0.71274585,0.01248328,1.7715271711349487,0.1386203169822693,0.12118332087993622,-13.205060958862305,29.931488037109375, 3.327723264694214
557,1143051090,0.6889513,0.14100437,-0.71091,0.008433709,0.4188959300518036,1.3974885940551758,-0.13369108736515045,-44.52713394165039,18.77045249938965, 1.670915961265564
558,1143067757,0.69029206,0.1356071,-0.7107054,0.0023716537,0.7096465229988098,-0.3353039026260376,-1.990083932876587,-56.680381774902344,1.4126653671264648, -2.2866764068603516
559,1143084424,0.68913776,0.12924458,-0.7129966,-0.0046021156,0.7705637216567993,-0.27854976058006287,-3.638270616531372,-63.457271575927734,-23.441822052001953, 0.46425682306289673
560,1143101091,0.6850821,0.1213076,-0.7181824,-0.012717218,0.35800421237945557,-0.46922552585601807,-4.977047443389893,-73.84161376953125,-52.40536117553711, 5.2494306564331055
561,1143117758,0.6775156,0.114103824,-0.7263047,-0.02085466,0.43477118015289307,0.04605903849005699,-5.5401763916015625,-67.32048797607422,-83.47503662109375, 3.659710168838501
562,1143134425,0.6661842,0.11052931,-0.73707527,-0.026503019,1.612501621246338,-0.615227222442627,-2.380582571029663,-34.670413970947266,-112.0826416015625, -1.3310154676437378
563,1143151092,0.64975023,0.115255885,-0.75079155,-0.029209217,1.7797681093215942,6.277184009552002,-5.317504405975342,22.671449661254883,-147.66751098632812, -28.62904930114746
564,1143167759,0.6304389,0.110276625,-0.7668771,-0.047808897,16.619857788085938,11.055546760559082,-0.001962602138519287,-99.97332763671875,-187.61251831054688, -48.17027282714844
565,1143184426,0.61693025,0.10230014,-0.7773675,-0.06805977,18.855148315429688,5.697957515716553,5.343123435974121,-127.80233764648438,-135.01768493652344, -41.7896614074707
566,1143201093,0.60503274,0.104368195,-0.7857699,-0.07489302,19.183704376220703,-0.6402561068534851,-3.343479633331299,-15.451424598693848,-103.48760223388672, -39.29243087768555
567,1143217760,0.59700364,0.113409504,-0.79097986,-0.07124657,23.7448787689209,4.352212905883789,-2.094909429550171,65.65469360351562,-58.22988510131836, -33.71668243408203
568,1143234427,0.5941213,0.1145589,-0.7927318,-0.07397901,25.62069320678711,-2.6936798095703125,-4.759188652038574,-7.146185398101807,-24.935007095336914, -17.1778564453125
569,1143251094,0.5957737,0.11434717,-0.79170233,-0.072016284,27.13895034790039,-0.5079652667045593,-4.179830074310303,7.81243896484375,14.1048583984375, 9.44688892364502
570,1143267761,0.60238224,0.11475758,-0.7871673,-0.06583636,23.845205307006836,2.833601951599121,-1.876835584640503,27.61363983154297,59.01101303100586, 22.964012145996094
571,1143284428,0.61365145,0.11834313,-0.77876216,-0.054377746,18.80880355834961,3.848417043685913,-0.2611068785190582,63.895172119140625,105.81475067138672, 26.667516708374023
572,1143301095,0.6286067,0.12385595,-0.7668489,-0.038164504,14.246942520141602,2.1722254753112793,0.47222647070884705,93.18343353271484,144.89779663085938, 34.93159103393555
573,1143317762,0.6479196,0.12896086,-0.7504658,-0.019262612,9.575197219848633,1.3625602722167969,0.30273860692977905,100.72030639648438,189.3505096435547, 46.03988265991211
574,1143334429,0.66251594,0.1385494,-0.7361224,0.0009727879,2.4734299182891846,6.008968830108643,-4.877719402313232,132.07582092285156,157.68170166015625, 30.024688720703125
575,1143351096,0.67267746,0.13983189,-0.72657627,0.0062950347,3.237861394882202,7.393702507019043,-7.54927396774292,22.96956443786621,99.27032470703125, 8.79507827758789
576,1143367763,0.6790797,0.13821533,-0.7209073,0.0063538505,2.9287455081939697,1.0887470245361328,-5.852536201477051,-13.247729301452637,57.708099365234375, 2.9006547927856445
577,1143384430,0.6829502,0.14102349,-0.71664226,0.010753875,1.355130672454834,-2.349626064300537,-1.9764584302902222,31.199966430664062,42.586692810058594, 2.6954941749572754
578,1143401097,0.68582845,0.14347792,-0.71330124,0.015973246,0.8618277907371521,-1.2064061164855957,-0.5746641755104065,34.46239471435547,34.202537536621094, 9.227189064025879
579,1143417764,0.6884448,0.14173532,-0.711121,0.016191376,0.8690388202667236,1.7100417613983154,-0.8370856046676636,-9.741748809814453,22.975868225097656, 7.387327671051025
580,1143434431,0.6904313,0.1357919,-0.7104595,0.010623292,1.1316114664077759,2.262786626815796,-1.5434950590133667,-57.458072662353516,7.546237945556641, 2.104370594024658
581,1143451098,0.6907221,0.12864661,-0.7115807,0.002509186,0.17903940379619598,1.7675621509552002,-2.86686110496521,-74.13245391845703,-11.472821235656738, -2.3010008335113525
582,1143467765,0.68867093,0.120558254,-0.71493953,-0.007741008,0.0676250159740448,0.9785209894180298,-3.916985511779785,-87.03152465820312,-35.40489959716797, -5.793184757232666
583,1143484432,0.6827464,0.112939015,-0.7216534,-0.017869161,-0.22420832514762878,0.6698691844940186,-5.941205024719238,-80.82566833496094,-70.16715240478516, -4.935727596282959
584,1143501099,0.67328835,0.10851409,-0.7309298,-0.025485167,0.7570651173591614,-0.417625367641449,-2.297504425048828,-50.26528549194336,-97.31748962402344, -7.431225299835205
585,1143517766,0.6592196,0.1096581,-0.7433282,-0.02946615,3.2074124813079834,2.8257555961608887,-6.415036678314209,-2.284742832183838,-131.2441864013672, -17.07501983642578
586,1143534433,0.64105964,0.1086216,-0.7585095,-0.043680564,11.497809410095215,9.821704864501953,-4.078773021697998,-60.82951354980469,-172.8760986328125, -51.026649475097656
587,1143551100,0.6253707,0.10508292,-0.7709257,-0.059527084,18.317102432250977,7.025812149047852,9.85275650024414,-82.91841888427734,-149.7275848388672, -46.43492889404297
588,1143567767,0.61197495,0.1051367,-0.7806205,-0.07116999,18.39052963256836,-0.29082244634628296,-0.8505651950836182,-47.88510513305664,-121.4936294555664, -48.417423248291016
589,1143584434,0.6008788,0.11140081,-0.7883354,-0.07115006,21.600967407226562,1.8083733320236206,-3.2360990047454834,38.18979263305664,-89.38440704345703, -33.03527069091797
590,1143601101,0.59601164,0.11045688,-0.7916161,-0.076901264,21.456003189086914,-2.3896877765655518,-6.152928352355957,-29.865800857543945,-45.28396224975586, -18.188364028930664
591,1143617768,0.5959775,0.11207585,-0.79150236,-0.07598902,26.694934844970703,1.3520056009292603,-3.7798612117767334,11.356823921203613,1.3325334787368774, -4.921994686126709
592,1143634435,0.6006869,0.11441986,-0.78804123,-0.07123842,25.813114166259766,4.36953592300415,-1.2305359840393066,29.761804580688477,44.14889907836914, 6.710742473602295
593,1143651102,0.60925925,0.11972467,-0.7815254,-0.060727943,21.66158103942871,3.550213575363159,0.09661319851875305,68.66852569580078,83.61629486083984, 13.922000885009766
594,1143667769,0.6205417,0.12673487,-0.7725281,-0.04546633,16.270374298095703,1.9274747371673584,0.7803655862808228,98.08486938476562,113.14181518554688, 23.733989715576172
595,1143684436,0.6341195,0.1339579,-0.76104975,-0.027419709,10.880627632141113,0.13888272643089294,1.1240429878234863,111.02835845947266,138.37393188476562, 33.02810287475586
596,1143701103,0.6501439,0.14365973,-0.74607563,-0.006815115,5.7838053703308105,0.7257260084152222,-1.5773500204086304,132.2725830078125,169.206787109375, 28.447357177734375
597,1143717770,0.66010374,0.14678907,-0.73668224,0.0039809155,0.37250033020973206,7.574227333068848,-7.600506782531738,58.793888092041016,103.13854217529297, 23.546567916870117
598,1143734437,0.6681584,0.13581616,-0.7314981,-0.0054171598,2.583953380584717,5.121339321136475,-5.183736324310303,-105.55947875976562,54.4891242980957, 7.688054084777832
599,1143751104,0.6736902,0.12751636,-0.72784543,-0.011068547,2.0646238327026367,-3.1299338340759277,-5.432614326477051,-72.0469741821289,38.403472900390625, 12.841485977172852
600,1143767771,0.67723393,0.12665784,-0.72473073,-0.008828317,3.075700521469116,-1.4654492139816284,-3.714146137237549,3.636629343032837,33.49197006225586, 12.445516586303711
601,1143784438,0.68003017,0.12665524,-0.72214234,-0.0053417734,1.9380220174789429,-0.8610071539878845,-1.4881831407546997,14.505797386169434,28.48971176147461, 14.377143859863281
602,1143801105,0.68211526,0.12517607,-0.7204353,-0.0048014494,0.04767278581857681,2.842435836791992,1.0123920440673828,-6.404888153076172,18.227005004882812, 8.664066314697266
603,1143817772,0.68222713,0.12524074,-0.7203161,-0.005107993,0.15883813798427582,1.798845648765564,-1.120935320854187,-1.585784673690796,0.32038286328315735, -1.6258814334869385
604,1143834439,0.6792219,0.12450561,-0.72325504,-0.007659115,1.1666781902313232,1.4263933897018433,-5.696423530578613,-13.645695686340332,-31.4083309173584, -5.652873992919922
605,1143851106,0.67304313,0.12169547,-0.72941715,-0.0124206245,0.9043236970901489,0.22885340452194214,-4.610795021057129,-31.44812774658203,-64.18866729736328, -3.052255868911743
606,1143867773,0.66475904,0.121891364,-0.7368979,-0.014830192,1.8309786319732666,-1.8416268825531006,-1.6492067575454712,-3.8624417781829834,-78.57766723632812, -6.321225166320801
607,1143884440,0.6550154,0.12624314,-0.7448283,-0.015768591,3.7135465145111084,2.0997002124786377,-4.36641788482666,23.82168960571289,-86.36185455322266, -20.446331024169922
608,1143901107,0.63974947,0.12017414,-0.7583569,-0.034261677,10.846960067749023,14.533122062683105,-7.248953819274902,-107.6267318725586,-156.20159912109375, -41.867740631103516
609,1143917774,0.628011,0.108664066,-0.76823735,-0.06004995,18.1866512298584,5.9535746574401855,7.240509510040283,-173.24546813964844,-129.007080078125, -47.66488265991211
610,1143934441,0.6158602,0.1108818,-0.7769503,-0.069065675,17.458337783813477,2.4024291038513184,-0.6780978441238403,-25.42580223083496,-108.02239990234375, -48.794918060302734
611,1143951108,0.60638446,0.11872769,-0.7834136,-0.06682365,20.31357765197754,4.002980709075928,-2.510862350463867,55.370792388916016,-72.9969482421875, -31.646753311157227
612,1143967775,0.6023814,0.117741205,-0.7861687,-0.07220051,22.420183181762695,0.26323530077934265,-2.47182035446167,-28.666656494140625,-38.36066436767578, -16.365280151367188
613,1143984442,0.60207623,0.117076896,-0.78649265,-0.07230003,27.85809898376465,0.019547946751117706,-2.651501178741455,-3.0472068786621094,-3.9152979850769043, 3.5676119327545166
614,1144001109,0.6064228,0.11679664,-0.78357774,-0.067943946,23.95876693725586,4.118418216705322,-1.4564995765686035,17.224985122680664,38.36360168457031, 19.578887939453125
615,1144017776,0.6148219,0.117597274,-0.7775776,-0.059484567,19.405811309814453,3.8493475914001465,-0.7335019707679749,39.13824462890625,76.81061553955078, 30.261249542236328
616,1144034443,0.6260991,0.1205771,-0.76902956,-0.04533316,13.590215682983398,2.6279094219207764,0.2215423285961151,75.41777038574219,108.42513275146484, 41.78376388549805
617,1144051110,0.6410418,0.12364695,-0.7569087,-0.029439766,9.477362632751465,2.5488104820251465,1.2984824180603027,80.87540435791016,144.63473510742188, 46.988319396972656
618,1144067777,0.6559066,0.13257724,-0.7430518,-0.009181028,3.68796443939209,2.566800117492676,-3.1945648193359375,129.2168426513672,156.76925659179688, 34.24404525756836
619,1144084444,0.6643816,0.13354498,-0.73536474,-0.0013746099,0.3810586929321289,8.76928424835205,-8.093677520751953,35.85204315185547,84.44833374023438, 24.015769958496094
620,1144101111,0.67022157,0.12529153,-0.73146766,-0.0077885743,3.234189748764038,2.475620985031128,-4.484049320220947,-75.68914031982422,40.749820709228516, 9.221206665039062
621,1144117778,0.6734944,0.12378348,-0.72870874,-0.008191761,3.1030642986297607,-0.4901449978351593,-3.8945608139038086,-12.077911376953125,28.17621612548828, 3.8553318977355957
622,1144134445,0.6763764,0.12346713,-0.7260827,-0.008675199,3.3637032508850098,0.5819807052612305,-1.027047872543335,-6.650032997131348,25.633731842041016, -2.403642416000366
623,1144151112,0.6798534,0.12238392,-0.7229942,-0.01008396,1.3193607330322266,-0.3076256811618805,0.9679093360900879,-15.37384033203125,29.92969512939453, -3.235562562942505
624,1144167779,0.6832693,0.12051806,-0.7200349,-0.012988212,-0.20692388713359833,0.8682811260223389,2.7952075004577637,-26.408649444580078,27.698225021362305, -6.236648082733154
625,1144184446,0.6847118,0.11949451,-0.718781,-0.015650477,-0.1104070171713829,-0.3941796123981476,-0.9286929965019226,-19.450668334960938,10.167703628540039, -8.025908470153809
626,1144201113,0.6827548,0.11822346,-0.720777,-0.018715652,0.11387287080287933,0.40180325508117676,-5.592555999755859,-19.472190856933594,-22.282411575317383, -6.400069713592529
627,1144217780,0.67685825,0.11731633,-0.7263742,-0.021930354,0.9599254131317139,0.737448513507843,-5.4587626457214355,-14.838937759399414,-58.72872543334961, -6.483312129974365
628,1144234447,0.66744244,0.12156424,-0.7343563,-0.021543482,2.025242567062378,-1.5324314832687378,-7.094349384307861,30.302257537841797,-83.67489624023438, -14.070444107055664
629,1144251114,0.6526262,0.123685025,-0.7469727,-0.028517105,8.005105972290039,7.791838645935059,-11.269208908081055,-11.431863784790039,-138.6136016845703, -34.05815505981445
630,1144267781,0.63635504,0.121123895,-0.76060194,-0.043201685,16.74269676208496,7.310906887054443,6.275619029998779,-70.60118865966797,-158.01535034179688, -43.981971740722656
631,1144284448,0.6236993,0.11987028,-0.7701087,-0.05969604,13.076615333557129,3.5093307495117188,2.76637601852417,-78.4665756225586,-122.25682067871094, -61.08519744873047
632,1144301115,0.6111794,0.1265505,-0.77882206,-0.062303025,23.87946891784668,1.025277018547058,-0.6605902910232544,28.67401885986328,-103.47858428955078, -44.14445495605469
633,1144317782,0.602796,0.12848116,-0.78458244,-0.06753215,18.17832374572754,1.7088629007339478,-3.074535846710205,-10.252020835876465,-73.29339599609375, -30.569332122802734
634,1144334449,0.59815264,0.12971596,-0.78771275,-0.06997407,22.748165130615234,-0.9287076592445374,-5.030227184295654,-2.6286613941192627,-40.094512939453125, -15.885509490966797
635,1144351116,0.5982269,0.13010435,-0.7876236,-0.06962319,21.554067611694336,2.3859927654266357,-4.30053186416626,3.172849655151367,0.7477626800537109, -0.4686996042728424
636,1144367783,0.6037017,0.13134927,-0.7836548,-0.06463066,19.73433494567871,4.690394401550293,-4.374786376953125,25.109033584594727,50.4864501953125, 13.071974754333496
637,1144384450,0.6139673,0.13427235,-0.7759315,-0.054277856,17.88590431213379,4.739306926727295,-3.13333797454834,54.96522903442383,97.46222686767578, 25.010238647460938
638,1144401117,0.6272476,0.13945515,-0.76525843,-0.038636766,13.834065437316895,4.128119945526123,-1.6806538105010986,88.83916473388672,131.71405029296875, 33.68396759033203
639,1144417784,0.6429031,0.14483885,-0.7518346,-0.021042995,10.941524505615234,2.52297043800354,-0.610785186290741,96.99642181396484,157.99728393554688, 39.04964065551758
640,1144434451,0.6613468,0.15376289,-0.7341512,0.00011935609,7.941605091094971,1.3620871305465698,0.1517218053340912,127.74403381347656,195.31539916992188, 32.687618255615234
641,1144451118,0.67347056,0.16194001,-0.72103703,0.017861553,1.4535599946975708,6.056098461151123,-7.592982292175293,113.67178344726562,138.97378540039062, 25.75022315979004
642,1144467785,0.68174726,0.15711927,-0.7143369,0.016045839,2.9424118995666504,6.626407146453857,-7.325290203094482,-39.888057708740234,70.10126495361328, 7.288051605224609
643,1144484452,0.685657,0.15267019,-0.7116148,0.013081216,3.083570718765259,-1.7205677032470703,-6.586836814880371,-39.512149810791016,28.788362503051758, 4.918237209320068
644,1144501119,0.68661255,0.14884824,-0.7115487,0.010302007,2.599261522293091,-1.1298891305923462,-3.685870409011841,-32.82273864746094,2.007601499557495, 5.758441925048828
645,1144517786,0.6865513,0.14309745,-0.7128338,0.006241125,2.255842447280884,-1.6357489824295044,-0.678986132144928,-47.27318572998047,-10.491000175476074, 10.585569381713867
646,1144534453,0.68649256,0.13545635,-0.7144089,-0.000049312133,0.9936450123786926,-0.3177611231803894,2.0155816078186035,-67.1557388305664,-13.960246086120605, 9.593212127685547
647,1144551120,0.6859242,0.12864415,-0.7161824,-0.0064808507,0.07668974250555038,-0.5732096433639526,1.3157689571380615,-63.462158203125,-17.555877685546875, 5.036429405212402
648,1144567787,0.6839541,0.12281165,-0.7190084,-0.0123087475,0.6354918479919434,-0.7781714200973511,-1.5749719142913818,-54.5846061706543,-28.85907554626465, 3.92219614982605
649,1144584454,0.6792158,0.11907311,-0.72404337,-0.015785066,0.009661825373768806,-0.8988861441612244,-4.073356628417969,-30.607648849487305,-50.759944915771484, 6.2527079582214355
650,1144601121,0.6701685,0.121651255,-0.7320003,-0.015845481,-0.10906799137592316,2.9742815494537354,-7.466456890106201,19.737384796142578,-82.33531188964844, -7.325046539306641
651,1144617788,0.65571743,0.12590292,-0.74399304,-0.02565484,8.916659355163574,12.175532341003418,-4.656304836273193,-16.66465187072754,-136.0391845703125, -57.8561897277832
652,1144634455,0.64192474,0.12514503,-0.7555426,-0.037778474,16.799205780029297,8.203048706054688,11.047224044799805,-51.63021469116211,-133.5113983154297, -42.84609603881836
653,1144651122,0.6310028,0.12743022,-0.76367915,-0.04890375,11.275141716003418,4.193184852600098,1.2013773918151855,-36.28721237182617,-102.00239562988281, -56.41263961791992
654,1144667789,0.6213239,0.13802832,-0.76978785,-0.048292447,22.66921043395996,2.1664085388183594,0.0007751286029815674,59.693748474121094,-73.6150894165039, -50.504825592041016
655,1144684456,0.61631393,0.13863613,-0.7733168,-0.054024495,21.30631446838379,-0.9308733344078064,-3.0418033599853516,-21.87643814086914,-47.269630432128906, -25.658056259155273
656,1144701123,0.61468184,0.13671409,-0.77479905,-0.056236047,25.557451248168945,-2.846590042114258,-4.599294662475586,-17.936180114746094,-18.256454467773438, 1.9664387702941895
657,1144717790,0.61784,0.13379161,-0.7727945,-0.056237407,24.80251693725586,2.2181708812713623,-2.5061376094818115,-16.3166561126709,23.659250259399414, 15.134068489074707
658,1144734457,0.62507594,0.13510565,-0.76722324,-0.04894444,21.877702713012695,4.227823734283447,-1.201180100440979,35.273685455322266,68.78443908691406, 21.872154235839844
659,1144751124,0.6353104,0.13899744,-0.7588136,-0.035534367,17.373571395874023,3.9241392612457275,0.04753468930721283,74.86859893798828,103.31473541259766, 32.92885971069336
660,1144767791,0.6483021,0.14377679,-0.7474577,-0.018438814,12.704132080078125,3.80417799949646,1.315661072731018,94.64300537109375,134.284912109375, 42.253883361816406
661,1144784458,0.66424716,0.1533533,-0.73160666,0.0032766964,8.013741493225098,2.853259325027466,1.6324511766433716,136.33673095703125,174.66639709472656, 34.136417388916016
662,1144801125,0.67486054,0.16133018,-0.719747,0.02237455,1.7584290504455566,5.122799873352051,-6.189240455627441,121.399658203125,126.85631561279297, 34.573585510253906
663,1144817792,0.68143344,0.16005372,-0.71374303,0.024547977,1.8718547821044922,9.345626831054688,-7.883498191833496,-1.7356302738189697,62.38302993774414, 9.000332832336426
664,1144834459,0.6854492,0.15677653,-0.71071035,0.021721156,3.0952072143554688,-1.7279505729675293,-5.4240851402282715,-33.24876022338867,30.83527946472168, -0.8243889808654785
665,1144851126,0.6857438,0.16362792,-0.7085721,0.03012256,2.702542543411255,-5.540482044219971,-4.59554386138916,73.18463897705078,19.071556091308594, 4.0996832847595215
666,1144867793,0.68397725,0.17116499,-0.70803934,0.039476167,2.4351611137390137,-0.9169520139694214,-1.23391592502594,82.96843719482422,2.422642707824707, 7.4265007972717285
667,1144884460,0.68194526,0.17155887,-0.7098789,0.039882857,1.778895378112793,2.6007814407348633,-0.4324181377887726,5.489467620849609,-18.604511260986328, 2.9750020503997803
668,1144901127,0.67951477,0.16437471,-0.7143471,0.030811565,0.6508766412734985,2.6610591411590576,-1.2228206396102905,-76.54129791259766,-41.9739875793457, -1.247525691986084
669,1144917794,0.67527604,0.15424256,-0.72104365,0.017548997,0.40518030524253845,-1.312312364578247,-1.3492950201034546,-109.29798126220703,-65.36859893798828, -3.426368236541748
670,1144934461,0.66761345,0.14738642,-0.72972834,0.0081677465,0.6641315817832947,-2.5334951877593994,-2.858961820602417,-71.48242950439453,-87.84970092773438, 0.8641154170036316
671,1144951128,0.6574001,0.14391145,-0.7396685,0.0023606287,2.2368438243865967,-0.34572634100914,-1.7092127799987793,-35.51187515258789,-102.95147705078125, 1.695381760597229
672,1144967795,0.6466804,0.14554717,-0.74874634,0.00018382492,1.940858244895935,1.4254212379455566,2.9072299003601074,6.516716480255127,-98.11588287353516, -8.734973907470703
673,1144984462,0.63007075,0.13828161,-0.7639338,-0.017173352,4.597718715667725,14.558615684509277,-9.674935340881348,-105.2590560913086,-170.8202362060547, -24.292566299438477
674,1145001129,0.61531657,0.121551245,-0.7774881,-0.046078216,22.5504093170166,9.818198204040527,1.6347169876098633,-208.8523406982422,-166.0404052734375, -25.821170806884766
675,1145017796,0.60594547,0.120987125,-0.78417873,-0.057064712,11.018630981445312,0.1607288271188736,-1.1845983266830444,-51.08073806762695,-88.11972045898438, -40.469234466552734
676,1145034463,0.5968714,0.13452792,-0.7894734,-0.048774987,26.688404083251953,5.729245185852051,-0.782315194606781,110.70394897460938,-59.17375946044922, -37.25700378417969
677,1145051130,0.5936786,0.13677366,-0.7913281,-0.05137143,23.102209091186523,0.5132116079330444,-4.3088483810424805,-1.3322502374649048,-27.04424285888672, -21.844406127929688
678,1145067797,0.59364885,0.13862798,-0.79119694,-0.04869404,29.17749786376953,-5.352883338928223,-4.598448753356934,22.039287567138672,3.0601916313171387, 1.0216987133026123
679,1145084464,0.5981336,0.13716371,-0.78823596,-0.045901448,25.51327896118164,-0.7061524391174316,-2.7658538818359375,3.745260000228882,38.105567932128906, 18.272659301757812
680,1145101131,0.60745734,0.13788006,-0.7813571,-0.03829114,21.098360061645508,1.5566989183425903,-0.745449423789978,32.960906982421875,85.62152862548828, 24.051380157470703
681,1145117798,0.62060416,0.14023645,-0.7710421,-0.026053062,15.546088218688965,2.220928907394409,0.7516152858734131,60.14493942260742,125.28968811035156, 32.289520263671875
682,1145134465,0.6390285,0.14349668,-0.75562435,-0.009137006,10.87984848022461,1.042885661125183,0.8834298849105835,82.79949188232422,179.6843719482422, 43.482330322265625
683,1145151132,0.65159494,0.15492725,-0.74243754,0.01443838,2.7994449138641357,6.821439266204834,-6.5130720138549805,159.23587036132812,146.50392150878906, 32.12178039550781
684,1145167799,0.661296,0.15300772,-0.7341645,0.016704535,3.640392303466797,11.009750366210938,-4.890967845916748,-6.805229187011719,88.52361297607422, 10.379729270935059
685,1145184466,0.66965795,0.14704208,-0.72784996,0.013097861,2.8920559883117676,-1.0898367166519165,-4.369268894195557,-53.547080993652344,67.20167541503906, 6.399865627288818
