PacketCounter,SampleTimeFine,Quat_W,Quat_X,Quat_Y,Quat_Z,Acc_X,Acc_Y,Acc_Z,Gyr_X,Gyr_Y,Gyr_Z 
1,767974203,0.7194608,-0.062015068,-0.69173574,-0.0056424118,-0.45437726378440857,-0.1669328510761261,0.49552688002586365,-0.21827465295791626,-0.06859911233186722, -0.9085918068885803
2,767990870,0.71950346,-0.06214807,-0.6916779,-0.0058385273,9.728414535522461,-0.856271505355835,0.38570424914360046,-0.33022451400756836,-0.587440013885498, 1.8530980348587036
3,768007537,0.7196374,-0.06251847,-0.6915087,-0.005413461,9.915094375610352,-0.9005945324897766,0.3431268334388733,0.7316076159477234,-1.079959511756897, 1.7645294666290283
4,768024204,0.71958965,-0.063214414,-0.6914981,-0.0050256727,9.975959777832031,-0.7825180292129517,0.35725194215774536,0.514552652835846,-1.0584063529968262, 1.5847153663635254
5,768040871,0.71951485,-0.06351976,-0.69154817,-0.0049912725,9.789278030395508,-0.8584981560707092,0.32383742928504944,0.1567048877477646,-0.9764201641082764, 1.199935793876648
6,768057538,0.7193879,-0.06370137,-0.69166446,-0.004849442,9.82977294921875,-0.9090136289596558,0.2663346827030182,1.1717746257781982,-1.0408743619918823, 0.8243383169174194
7,768074205,0.71916735,-0.063951194,-0.69187176,-0.0047116154,9.91458797454834,-0.8455633521080017,0.2993617057800293,1.2189147472381592,-1.0700857639312744, 0.5020921230316162
8,768090872,0.7189696,-0.06400169,-0.6920739,-0.0045294254,9.862014770507812,-0.8208758234977722,0.35216155648231506,1.5570790767669678,-0.9172546863555908, 0.3149017095565796
9,768107539,0.7188383,-0.063865446,-0.6922239,-0.0043402924,9.826436042785645,-0.8338903188705444,0.27057668566703796,2.250875949859619,-0.8643006086349487, -0.03266900032758713
10,768124206,0.71869874,-0.063714035,-0.6923834,-0.0042243004,9.91154956817627,-0.8236735463142395,0.24169161915779114,2.4368624687194824,-0.7893065810203552, -0.2856968343257904
11,768140873,0.7185536,-0.06359178,-0.6925457,-0.0041793347,9.87022876739502,-0.7545728087425232,0.2901515066623688,1.4799978733062744,-0.5538874864578247, -0.331940621137619
12,768157540,0.7184447,-0.063437276,-0.6926728,-0.004171507,9.838950157165527,-0.7195609211921692,0.28786975145339966,1.0220171213150024,-0.29288122057914734, -0.2917414605617523
13,768174207,0.71835583,-0.06336035,-0.6927716,-0.0042397976,9.887258529663086,-0.6722877025604248,0.24415841698646545,0.7044965028762817,-0.17845648527145386, 0.051526349037885666
14,768190874,0.7182794,-0.06328492,-0.69285756,-0.004278227,9.917299270629883,-0.6711962819099426,0.25805479288101196,0.9224220514297485,-0.03238725662231445, 0.5497061610221863
15,768207541,0.71822363,-0.0631891,-0.6929243,-0.0042350953,9.922212600708008,-0.63193678855896,0.26760318875312805,0.8517694473266602,0.14647261798381805, 1.04780912399292
16,768224208,0.7181944,-0.06315293,-0.6929582,-0.004200209,9.930218696594238,-0.6880361437797546,0.271318256855011,0.5966542959213257,0.37413114309310913, 1.5084023475646973
17,768240875,0.7181979,-0.06315032,-0.6929554,-0.0041080867,9.865426063537598,-0.6807518005371094,0.2651699185371399,0.513195276260376,0.6434102058410645, 1.9660245180130005
18,768257542,0.71822304,-0.06316588,-0.6929284,-0.0039975694,9.868802070617676,-0.7208538055419922,0.2334873378276825,0.42995402216911316,0.8228784799575806, 2.1398067474365234
19,768274209,0.7182652,-0.06325967,-0.6928766,-0.003913328,9.882201194763184,-0.707957923412323,0.27492743730545044,0.06302644312381744,1.0380122661590576, 2.313281297683716
20,768290876,0.7183082,-0.06345392,-0.69281447,-0.0038809315,9.836453437805176,-0.7425409555435181,0.3136538863182068,-0.42395418882369995,1.0379867553710938, 2.4955544471740723
21,768307543,0.7183648,-0.06365078,-0.69273806,-0.0038255989,9.85019302368164,-0.790797233581543,0.3245284855365753,-0.43071600794792175,1.0774558782577515, 2.5273396968841553
22,768324210,0.71842027,-0.063801125,-0.6926674,-0.0037097577,9.90473747253418,-0.8296933770179749,0.3061807155609131,0.006255900952965021,0.9395313858985901, 2.465958595275879
23,768340877,0.7184654,-0.06386097,-0.6926159,-0.0035376889,9.893837928771973,-0.8271129727363586,0.2932533025741577,0.6715458035469055,0.7328882813453674, 2.1607580184936523
24,768357544,0.71849805,-0.06390907,-0.6925785,-0.003353802,9.821355819702148,-0.8427553772926331,0.33460745215415955,0.6781922578811646,0.5845138430595398, 2.041940689086914
25,768374211,0.718518,-0.063952945,-0.6925544,-0.0032125392,9.799110412597656,-0.8200767636299133,0.30924102663993835,0.671340823173523,0.403099000453949, 1.7026360034942627
26,768390878,0.71851206,-0.0639905,-0.69255763,-0.0031087685,9.945929527282715,-0.8593569397926331,0.31014561653137207,0.6538217663764954,0.12191005051136017, 1.4074627161026
27,768407545,0.7185137,-0.063978225,-0.69255763,-0.0029610975,9.912487983703613,-0.7974151372909546,0.37092363834381104,0.9665656685829163,0.14909794926643372, 1.3055883646011353
28,768424212,0.71851283,-0.064023115,-0.6925546,-0.0029192842,9.726224899291992,-0.8000646829605103,0.27102968096733093,0.9717522859573364,0.06811057031154633, 1.0576444864273071
29,768440879,0.71846914,-0.06396569,-0.69260573,-0.0028105956,9.826476097106934,-0.820024847984314,0.2499765157699585,1.1221243143081665,-0.36156165599823, 0.8206756114959717
30,768457546,0.7184286,-0.06390955,-0.69265336,-0.002727545,9.913725852966309,-0.7787072062492371,0.3462027311325073,0.9737372994422913,-0.29430273175239563, 0.6649505496025085
31,768474213,0.7183841,-0.06384416,-0.6927059,-0.0026192595,9.884306907653809,-0.779836893081665,0.31851431727409363,1.1876544952392578,-0.3883269727230072, 0.7407256364822388
32,768490880,0.71833014,-0.063765645,-0.6927695,-0.0024812985,9.8914213180542,-0.764489471912384,0.28154486417770386,1.3980116844177246,-0.5169283747673035, 0.8129535913467407
33,768507547,0.71826535,-0.06371399,-0.692842,-0.0023489443,9.872342109680176,-0.753415584564209,0.2819102704524994,1.079005479812622,-0.5930748581886292, 0.9046598672866821
34,768524214,0.7182091,-0.063730896,-0.6928991,-0.0022554754,9.846534729003906,-0.7328996062278748,0.29392895102500916,0.7290719151496887,-0.4750131368637085, 1.0553648471832275
35,768540881,0.71815425,-0.06367933,-0.6929611,-0.0020838187,9.88021469116211,-0.768609881401062,0.26536914706230164,1.1364803314208984,-0.5040578842163086, 1.1135826110839844
36,768557548,0.7181082,-0.06367717,-0.69300944,-0.0019452308,9.877891540527344,-0.7623251080513,0.2548883855342865,1.2018438577651978,-0.41621917486190796, 1.2013187408447266
37,768574215,0.71807057,-0.063699186,-0.6930467,-0.00179818,9.899985313415527,-0.7438860535621643,0.2694292366504669,1.2395713329315186,-0.3264850676059723, 1.3643181324005127
38,768590882,0.71804786,-0.06371013,-0.6930697,-0.0016257572,9.919593811035156,-0.7654240131378174,0.26353999972343445,1.079761028289795,-0.1647280752658844, 1.4372375011444092
39,768607549,0.7180509,-0.063690625,-0.69306874,-0.0014135401,9.827554702758789,-0.7661374807357788,0.21870827674865723,1.385198712348938,0.06605514883995056, 1.4954358339309692
40,768624216,0.7180693,-0.063791454,-0.6930408,-0.0013252633,9.848349571228027,-0.7009563446044922,0.20473076403141022,0.8409737348556519,0.28455066680908203, 1.483660340309143
41,768640883,0.718131,-0.063863344,-0.69297045,-0.0012155616,9.963982582092285,-0.7724491953849792,0.2504942715167999,0.5564807653427124,0.7588723301887512, 1.4697015285491943
42,768657550,0.71822745,-0.063934475,-0.69286424,-0.0011028547,9.889491081237793,-0.7432445883750916,0.24952173233032227,0.577918529510498,1.1045411825180054, 1.4930858612060547
43,768674217,0.71835345,-0.06403977,-0.6927238,-0.0010044689,9.762495040893555,-0.7332637906074524,0.20637373626232147,0.3320494294166565,1.4250969886779785, 1.6032077074050903
44,768690884,0.71847934,-0.06420962,-0.69257754,-0.00097280036,9.70174789428711,-0.7271316647529602,0.19063283503055573,-0.1773807555437088,1.4846466779708862, 1.5907214879989624
45,768707551,0.7185874,-0.06433558,-0.6924539,-0.00087389734,9.983711242675781,-0.76255863904953,0.2904849052429199,0.26561009883880615,1.2828056812286377, 1.7038401365280151
46,768724218,0.71868277,-0.06453122,-0.69233686,-0.00075785187,10.171533584594727,-0.7036882638931274,0.444844514131546,0.0795082226395607,1.167125940322876, 2.1206612586975098
47,768740885,0.7187891,-0.06478008,-0.6922033,-0.0006409618,9.773691177368164,-0.7406930327415466,0.3811592161655426,-0.269381582736969,1.2676047086715698, 2.4014787673950195
48,768757552,0.7188472,-0.06489418,-0.69213235,-0.00042698497,9.723864555358887,-0.8880175948143005,0.19303292036056519,0.7507659196853638,0.669599175453186, 2.2100751399993896
49,768774219,0.71887803,-0.064957246,-0.6920945,-0.00020798523,10.092239379882812,-0.8288394212722778,0.3360925614833832,1.2544524669647217,0.3710191547870636, 1.9540505409240723
50,768790886,0.7189439,-0.065098,-0.6920129,-0.00008143451,9.791997909545898,-0.7636818289756775,0.38251128792762756,0.37981709837913513,0.7914260029792786, 1.8762263059616089
51,768807553,0.71901226,-0.06516876,-0.6919353,0.00002798086,9.653654098510742,-0.8542466163635254,0.17098498344421387,0.7137427926063538,0.7643150687217712, 1.4599816799163818
52,768824220,0.71907264,-0.06526893,-0.6918631,0.00007781928,9.953572273254395,-0.748645544052124,0.1905069500207901,0.19713455438613892,0.7568745017051697, 1.2811537981033325
53,768840887,0.7191328,-0.065540165,-0.69177496,-0.000040186133,9.924671173095703,-0.7067721486091614,0.38260236382484436,-1.3746464252471924,0.9216282963752747, 1.283177137374878
54,768857554,0.7191772,-0.065657154,-0.69171774,0.000025665126,9.824298858642578,-0.8338846564292908,0.3620220422744751,0.1724310964345932,0.6010211706161499, 1.456933617591858
55,768874221,0.71918243,-0.06564412,-0.6917134,0.00022967707,9.884729385375977,-0.8253005743026733,0.29519930481910706,1.6720420122146606,0.0570714995265007, 1.495429515838623
56,768890888,0.7191539,-0.06561409,-0.6917459,0.0004306697,9.970539093017578,-0.7917966246604919,0.3086911737918854,1.6930955648422241,-0.2808305025100708, 1.3756518363952637
57,768907555,0.7191356,-0.06560698,-0.6917655,0.0005971341,9.92017650604248,-0.783040463924408,0.3851167857646942,1.38459050655365,-0.1511661559343338, 1.3198543787002563
58,768924222,0.7191218,-0.06559383,-0.6917807,0.00077013846,9.825577735900879,-0.7894709706306458,0.27833297848701477,1.3945025205612183,-0.12026442587375641, 1.3259501457214355
59,768940889,0.71910876,-0.065685585,-0.6917857,0.0008164911,9.821080207824707,-0.7559657096862793,0.2009570300579071,0.3460467755794525,-0.013267379254102707, 1.2058779001235962
60,768957556,0.71910185,-0.06583389,-0.6917789,0.0007785705,9.873272895812988,-0.7405086159706116,0.26002731919288635,-0.292087197303772,0.1238822266459465, 1.070258617401123
61,768974223,0.7191053,-0.06591417,-0.6917675,0.0008484292,9.921960830688477,-0.7649591565132141,0.32859039306640625,0.47755518555641174,0.15931740403175354, 1.2871983051300049
62,768990890,0.7191145,-0.065909706,-0.6917581,0.0010153009,9.843343734741211,-0.816695511341095,0.2415170520544052,1.358030080795288,0.12681487202644348, 1.3679934740066528
63,769007557,0.7191119,-0.06588362,-0.6917628,0.0012099597,9.83650016784668,-0.7698521614074707,0.23829539120197296,1.6881011724472046,-0.013830859214067459, 1.3966541290283203
64,769024224,0.71910775,-0.065901585,-0.6917653,0.001349143,9.862300872802734,-0.744625985622406,0.2905179262161255,1.2949074506759644,0.013542712666094303, 1.3398704528808594
65,769040891,0.7190971,-0.065951355,-0.69177145,0.0014801389,9.872838020324707,-0.7436818480491638,0.3188749849796295,0.9286076426506042,-0.015662167221307755, 1.4510555267333984
66,769057558,0.71908695,-0.06607011,-0.6917705,0.0015529293,9.865700721740723,-0.7380773425102234,0.2744842767715454,0.3119434714317322,0.045456137508153915, 1.502626657485962
67,769074225,0.71907103,-0.06620887,-0.6917736,0.0016299806,9.908943176269531,-0.7749850153923035,0.2822965681552887,0.2513694167137146,-0.004379771184176207, 1.6264256238937378
68,769090892,0.7190566,-0.06633723,-0.6917761,0.0017279631,9.860346794128418,-0.7684831619262695,0.2667892277240753,0.36680588126182556,0.0007491715368814766, 1.6841567754745483
69,769107559,0.71906036,-0.066418864,-0.6917639,0.0018941641,9.843148231506348,-0.7937913537025452,0.2481006383895874,0.9779120087623596,0.1260208934545517, 1.8123096227645874
70,769124226,0.7190774,-0.066461444,-0.6917414,0.0020875263,9.860916137695312,-0.7674419283866882,0.24966758489608765,1.2678223848342896,0.23572009801864624, 1.7662326097488403
71,769140893,0.7191308,-0.066516645,-0.6916802,0.002236873,9.899352073669434,-0.779658317565918,0.2404525727033615,1.0857927799224854,0.6178615093231201, 1.6342885494232178
72,769157560,0.7192094,-0.0666111,-0.6915892,0.0023281977,9.815937995910645,-0.783711850643158,0.23808179795742035,0.6011620759963989,0.9206292629241943, 1.5517005920410156
73,769174227,0.71928746,-0.06670881,-0.6914984,0.0023794177,9.84132194519043,-0.8114427328109741,0.24991075694561005,0.3690982758998871,0.9432582259178162, 1.3721429109573364
74,769190894,0.7193499,-0.066806704,-0.6914239,0.002376216,9.922994613647461,-0.8118345737457275,0.33375614881515503,0.11220283806324005,0.8167185187339783, 1.0987911224365234
75,769207561,0.7194136,-0.06680676,-0.69135755,0.0024254094,9.881863594055176,-0.8570760488510132,0.34254440665245056,0.9547837376594543,0.7416349053382874, 0.8958104848861694
76,769224228,0.719475,-0.06666979,-0.6913065,0.0025819063,9.959288597106934,-0.8723806738853455,0.31228846311569214,2.0595877170562744,0.6066817045211792, 0.7632264494895935
77,769240895,0.7195466,-0.06648971,-0.6912491,0.0025983935,10.333887100219727,-1.0378706455230713,0.548475444316864,1.575238585472107,0.75319904088974, -0.13538871705532074
78,769257562,0.7195869,-0.06719566,-0.6911412,0.0019090368,12.195154190063477,-1.608481764793396,0.910416841506958,-6.105415344238281,1.1614272594451904, 0.5946180820465088
79,769274229,0.72070086,-0.069649234,-0.68973863,-0.000087312364,12.677118301391602,-3.473475694656372,1.7346590757369995,-20.47683334350586,13.243107795715332, 2.9637606143951416
80,769290896,0.7233586,-0.066771366,-0.6872339,0.0018916497,10.60371208190918,-2.5173661708831787,1.5913790464401245,25.33881187438965,24.01650047302246, -2.328089475631714
81,769307563,0.72519624,-0.065877624,-0.68538046,0.002051051,9.50527286529541,-0.7131310701370239,-0.1710975617170334,6.884222030639648,17.614728927612305, -2.4157543182373047
82,769324230,0.724756,-0.06340163,-0.6860768,0.0027515125,8.901866912841797,-2.489562749862671,-0.6111091375350952,16.201494216918945,-6.02773904800415, -8.277484893798828
83,769340897,0.723731,-0.061605297,-0.68729997,0.006094211,9.807578086853027,-8.134347915649414,0.42170652747154236,25.084083557128906,-12.450690269470215, 7.720861911773682
84,769357564,0.72273374,-0.061201893,-0.68830955,0.011841318,8.594414710998535,-1.6738264560699463,-0.379861056804657,29.62406349182129,-12.227293968200684, 25.684844970703125
85,769374231,0.7212649,-0.068303935,-0.6891942,0.011087753,9.34125804901123,-1.3611112833023071,-0.21997475624084473,-38.549930572509766,-10.43235969543457, 28.936233520507812
86,769390898,0.7195955,-0.07598147,-0.6901469,0.010314095,9.718939781188965,-2.9431827068328857,0.6193096041679382,-41.70236587524414,-11.599416732788086, 31.52850914001465
87,769407565,0.7187169,-0.082321115,-0.6903287,0.010756583,10.829017639160156,-2.443974018096924,3.211407423019409,-29.153457641601562,-4.745807647705078, 31.388996124267578
88,769424232,0.7186506,-0.0862989,-0.68985707,0.013831437,8.918598175048828,-3.960500478744507,2.9973151683807373,-4.567761421203613,0.4264339804649353, 33.42147445678711
89,769440899,0.7200779,-0.08644918,-0.68816143,0.02118004,9.5161771774292,-3.160630702972412,4.427884578704834,35.65214920043945,10.404918670654297, 36.75615692138672
90,769457566,0.72304666,-0.08513414,-0.6848823,0.029868674,9.583837509155273,-1.7211427688598633,5.090855121612549,50.59688186645508,24.12051010131836, 37.072120666503906
91,769474233,0.72739583,-0.08429211,-0.6799761,0.037718024,9.37077522277832,-1.1311513185501099,4.728315830230713,45.5870361328125,38.8513069152832, 35.84190368652344
92,769490900,0.7328648,-0.08465391,-0.67366886,0.043742046,9.33249282836914,-1.0780304670333862,4.06238317489624,31.968795776367188,52.112037658691406, 32.955135345458984
93,769507567,0.7392416,-0.086867146,-0.66613334,0.04735581,9.601240158081055,-0.6061611771583557,3.7652318477630615,12.253152847290039,64.21104431152344, 29.919103622436523
94,769524234,0.7462445,-0.09131229,-0.6576119,0.048249893,9.61685562133789,-0.7154877781867981,3.270007371902466,-11.014744758605957,74.25304412841797, 26.823780059814453
95,769540901,0.7535647,-0.09656134,-0.6484775,0.047886394,9.501628875732422,-1.127105712890625,2.5193450450897217,-20.562219619750977,79.7675552368164, 24.387840270996094
96,769557568,0.76092803,-0.101535015,-0.6391015,0.047209546,9.472471237182617,-1.172242283821106,1.8065980672836304,-21.02995491027832,81.39472961425781, 21.669309616088867
97,769574235,0.76806545,-0.10579575,-0.6298516,0.046580333,9.283013343811035,-0.9181669354438782,1.249234676361084,-17.292980194091797,79.49574279785156, 18.837989807128906
98,769590902,0.7748475,-0.10862783,-0.6210282,0.04620971,9.224133491516113,-0.428341269493103,0.7126642465591431,-9.020378112792969,75.1307601928711, 13.911565780639648
99,769607569,0.7811027,-0.109417856,-0.6130041,0.04617715,9.139652252197266,-0.3909353017807007,0.31399962306022644,2.6608762741088867,67.8448486328125, 6.700257301330566
100,769624236,0.7866787,-0.106965646,-0.6061863,0.047259577,9.246810913085938,-0.5462731719017029,0.11616929620504379,23.890851974487305,56.798179626464844, -1.5227465629577637
101,769640903,0.7917686,-0.10060977,-0.60039973,0.05000543,9.390518188476562,-0.06102902442216873,0.1770375370979309,51.26485061645508,46.88872528076172, -9.253003120422363
102,769657570,0.7963972,-0.092507325,-0.5953066,0.05295373,9.544516563415527,0.5161524415016174,0.1891801357269287,61.060089111328125,40.66355895996094, -15.50130558013916
103,769674237,0.8002103,-0.08437282,-0.5911604,0.055446617,8.95124626159668,0.2910776734352112,-0.4859384298324585,58.50309753417969,32.62367630004883, -18.217687606811523
104,769690904,0.80298275,-0.07715579,-0.5882317,0.05700245,9.094438552856445,0.012874729931354523,-0.5186766386032104,48.58692169189453,22.838510513305664, -19.78223419189453
105,769707571,0.8049114,-0.071451314,-0.5862469,0.057680804,9.514309883117676,-0.42481499910354614,-0.4910876452922821,35.882598876953125,15.530957221984863, -18.541282653808594
106,769724238,0.8060224,-0.06770694,-0.5851917,0.057397492,10.002511978149414,-0.9215126633644104,-0.8406936526298523,20.40886116027832,8.604039192199707, -15.995146751403809
107,769740905,0.80627507,-0.06593322,-0.5851175,0.05666733,10.045080184936523,-1.6713497638702393,-1.1791648864746094,6.93843936920166,0.9957519173622131, -10.598003387451172
108,769757572,0.8055253,-0.06562137,-0.5862593,0.05588421,10.16368293762207,-2.039229154586792,-1.2288926839828491,-2.2511777877807617,-8.867631912231445, -5.165814399719238
109,769774239,0.80391526,-0.06677238,-0.58839417,0.055266187,10.475622177124023,-2.412914752960205,-1.3411473035812378,-10.393263816833496,-17.034326553344727, 1.508596658706665
110,769790906,0.80143,-0.06914061,-0.59148645,0.055438347,10.31241512298584,-3.276980400085449,-2.2077906131744385,-14.615976333618164,-25.448162078857422, 10.654964447021484
111,769807573,0.7976477,-0.07349999,-0.59598213,0.056226715,10.353456497192383,-4.238204479217529,-2.938030242919922,-24.128454208374023,-37.625274658203125, 21.8797607421875
112,769824240,0.7927011,-0.08040686,-0.6016179,0.056708124,11.111387252807617,-3.4330646991729736,-2.100128650665283,-40.25189208984375,-47.1075439453125, 30.360502243041992
113,769840907,0.78685343,-0.09043566,-0.6079192,0.055836458,10.757593154907227,-2.685953140258789,-2.47719669342041,-63.512664794921875,-52.1591911315918, 35.823936462402344
114,769857574,0.7799327,-0.10348833,-0.6149745,0.052931905,9.573214530944824,-2.2262086868286133,-3.306037425994873,-89.22318267822266,-57.96405792236328, 37.42684555053711
115,769874241,0.77204937,-0.1169989,-0.6226922,0.050055705,8.99692440032959,-2.2737581729888916,-3.7972488403320312,-92.37345123291016,-65.09276580810547, 39.45240783691406
116,769890908,0.7636903,-0.12816903,-0.6308424,0.048866395,9.066343307495117,-0.7208383083343506,-4.00793981552124,-73.13446044921875,-71.23699188232422, 38.255191802978516
117,769907575,0.755004,-0.13730776,-0.63936096,0.048306067,8.55770492553711,-0.38828662037849426,-4.52793550491333,-60.04064178466797,-75.48738861083984, 32.689693450927734
118,769924242,0.7466914,-0.14274216,-0.64778703,0.049486067,8.140711784362793,-0.5582566857337952,-4.253738880157471,-32.659603118896484,-75.88642883300781, 25.560192108154297
119,769940909,0.7389908,-0.14385508,-0.65606976,0.052639432,8.082730293273926,1.03286874294281,-6.688148498535156,-0.9257776141166687,-75.5177993774414, 16.48432731628418
120,769957576,0.72783375,-0.14334638,-0.6684599,0.05358316,9.763927459716797,2.79483699798584,-12.34961986541748,-7.423890590667725,-109.91449737548828, -4.67518424987793
121,769974243,0.7146805,-0.1477014,-0.68170786,0.051871926,13.327078819274902,-10.139735221862793,-1.5294156074523926,-46.00767517089844,-118.1417007446289, 4.648609638214111
122,769990910,0.7079211,-0.1349158,-0.6895884,0.07150898,13.40506362915039,-7.159322261810303,8.930849075317383,146.77993774414062,-89.49872589111328, 31.82456398010254
123,770007577,0.6995449,-0.1382353,-0.69733626,0.07245835,19.839921951293945,7.86250638961792,4.363776683807373,-21.803699493408203,-71.90061950683594, 17.799922943115234
124,770024244,0.6878154,-0.14453535,-0.70804644,0.06848152,9.581223487854004,-5.319357395172119,0.1124243438243866,-64.4619369506836,-96.43248748779297, 8.194731712341309
125,770040911,0.6793892,-0.12694488,-0.71726775,0.0885586,9.490113258361816,-0.13259552419185638,-1.233787178993225,169.6271209716797,-108.52949523925781, 5.297124862670898
126,770057578,0.6687262,-0.12669148,-0.7269215,0.09132192,8.305000305175781,-0.945550799369812,-0.6767423748970032,1.0699222087860107,-95.87115478515625, 10.93985652923584
127,770074245,0.65919507,-0.12715107,-0.73534393,0.092542455,9.218273162841797,-7.486923694610596,-4.183048248291016,-8.13271713256836,-82.8089828491211, 7.841501235961914
128,770090912,0.6513074,-0.124431,-0.7423861,0.095805615,9.538451194763184,-1.7994654178619385,-3.330049514770508,18.944896697998047,-71.8843994140625, 0.843820333480835
129,770107579,0.64345276,-0.12662615,-0.7490407,0.09419342,10.900686264038086,0.5383691191673279,-1.908413290977478,-28.715303421020508,-62.131378173828125, 4.6302571296691895
130,770124246,0.6358258,-0.12744418,-0.755236,0.09540565,11.02412223815918,-0.7529345154762268,-1.9176676273345947,-8.24079704284668,-62.083919525146484, 10.679231643676758
131,770140913,0.62759614,-0.13097309,-0.7614306,0.0958787,11.851591110229492,-3.744166612625122,-1.2190687656402588,-22.616466522216797,-63.42558288574219, 21.768869400024414
132,770157580,0.61869067,-0.13981727,-0.7676802,0.09132526,10.317906379699707,-2.2024333477020264,-1.6459834575653076,-72.5103988647461,-59.31327438354492, 28.329532623291016
133,770174247,0.608876,-0.14677684,-0.7747907,0.08617461,10.531883239746094,-3.5756373405456543,-2.3129429817199707,-69.03479766845703,-68.50252532958984, 15.701857566833496
134,770190914,0.59918916,-0.1466475,-0.78226775,0.086741775,12.4459867477417,-2.116342306137085,-1.603559136390686,-8.98317813873291,-79.40277099609375, 1.4251419305801392
135,770207581,0.58862585,-0.14436466,-0.79051715,0.088098854,13.44230842590332,-3.4577903747558594,-2.604276418685913,2.796147584915161,-89.53177642822266, -7.077694892883301
136,770224248,0.5772166,-0.14213973,-0.7992983,0.0879769,13.220314979553223,-3.691434383392334,-1.1942579746246338,-6.6471333503723145,-94.90277862548828, -12.748903274536133
137,770240915,0.56428224,-0.14216249,-0.80874085,0.08552091,13.181835174560547,-2.6514813899993896,-0.4032565951347351,-30.329063415527344,-102.50340270996094, -9.376191139221191
138,770257582,0.5490656,-0.14518389,-0.8191833,0.07992239,12.125239372253418,-1.9538030624389648,0.6929807066917419,-62.28857421875,-114.55949401855469, -4.447758197784424
139,770274249,0.53105897,-0.14942014,-0.8307837,0.07381435,12.635045051574707,-1.472642183303833,2.106133222579956,-73.19376373291016,-133.86614990234375, 0.9479077458381653
140,770290916,0.5095894,-0.15738086,-0.8433444,0.06572732,13.329996109008789,-1.290006399154663,5.215102195739746,-102.17021942138672,-153.76641845703125, 15.890037536621094
141,770307583,0.4859826,-0.16789545,-0.8558406,0.05629327,13.76922607421875,-2.088737726211548,7.700068950653076,-121.2743148803711,-164.0985870361328, 27.133426666259766
142,770324250,0.46224818,-0.17767195,-0.86753446,0.04629842,18.534029006958008,-4.358712196350098,8.236873626708984,-122.06745910644531,-162.75689697265625, 21.934385299682617
143,770340917,0.43714702,-0.18537754,-0.8792577,0.037994545,19.325841903686523,-8.371045112609863,0.7998785376548767,-107.2860336303711,-174.8869171142578, 15.313613891601562
144,770357584,0.4111849,-0.18917799,-0.89083374,0.03942232,20.744586944580078,-13.077475547790527,0.858791708946228,-38.028621673583984,-193.8840789794922, 21.139482498168945
145,770374251,0.3867371,-0.19048095,-0.9010882,0.046814214,15.453314781188965,-7.244688034057617,5.833261966705322,7.405880451202393,-190.19288635253906, 23.636089324951172
146,770390918,0.364031,-0.19978657,-0.90887976,0.038788192,12.12959098815918,-5.949214935302734,2.4646756649017334,-106.69928741455078,-151.010986328125, 34.712955474853516
147,770407585,0.34606615,-0.21387449,-0.91340554,0.013649674,14.183716773986816,-1.4342228174209595,3.728193521499634,-218.551025390625,-89.0899887084961, 24.70330238342285
148,770424252,0.33401793,-0.22807886,-0.9144767,-0.012025241,9.717495918273926,-9.361292839050293,4.764504432678223,-213.29916381835938,-43.728973388671875, 28.48354148864746
149,770440919,0.3358943,-0.2333042,-0.9124974,-0.009624504,7.160826683044434,-10.086441993713379,9.2190580368042,4.933505058288574,6.934843063354492, 41.979557037353516
150,770457586,0.3506651,-0.23558928,-0.90634245,0.008676113,6.2710185050964355,-5.93214750289917,11.048943519592285,131.27426147460938,71.52191925048828, 67.572998046875
151,770474253,0.3750467,-0.23412798,-0.8963234,0.03359383,6.1133270263671875,-4.1175432205200195,3.4415383338928223,196.89398193359375,129.14328002929688, 65.97457122802734
152,770490920,0.40708187,-0.23006044,-0.88217384,0.055913217,7.016538619995117,-1.4002740383148193,4.559037685394287,200.58676147460938,190.23928833007812, 48.319068908691406
153,770507587,0.44526547,-0.22534467,-0.8634003,0.07415107,6.6038408279418945,-1.070341944694519,1.7392534017562866,188.95411682128906,246.3270263671875, 38.23833084106445
154,770524254,0.48713112,-0.22104633,-0.8407609,0.08344521,7.343559741973877,1.2079248428344727,0.8398350477218628,142.1069793701172,293.8976135253906, 17.680953979492188
155,770540921,0.5312154,-0.21899042,-0.81423366,0.08292856,8.695745468139648,-0.7892945408821106,-2.3480734825134277,83.42105102539062,335.7919616699219, 2.6337831020355225
156,770557588,0.57683325,-0.21608411,-0.78394854,0.07743195,10.2758207321167,-0.8246741890907288,-5.019855976104736,63.07722091674805,365.1101989746094, -15.504761695861816
157,770574255,0.62102515,-0.21678689,-0.75058085,0.062927134,12.314226150512695,-1.483445644378662,-6.76225471496582,-0.2351328432559967,385.08355712890625, -26.484201431274414
158,770590922,0.66295594,-0.21974885,-0.7142457,0.045309197,13.531567573547363,-4.38785457611084,-8.622931480407715,-27.941503524780273,391.9429931640625, -22.84560775756836
159,770607589,0.70261383,-0.22095047,-0.6756483,0.03184677,15.826854705810547,-6.077147960662842,-7.499975204467773,-2.083630084991455,384.6654052734375, -8.671504020690918
160,770624256,0.7391824,-0.21785714,-0.6367619,0.026116489,17.751998901367188,-8.425750732421875,-10.828808784484863,50.116546630859375,359.4343566894531, 9.649861335754395
161,770640923,0.7724088,-0.20590618,-0.6002371,0.026515681,19.903329849243164,-4.654468059539795,-13.580341339111328,116.83760070800781,322.73565673828125, -1.0761290788650513
162,770657590,0.7974549,-0.19924916,-0.5691303,0.021358397,17.634145736694336,-3.503981828689575,-14.341312408447266,53.5272331237793,269.9902038574219, -14.795294761657715
163,770674257,0.8156934,-0.19332062,-0.5448923,0.01908069,13.710511207580566,-5.918696880340576,-16.459299087524414,50.83638381958008,203.00259399414062, -4.449395179748535
164,770690924,0.8271869,-0.18871067,-0.5288226,0.022292178,9.953827857971191,-3.14644193649292,-17.434486389160156,54.46189880371094,126.11426544189453, 21.231281280517578
165,770707591,0.83102036,-0.1852784,-0.52367854,0.028948484,8.1478853225708,0.06630551069974899,-17.03076934814453,49.114463806152344,33.06914520263672, 32.09908676147461
166,770724258,0.8280969,-0.17838913,-0.53000623,0.039070345,8.091275215148926,-0.3484756052494049,-15.762008666992188,70.78105926513672,-60.89847183227539, 26.271373748779297
167,770740925,0.8215732,-0.16115324,-0.5438896,0.05684445,9.326319694519043,0.32880502939224243,-13.705793380737305,151.41000366210938,-128.4662628173828, 23.84946060180664
168,770757592,0.81241447,-0.13820119,-0.5612627,0.076599434,10.445442199707031,4.334519386291504,-10.379340171813965,187.0008544921875,-161.9748077392578, 10.810811042785645
169,770774259,0.80037946,-0.12373641,-0.5796777,0.089755625,11.406641006469727,-8.956214904785156,-2.4938268661499023,110.84133911132812,-167.88882446289062, 7.336084365844727
170,770790926,0.78773403,-0.1130362,-0.59553033,0.10973424,29.69674301147461,-0.28215450048446655,7.006657123565674,118.45430755615234,-159.81578063964844, 62.15190887451172
171,770807593,0.7711183,-0.124617405,-0.6155523,0.10460611,13.87050724029541,10.004880905151367,-7.477360725402832,-111.40774536132812,-162.56439208984375, 17.387102127075195
172,770824260,0.75266504,-0.13636407,-0.63605994,0.101627156,16.351234436035156,-1.245589017868042,-3.296208620071411,-105.14374542236328,-174.62242126464844, 30.722625732421875
173,770840927,0.7388041,-0.13258764,-0.6509129,0.113583736,9.563149452209473,-6.500119209289551,-5.223792552947998,48.79684829711914,-150.21946716308594, 42.196807861328125
174,770857594,0.7286804,-0.1258829,-0.6611051,0.1269588,8.153474807739258,-3.1848361492156982,1.0697909593582153,77.09892272949219,-113.47538757324219, 37.412899017333984
175,770874261,0.7197426,-0.13140467,-0.6696628,0.12749772,10.329754829406738,-3.748443841934204,-0.6361474990844727,-40.098167419433594,-78.32307434082031, 28.969024658203125
176,770890928,0.7111101,-0.14525199,-0.67772055,0.11798076,8.685344696044922,-8.183945655822754,-0.002523660659790039,-126.9214859008789,-58.20746612548828, 17.686954498291016
177,770907595,0.70507264,-0.14642772,-0.68350667,0.11937448,10.515665054321289,-8.266186714172363,-2.081305980682373,-9.717870712280273,-56.31134796142578, 12.033228874206543
178,770924262,0.7007435,-0.14007202,-0.68813336,0.12574172,9.960031509399414,-3.7803916931152344,-0.9799177646636963,52.81732940673828,-53.92119216918945, 0.4209723174571991
179,770940929,0.6957519,-0.13703169,-0.6935531,0.12702672,8.949800491333008,-3.429584503173828,-1.038509726524353,11.447670936584473,-53.18888854980469, -8.582982063293457
180,770957596,0.6908152,-0.13348188,-0.6989739,0.12803356,9.259037017822266,-5.123053550720215,-2.0312066078186035,12.585559844970703,-53.175941467285156, -12.400154113769531
181,770974263,0.6866013,-0.12514019,-0.7037971,0.13262151,9.422074317932129,-3.992138624191284,-2.5466818809509277,53.72990417480469,-54.40742874145508, -18.53689193725586
182,770990930,0.68266875,-0.11701688,-0.70814925,0.13709562,9.603436470031738,-1.9111285209655762,-2.5352542400360107,52.8087043762207,-50.54964828491211, -17.880016326904297
183,771007597,0.6788643,-0.112824686,-0.71211326,0.13895549,10.346463203430176,-0.9491459727287292,-1.834159016609192,22.088991165161133,-42.31730651855469, -10.801847457885742
184,771024264,0.674943,-0.112051226,-0.7160149,0.1386335,11.1506986618042,-1.0213795900344849,-0.49341118335723877,-4.590370178222656,-37.66790771484375, -4.057059288024902
185,771040931,0.6713359,-0.113604985,-0.7193029,0.13786104,10.77425765991211,-1.5602288246154785,-0.6819590330123901,-16.79241371154785,-30.74795150756836, 5.511716842651367
186,771057598,0.66729957,-0.11726533,-0.72297287,0.13516816,10.575742721557617,-1.4590891599655151,-0.9018155336380005,-36.72000503540039,-31.1704158782959, 7.19280481338501
187,771074265,0.66247565,-0.124511026,-0.7273021,0.12905449,9.8690185546875,-2.507061004638672,-0.804786741733551,-71.4286880493164,-32.04738998413086, 9.538500785827637
188,771090932,0.656404,-0.13599935,-0.73241085,0.11921599,9.390416145324707,-2.9849908351898193,0.0886412113904953,-111.14883422851562,-34.910728454589844, 14.232107162475586
189,771107599,0.6486466,-0.14613493,-0.7387631,0.11014321,9.427715301513672,-5.108846664428711,0.19494298100471497,-103.79331970214844,-50.869728088378906, 11.092452049255371
190,771124266,0.64057684,-0.14786215,-0.74544525,0.11004413,9.425158500671387,-4.951916694641113,-1.5867271423339844,-21.28639793395996,-69.33842468261719, 8.284872055053711
191,771140933,0.63121957,-0.14999618,-0.75312704,0.108916916,10.217556953430176,-1.6133358478546143,-0.7058619260787964,-30.41891098022461,-78.99739837646484, 5.779209613800049
192,771157600,0.6202859,-0.15402961,-0.7617791,0.10589147,10.013907432556152,-3.7272286415100098,-1.5097428560256958,-50.847434997558594,-88.0129623413086, 7.5718207359313965
193,771174267,0.60829324,-0.15641893,-0.7711183,0.10435182,11.344803810119629,-2.3198912143707275,-1.0998973846435547,-37.67982864379883,-99.27423858642578, 5.334217071533203
194,771190934,0.59400845,-0.15865657,-0.7819281,0.10281376,11.463565826416016,-1.3852559328079224,-1.004596471786499,-40.56100845336914,-117.71247863769531, 4.610429286956787
195,771207601,0.5773971,-0.16107717,-0.7940606,0.1006724,12.61938762664795,-0.39533504843711853,-0.07158206403255463,-48.02722930908203,-134.86224365234375, 3.349031925201416
196,771224268,0.5588018,-0.16255425,-0.8071568,0.099069744,13.450632095336914,-0.3727211058139801,1.2056219577789307,-44.20629119873047,-150.81045532226562, 0.6679028272628784
197,771240935,0.5390941,-0.16190277,-0.82076883,0.097485706,15.084646224975586,-2.4265708923339844,2.0258126258850098,-37.52338409423828,-160.48890686035156, -10.868756294250488
198,771257602,0.51831615,-0.15954891,-0.8347242,0.09554091,19.774444580078125,-5.978490352630615,7.160141944885254,-34.683937072753906,-168.60494995117188, -21.468137741088867
199,771274269,0.4962286,-0.15864344,-0.8483873,0.09395938,18.44721031188965,-5.935821533203125,11.291050910949707,-39.04770278930664,-174.6465606689453, -10.68191146850586
200,771290936,0.47434905,-0.16332854,-0.8607857,0.08581734,16.559246063232422,-1.5928691625595093,11.268545150756836,-95.40410614013672,-158.48875427246094, 0.7835934162139893
201,771307603,0.44894233,-0.17363808,-0.87373114,0.06996042,14.211179733276367,-5.769827365875244,-3.3552780151367188,-163.73779296875,-169.29969787597656, 10.385889053344727
202,771324270,0.42035514,-0.17745507,-0.8875177,0.064216636,19.917585372924805,-11.093576431274414,1.968160629272461,-87.13621520996094,-206.1978759765625, 3.094874858856201
203,771340937,0.3950022,-0.18016547,-0.8988914,0.059228316,17.075725555419922,-5.827356338500977,7.166737079620361,-74.36389923095703,-180.95848083496094, 0.0043995738960802555
204,771357604,0.37378874,-0.18493286,-0.90779555,0.044601597,13.947211265563965,-9.270013809204102,3.769819498062134,-133.4242401123047,-135.97459411621094, -12.099275588989258
205,771374271,0.36271384,-0.18719697,-0.9121495,0.037142962,12.215179443359375,-4.981618404388428,5.118476867675781,-67.99600219726562,-70.91429901123047, -6.664869785308838
206,771390938,0.35902292,-0.19030328,-0.9134079,0.023942538,8.863343238830566,-0.3702775835990906,7.065056800842285,-95.83000946044922,-9.321386337280273, -13.622773170471191
207,771407605,0.362075,-0.19592376,-0.91128737,0.008426419,7.283857345581055,-2.971022367477417,6.224579334259033,-107.19351959228516,44.78211212158203, -0.24673888087272644
208,771424272,0.37374842,-0.20085105,-0.9055226,-0.000380728,5.830644607543945,-4.568801403045654,4.782186508178711,-51.6153564453125,98.7823257446289, 16.49616813659668
209,771440939,0.39344272,-0.20444663,-0.8963171,-0.0045031654,5.713974475860596,-3.8525705337524414,4.698019027709961,-7.975750923156738,151.10711669921875, 24.988422393798828
210,771457606,0.42027405,-0.20826527,-0.88315725,-0.005351451,5.861545085906982,-4.563749313354492,3.6503875255584717,21.500112533569336,201.1984405517578, 40.98303985595703
211,771474273,0.45380494,-0.2107433,-0.86582005,-0.002035285,6.863596439361572,-4.300481796264648,1.8227075338363647,60.097312927246094,248.07211303710938, 51.08946228027344
212,771490940,0.49220434,-0.21256855,-0.84412223,0.0027605507,8.29971694946289,-2.9163033962249756,0.4611130952835083,77.9398193359375,288.5730895996094, 58.198486328125
213,771507607,0.53412277,-0.21496083,-0.8175964,0.006397392,9.827634811401367,-1.9583073854446411,-0.734656572341919,74.54048156738281,327.0959167480469, 64.55866241455078
214,771524274,0.5795584,-0.21568468,-0.78579557,0.0108371,11.554851531982422,-3.592578649520874,-2.751507043838501,90.6400375366211,365.05389404296875, 65.78189086914062
215,771540941,0.62827504,-0.20979019,-0.74887496,0.021095254,14.010272026062012,-3.731832265853882,-4.064916610717773,153.7611083984375,394.16265869140625, 60.565185546875
216,771557608,0.6780085,-0.19689566,-0.70715904,0.038246457,17.11284828186035,-3.3836517333984375,-7.019416332244873,221.74844360351562,409.2664489746094, 61.09492111206055
217,771574275,0.72275716,-0.18602675,-0.66398585,0.046247825,17.842317581176758,1.970766544342041,-9.603918075561523,161.4281463623047,404.78009033203125, 31.579011917114258
218,771590942,0.7609695,-0.17884155,-0.6219184,0.046462968,21.58641815185547,-5.806147575378418,-16.841047286987305,98.85965728759766,380.6356506347656, 10.4251708984375
219,771607609,0.79118264,-0.173671,-0.58518136,0.03783552,19.546218872070312,-1.6144112348556519,-16.650360107421875,39.01004409790039,330.1857604980469, -31.228851318359375
220,771624276,0.8122209,-0.17745426,-0.5550804,0.026324922,16.628299713134766,-10.860828399658203,-19.65912628173828,-33.935489654541016,263.087646484375, -16.37169075012207
221,771640943,0.8279946,-0.1740275,-0.5323391,0.027469946,12.838735580444336,-5.373836994171143,-21.175344467163086,46.98486328125,185.3351593017578, 18.726465225219727
222,771657610,0.83579063,-0.17235437,-0.5203754,0.030947572,8.76928424835205,0.9627200365066528,-22.61674690246582,34.044010162353516,92.51969909667969, 27.030380249023438
223,771674277,0.83474463,-0.17017856,-0.52240545,0.036515146,7.773437023162842,-2.159937858581543,-21.172142028808594,31.02639389038086,-21.911611557006836, 22.573270797729492
224,771690944,0.8278835,-0.15616897,-0.536068,0.0533985,8.138428688049316,-4.373961925506592,-19.076290130615234,129.95469665527344,-125.6076889038086, 32.84438705444336
225,771707611,0.8166973,-0.13385502,-0.55594176,0.07757124,10.31253719329834,0.14947104454040527,-14.611000061035156,197.27830505371094,-187.6641845703125, 38.5761833190918
226,771724278,0.80269516,-0.11739686,-0.5768099,0.09585791,13.57860279083252,0.24742645025253296,4.786930561065674,138.79290771484375,-195.35235595703125, 28.450298309326172
227,771740945,0.79025114,-0.101165436,-0.59211826,0.121098205,28.19116973876953,2.58648943901062,14.308157920837402,170.0178680419922,-164.02354431152344, 71.17877197265625
228,771757612,0.7743524,-0.10175851,-0.61254734,0.12169466,14.910344123840332,19.200159072875977,-7.055303573608398,-28.493207931518555,-174.8664093017578, 5.15970516204834
229,771774279,0.7544694,-0.12429278,-0.6348394,0.11093344,5.540585517883301,-18.943880081176758,-8.903045654296875,-197.5457000732422,-175.24105834960938, 39.385887145996094
230,771790946,0.7401902,-0.11557457,-0.64912134,0.13191858,13.076899528503418,-4.202268600463867,-4.7701945304870605,114.16596221923828,-160.12767028808594, 70.0363540649414
231,771807613,0.728166,-0.113809764,-0.66129005,0.13970375,9.296174049377441,-2.435986280441284,1.8839845657348633,23.584028244018555,-122.48579406738281, 33.48540496826172
232,771824280,0.7183097,-0.11298473,-0.6702253,0.14853898,11.729963302612305,-5.521785259246826,-1.9692139625549316,28.437580108642578,-96.42485046386719, 43.45469665527344
233,771840947,0.70990056,-0.115953654,-0.6782089,0.15042883,11.339241027832031,-1.546496868133545,0.37833502888679504,-20.208356857299805,-75.80394744873047, 25.87639808654785
234,771857614,0.7019872,-0.12248014,-0.68595153,0.14725317,9.507349014282227,-6.435126781463623,-1.5447331666946411,-60.56490707397461,-64.64471435546875, 17.454742431640625
235,771874281,0.69648296,-0.12104506,-0.69092584,0.1512655,12.228214263916016,-4.251062393188477,-2.0481176376342773,16.586708068847656,-54.05738067626953, 14.46183967590332
236,771890948,0.6922319,-0.12330545,-0.69496244,0.15046012,11.237603187561035,-0.065542072057724,-1.9833617210388184,-21.982433319091797,-35.77790832519531, 8.428682327270508
237,771907615,0.6878847,-0.13278623,-0.69904596,0.14323819,9.543457984924316,-3.4753987789154053,-1.7673039436340332,-87.1424331665039,-23.570415496826172, 12.508550643920898
238,771924282,0.6851465,-0.13834497,-0.70163125,0.13837841,9.748788833618164,-5.475739002227783,-2.793128252029419,-54.3010139465332,-14.790693283081055, 4.629681587219238
239,771940949,0.6834019,-0.1433334,-0.70345783,0.1325312,9.262232780456543,-3.7622194290161133,-2.5371413230895996,-54.714839935302734,-6.032776832580566, -3.0045552253723145
240,771957616,0.68146074,-0.14934519,-0.70552677,0.12465696,9.88486099243164,-3.880326271057129,-1.6431668996810913,-69.74750518798828,-5.2000956535339355, -7.628413677215576
241,771974283,0.6797497,-0.15325989,-0.7074458,0.118204266,9.949923515319824,-3.5876078605651855,-1.7430435419082642,-52.67217254638672,-6.657617092132568, -11.172645568847656
242,771990950,0.67788756,-0.15672895,-0.7094488,0.112192094,10.077237129211426,-4.2693328857421875,0.3349786400794983,-48.683799743652344,-8.627970695495605, -11.23580265045166
243,772007617,0.67526793,-0.16079995,-0.71187866,0.10670203,8.74701976776123,-4.100330352783203,-0.7608784437179565,-50.109642028808594,-14.452220916748047, -5.739797592163086
244,772024284,0.6713525,-0.16300642,-0.71579254,0.10176452,9.752424240112305,-3.976290702819824,-1.0287084579467773,-41.28456115722656,-29.688222885131836, -12.995138168334961
245,772040951,0.66630155,-0.16322902,-0.7207888,0.0993086,9.181392669677734,-2.6418263912200928,-0.6267337799072266,-21.95594596862793,-44.463783264160156, -11.725037574768066
246,772057618,0.6597789,-0.16124657,-0.7271428,0.09977348,9.6942138671875,-2.4850809574127197,-0.31603628396987915,0.029781589284539223,-62.78822326660156, -9.785253524780273
247,772074285,0.6512255,-0.15924606,-0.7351078,0.10081092,9.568479537963867,-2.2824604511260986,-0.4413854479789734,-0.39376595616340637,-80.92778778076172, -7.663933277130127
248,772090952,0.6402043,-0.15793175,-0.74488986,0.101662256,9.309038162231445,-4.262024402618408,0.055224865674972534,-8.37888240814209,-100.89056396484375, -5.299715518951416
249,772107619,0.6280159,-0.15586211,-0.75522834,0.10456222,11.21927261352539,-3.6475305557250977,-0.024835646152496338,3.764842987060547,-112.11018371582031, 0.04273027926683426
250,772124286,0.6145227,-0.15597215,-0.7661893,0.10482667,11.534024238586426,-0.9517063498497009,0.33951830863952637,-21.194978713989258,-117.22843933105469, 0.2523937523365021
251,772140953,0.5995324,-0.15631253,-0.7778509,0.1052404,11.179816246032715,-0.5963500142097473,-0.5507748126983643,-23.50110626220703,-128.12802124023438, 2.46240496635437
252,772157620,0.58260703,-0.15552099,-0.7905437,0.106878325,11.21405029296875,-0.26287755370140076,-0.07509782910346985,-15.114583969116211,-144.91275024414062, 1.7857165336608887
253,772174287,0.5632222,-0.15407358,-0.80433095,0.10997322,11.966699600219727,-0.8247768878936768,1.8864800930023193,-8.001420974731445,-164.76759338378906, 4.735698699951172
254,772190954,0.5414854,-0.1533656,-0.81893605,0.11232374,13.284612655639648,-2.1302099227905273,3.7617673873901367,-18.10555076599121,-179.6946563720703, 6.89246129989624
255,772207621,0.5176328,-0.15393373,-0.834361,0.11046561,17.975902557373047,-4.084692478179932,7.272767066955566,-49.45330047607422,-189.3777618408203, -0.7921412587165833
256,772224288,0.49395755,-0.15762547,-0.8486167,0.10492894,22.02789306640625,-4.802790641784668,9.3603515625,-80.66800689697266,-178.1564178466797, 5.170051097869873
257,772240955,0.47243145,-0.16430388,-0.8609813,0.0923255,19.28862762451172,0.8059673309326172,9.820033073425293,-128.44444274902344,-149.67384338378906, -0.8672624826431274
258,772257622,0.4486865,-0.17547786,-0.8735369,0.06943654,15.576249122619629,-4.063607692718506,-3.0279276371002197,-206.63165283203125,-149.26821899414062, -6.405001640319824
259,772274289,0.42087024,-0.18279643,-0.88682574,0.05471577,17.568605422973633,-12.962915420532227,3.0454440116882324,-150.9323272705078,-187.78466796875, -3.333098888397217
260,772290956,0.39653453,-0.18820666,-0.89729613,0.04688604,14.879239082336426,-8.831266403198242,3.0961973667144775,-98.0867919921875,-167.97462463378906, 7.097041606903076
261,772307623,0.3756303,-0.19286564,-0.9056098,0.039699346,12.832321166992188,-13.00776481628418,0.1358758807182312,-87.0411376953125,-142.17193603515625, 5.837508678436279
262,772324290,0.36457756,-0.19658941,-0.90944487,0.036691006,12.323180198669434,-4.331042766571045,7.154578685760498,-44.473060607910156,-75.17411041259766, 13.949156761169434
263,772340957,0.36007705,-0.20412324,-0.9100157,0.023449041,7.489373207092285,0.08592071384191513,7.559656143188477,-108.42035675048828,-11.432086944580078, 14.854249000549316
264,772357624,0.36348432,-0.21211137,-0.90706986,0.010614211,7.019585609436035,-4.585142612457275,5.970401287078857,-95.3613052368164,46.11040496826172, 22.340667724609375
265,772374291,0.37696445,-0.21725303,-0.9003346,0.009839191,5.521706581115723,-5.724444389343262,3.872011423110962,1.8443248271942139,100.4912109375, 39.457340240478516
266,772390958,0.39821348,-0.22011714,-0.8903535,0.015660372,5.2382283210754395,-4.857032299041748,3.6588923931121826,60.310665130615234,146.92921447753906, 46.729759216308594
267,772407625,0.4262545,-0.22191899,-0.87660515,0.02495327,5.084872245788574,-4.840185165405273,1.8846890926361084,95.0810775756836,193.41029357910156, 54.677825927734375
268,772424292,0.46032065,-0.22133683,-0.8589454,0.036439423,6.9350361824035645,-3.1037304401397705,1.585578441619873,125.09442138671875,237.4257049560547, 51.648529052734375
269,772440959,0.49907142,-0.22010055,-0.8368747,0.04608942,8.413256645202637,-0.8222473859786987,0.5603652596473694,124.51991271972656,281.6651611328125, 47.51456832885742
270,772457626,0.54067624,-0.22061779,-0.81027806,0.04946097,9.324581146240234,0.37558671832084656,-0.6669429540634155,88.11389923095703,323.665283203125, 42.02278518676758
271,772474293,0.5845122,-0.22261164,-0.7787736,0.047972064,11.010932922363281,-1.5526764392852783,-2.820277452468872,60.60014343261719,362.23968505859375, 38.884002685546875
272,772490960,0.63153136,-0.21997498,-0.7418233,0.049774833,12.885808944702148,-1.7699849605560303,-4.32158899307251,103.5519027709961,394.68402099609375, 34.598209381103516
273,772507627,0.6788832,-0.21282348,-0.7007313,0.052910782,15.461077690124512,1.1017754077911377,-5.018701076507568,131.93862915039062,410.8994140625, 23.526338577270508
274,772524294,0.72183686,-0.21237834,-0.6570107,0.046736702,18.55779266357422,-0.8489800691604614,-9.725120544433594,50.2972412109375,418.130859375, 17.90237045288086
275,772540961,0.76087415,-0.20711917,-0.61353654,0.041778527,23.725120544433594,-3.9758191108703613,-15.101635932922363,73.98743438720703,396.0821533203125, 3.1439335346221924
276,772557628,0.79327846,-0.19512446,-0.57568014,0.035047412,23.22859001159668,-3.7909657955169678,-17.120983123779297,90.84258270263672,339.6059265136719, -40.58130645751953
277,772574295,0.81759745,-0.18044211,-0.5458059,0.03273031,16.981767654418945,-8.68507194519043,-20.674070358276367,110.36705780029297,257.8893127441406, -35.80141067504883
278,772590962,0.8336045,-0.16825972,-0.52474576,0.03787211,12.251825332641602,-2.6110427379608154,-22.037355422973633,112.22418975830078,168.9471435546875, 6.423009872436523
279,772607629,0.8400133,-0.16471183,-0.5153001,0.041399222,8.064884185791016,0.30833104252815247,-24.702802658081055,42.970245361328125,72.38424682617188, 17.424434661865234
280,772624296,0.836952,-0.16316795,-0.5204579,0.04484654,7.818150520324707,-3.0624454021453857,-24.131139755249023,16.436655044555664,-44.3005485534668, 10.286087036132812
281,772640963,0.8272644,-0.15325272,-0.53743684,0.057522383,8.878024101257324,-6.021822929382324,-20.524463653564453,86.80028533935547,-148.44744873046875, 22.19173812866211
282,772657630,0.81443423,-0.14167924,-0.5576689,0.075029016,22.231224060058594,-7.4567131996154785,9.640594482421875,109.73414611816406,-183.85147094726562, 41.22840118408203
283,772674297,0.80433583,-0.11690293,-0.5741999,0.098348126,22.522356033325195,17.19133949279785,10.399221420288086,210.55726623535156,-165.17825317382812, 25.238197326660156
284,772690964,0.78938675,-0.12041424,-0.594052,0.09732095,5.718654632568359,7.168697834014893,-9.850825309753418,-48.34909439086914,-164.0458221435547, 3.3162577152252197
285,772707631,0.7709088,-0.1348076,-0.6151085,0.09575154,11.389900207519531,-19.313068389892578,-9.349900245666504,-113.27579498291016,-177.0670166015625, 46.3905143737793
286,772724298,0.75638074,-0.13106112,-0.63164085,0.10835619,12.952527046203613,-3.292454481124878,-2.672112226486206,49.69223403930664,-161.20541381835938, 46.04014587402344
287,772740965,0.7445094,-0.13070695,-0.644741,0.11371308,7.94307804107666,2.64831280708313,0.9276310801506042,5.59058141708374,-122.66190338134766, 24.16254234313965
288,772757632,0.732977,-0.14238304,-0.65593207,0.11056718,12.824361801147461,-3.2649142742156982,-1.403809905052185,-91.88031005859375,-94.37348937988281, 35.53666687011719
289,772774299,0.72380036,-0.14808251,-0.6646984,0.11117848,11.21872615814209,-4.291004180908203,-0.49885955452919006,-40.613834381103516,-79.71839904785156, 28.1486759185791
290,772790966,0.7161693,-0.15164573,-0.6719006,0.112493806,9.581276893615723,-5.708179473876953,-1.4961217641830444,-23.965084075927734,-67.21745300292969, 22.2970027923584
291,772807633,0.7103132,-0.15209639,-0.677478,0.11552246,9.619928359985352,-4.626306056976318,-0.4430510997772217,2.415670871734619,-55.187156677246094, 16.617298126220703
292,772824300,0.7049772,-0.15445094,-0.68250424,0.115499325,9.8947114944458,-3.5487167835235596,-0.7336580753326416,-20.103139877319336,-45.37216567993164, 10.715046882629395
293,772840967,0.6995289,-0.15827772,-0.6876968,0.11260889,9.384888648986816,-5.14397668838501,-1.986642599105835,-40.935359954833984,-42.4923210144043, 3.6529219150543213
294,772857634,0.69560754,-0.15753415,-0.69174105,0.11317044,9.432888984680176,-4.164515018463135,-2.430593967437744,-0.06355822831392288,-37.01164627075195, -1.3193421363830566
295,772874301,0.6922406,-0.15629855,-0.6953737,0.11326721,10.634224891662598,-1.9254200458526611,-1.8785920143127441,1.0184352397918701,-32.24055480957031, -5.888497352600098
296,772890968,0.6891602,-0.15648551,-0.6986521,0.111606225,10.560098648071289,-2.0956740379333496,-1.5227476358413696,-13.558509826660156,-26.160717010498047, -7.244895935058594
297,772907635,0.68607485,-0.15784048,-0.7018772,0.10842675,9.999170303344727,-2.512517213821411,-1.3772225379943848,-26.34349822998047,-23.386245727539062, -8.711982727050781
298,772924302,0.682838,-0.15902254,-0.7052167,0.10542101,10.106382369995117,-3.6573853492736816,-0.5107488036155701,-24.934663772583008,-24.96470832824707, -8.694181442260742
299,772940969,0.67955333,-0.16076016,-0.70843196,0.10241083,10.451630592346191,-3.1072046756744385,-0.28109288215637207,-27.53533172607422,-24.220443725585938, -5.834626197814941
300,772957636,0.6755001,-0.16306144,-0.7122551,0.099012576,10.393226623535156,-2.7090582847595215,0.17293009161949158,-33.344940185546875,-30.003765106201172, -4.998661518096924
301,772974303,0.67075133,-0.1666608,-0.7163347,0.09582065,9.265275001525879,-4.168137073516846,0.3815004527568817,-39.328094482421875,-33.99281311035156, 2.54827618598938
302,772990970,0.6649408,-0.17077823,-0.72146285,0.09044525,9.664834976196289,-1.9048978090286255,-0.5332568883895874,-54.39761734008789,-41.26502227783203, -5.471296310424805
303,773007637,0.65813917,-0.17397456,-0.7273704,0.08670626,8.873801231384277,-2.26347017288208,-1.12590754032135,-43.71638107299805,-52.26982116699219, -2.796440362930298
304,773024304,0.65008205,-0.17510234,-0.7345015,0.085088894,10.050857543945312,-2.1706454753875732,-1.2449979782104492,-25.968856811523438,-67.87120056152344, -4.225098609924316
305,773040971,0.64036435,-0.17626362,-0.74291664,0.08330544,10.381293296813965,-1.4937559366226196,-1.019575595855713,-29.6959285736084,-81.79718017578125, -5.3368048667907715
306,773057638,0.62923217,-0.17716141,-0.7523135,0.081885405,10.845756530761719,-2.9366979598999023,-0.31590449810028076,-28.941570281982422,-93.97261810302734, -5.408050537109375
307,773074305,0.616737,-0.1760919,-0.76264554,0.0836608,11.676589965820312,-2.8762664794921875,-0.6314513683319092,-6.090679168701172,-110.1352767944336, -2.1226794719696045
308,773090972,0.6022076,-0.17390235,-0.77432495,0.086747065,11.402067184448242,-1.276593565940857,-0.13068395853042603,2.297715425491333,-128.81857299804688, -2.8924832344055176
309,773107639,0.58524644,-0.17109008,-0.78742236,0.09044762,12.230220794677734,-1.117540955543518,0.3525008261203766,4.4068498611450195,-148.83990478515625, -3.8703300952911377
310,773124306,0.5660761,-0.16801646,-0.8014847,0.09460855,12.13332748413086,-1.927549958229065,0.9065287113189697,4.764236927032471,-165.52113342285156, -3.1456074714660645
311,773140973,0.5444928,-0.16631147,-0.8163008,0.09757656,12.799617767333984,-3.0770766735076904,2.828284740447998,-10.417694091796875,-179.65243530273438, 0.4790697395801544
312,773157640,0.5202951,-0.16795217,-0.83175474,0.09627843,15.148038864135742,-4.102976322174072,7.2327470779418945,-50.35302734375,-189.85067749023438, 4.326759338378906
313,773174307,0.49411973,-0.1733842,-0.84743106,0.08743156,20.705167770385742,-6.111847400665283,12.423660278320312,-109.64824676513672,-191.18763732910156, 0.0877833366394043
314,773190974,0.4698581,-0.1798747,-0.86095196,0.07510289,22.888643264770508,-3.874176502227783,12.417057991027832,-130.1895294189453,-168.6464080810547, -4.111752033233643
315,773207641,0.444968,-0.18902302,-0.8735623,0.056238465,17.244726181030273,-3.9025719165802,-0.8586858510971069,-177.98280334472656,-160.78701782226562, -7.949156761169434
316,773224308,0.41253927,-0.19717364,-0.88839185,0.041159827,18.40869903564453,-14.837624549865723,1.16110360622406,-162.8885040283203,-218.55612182617188, -2.3382837772369385
317,773240975,0.38640305,-0.1997355,-0.89954305,0.040263068,16.02931785583496,-9.051506042480469,6.154567241668701,-51.13398361206055,-190.92979431152344, 6.713174819946289
318,773257642,0.36568218,-0.20406513,-0.9074002,0.035480287,12.58853816986084,-9.301568984985352,2.9216673374176025,-71.79158020019531,-143.40367126464844, 10.251961708068848
319,773274309,0.35479397,-0.208357,-0.9109509,0.029621826,12.375639915466309,-3.322683811187744,6.762406826019287,-63.833187103271484,-70.12652587890625, 10.822269439697266
320,773290976,0.3533896,-0.21326856,-0.91059303,0.021284958,7.8742852210998535,-3.7196507453918457,9.092610359191895,-66.654052734375,1.9871101379394531, 12.305583953857422
321,773307643,0.36238235,-0.21723852,-0.90614086,0.019879851,6.693774223327637,-5.849534511566162,6.121657371520996,-5.336055278778076,66.30181884765625, 27.679182052612305
322,773324310,0.38074842,-0.2185194,-0.8981483,0.02468898,5.10987663269043,-4.577467918395996,4.1607561111450195,54.30665588378906,123.56281280517578, 30.345571517944336
323,773340977,0.40628004,-0.21922182,-0.8865791,0.029255467,5.099595546722412,-3.789769411087036,3.387788772583008,65.48995208740234,177.23814392089844, 30.253250122070312
324,773357644,0.43883014,-0.21920654,-0.8707513,0.03418446,6.426932334899902,-3.6586039066314697,3.155125141143799,80.96197509765625,231.05947875976562, 31.86241340637207
325,773374311,0.47683385,-0.21882533,-0.8504674,0.038080934,8.117091178894043,-2.361116886138916,0.8714419603347778,84.97868347167969,278.4460144042969, 31.948917388916016
326,773390978,0.5189681,-0.21862641,-0.8254289,0.039268557,9.035836219787598,-1.1691316366195679,0.4874841868877411,75.88236236572266,322.179931640625, 30.180522918701172
327,773407645,0.5642361,-0.21967988,-0.7949759,0.037310116,10.886578559875488,0.20646138489246368,-1.191434621810913,59.638240814208984,364.2480773925781, 33.333744049072266
328,773424312,0.6117232,-0.2195103,-0.7591782,0.03547945,13.038646697998047,-1.4473164081573486,-3.5028722286224365,69.76937866210938,396.5635070800781, 34.66493225097656
329,773440979,0.66046184,-0.21556634,-0.71827567,0.03743932,15.802014350891113,-0.09044855087995529,-4.609527587890625,108.55897521972656,417.9867248535156, 38.31787109375
330,773457646,0.7060143,-0.21325561,-0.6742757,0.03766155,18.522197723388672,-1.1496332883834839,-9.057147026062012,88.61105346679688,419.4165344238281, 44.00780487060547
331,773474313,0.7495536,-0.2032727,-0.6285547,0.042056594,23.028366088867188,-2.55287766456604,-14.831398010253906,142.7939910888672,410.6844482421875, 31.865270614624023
332,773490980,0.7855987,-0.19348249,-0.5864563,0.03832021,24.674570083618164,1.567508578300476,-15.995794296264648,95.29467010498047,371.6319885253906, -11.955851554870605
333,773507647,0.8114706,-0.19071646,-0.55168325,0.028074892,18.130712509155273,-7.897538185119629,-19.92938804626465,15.82619571685791,302.2703857421875, -25.53294563293457
334,773524314,0.8294798,-0.18672681,-0.5258011,0.025095496,13.682653427124023,-7.953237056732178,-20.53850555419922,38.56072998046875,213.98187255859375, 0.16043268144130707
335,773540981,0.84054214,-0.18250608,-0.5093043,0.028101869,10.11672306060791,-3.510486125946045,-22.839109420776367,51.38752746582031,128.5625762939453, 22.52758026123047
336,773557648,0.84342104,-0.18159477,-0.504748,0.029893337,8.048381805419922,1.1658698320388794,-22.809133529663086,15.842434883117676,34.06101608276367, 13.729899406433105
337,773574315,0.8385485,-0.18112542,-0.51273334,0.033684786,8.306869506835938,-3.9959774017333984,-20.78060531616211,8.332161903381348,-67.01404571533203, 12.96843147277832
338,773590982,0.8291795,-0.17134076,-0.53003645,0.04652934,9.602913856506348,-3.021630048751831,-17.980770111083984,86.64806365966797,-149.13027954101562, 21.716703414916992
339,773607649,0.81622064,-0.16055942,-0.55164945,0.060725838,13.557679176330566,1.142759919166565,-3.993191957473755,92.05974578857422,-187.8794403076172, 21.786338806152344
340,773624316,0.8069276,-0.14538953,-0.56681484,0.08031761,28.020753860473633,-4.391912937164307,23.145429611206055,144.04212951660156,-145.2089385986328, 41.07549285888672
341,773640983,0.7982581,-0.119360335,-0.5815728,0.10153909,11.311826705932617,13.34903621673584,-5.170880317687988,211.2958984375,-148.6282196044922, 7.8831329345703125
342,773657650,0.7829531,-0.12489038,-0.6011599,0.0999688,6.671896934509277,-1.7169463634490967,-11.83602523803711,-61.88735580444336,-160.55438232421875, 10.195940971374512
343,773674317,0.7675861,-0.13042459,-0.6181553,0.10809689,15.220388412475586,-12.035460472106934,-4.786528587341309,-19.771787643432617,-154.6802978515625, 64.70402526855469
344,773690984,0.7553618,-0.12806673,-0.63230276,0.11498088,11.139485359191895,1.8964717388153076,0.6906768679618835,21.810861587524414,-130.72840881347656, 24.48798179626465
345,773707651,0.74444985,-0.1335095,-0.6440615,0.114693336,10.24665355682373,-3.0688891410827637,-0.5792582631111145,-46.78221893310547,-100.1147232055664, 22.411096572875977
346,773724318,0.7360851,-0.13332112,-0.65283936,0.11918421,12.320666313171387,-3.1032490730285645,-0.6201097965240479,7.977147102355957,-82.35277557373047, 22.663299560546875
347,773740985,0.72842145,-0.13894422,-0.66047716,0.11775668,9.627959251403809,-3.2851006984710693,-0.6081398725509644,-46.34490203857422,-63.20062255859375, 19.30791664123535
348,773757652,0.7226195,-0.13926148,-0.6664773,0.119312204,9.393635749816895,-6.716660976409912,-0.6723966002464294,-3.0628502368927,-53.66490936279297, 10.219683647155762
349,773774319,0.71706975,-0.13992302,-0.6721212,0.120356455,9.422514915466309,-3.308973550796509,0.5037923455238342,-6.534371852874756,-49.936153411865234, 9.24190902709961
350,773790986,0.71092725,-0.14252253,-0.678332,0.11889242,8.70621109008789,-6.067787170410156,-0.7768965363502502,-28.704458236694336,-51.485416412353516, 5.7797627449035645
351,773807653,0.7055103,-0.13996522,-0.6840426,0.12145299,9.19096851348877,-4.503683567047119,-1.236183762550354,16.421348571777344,-53.794044494628906, 1.1657686233520508
352,773824320,0.6996242,-0.13797401,-0.6901895,0.12299445,10.076324462890625,-2.441624164581299,-1.3370401859283447,8.096824645996094,-56.621620178222656, -1.2278996706008911
353,773840987,0.69457895,-0.13761121,-0.6951349,0.124140315,10.914701461791992,-1.635636806488037,-0.3779149353504181,0.23303242027759552,-45.06498336791992, 5.048805236816406
354,773857654,0.68978626,-0.13915542,-0.6996978,0.1235059,10.955592155456543,-1.4503870010375977,-0.7913459539413452,-16.799846649169922,-38.74138641357422, 5.896765232086182
355,773874321,0.6849696,-0.14102171,-0.70430475,0.12200184,11.281698226928711,-2.3982157707214355,-0.22790764272212982,-22.548053741455078,-37.97433090209961, 3.4125382900238037
356,773890988,0.6811383,-0.14415301,-0.7078517,0.11923362,11.191974639892578,-3.113182306289673,-0.09083549678325653,-32.77771759033203,-25.97347068786621, 3.8764607906341553
357,773907655,0.6767519,-0.14874879,-0.71173346,0.11539715,8.755571365356445,-3.3375706672668457,-1.5916279554367065,-45.663082122802734,-28.048784255981445, 6.1997270584106445
358,773924322,0.67098254,-0.15349995,-0.71716756,0.10904599,9.586102485656738,-2.805370569229126,-1.7890413999557495,-61.31882858276367,-39.34880065917969, -5.1941094398498535
359,773940989,0.6647437,-0.15725698,-0.72289914,0.10393749,9.401352882385254,-2.3700175285339355,-1.2417924404144287,-51.302425384521484,-45.09773635864258, -4.256145000457764
360,773957656,0.6578705,-0.15900815,-0.7292435,0.10063234,10.08393669128418,-3.0195770263671875,-1.2096102237701416,-34.28281021118164,-54.46678924560547, -6.130977153778076
361,773974323,0.64970195,-0.15966395,-0.73667556,0.09850886,9.26662540435791,-3.5620813369750977,-0.4028981924057007,-25.56366729736328,-67.96957397460938, -6.547099590301514
362,773990990,0.6401125,-0.1589293,-0.7452048,0.09832279,8.575170516967773,-4.007874011993408,-0.9171396493911743,-11.851381301879883,-83.21247863769531, -5.210495471954346
363,774007657,0.62894714,-0.15867169,-0.7547673,0.09785255,10.75788688659668,-2.0656189918518066,-0.2840626835823059,-17.83243179321289,-95.25665283203125, -4.155234336853027
364,774024324,0.61640364,-0.15897708,-0.7651192,0.09677604,11.87781047821045,-1.1077556610107422,-1.3320393562316895,-25.443103790283203,-104.90013885498047, -3.7498536109924316
365,774040991,0.6022832,-0.15919712,-0.7764449,0.09510369,12.697967529296875,0.49633854627609253,-0.4831694960594177,-30.550668716430664,-116.83135986328125, -6.646441459655762
366,774057658,0.58651125,-0.15779352,-0.7886929,0.09523296,11.699777603149414,-0.8569968938827515,-0.21431174874305725,-16.57045555114746,-132.6675262451172, -7.629456520080566
367,774074325,0.5688565,-0.15510452,-0.80177313,0.097493365,11.53424072265625,-1.7505526542663574,1.707876443862915,-2.3849616050720215,-149.5669403076172, -5.618193626403809
368,774090992,0.5490213,-0.1525131,-0.8156541,0.1001191,12.08047866821289,-3.703944683074951,2.3663816452026367,-3.6246609687805176,-165.31993103027344, -3.036780595779419
369,774107659,0.526691,-0.15285839,-0.8302848,0.09928867,13.496302604675293,-4.155516624450684,4.751832008361816,-37.289947509765625,-176.84010314941406, 1.2673920392990112
370,774124326,0.5022036,-0.15794963,-0.8453145,0.09103231,16.58274269104004,-4.40034818649292,9.651174545288086,-99.53436279296875,-180.07044982910156, 2.505866050720215
371,774140993,0.47839066,-0.16605893,-0.8589183,0.07633214,22.36855125427246,-4.703118324279785,11.995625495910645,-146.01449584960938,-163.16018676757812, -1.0351969003677368
372,774157660,0.45733577,-0.1743975,-0.8701477,0.05720684,19.328218460083008,-1.481685996055603,6.249032974243164,-168.7941436767578,-134.9774169921875, -12.882563591003418
373,774174327,0.42867497,-0.1851684,-0.8835854,0.035036772,15.303071022033691,-10.047713279724121,-6.073917388916016,-204.75914001464844,-183.68739318847656, -7.474078178405762
374,774190994,0.4003972,-0.19149256,-0.89569664,0.027207697,18.579235076904297,-14.928706169128418,2.9876084327697754,-103.85590362548828,-197.04478454589844, 9.087665557861328
375,774207661,0.3761145,-0.19513884,-0.905446,0.02503284,14.079643249511719,-10.01358699798584,1.677669644355774,-56.451873779296875,-174.57620239257812, 10.164731979370117
376,774224328,0.35946366,-0.19883229,-0.911467,0.021895038,12.963090896606445,-5.996805191040039,4.600026607513428,-52.042510986328125,-116.63351440429688, 11.443565368652344
377,774240995,0.3499237,-0.20624347,-0.9137433,0.009514975,10.15830135345459,-0.9433963894844055,5.034543037414551,-109.14324951171875,-50.212608337402344, 15.82905101776123
378,774257662,0.34788987,-0.21139227,-0.91339266,-0.00014780601,7.5517072677612305,-4.2521514892578125,5.617100238800049,-75.9185791015625,-1.2425490617752075, 11.355331420898438
379,774274329,0.3561318,-0.21338044,-0.90974367,0.002350994,6.262190818786621,-5.964358329772949,5.082683086395264,22.70372772216797,53.09479904174805, 25.31331443786621
380,774290996,0.3727857,-0.2121366,-0.90324086,0.013604837,4.4064717292785645,-4.54860258102417,3.3588128089904785,97.45628356933594,99.48278045654297, 30.533769607543945
381,774307663,0.39591262,-0.21068065,-0.8934266,0.02561463,4.1491899490356445,-4.3426737785339355,1.814806342124939,112.19377136230469,146.87010192871094, 35.3935661315918
382,774324330,0.42535964,-0.20812201,-0.8799581,0.037791923,5.190728664398193,-3.5300350189208984,2.039135694503784,125.79579162597656,195.1051025390625, 33.26797866821289
383,774340997,0.45997947,-0.2055501,-0.8624672,0.048149742,6.192282199859619,-2.1334073543548584,1.2770613431930542,123.065185546875,240.64369201660156, 32.307342529296875
384,774357664,0.4983175,-0.20368195,-0.840954,0.054680716,6.730401039123535,-1.8132652044296265,0.013123005628585815,104.56792449951172,280.9496765136719, 28.87722396850586
385,774374331,0.5398119,-0.2006993,-0.8152945,0.060148597,7.002750396728516,-2.6904661655426025,-2.6952409744262695,108.09475708007812,314.42816162109375, 23.435544967651367
386,774390998,0.58448,-0.19344887,-0.785045,0.068302184,9.852493286132812,-3.794804334640503,-3.8277511596679688,145.19952392578125,343.88104248046875, 14.499368667602539
387,774407665,0.63159835,-0.18135159,-0.7495137,0.08015316,13.17983627319336,-3.819136619567871,-4.316022872924805,190.35438537597656,371.2865295410156, 9.095577239990234
388,774424332,0.6791834,-0.16663079,-0.70890635,0.09162861,15.791335105895996,-0.9536541700363159,-6.630620956420898,203.17039489746094,394.9414978027344, 0.10632181167602539
389,774440999,0.7213716,-0.16768818,-0.6668154,0.082831286,18.925886154174805,-1.7051912546157837,-10.133277893066406,25.348278045654297,408.9794921875, -12.431405067443848
390,774457666,0.75873756,-0.16969599,-0.62469906,0.07260785,20.967979431152344,-6.974251747131348,-14.35517406463623,8.659602165222168,389.64532470703125, -12.323726654052734
391,774474333,0.78900063,-0.17612632,-0.5859396,0.055968042,20.698820114135742,-0.6144098043441772,-12.523333549499512,-51.69100570678711,352.03863525390625, -27.30901336669922
392,774491000,0.8115987,-0.1880643,-0.5518164,0.037924044,19.123868942260742,-8.401524543762207,-15.128738403320312,-98.10003662109375,300.5235595703125, -15.24947452545166
393,774507667,0.8293435,-0.19015835,-0.5242652,0.03428427,13.790214538574219,-4.763344764709473,-17.611412048339844,3.8777506351470947,225.09410095214844, 20.44513702392578
394,774524334,0.84024405,-0.19061153,-0.50634897,0.035612367,10.704801559448242,0.40012019872665405,-20.46320915222168,20.30536460876465,139.54400634765625, 31.900808334350586
395,774541001,0.8429017,-0.18746366,-0.50270516,0.04076425,7.938636302947998,-2.3491735458374023,-20.994491577148438,40.50568771362305,23.521329879760742, 24.972251892089844
396,774557668,0.83854365,-0.17679808,-0.5125005,0.054129273,6.941995620727539,-3.579136610031128,-20.350021362304688,100.1329574584961,-90.31768798828125, 31.254798889160156
397,774574335,0.8277244,-0.16380905,-0.5319059,0.07152064,11.579229354858398,0.06621217727661133,-9.362309455871582,116.81153869628906,-173.33238220214844, 36.8846321105957
398,774591002,0.8172213,-0.13835944,-0.5511778,0.095965095,31.532732009887695,4.544363498687744,14.427499771118164,214.25827026367188,-184.92251586914062, 31.434965133666992
399,774607669,0.80690634,-0.11593874,-0.568618,0.11015463,9.200495719909668,18.15818977355957,0.4648537039756775,159.5442352294922,-162.15769958496094, -12.658523559570312
400,774624336,0.7886186,-0.12741768,-0.5916138,0.108804554,10.599061965942383,-15.899118423461914,-19.401357650756836,-99.99801635742188,-186.00552368164062, 36.06544876098633
401,774641003,0.7717134,-0.11703335,-0.61193013,0.12768513,22.576189041137695,-3.886904001235962,-0.2594306468963623,104.77313232421875,-199.0403594970703, 57.55952072143555
402,774657670,0.7589769,-0.11325593,-0.62703,0.13401736,1.4996674060821533,0.41960325837135315,-1.3328163623809814,25.02964973449707,-137.67860412597656, 19.30851173400879
403,774674337,0.74730164,-0.1240321,-0.63972485,0.13003309,11.637659072875977,-3.9096031188964844,-0.30635866522789,-92.2674331665039,-99.12787628173828, 29.118274688720703
404,774691004,0.73805314,-0.13261855,-0.64948016,0.12595877,10.95605754852295,-3.356295347213745,0.34629929065704346,-76.61911010742188,-75.24018859863281, 19.421730041503906
405,774707671,0.7297827,-0.1388012,-0.65787065,0.123926535,11.591297149658203,-5.234076499938965,-0.46590280532836914,-53.17106628417969,-67.94168090820312, 19.50557518005371
406,774724338,0.723786,-0.13422333,-0.66413397,0.13055344,8.879698753356934,-5.974471092224121,-1.0059481859207153,44.03548812866211,-64.41012573242188, 14.294143676757812
407,774741005,0.71832913,-0.13076393,-0.66981095,0.13511913,10.42362117767334,-0.6884998083114624,-0.3675670921802521,30.135099411010742,-56.09136199951172, 9.000412940979004
408,774757672,0.71275055,-0.13609105,-0.6755864,0.13057151,9.058652877807617,-3.813786268234253,-0.9848227500915527,-55.40816879272461,-40.80649185180664, 4.591646194458008
409,774774339,0.7082131,-0.1390218,-0.6803,0.12766814,10.260473251342773,-5.456396102905273,-1.700361728668213,-34.07719802856445,-34.47396469116211, 1.5841264724731445
410,774791006,0.70506936,-0.13737671,-0.68380904,0.12810232,10.378894805908203,-3.717825412750244,-1.2760889530181885,6.2293548583984375,-29.27060890197754, -3.7145957946777344
411,774807673,0.702298,-0.13672656,-0.68696046,0.12715642,10.33838939666748,-1.7370731830596924,-1.1911020278930664,-4.406878471374512,-23.597078323364258, -5.734823226928711
412,774824340,0.69940335,-0.13854986,-0.69014496,0.12385076,9.628960609436035,-3.1500396728515625,-1.0187158584594727,-27.636259078979492,-19.965974807739258, -5.284933567047119
413,774841007,0.69624627,-0.14029853,-0.69355685,0.120567486,9.105466842651367,-3.784097671508789,-0.40870988368988037,-27.61812400817871,-22.41390609741211, -5.496651649475098
414,774857674,0.6924468,-0.14163509,-0.6975504,0.11781505,9.432960510253906,-3.0319056510925293,0.6417309045791626,-24.233362197875977,-29.16634178161621, -4.9617815017700195
415,774874341,0.6875634,-0.14299424,-0.7024508,0.1156381,9.082291603088379,-3.126070261001587,0.5941805243492126,-23.401958465576172,-39.32429885864258, -2.10481595993042
416,774891008,0.6815661,-0.14447816,-0.70821697,0.1141162,9.512551307678223,-3.2656466960906982,0.7070216536521912,-22.63542938232422,-49.444393157958984, 1.6252641677856445
417,774907675,0.6749069,-0.14849775,-0.7141379,0.111606844,8.766292572021484,-4.14180850982666,0.7318989634513855,-40.12649154663086,-50.54219055175781, 9.713306427001953
418,774924342,0.6665098,-0.15377595,-0.7217547,0.10577338,11.115743637084961,-2.3936784267425537,-0.3516072630882263,-65.39114379882812,-62.71824645996094, 0.04452256113290787
419,774941009,0.65796113,-0.1593335,-0.7292246,0.09965739,10.637528419494629,-0.5971032977104187,-1.2971620559692383,-68.12896728515625,-62.40483093261719, 0.49041467905044556
420,774957676,0.6482814,-0.16416304,-0.7376037,0.093395114,10.900830268859863,-0.6229096055030823,-0.9216151237487793,-67.39892578125,-72.61150360107422, -3.898221254348755
421,774974343,0.6371567,-0.166493,-0.74707687,0.09048534,10.30813217163086,-3.8322925567626953,-0.36339449882507324,-41.56338119506836,-90.30949401855469, -1.8182064294815063
422,774991010,0.62488234,-0.16612606,-0.7573204,0.091598414,10.342750549316406,-3.5331461429595947,0.4790475368499756,-10.88128662109375,-105.99232482910156, 1.7323905229568481
423,775007677,0.61030585,-0.16660461,-0.7689533,0.09209116,11.372138977050781,-2.514768123626709,0.6396340131759644,-21.26296043395996,-122.87055206298828, 3.2743985652923584
424,775024344,0.59359133,-0.1671235,-0.7817049,0.093041115,11.260054588317871,-3.690394401550293,-0.3330516517162323,-22.173463821411133,-139.56202697753906, 5.4702653884887695
425,775041011,0.5747159,-0.16681336,-0.79547817,0.09533924,12.185498237609863,-1.8427462577819824,0.7511595487594604,-14.675544738769531,-157.59657287597656, 6.658693790435791
426,775057678,0.5535516,-0.16729,-0.81007415,0.09682319,12.607417106628418,-1.821094036102295,1.2313249111175537,-25.39479637145996,-172.15911865234375, 8.311702728271484
427,775074345,0.5298439,-0.17032266,-0.8252966,0.09561022,14.57002067565918,-2.2212932109832764,4.02818489074707,-53.48065185546875,-184.20465087890625, 13.276017189025879
428,775091012,0.5033605,-0.17540169,-0.8413175,0.08970723,18.18564796447754,-4.546697616577148,9.034541130065918,-91.38031768798828,-196.49844360351562, 8.73646068572998
429,775107679,0.47696885,-0.1812604,-0.85617816,0.08126743,23.80990982055664,-5.626301288604736,12.332505226135254,-108.11514282226562,-189.14964294433594, 5.830971717834473
430,775124346,0.45316538,-0.18919931,-0.8686696,0.0652519,21.238815307617188,2.007854700088501,11.80592155456543,-155.27650451660156,-156.5362548828125, -5.200256824493408
431,775141013,0.42732617,-0.2007315,-0.88072294,0.037767746,16.066490173339844,-2.11114764213562,-4.491692543029785,-237.52845764160156,-151.80332946777344, -17.799057006835938
432,775157680,0.3990782,-0.2062665,-0.8932296,0.018214751,19.006851196289062,-14.053879737854004,5.355778694152832,-175.23324584960938,-180.5771026611328, -30.880081176757812
433,775174347,0.3768619,-0.20703477,-0.9027638,0.011369364,13.202832221984863,-10.010915756225586,4.2256669998168945,-75.57466888427734,-154.67739868164062, -22.17133903503418
434,775191014,0.3592169,-0.20679513,-0.90998423,0.011303805,11.394307136535645,-15.83923625946045,-3.2145848274230957,-24.500642776489258,-130.51486206054688, -8.153287887573242
435,775207681,0.35271668,-0.20261647,-0.91329813,0.020595541,11.752553939819336,-4.157627105712891,5.111506462097168,59.45659255981445,-64.95161437988281, -5.310003757476807
436,775224348,0.35285065,-0.20390347,-0.9130545,0.015855756,7.838496685028076,-0.17246150970458984,7.868696689605713,-32.34800720214844,5.208790302276611, -0.9985147714614868
437,775241015,0.35976937,-0.20698239,-0.9097793,0.0051253797,5.466468811035156,-4.198500633239746,5.6909942626953125,-64.5556869506836,63.34391784667969, -0.7699014544487
438,775257682,0.3753983,-0.2107027,-0.902594,-0.0021893021,5.411630630493164,-4.469463348388672,3.023543357849121,-32.46371078491211,122.39757537841797, 16.82334327697754
439,775274349,0.3978679,-0.21421795,-0.89206105,-0.0062496783,4.515659332275391,-4.5973639488220215,1.9695643186569214,-2.1028404235839844,168.60906982421875, 28.787450790405273
440,775291016,0.4272857,-0.21629138,-0.87784904,-0.005119353,4.934689998626709,-4.914183139801025,2.018885612487793,43.534725189208984,213.61856079101562, 39.75948715209961
441,775307683,0.46308535,-0.2167241,-0.85940826,-0.00038645416,6.3064680099487305,-3.0238840579986572,1.9390428066253662,79.21683502197266,259.189697265625, 46.870994567871094
442,775324350,0.50331014,-0.21776725,-0.8362078,0.0036134117,7.9542717933654785,-1.5336154699325562,0.29226619005203247,79.33583068847656,301.50555419921875, 55.228843688964844
443,775341017,0.54644966,-0.22129445,-0.8077167,0.0039038714,9.573188781738281,-1.2379133701324463,-1.4639066457748413,53.7532844543457,342.15570068359375, 64.52059936523438
444,775357684,0.59350795,-0.22229785,-0.7734874,0.0070257243,10.973061561584473,-2.271183490753174,-3.4475247859954834,84.96832275390625,381.15185546875, 69.77064514160156
445,775374351,0.6429234,-0.21885113,-0.7338703,0.013714213,13.208962440490723,0.20845255255699158,-4.203942775726318,125.8847427368164,410.1558837890625, 68.78126525878906
446,775391018,0.6896193,-0.21534489,-0.6911742,0.018167514,16.120044708251953,1.7768113613128662,-6.5001749992370605,110.99149322509766,413.5537109375, 63.599456787109375
447,775407685,0.7340058,-0.20680211,-0.64650756,0.022282789,20.7752685546875,-1.1690113544464111,-11.541404724121094,130.1016845703125,412.07733154296875, 41.459983825683594
448,775424352,0.772981,-0.19575287,-0.6031362,0.020201074,25.196012496948242,1.0114519596099854,-14.436310768127441,107.37096405029297,390.4016418457031, -1.834186315536499
449,775441019,0.8036727,-0.18712327,-0.56479007,0.010372728,22.86197853088379,-5.204716682434082,-18.108409881591797,50.66098403930664,340.74493408203125, -38.31897735595703
450,775457686,0.8266796,-0.17474262,-0.5348079,0.0068392963,16.243793487548828,-9.196642875671387,-20.744853973388672,85.6176986694336,257.1458740234375, -28.255260467529297
451,775474353,0.8413972,-0.16614102,-0.5141602,0.009340544,12.166881561279297,-3.942429542541504,-22.127033233642578,76.2720718383789,167.4550323486328, 8.983787536621094
452,775491020,0.84704053,-0.16607262,-0.50481063,0.010421832,8.031705856323242,0.036131903529167175,-23.900550842285156,11.126134872436523,73.11014556884766, 18.61707878112793
453,775507687,0.84300065,-0.17183723,-0.50963336,0.009798334,7.335169792175293,-4.517519474029541,-21.748750686645508,-40.50480651855469,-39.776756286621094, 13.553961753845215
454,775524354,0.8335361,-0.16691095,-0.5262799,0.019696813,8.75558090209961,-7.281847953796387,-18.450092315673828,51.52622604370117,-139.6769561767578, 23.409799575805664
455,775541021,0.82022804,-0.1549912,-0.5493706,0.037361763,11.719822883605957,-1.0797806978225708,-12.422232627868652,114.85530090332031,-199.6854248046875, 35.51274490356445
456,775557688,0.8084715,-0.14780085,-0.5675948,0.04863088,23.848098754882812,-1.3700776100158691,31.502151489257812,67.17493438720703,-157.78732299804688, 22.056320190429688
457,775574355,0.8021517,-0.1119693,-0.5807931,0.08182335,18.016633987426758,8.368547439575195,2.697469711303711,318.9540100097656,-141.28955078125, 35.47666549682617
458,775591022,0.78804696,-0.090884976,-0.6008162,0.09870181,7.260120868682861,1.3177825212478638,-18.684293746948242,162.52871704101562,-188.98756408691406, 3.763336181640625
459,775607689,0.7706412,-0.08375922,-0.6208765,0.11665733,17.109975814819336,-7.520915985107422,-1.135364055633545,89.56822967529297,-193.32321166992188, 69.43511962890625
460,775624356,0.7552814,-0.08104878,-0.6380381,0.12604904,9.00635051727295,1.8419636487960815,-1.880697250366211,33.28152084350586,-160.6056365966797, 42.712890625
461,775641023,0.7417974,-0.09024787,-0.6529131,0.123679884,8.327792167663574,-3.247246265411377,0.8280878067016602,-77.0479736328125,-123.57118225097656, 33.64658737182617
462,775657690,0.7304296,-0.096232496,-0.6647279,0.12389029,9.977755546569824,-6.789905071258545,-1.457650065422058,-45.10358810424805,-102.85897064208984, 32.45132064819336
463,775674357,0.72101885,-0.09718272,-0.67405653,0.12780921,11.062484741210938,-4.380361080169678,-0.5736322999000549,0.6152100563049316,-88.15546417236328, 27.892332077026367
464,775691024,0.71350324,-0.090425685,-0.6809386,0.13805394,11.101181030273438,-4.712677001953125,-0.9914349317550659,71.5895004272461,-78.27433013916016, 23.393543243408203
465,775707691,0.706414,-0.08480467,-0.6874199,0.14574447,11.362024307250977,0.19153372943401337,0.2410651445388794,54.71950912475586,-71.67867279052734, 15.88784122467041
466,775724358,0.6993022,-0.087451614,-0.69474065,0.14375025,8.389763832092285,-3.000492811203003,-1.85009765625,-32.08649826049805,-62.03200912475586, 7.5363922119140625
467,775741025,0.6929756,-0.086220615,-0.70098895,0.14479451,10.356399536132812,-4.78640604019165,-1.9603636264801025,2.5987792015075684,-58.840065002441406, 3.454176902770996
468,775757692,0.6877832,-0.08307589,-0.70594716,0.14727996,10.165755271911621,-3.1341888904571533,-1.9038184881210327,20.598312377929688,-50.045841217041016, 0.6418288946151733
469,775774359,0.6832321,-0.08179874,-0.71037155,0.14790304,10.23736572265625,-1.9806714057922363,-1.377821922302246,3.605015277862549,-41.530548095703125, 0.5180647969245911
470,775791026,0.67878634,-0.08302617,-0.71491456,0.1457843,9.40778923034668,-3.5467050075531006,-0.9337189793586731,-21.651456832885742,-37.59067916870117, -0.28472548723220825
471,775807693,0.6743622,-0.083327636,-0.71925807,0.1447759,9.308255195617676,-4.068813800811768,-1.385776162147522,-11.712470054626465,-38.239498138427734, 0.4058034420013428
472,775824360,0.669433,-0.084056534,-0.7240566,0.14330474,9.68814754486084,-2.8386125564575195,-0.5247514843940735,-16.776426315307617,-42.270790100097656, 0.5664097666740417
473,775841027,0.66395676,-0.0860364,-0.7292854,0.14107497,10.312020301818848,-2.622222900390625,-0.2293577790260315,-27.108903884887695,-45.448265075683594, 3.586946964263916
474,775857694,0.6582386,-0.09211792,-0.7347564,0.13553345,11.066981315612793,-2.363999605178833,0.2657719850540161,-39.547672271728516,-49.29780960083008, 7.273488998413086
475,775874361,0.6519552,-0.10092308,-0.7402358,0.12969188,10.010697364807129,-4.729150772094727,-0.10988889634609222,-52.87504959106445,-50.01064682006836, 19.68233871459961
476,775891028,0.64380324,-0.11067068,-0.7475618,0.12008643,11.43900203704834,-1.4625487327575684,-0.5068807601928711,-79.86054992675781,-64.37606048583984, 7.464644908905029
477,775907695,0.6344783,-0.11807389,-0.75540704,0.11338577,10.219365119934082,-1.7681199312210083,-1.0785566568374634,-69.49143981933594,-72.6813735961914, 10.314677238464355
478,775924362,0.6240456,-0.12077155,-0.7639643,0.11108585,11.219535827636719,-0.8187734484672546,-1.3050397634506226,-40.59497833251953,-84.76339721679688, 7.444236755371094
479,775941029,0.6130013,-0.12239216,-0.7727192,0.11024901,11.714032173156738,-2.4470510482788086,-1.7460025548934937,-26.00101089477539,-91.93866729736328, 7.862539768218994
480,775957696,0.6007991,-0.12430977,-0.7822008,0.108395234,11.734390258789062,-0.8381634950637817,0.5712651014328003,-34.206817626953125,-100.19246673583984, 5.415398597717285
481,775974363,0.5869189,-0.12586941,-0.79256934,0.10731771,10.522733688354492,-2.013066053390503,-0.35808712244033813,-30.68343734741211,-113.98210144042969, 7.2163166999816895
482,775991030,0.5703669,-0.12731169,-0.8045348,0.10581844,10.366937637329102,-0.8852330446243286,0.04943302273750305,-36.0305290222168,-134.8489532470703, 5.452044486999512
483,776007697,0.5505591,-0.12931322,-0.81807286,0.10449792,10.654694557189941,-2.628084182739258,1.5909407138824463,-41.253395080566406,-158.92459106445312, 10.245026588439941
484,776024364,0.52782583,-0.13233633,-0.83263785,0.10296205,12.394845008850098,-3.3310582637786865,4.36134672164917,-49.716129302978516,-178.52186584472656, 16.33729362487793
485,776041031,0.5026983,-0.13681668,-0.84783214,0.09877399,15.663508415222168,-5.318171977996826,7.435886383056641,-72.88569641113281,-191.3110809326172, 16.1514949798584
486,776057698,0.47694933,-0.14235494,-0.8623601,0.09267863,21.53500747680664,-7.633924961090088,9.453754425048828,-87.90544128417969,-190.4305877685547, 16.73933982849121
487,776074365,0.4532904,-0.15027238,-0.8747201,0.08252752,21.20948028564453,-1.3988462686538696,9.9591703414917,-116.47900390625,-165.82627868652344, 18.301721572875977
488,776091032,0.42915913,-0.16260107,-0.8865255,0.058787648,19.121299743652344,-1.3298643827438354,-2.350022792816162,-212.23411560058594,-150.79168701171875, 3.3588004112243652
489,776107699,0.39939383,-0.17349014,-0.8995897,0.033534102,18.47972297668457,-11.989614486694336,2.375171661376953,-224.02947998046875,-187.92893981933594, -9.025705337524414
490,776124366,0.3755416,-0.17863351,-0.90909106,0.024738211,15.096091270446777,-8.458932876586914,5.093348503112793,-98.68595123291016,-162.70916748046875, 3.367917537689209
491,776141033,0.355319,-0.18574114,-0.9160066,0.013437526,12.125320434570312,-10.385146141052246,-2.1058349609375,-114.64158630371094,-130.12252807617188, 11.643767356872559
492,776157700,0.34347045,-0.18952972,-0.91979027,0.009631673,12.550890922546387,-6.1650919914245605,2.1804163455963135,-48.46223449707031,-79.65663146972656, 12.16379165649414
493,776174367,0.33932316,-0.19439766,-0.92035776,0.003323999,9.168259620666504,-2.001730442047119,6.708257675170898,-56.6634635925293,-20.13241195678711, 16.713254928588867
494,776191034,0.34323424,-0.19954957,-0.917806,-0.0015830155,6.918796539306641,-4.593376159667969,6.395853519439697,-37.65565872192383,36.17335510253906, 25.744239807128906
495,776207701,0.356102,-0.20459586,-0.9117735,-0.0010954827,5.729725360870361,-3.2492167949676514,4.215948104858398,8.819037437438965,93.45616149902344, 42.64056396484375
496,776224368,0.37613153,-0.20967162,-0.9025315,-0.000052524665,5.364853382110596,-2.503403425216675,3.680434465408325,22.239015579223633,145.42994689941406, 48.731258392333984
497,776241035,0.403505,-0.214706,-0.8894266,0.0023476097,5.894587516784668,-2.28682279586792,3.379103899002075,41.32844543457031,199.06149291992188, 57.542930603027344
498,776257702,0.43713096,-0.21913578,-0.8722731,0.005984399,6.846284866333008,-1.1382372379302979,2.107682228088379,59.84808349609375,246.73077392578125, 63.14363098144531
499,776274369,0.47587517,-0.22314444,-0.85069245,0.008474455,7.935741901397705,0.5060040950775146,1.0807744264602661,62.12836456298828,292.4985656738281, 63.6366081237793
500,776291036,0.51844436,-0.2261577,-0.82461125,0.00919398,8.951169967651367,1.6180208921432495,-0.5963611602783203,61.18185806274414,332.3210144042969, 58.719757080078125
501,776307703,0.563842,-0.22849724,-0.7936067,0.0077415276,11.366928100585938,1.627590298652649,-1.9045820236206055,56.006813049316406,369.335205078125, 54.664146423339844
502,776324370,0.6128231,-0.2261277,-0.75711644,0.009440427,13.010194778442383,0.12345635890960693,-3.4907171726226807,97.43785095214844,405.07635498046875, 49.656734466552734
503,776341037,0.6612331,-0.22105879,-0.7167873,0.010957005,15.353479385375977,1.4858102798461914,-4.2882561683654785,107.25778198242188,418.49456787109375, 40.87337875366211
504,776357704,0.7081907,-0.21236958,-0.67316747,0.014522424,20.425968170166016,-1.296735167503357,-10.19515609741211,131.90304565429688,423.0294189453125, 37.52104187011719
505,776374371,0.75080407,-0.19826508,-0.6298499,0.016532158,25.672517776489258,-0.36086371541023254,-15.675429344177246,144.74497985839844,403.3366394042969, 4.908374309539795
506,776391038,0.78398824,-0.18680237,-0.5919178,0.010036926,22.441516876220703,-3.959433078765869,-19.248165130615234,80.83008575439453,346.7618103027344, -33.76046371459961
507,776407705,0.808899,-0.17349388,-0.5617046,0.008390207,16.401918411254883,-7.900691032409668,-22.619802474975586,99.43666076660156,265.36273193359375, -24.44869041442871
508,776424372,0.82473445,-0.16335472,-0.5413014,0.011019601,12.715850830078125,-4.6299967765808105,-23.3603515625,87.0281982421875,171.11117553710938, 0.36115390062332153
509,776441039,0.83325565,-0.15051813,-0.5316846,0.018462952,8.644064903259277,-1.2915394306182861,-26.392114639282227,111.30708312988281,77.40127563476562, 6.040168285369873
510,776457706,0.8319201,-0.14381862,-0.53542024,0.023465255,7.300350189208984,-0.9879035949707031,-25.488245010375977,55.42074203491211,-31.533615112304688, 1.919718623161316
511,776474373,0.82261443,-0.13558547,-0.551202,0.033145826,7.963942050933838,-5.086485862731934,-23.306406021118164,71.68512725830078,-134.40296936035156, 12.39589786529541
512,776491040,0.8096671,-0.13129005,-0.5703909,0.043086417,16.894073486328125,-10.245501518249512,11.330951690673828,46.322265625,-166.6102294921875, 26.383460998535156
513,776507707,0.80139923,-0.11117358,-0.5839318,0.06650842,26.11334800720215,9.761041641235352,14.461165428161621,193.18978881835938,-133.79022216796875, 43.001251220703125
514,776524374,0.78741014,-0.11237154,-0.6024136,0.0667525,6.793249607086182,5.863379955291748,-13.434260368347168,-24.04808807373047,-156.61183166503906, -0.16863614320755005
515,776541041,0.76995224,-0.12344481,-0.6225036,0.06651636,12.699118614196777,-13.155012130737305,-2.9416637420654297,-82.89409637451172,-174.69046020507812, 38.557952880859375
516,776557708,0.7568961,-0.11776541,-0.6376941,0.08115623,10.671171188354492,-1.0195181369781494,-4.783422470092773,75.49536895751953,-150.18682861328125, 47.638694763183594
517,776574375,0.7457832,-0.118762955,-0.6498734,0.08583374,11.188243865966797,1.5955524444580078,0.5940113663673401,0.33259060978889465,-114.17778778076172, 26.413328170776367
518,776591042,0.73610234,-0.12725933,-0.6591694,0.08633891,11.047280311584473,-6.116623401641846,-1.6120120286941528,-53.89698028564453,-85.20154571533203, 40.07474899291992
519,776607709,0.72865444,-0.13214655,-0.6663495,0.08705594,11.016510963439941,-2.4497013092041016,0.1434796154499054,-31.452112197875977,-66.71910858154297, 25.287675857543945
520,776624376,0.72172135,-0.14024998,-0.67273426,0.0829272,9.140507698059082,-6.413435459136963,-0.9784215092658997,-68.82876586914062,-54.08527374267578, 16.17232894897461
521,776641043,0.71646583,-0.1425453,-0.6778297,0.083093524,10.289435386657715,-4.143983364105225,-1.1050556898117065,-17.79166030883789,-47.405418395996094, 10.876259803771973
522,776657710,0.7112965,-0.14512606,-0.68291074,0.08141698,10.114421844482422,-3.444972515106201,-1.2110960483551025,-27.699295043945312,-44.987728118896484, 3.0843820571899414
523,776674377,0.7065757,-0.14540565,-0.6877685,0.081133395,9.635856628417969,-4.220650672912598,-1.2856091260910034,-9.3394193649292,-44.489662170410156, -0.9402106404304504
524,776691044,0.70261294,-0.14268184,-0.69220954,0.08260313,9.281980514526367,-3.763772487640381,-2.5035200119018555,14.523521423339844,-42.3294677734375, -6.646709442138672
525,776707711,0.6992277,-0.13934626,-0.6961521,0.08387902,10.112932205200195,-2.450897693634033,-2.365401029586792,17.399232864379883,-37.34173583984375, -10.3485689163208
526,776724378,0.6962656,-0.13772996,-0.6994771,0.08352618,10.860688209533691,-1.7077877521514893,-1.3908895254135132,2.093839168548584,-29.808202743530273, -9.600799560546875
527,776741045,0.69398797,-0.13827859,-0.7018907,0.081297465,10.921087265014648,-2.562729835510254,-0.5186930894851685,-16.129276275634766,-19.156347274780273, -7.68627405166626
528,776757712,0.69280815,-0.14026661,-0.7030153,0.078177564,9.910419464111328,-2.1629347801208496,-0.1082444041967392,-25.54532241821289,-6.085899353027344, -4.372161865234375
529,776774379,0.69069564,-0.14425772,-0.704808,0.07331502,10.118249893188477,-2.3371262550354004,-0.46902135014533997,-44.780235290527344,-11.052027702331543, -3.123133659362793
530,776791046,0.68742424,-0.14884263,-0.70759666,0.067829505,10.247176170349121,-2.177922487258911,-0.34845852851867676,-52.280677795410156,-20.509416580200195, -3.5976250171661377
531,776807713,0.68284214,-0.15338193,-0.7115414,0.062527046,9.436491966247559,-3.9933135509490967,0.8759967088699341,-53.0649528503418,-32.587547302246094, -3.5153656005859375
532,776824380,0.677217,-0.15534344,-0.716664,0.06031834,7.7178874015808105,-4.237849235534668,-0.45633623003959656,-30.022239685058594,-46.87546920776367, -2.273421049118042
533,776841047,0.66974044,-0.15602517,-0.72366697,0.058397055,8.825913429260254,-3.395799160003662,-0.050767820328474045,-28.646202087402344,-64.68511199951172, -8.225306510925293
534,776857714,0.6609173,-0.15673694,-0.73167616,0.05720071,9.203579902648926,-2.5885167121887207,0.06783129274845123,-29.406147003173828,-76.1473617553711, -4.929728984832764
535,776874381,0.6506481,-0.15789501,-0.74068904,0.055732597,10.250211715698242,-2.6473827362060547,0.5333902835845947,-26.632925033569336,-89.88272857666016, -5.190446376800537
536,776891048,0.6389882,-0.15906198,-0.7505828,0.054944653,11.676560401916504,-0.8748204112052917,-0.3003148138523102,-25.06613540649414,-101.67620849609375, -2.526495933532715
537,776907715,0.6255365,-0.16057827,-0.7616487,0.053008772,12.068840026855469,-0.6346428990364075,0.5662264227867126,-34.93183898925781,-114.71749877929688, -6.355627536773682
538,776924382,0.6105567,-0.1601995,-0.77374566,0.053614277,12.344992637634277,-0.6880086064338684,-0.5999889373779297,-15.541940689086914,-130.69219970703125, -5.913463115692139
539,776941049,0.59329593,-0.15893595,-0.78724873,0.054580398,11.797257423400879,-1.0389225482940674,0.29951587319374084,-12.941387176513672,-149.4894256591797, -9.801148414611816
540,776957716,0.57311183,-0.15760742,-0.80223954,0.05580954,12.370061874389648,-1.6369988918304443,2.8002967834472656,-15.01010799407959,-171.73910522460938, -9.60032844543457
541,776974383,0.55015445,-0.15688786,-0.8182453,0.056487832,13.626548767089844,-3.612582206726074,4.394435882568359,-23.854578018188477,-190.2722625732422, -8.44254207611084
542,776991050,0.52417254,-0.15712516,-0.835195,0.054810364,18.938274383544922,-6.656163692474365,8.261187553405762,-44.38070297241211,-208.0323486328125, -11.81962776184082
543,777007717,0.4975471,-0.15914576,-0.85111916,0.052113738,21.4506893157959,-6.787962436676025,11.476654052734375,-57.01026916503906,-206.3826446533203, -3.914470672607422
544,777024384,0.4726687,-0.16498423,-0.86461973,0.042392872,21.456823348999023,-1.3016695976257324,12.753826141357422,-108.45072174072266,-178.9659423828125, -3.585268259048462
545,777041051,0.44654036,-0.17500867,-0.8771823,0.022910459,15.551223754882812,-4.859428882598877,-0.8619239330291748,-181.277587890625,-171.23196411132812, -8.981528282165527
546,777057718,0.41499022,-0.1834462,-0.8911042,0.008012284,15.868687629699707,-13.644587516784668,-0.614254355430603,-155.50900268554688,-213.93975830078125, -5.285241603851318
547,777074385,0.38744116,-0.1898582,-0.90212953,0.0023709845,18.747652053833008,-12.652210235595703,1.7143869400024414,-87.85267639160156,-192.98391723632812, 12.08733081817627
548,777091052,0.36704993,-0.19520389,-0.90948874,-0.0005686775,14.730217933654785,-7.475975513458252,4.1561279296875,-58.914310455322266,-142.4368438720703, 17.29026222229004
549,777107719,0.35519966,-0.20538016,-0.91186345,-0.012543384,10.935628890991211,-2.2906081676483154,7.226485729217529,-116.20894622802734,-64.41582489013672, 31.39122200012207
550,777124386,0.3515707,-0.21507558,-0.9107979,-0.02424798,6.494287014007568,-4.561809539794922,6.663098335266113,-102.04718780517578,-4.878100872039795, 34.585575103759766
551,777141053,0.35756683,-0.22291578,-0.9065066,-0.026465543,5.655525207519531,-5.894744873046875,5.020938873291016,-24.489171981811523,49.43319320678711, 52.245906829833984
552,777157720,0.3720639,-0.22837548,-0.8994228,-0.021257421,4.679231643676758,-4.39854097366333,3.5600459575653076,40.12861251831055,98.31139373779297, 61.46919631958008
553,777174387,0.39328638,-0.23323394,-0.8892306,-0.014024779,4.284143924713135,-3.9910166263580322,1.2411844730377197,64.26873779296875,144.75790405273438, 68.7857437133789
554,777191054,0.42077535,-0.23604846,-0.87590647,-0.004161583,5.368457794189453,-3.5366809368133545,1.2048912048339844,95.61653137207031,187.53778076171875, 69.02445220947266
555,777207721,0.45409176,-0.23722894,-0.8587691,0.006235686,6.836690425872803,-0.9726395010948181,1.5764834880828857,112.90809631347656,232.86721801757812, 67.08479309082031
556,777224388,0.4909057,-0.23960443,-0.8375341,0.011754473,7.910383224487305,0.6513983607292175,0.6004050970077515,86.25333404541016,274.3363037109375, 65.45319366455078
557,777241055,0.5301963,-0.24271049,-0.81228584,0.01324031,8.063301086425781,-0.7646850943565369,-1.4449269771575928,64.97838592529297,308.8722229003906, 62.472900390625
558,777257722,0.5730221,-0.24214134,-0.78275806,0.01741461,10.275755882263184,-2.9128899574279785,-2.8347768783569336,99.71326446533203,339.44964599609375, 58.574283599853516
559,777274389,0.6196562,-0.23437497,-0.74855596,0.02754313,12.686427116394043,-1.4931011199951172,-3.453080892562866,167.07803344726562,367.6662292480469, 50.6314582824707
560,777291056,0.667114,-0.22188891,-0.7100835,0.038806234,15.209258079528809,0.20213112235069275,-4.784021854400635,195.21530151367188,387.44488525390625, 37.924373626708984
561,777307723,0.71049595,-0.21451168,-0.6690172,0.03995754,16.967782974243164,0.3740037679672241,-8.397308349609375,116.85818481445312,396.2550964355469, 21.56144905090332
562,777324390,0.74992037,-0.20673704,-0.62724936,0.03791525,21.63558006286621,-2.5339648723602295,-14.072349548339844,98.4863052368164,386.13665771484375, 6.285744667053223
563,777341057,0.7828644,-0.19724812,-0.5893485,0.029752813,22.098482131958008,-1.6771249771118164,-15.937050819396973,70.74112701416016,346.5755310058594, -36.45702362060547
564,777357724,0.8073847,-0.19277367,-0.55738646,0.016987028,19.452808380126953,-7.239953517913818,-18.09809112548828,12.487836837768555,287.83367919921875, -47.20624923706055
565,777374391,0.8259796,-0.18331419,-0.53281075,0.016317267,13.49915885925293,-8.369769096374512,-20.387908935546875,77.87661743164062,207.63156127929688, -8.250871658325195
566,777391058,0.8375684,-0.17361093,-0.51753896,0.022176497,10.36876106262207,-0.8221265077590942,-22.821229934692383,93.37213134765625,121.02058410644531, 16.97394561767578
567,777407725,0.8396027,-0.1700108,-0.5152441,0.02621986,8.34148120880127,1.262615442276001,-23.151594161987305,38.43513107299805,15.559353828430176, 14.218045234680176
568,777424392,0.83312315,-0.16630019,-0.5264443,0.033263225,8.217144012451172,-5.799189567565918,-21.144390106201172,37.37162780761719,-95.86856079101562, 16.928089141845703
569,777441059,0.8219238,-0.15024728,-0.5469389,0.052200835,9.874937057495117,-6.379387855529785,-17.734039306640625,143.6934356689453,-182.49838256835938, 30.803558349609375
570,777457726,0.8096128,-0.13525133,-0.5670194,0.06872672,16.324148178100586,-2.725229263305664,17.552963256835938,127.7035140991211,-181.3447723388672, 21.91888999938965
571,777474393,0.80406743,-0.10569771,-0.57634467,0.10065121,26.382822036743164,12.384483337402344,18.46440887451172,280.174560546875,-116.4089126586914, 57.67816162109375
572,777491060,0.79167473,-0.10431069,-0.5937373,0.099231504,8.769123077392578,12.03353214263916,-18.104578018188477,-18.38616180419922,-144.46778869628906, -16.073287963867188
573,777507727,0.7731727,-0.1294875,-0.6146675,0.087298766,12.801526069641113,-16.35977554321289,-5.581526279449463,-212.71432495117188,-162.91290283203125, 36.89242935180664
574,777524394,0.75900143,-0.12794542,-0.6306437,0.09917472,15.136062622070312,-5.72966194152832,-3.101813793182373,36.868717193603516,-155.44625854492188, 52.265350341796875
575,777541061,0.748698,-0.121787734,-0.64257604,0.108237125,7.80149507522583,1.7411983013153076,1.0472229719161987,54.93402862548828,-118.21710968017578, 18.462230682373047
576,777557728,0.73925143,-0.126854,-0.65200824,0.110908695,10.28380298614502,-4.891913890838623,0.06412528455257416,-28.507169723510742,-87.87557220458984, 36.626365661621094
577,777574395,0.7321924,-0.1302623,-0.6590083,0.11240225,11.739297866821289,-1.3865269422531128,0.2077668011188507,-21.419401168823242,-65.05967712402344, 23.49434471130371
578,777591062,0.7248295,-0.14448088,-0.6655134,0.10411269,9.520892143249512,-6.682258129119873,-0.5604667067527771,-120.06311798095703,-46.84581756591797, 23.929956436157227
579,777607729,0.7197479,-0.1484757,-0.6703716,0.10256717,8.7459077835083,-6.519111156463623,-0.6833406686782837,-34.80189514160156,-42.227081298828125, 10.74549674987793
580,777624396,0.715126,-0.15085952,-0.6748401,0.10211399,10.724104881286621,-2.601029872894287,-0.39869630336761475,-21.051273345947266,-40.44014358520508, 8.776224136352539
581,777641063,0.71036404,-0.15452302,-0.67949045,0.09898703,9.8845796585083,-3.212012767791748,-1.2930186986923218,-40.02520751953125,-38.32568359375, 1.4877873659133911
582,777657730,0.7057391,-0.15815558,-0.6839432,0.09560836,9.386022567749023,-3.7016687393188477,-1.3894251585006714,-40.77172088623047,-36.47991943359375, 0.2361067235469818
583,777674397,0.7014874,-0.15954648,-0.6882424,0.09371693,9.402934074401855,-4.499103546142578,-0.817361056804657,-22.396278381347656,-37.07617950439453, -3.167684555053711
584,777691064,0.69731164,-0.15928352,-0.6926416,0.092913985,9.133625984191895,-3.85520339012146,-0.9550421833992004,-9.254831314086914,-39.47025680541992, -5.911585807800293
585,777707731,0.6932105,-0.15869018,-0.6969961,0.09205043,9.50681209564209,-3.205355405807495,-1.2321405410766602,-7.854397296905518,-39.05476760864258, -7.779890537261963
586,777724398,0.6892165,-0.15894239,-0.7011447,0.09007876,9.815887451171875,-2.7191765308380127,-1.3970873355865479,-16.952119827270508,-35.8250617980957, -8.853042602539062
587,777741065,0.68538606,-0.1601908,-0.7050059,0.086900584,10.013955116271973,-2.567862033843994,-1.5081391334533691,-27.136138916015625,-31.748577117919922, -9.54952621459961
588,777757732,0.6817094,-0.162776,-0.7084734,0.082716286,10.756763458251953,-2.5299148559570312,-0.1555468738079071,-37.911956787109375,-27.249984741210938, -7.46115255355835
589,777774399,0.67855006,-0.16824743,-0.7108819,0.07687347,9.028907775878906,-3.1732265949249268,-0.24112468957901,-58.34488296508789,-16.28961753845215, -0.27274033427238464
590,777791066,0.6732313,-0.17517787,-0.71515334,0.068031654,9.144969940185547,-3.3942301273345947,-0.7999563217163086,-83.3008804321289,-31.315185546875, -8.14146900177002
591,777807733,0.667014,-0.18044607,-0.7202691,0.06118884,9.121756553649902,-3.3249902725219727,-0.9837596416473389,-67.26100158691406,-42.84312438964844, -7.655359745025635
592,777824400,0.65993416,-0.18299367,-0.7264624,0.05703303,9.93343448638916,-2.4178619384765625,-0.7335082292556763,-43.0063362121582,-56.54978942871094, -9.779887199401855
593,777841067,0.65148145,-0.18358698,-0.7340621,0.054962773,9.975318908691406,-2.451124429702759,-0.6923484206199646,-26.006006240844727,-73.19609832763672, -11.304384231567383
594,777857734,0.6413304,-0.18375455,-0.7430056,0.0535942,10.619207382202148,-2.292393207550049,0.42659711837768555,-23.214473724365234,-88.85245513916016, -11.36267375946045
595,777874401,0.6295137,-0.18325111,-0.7531656,0.053604156,11.106245994567871,-3.2666916847229004,-0.22463174164295197,-15.774595260620117,-104.74449920654297, -9.6318998336792
596,777891068,0.6157427,-0.1821555,-0.7646872,0.054167587,12.282792091369629,-1.2549972534179688,-0.11489178240299225,-13.316495895385742,-121.70085906982422, -11.302358627319336
597,777907735,0.6001332,-0.18036075,-0.7773104,0.055666953,11.521951675415039,-1.7961269617080688,-0.4680417776107788,-8.150971412658691,-137.4961700439453, -11.699760437011719
598,777924402,0.5829894,-0.1771579,-0.7907367,0.058940552,12.08755874633789,-1.6633415222167969,0.24210166931152344,4.928074836730957,-151.77879333496094, -12.307831764221191
599,777941069,0.56402034,-0.1737253,-0.80484694,0.06262883,12.423276901245117,-1.7370818853378296,1.9178657531738281,5.5975117683410645,-165.08074951171875, -11.982664108276367
600,777957736,0.542631,-0.1714581,-0.81977344,0.064229436,13.619128227233887,-2.888718366622925,3.7661919593811035,-13.72471809387207,-178.6998291015625, -13.556705474853516
601,777974403,0.5187069,-0.1698173,-0.8354823,0.0638321,19.440290451049805,-6.824752330780029,7.619277000427246,-30.67546844482422,-193.34759521484375, -17.281856536865234
602,777991070,0.49463385,-0.1705234,-0.8500035,0.061263926,21.242624282836914,-4.455440521240234,12.562056541442871,-51.20948028564453,-186.51736450195312, -10.09819507598877
603,778007737,0.47222126,-0.17642741,-0.86231494,0.047889985,20.75696563720703,0.611204981803894,14.460579872131348,-129.2113494873047,-154.59596252441406, -14.571266174316406
604,778024404,0.4484005,-0.18661064,-0.8736994,0.02761769,13.87067985534668,-3.784268856048584,-0.5918694734573364,-185.4478759765625,-150.338623046875, -9.983855247497559
605,778041071,0.41653115,-0.19609313,-0.8876713,0.009437054,14.923544883728027,-11.40546703338623,-2.9825220108032227,-181.56124877929688,-209.55894470214844, -9.560690879821777
606,778057738,0.3887379,-0.2029637,-0.8987151,0.00014671481,20.119810104370117,-13.59241008758545,1.6573615074157715,-114.1545181274414,-188.47218322753906, 3.584476947784424
607,778074405,0.36573938,-0.20535992,-0.9077763,0.0021324495,14.007343292236328,-9.846717834472656,0.7942100167274475,-25.886852264404297,-169.37046813964844, 8.787585258483887
608,778091072,0.35009605,-0.20698644,-0.9135526,0.0033352505,12.190011978149414,-5.137312889099121,4.166324615478516,-18.458293914794922,-114.16290283203125, 6.515967845916748
609,778107739,0.34319103,-0.2105673,-0.91535777,0.0013136868,9.767141342163086,-1.7855218648910522,5.879525661468506,-30.921789169311523,-45.151615142822266, 16.472532272338867
610,778124406,0.34373158,-0.2128133,-0.91462743,-0.0040028514,7.084295272827148,-0.2759947180747986,6.149427890777588,-37.72101974487305,12.382765769958496, 3.8979480266571045
611,778141073,0.3510305,-0.21707298,-0.91076255,-0.012985567,5.473369121551514,-3.7473227977752686,4.367683410644531,-55.738155364990234,67.55146789550781, 12.663786888122559
612,778157740,0.36707595,-0.21891731,-0.90395,-0.014318329,4.000528335571289,-4.826671123504639,3.310555934906006,10.762680053710938,118.207763671875, 21.160329818725586
613,778174407,0.39114636,-0.21874654,-0.8938982,-0.010029526,3.922987699508667,-3.6812877655029297,2.371490001678467,62.52476119995117,167.992919921875, 28.47145652770996
614,778191074,0.42148146,-0.21806678,-0.88021076,-0.005435964,4.796817779541016,-2.787858486175537,2.02632474899292,74.9267578125,215.86146545410156, 32.05236053466797
615,778207741,0.45721328,-0.21694277,-0.86249083,-0.0012933342,5.8820977210998535,-2.3045880794525146,1.2338647842407227,81.42298126220703,260.9185485839844, 34.29949951171875
616,778224408,0.4968594,-0.21627419,-0.8404497,0.0007456824,7.420994758605957,-2.064177989959717,0.2611393928527832,73.31501007080078,300.873046875, 36.862953186035156
617,778241075,0.540282,-0.21536449,-0.81345534,0.0020050234,9.367363929748535,-3.4169375896453857,-1.7473845481872559,75.28168487548828,340.8151550292969, 40.148658752441406
618,778257742,0.5875568,-0.21005145,-0.7814062,0.007744321,10.839308738708496,-3.8277711868286133,-3.202850341796875,122.50631713867188,374.5063781738281, 39.587608337402344
619,778274409,0.636277,-0.20294961,-0.7441218,0.01568549,14.066469192504883,-3.7054340839385986,-4.344289302825928,143.9646759033203,400.2158203125, 46.359642028808594
620,778291076,0.6852216,-0.19185512,-0.702034,0.028485253,16.45477294921875,-3.3073885440826416,-6.975796222686768,187.17724609375,415.2475891113281, 53.88733673095703
621,778307743,0.7300707,-0.18217008,-0.65768075,0.03559603,20.2825870513916,-1.6259808540344238,-9.324756622314453,148.1077423095703,413.9723815917969, 37.68636703491211
622,778324410,0.7693368,-0.17191689,-0.6140434,0.03894086,23.99361228942871,-5.6341118812561035,-15.545425415039062,126.7749252319336,389.75360107421875, 16.70783233642578
623,778341077,0.8002476,-0.16499008,-0.57546604,0.034947652,21.60274314880371,-2.9816532135009766,-16.431182861328125,66.98442840576172,337.3511047363281, -11.805197715759277
624,778357744,0.8219154,-0.16789816,-0.5437016,0.025578376,17.169015884399414,-6.002686023712158,-19.28581428527832,-20.496431350708008,271.8689270019531, -7.949769973754883
625,778374411,0.83641434,-0.16899315,-0.5208447,0.023944493,11.993821144104004,-5.124715805053711,-21.914230346679688,8.902092933654785,185.63145446777344, 19.96714210510254
626,778391078,0.8434598,-0.16740388,-0.5097654,0.026283149,8.17707633972168,1.958139419555664,-24.22632598876953,28.04158592224121,86.3288803100586, 20.74015235900879
627,778407745,0.84112257,-0.1663209,-0.51379067,0.029486056,7.14948844909668,0.4480232000350952,-22.979389190673828,14.663729667663574,-34.86200714111328, 11.873376846313477
628,778424412,0.83164394,-0.15888344,-0.53058815,0.040008936,8.745174407958984,-2.864107370376587,-20.299663543701172,66.58135223388672,-143.4468994140625, 18.61553382873535
629,778441079,0.8182524,-0.14622058,-0.5531589,0.055661634,12.986656188964844,-1.9768366813659668,-1.6762335300445557,109.3884048461914,-197.64059448242188, 23.63435173034668
630,778457746,0.8100771,-0.12078281,-0.5675202,0.084307574,32.37874984741211,-2.1776137351989746,24.538515090942383,239.1202850341797,-149.54708862304688, 54.38841247558594
631,778474413,0.79717505,-0.106672466,-0.5866881,0.09449966,11.256364822387695,18.62479019165039,-11.133564949035645,97.2031021118164,-172.96302795410156, -5.434578895568848
632,778491080,0.7773753,-0.1253085,-0.6101418,0.087821916,8.242118835449219,-15.37320327758789,-9.357078552246094,-158.2188262939453,-190.55380249023438, 35.700096130371094
633,778507747,0.7615345,-0.12138168,-0.628254,0.1030957,16.652124404907227,-3.379894733428955,-3.385598659515381,61.19916534423828,-177.85044860839844, 60.484535217285156
634,778524414,0.74858,-0.12079755,-0.6428823,0.10834342,8.3396635055542,-1.7041904926300049,0.49169886112213135,5.282713890075684,-136.3604736328125, 23.279926300048828
635,778541081,0.7376183,-0.12609813,-0.6540608,0.110558316,9.733789443969727,-4.0574259757995605,-0.12886810302734375,-34.184226989746094,-102.90834045410156, 35.062992095947266
636,778557748,0.7286492,-0.13013956,-0.66303355,0.111895904,10.908248901367188,-4.060632705688477,-0.21975484490394592,-28.33592987060547,-82.96800994873047, 25.34022331237793
637,778574415,0.7205213,-0.13430367,-0.6710412,0.11187284,10.48359489440918,-5.855940341949463,-0.8299260139465332,-33.6556510925293,-72.99871063232422, 19.296449661254883
638,778591082,0.71366996,-0.13304591,-0.67812663,0.11453552,8.750692367553711,-5.394872188568115,-0.9327923059463501,7.484805583953857,-69.19835662841797, 7.43555212020874
639,778607749,0.70714474,-0.13147202,-0.68477714,0.11722648,11.245136260986328,-0.9049960374832153,-0.45065441727638245,9.807068824768066,-65.82679748535156, 6.217291831970215
640,778624416,0.70009995,-0.13478531,-0.69173115,0.11489698,9.892671585083008,-2.909738779067993,-1.8937081098556519,-38.30980682373047,-61.28422164916992, 4.98491907119751
641,778641083,0.6938897,-0.13628773,-0.69780487,0.11406754,9.377066612243652,-4.8692402839660645,-2.5526626110076904,-20.988821029663086,-55.901432037353516, 3.7555928230285645
642,778657750,0.688737,-0.1347217,-0.7030349,0.115037754,9.845170974731445,-3.7269835472106934,-1.8754596710205078,3.9374310970306396,-50.89295196533203, -2.432985305786133
643,778674417,0.68416774,-0.13405217,-0.70771307,0.11439776,9.56827163696289,-3.025761842727661,-2.0358047485351562,-7.116819381713867,-43.26383590698242, -5.6796040534973145
644,778691084,0.68042934,-0.13375773,-0.7116074,0.112871945,10.177871704101562,-2.830332040786743,-2.1698548793792725,-11.81209659576416,-34.426055908203125, -7.949618816375732
645,778707751,0.67771214,-0.13424,-0.7145069,0.110298954,10.226869583129883,-2.72355580329895,-2.0971696376800537,-18.860998153686523,-23.21523666381836, -8.919459342956543
646,778724418,0.67539054,-0.1355452,-0.7170012,0.106697336,9.948729515075684,-3.201702833175659,-1.9014942646026611,-27.080047607421875,-17.81689453125, -9.585911750793457
647,778741085,0.6733278,-0.13758802,-0.71912897,0.10272671,10.048840522766113,-2.863337278366089,-0.9127554297447205,-31.81950569152832,-13.963363647460938, -7.505630970001221
648,778757752,0.67196697,-0.14252415,-0.72024584,0.096919484,10.758492469787598,-3.7406725883483887,1.2867664098739624,-52.924163818359375,-2.0501887798309326, -1.2311761379241943
649,778774419,0.66979873,-0.14927498,-0.72182083,0.089785546,9.372062683105469,-2.579455614089966,-1.1265841722488403,-68.98976135253906,-5.694465160369873, 1.7229249477386475
650,778791086,0.66506296,-0.15594782,-0.7258195,0.08098037,8.86156177520752,-1.6827887296676636,-1.124208688735962,-81.06245422363281,-27.948307037353516, -7.249427795410156
651,778807753,0.6581208,-0.16100317,-0.7317856,0.07379009,9.026134490966797,-2.6930553913116455,-0.490140438079834,-69.07389831542969,-50.60469055175781, -8.800650596618652
652,778824420,0.6497323,-0.1615233,-0.73929065,0.07216397,10.06090259552002,-3.7086758613586426,-0.19409462809562683,-22.945016860961914,-73.32867431640625, -7.408847332000732
653,778841087,0.63983357,-0.16036619,-0.74801606,0.073266,11.288565635681152,-2.641634941101074,0.8456601500511169,-3.8786814212799072,-90.34485626220703, -4.361277103424072
654,778857754,0.62774736,-0.16029721,-0.7581842,0.073451236,11.622653007507324,-0.8206019997596741,-0.6139039993286133,-16.530431747436523,-106.42294311523438, -3.2847964763641357
655,778874421,0.61372787,-0.16052166,-0.76960045,0.07270641,11.30049991607666,-1.8819129467010498,0.521489679813385,-25.408180236816406,-120.74590301513672, -6.150836944580078
656,778891088,0.59813154,-0.15864459,-0.78193945,0.07510904,11.432225227355957,-1.9854260683059692,-0.3871575891971588,-2.0951051712036133,-137.54917907714844, -4.213506698608398
657,778907755,0.5806146,-0.15681978,-0.79516715,0.07748181,11.25621223449707,-2.521721124649048,0.4204323887825012,-5.0281291007995605,-151.5064239501953, -4.028282165527344
658,778924422,0.56066024,-0.15640508,-0.8092978,0.07895977,12.289182662963867,-2.8409364223480225,2.22609806060791,-18.669015884399414,-166.76803588867188, 0.4348379373550415
659,778941089,0.5380082,-0.15831709,-0.8243348,0.07717009,13.889768600463867,-3.57165265083313,5.33573579788208,-49.2317008972168,-180.56655883789062, 1.2769699096679688
660,778957756,0.5131727,-0.16098796,-0.8399794,0.071913816,19.82136344909668,-6.833992004394531,9.189996719360352,-74.41693878173828,-191.11795043945312, -6.747374057769775
661,778974423,0.488631,-0.16494322,-0.8542693,0.06525095,22.368770599365234,-4.877259731292725,13.102444648742676,-86.13261413574219,-182.6009979248047, -2.9456913471221924
662,778991090,0.46604705,-0.1740428,-0.865954,0.051312882,18.91379165649414,-0.03459925949573517,10.568334579467773,-142.82125854492188,-151.9874725341797, 4.91569709777832
663,779007757,0.43656757,-0.18686873,-0.8794628,0.03215932,12.532444953918457,-9.16856575012207,-7.898568630218506,-194.75997924804688,-191.52565002441406, 10.662232398986816
664,779024424,0.40598336,-0.19307059,-0.8928886,0.0255259,19.98672103881836,-12.311954498291016,2.651249885559082,-100.56974792480469,-215.5021209716797, 8.483180046081543
665,779041091,0.3804608,-0.1969732,-0.9033346,0.020931542,16.817138671875,-5.370028972625732,3.8464620113372803,-74.46209716796875,-179.32476806640625, 3.0776145458221436
666,779057758,0.36123893,-0.203246,-0.9100096,0.008954609,13.231284141540527,-5.129781246185303,4.668108940124512,-117.47888946533203,-120.09232330322266, 2.6724581718444824
667,779074425,0.35003954,-0.20891081,-0.9131361,-0.0033771475,10.14781379699707,-3.640087366104126,5.170676231384277,-106.79296112060547,-60.71449661254883, 2.4230964183807373
668,779091092,0.34825647,-0.2120152,-0.91307676,-0.007616885,7.7248945236206055,-5.692827224731445,5.930562496185303,-36.402748107910156,-5.566986560821533, 10.598261833190918
669,779107759,0.35556024,-0.21330819,-0.9099817,-0.0031913915,5.59324836730957,-5.001361846923828,4.496482849121094,35.37334442138672,46.14805603027344, 24.853702545166016
670,779124426,0.37013265,-0.21301804,-0.90421635,0.0042568333,4.478806018829346,-3.99338698387146,3.134124994277954,68.71908569335938,93.72000122070312, 26.403932571411133
671,779141093,0.3917297,-0.21222183,-0.8951824,0.012588826,4.788555145263672,-3.701953411102295,2.2779312133789062,85.86100769042969,144.3882293701172, 30.08427619934082
672,779157760,0.4201637,-0.20977831,-0.8826145,0.021146405,5.8150634765625,-1.999111533164978,2.349440336227417,101.95367431640625,195.5149688720703, 25.11366081237793
673,779174427,0.45364684,-0.20771095,-0.8662406,0.026228448,6.531048774719238,-1.1419323682785034,1.7539312839508057,87.60424041748047,242.2177734375, 22.116182327270508
674,779191094,0.4913865,-0.20552137,-0.8458496,0.028962554,6.879057884216309,-1.4485230445861816,-0.08770883083343506,80.8091049194336,283.4399719238281, 19.036724090576172
675,779207761,0.53256214,-0.20314652,-0.8210991,0.030090934,8.647768020629883,-1.608559489250183,-1.1673192977905273,77.82734680175781,320.4155578613281, 18.008262634277344
676,779224428,0.5766605,-0.20050944,-0.79142076,0.030200481,10.425763130187988,-2.714871406555176,-2.5008482933044434,78.15169525146484,356.3768005371094, 19.073665618896484
677,779241095,0.62342197,-0.19660003,-0.75610596,0.031585258,13.348676681518555,-3.031026840209961,-3.209414482116699,95.00464630126953,391.26495361328125, 24.419830322265625
678,779257762,0.67122877,-0.19326243,-0.71481615,0.0337582,16.192852020263672,-4.260504245758057,-5.584546089172363,99.38623046875,421.45135498046875, 38.62974548339844
679,779274429,0.7153437,-0.19260532,-0.6709061,0.03273836,17.746795654296875,-2.1623663902282715,-9.153691291809082,67.02595520019531,420.3139343261719, 41.40062713623047
680,779291096,0.7554428,-0.18805943,-0.6267008,0.034438677,20.849796295166016,-7.289860248565674,-16.400814056396484,93.4975814819336,398.8409118652344, 38.152191162109375
681,779307763,0.7881824,-0.18181348,-0.5871728,0.030672567,22.838199615478516,1.1849112510681152,-15.431056022644043,68.20053100585938,349.61083984375, -1.9001469612121582
682,779324430,0.81138015,-0.18567692,-0.55395824,0.017798102,19.223819732666016,-6.585857391357422,-18.812768936157227,-36.59120178222656,290.525390625, -16.256019592285156
683,779341097,0.82845056,-0.18367442,-0.52885664,0.015618705,13.47398853302002,-7.8481764793396,-20.56671714782715,28.152685165405273,207.7300262451172, 11.465672492980957
684,779357764,0.8393812,-0.17644534,-0.5136264,0.022241078,9.495147705078125,-1.009770393371582,-23.25545310974121,81.2099838256836,117.70413208007812, 30.770387649536133
685,779374431,0.8417563,-0.16938518,-0.51175773,0.029312283,8.1399507522583,2.1958558559417725,-24.190879821777344,69.4752426147461,10.078983306884766, 19.075868606567383
686,779391098,0.8350427,-0.1653956,-0.5234244,0.037080877,8.003661155700684,-1.827942132949829,-21.632457733154297,40.917579650878906,-100.209228515625, 20.02041244506836
687,779407765,0.8232339,-0.15306374,-0.5440699,0.05334526,10.078795433044434,-1.6368358135223389,-17.124006271362305,111.39785766601562,-181.71597290039062, 29.854385375976562
688,779424432,0.81321263,-0.14268115,-0.560322,0.06608063,25.38930320739746,-5.8006911277771,32.11356735229492,90.70956420898438,-145.56430053710938, 21.11530113220215
