Acc_X,Acc_Y,Acc_Z
1.2981711626052856,-1.4636560678482056,4.529652118682861
-8.341814994812012,8.790862083435059,-7.626023292541504
-5.479970932006836,2.0378668308258057,-13.615318298339844
-9.178528785705566,2.493292570114136,-13.682662963867188
-9.312166213989258,1.4532362222671509,-6.175361156463623
-11.696077346801758,-5.174602031707764,4.422008991241455
-15.360942840576172,-3.239635944366455,14.625741958618164
-12.838985443115234,-7.105827808380127,11.528233528137209
-7.612840175628662,-7.781671047210693,5.732236862182617
-3.711146116256714,18.56664085388184,-19.537729263305664
26.073240280151367,14.93548583984375,15.377240180969238
5.730121612548828,-9.320460319519045,8.90250015258789
23.55127716064453,2.592935800552368,-2.096897840499878
11.796170234680176,-11.39655876159668,-8.69360065460205
8.859593391418457,-1.2666407823562622,-9.365617752075195
10.23166275024414,6.690743923187256,-5.76621150970459
11.121646881103516,7.895439147949219,-2.859405279159546
14.185511589050291,2.2169344425201416,0.191458374261856
11.165484428405762,-2.294964551925659,0.5901703834533691
9.063739776611328,-5.174605369567871,4.468230247497559
-4.759636402130127,-2.1164438724517822,-0.1260542720556259
-10.374800682067873,9.831436157226562,-6.51237154006958
-7.001972198486328,-0.1101724356412887,-9.841567039489746
-7.807838439941406,-2.658996343612671,-2.950215101242065
-12.322458267211914,3.548681259155273,4.215916633605957
-13.402535438537598,-2.563410758972168,7.444243431091309
-12.681726455688477,-0.512559175491333,2.744504451751709
-10.97614288330078,1.1360630989074707,1.0567958354949951
-10.098947525024414,-4.421056270599365,0.1438837796449661
-9.419967651367188,-2.5638463497161865,3.00813102722168
-7.12346887588501,11.19575309753418,-22.72687339782715
16.06009864807129,1.999165177345276,2.384783744812012
1.587839126586914,-1.2851245403289795,9.574734687805176
23.79437065124512,12.369902610778809,4.929695129394531
19.093225479125977,-10.60421371459961,-2.4302725791931152
19.18096923828125,-3.688242435455322,-6.01119327545166
12.120223999023438,-3.1286067962646484,-7.301244258880615
8.078811645507812,0.974558651447296,-7.133262634277344
7.907947063446045,2.2226524353027344,-3.3707165718078613
8.37303352355957,-0.0322862491011619,1.129743218421936
5.487656116485596,-0.4745962619781494,5.319923400878906
-3.972657442092896,4.575208187103272,-0.0505986846983432
-8.227424621582031,9.946249961853027,-12.47992706298828
-6.504719257354736,-3.208250045776367,-6.44028902053833
-10.530338287353516,2.5202157497406006,-9.230791091918944
-10.26435375213623,-0.1145279183983802,-3.338357448577881
-10.264598846435549,-1.3760071992874146,1.6574701070785522
-10.18177890777588,-2.725483655929565,8.720279693603516
-10.435471534729004,-3.6645355224609375,11.820904731750488
-9.934365272521973,-4.434942245483398,12.059256553649902
-12.01210117340088,3.386670589447021,-11.458553314208984
4.407748222351074,9.552190780639648,-14.892789840698242
7.161877155303955,4.389288902282715,15.100786209106444
2.944395065307617,-0.8186918497085571,4.781539440155029
19.776277542114254,3.4100520610809326,1.512617826461792
17.517610549926758,-7.523327350616455,-2.727028608322144
17.934724807739258,-3.156998872756958,-4.059177398681641
13.219537734985352,-0.7568961977958679,-4.823435306549072
9.126423835754396,1.688799262046814,-4.139966011047363
8.391936302185059,1.4856489896774292,-2.470545530319214
7.101383209228516,0.7522628307342529,-0.2169038504362106
6.962640762329102,-0.8337239027023315,5.450185775756836
-3.718321084976196,1.9038782119750977,2.2591469287872314
-9.822306632995604,10.74965476989746,-8.755231857299805
-6.740902900695801,0.0984829813241958,-9.2468843460083
-8.661175727844238,-2.834733009338379,-6.720652580261231
-10.610332489013672,2.66348934173584,0.6270286440849304
-10.689756393432615,0.6874582767486572,6.975038528442383
-10.186531066894531,-5.935762405395508,8.51737117767334
-9.3439302444458,-6.830495834350586,8.734687805175781
-9.95768928527832,-4.911532402038574,9.938551902770996
-9.995594024658203,-2.240760803222656,6.476400852203369
-14.01409912109375,17.929561614990234,-43.13282012939453
19.65292739868164,-1.3295634984970093,13.60201930999756
-1.1255595684051514,2.78108549118042,3.257204055786133
21.493595123291016,4.899350166320801,2.114037036895752
14.047306060791016,-2.7259349822998047,-3.452465057373047
21.75947380065918,-3.043334722518921,-1.789514660835266
19.281892776489254,-4.020793437957764,-3.337141513824463
13.55475616455078,-2.5743987560272217,-2.261836051940918
8.563982963562012,-0.7199881672859192,-0.386482834815979
4.042453289031982,0.7552362680435181,2.0590944290161133
0.0987907648086547,1.4654494524002075,3.017603635787964
-9.739115715026855,10.005171775817873,-4.779909610748291
-8.311142921447754,4.519018650054932,-2.3706932067871094
-6.814651966094971,-10.219976425170898,4.199975490570068
-10.771769523620604,-4.703237533569336,8.657329559326172
-11.731362342834473,0.5434595346450806,12.29478931427002
-9.455928802490234,-3.1277310848236084,9.005247116088867
-7.900477409362793,-2.819576978683472,-3.23392105102539
-10.224848747253418,2.095153331756592,-5.263963222503662
-8.951103210449219,0.1821497678756714,-6.09844970703125
-10.667038917541504,4.460901260375977,-20.559961318969727
3.1661009788513184,4.979172229766846,-13.434222221374512
9.489761352539062,7.19392728805542,15.387453079223633
12.936338424682615,1.5591673851013184,-4.904402256011963
15.501212120056152,3.2191104888916016,-0.3918324410915375
19.953744888305664,-4.51429557800293,-3.906384468078613
15.96787166595459,-5.288082122802734,-5.770719051361084
12.45680332183838,-2.9784188270568848,-4.711731433868408
7.949495792388916,-0.1959373950958252,-4.099118709564209
6.002624988555908,1.445778489112854,-0.0272725522518157
3.658883571624756,1.6760905981063845,3.033987283706665
-1.012614607810974,1.7574890851974487,4.152332305908203
-10.283077239990234,9.210007667541504,-4.298031806945801
-9.67945957183838,5.627285957336426,-7.392264842987059
-7.370716094970703,-5.913692951202393,-5.793150901794434
-9.896592140197754,-7.162838459014893,-1.5578521490097046
-12.123645782470703,-2.0385758876800537,5.245547294616699
-12.05576229095459,-1.113141655921936,5.715799808502197
-10.320430755615234,-2.8822970390319824,2.373009204864502
-9.503411293029783,-5.993920803070068,1.4313737154006958
-10.258345603942873,-1.564855694770813,-2.2695884704589844
-6.238193511962891,20.681798934936523,-18.51544189453125
15.43323040008545,9.021820068359377,10.569831848144531
0.8830841779708862,-5.407241344451904,0.3004291653633117
21.21136283874512,4.040469169616699,0.2816481590270996
15.625914573669434,-7.14288330078125,-4.300861358642578
19.64431953430176,-4.447216033935547,-5.233654975891113
16.735118865966797,-2.286135196685791,-4.15256404876709
11.676660537719728,1.3229174613952637,-1.9147745370864868
7.98992919921875,0.1745074838399887,-0.1573716551065445
6.483780384063721,0.34494549036026,5.035952091217041
-5.983680725097656,3.5786361694335938,0.0206173211336135
-9.541736602783203,12.380972862243652,-10.016002655029297
-6.010564804077148,-1.1420421600341797,-6.022127151489258
-8.129725456237793,-7.211656093597412,-10.51860809326172
-9.120316505432127,7.127928733825684,-4.645514965057373
-9.139735221862791,6.567999839782715,-1.937629461288452
-7.703888416290283,-2.016486167907715,0.2956303656101227
-7.682701110839844,-2.553350687026977,7.40923261642456
-8.166701316833496,-7.570812702178955,10.031848907470703
-9.48609447479248,-9.176291465759276,12.842400550842283
-15.147537231445312,0.7957326173782349,-8.247729301452637
4.472524642944336,14.059301376342772,-16.811023712158203
14.28278636932373,-2.160760402679444,7.098156452178955
6.030996322631836,5.135334968566895,2.967537641525269
21.78240776062012,3.902666330337525,1.2531352043151855
15.070669174194336,0.2014906406402588,-3.1425490379333496
16.932937622070312,-4.152730941772461,-4.076059341430664
17.505828857421875,-3.0654664039611816,-2.6590828895568848
14.80683708190918,-0.8247773051261902,0.816901445388794
9.927616119384766,-2.481971740722656,3.011273145675659
4.430511951446533,-2.7952561378479004,4.861248970031738
-4.839094161987305,0.9052218794822692,1.4393703937530518
-10.051806449890137,8.83039379119873,-5.107895851135254
-8.263154029846191,-2.2427923679351807,-6.303549289703369
-8.242679595947266,-7.0539398193359375,-2.332890748977661
-12.689165115356444,0.7297833561897278,-0.4691267311573028
-13.056999206542969,-0.2118093520402908,1.5951929092407229
-11.33918285369873,-3.233776807785034,3.825417995452881
-9.231512069702148,-0.665216863155365,-0.4274488687515259
-8.527871131896973,-2.1761765480041504,0.8779247999191284
-8.445197105407715,-1.5462887287139893,2.948383331298828
-9.156512260437012,11.658498764038086,-19.671215057373047
14.05711269378662,2.438606977462769,-1.078653335571289
-0.9617838263511658,1.2167940139770508,4.510076999664307
21.699726104736328,9.01270866394043,2.947532892227173
15.429465293884276,0.0313889719545841,-1.031633973121643
20.951684951782227,-3.3874785900115967,-3.556068658828736
19.82735252380371,-4.031664848327637,-3.790372133255005
14.079867362976074,-2.1951262950897217,-2.683091163635254
9.813851356506348,-1.712821364402771,0.2798354625701904
4.43405294418335,0.929717481136322,2.4499852657318115
1.1036714315414429,0.8121837377548218,4.737570762634277
-10.131479263305664,7.338421821594238,-2.450749158859253
-8.034424781799316,8.071974754333496,-1.2097885608673096
-7.510842323303223,-3.252405881881714,0.0693800449371337
-8.646819114685059,-10.67178440093994,6.237531661987305
-12.36562442779541,1.8838136196136477,10.318522453308104
-10.076042175292969,0.9674367308616638,9.368929862976074
-8.081818580627441,-4.757091522216797,-4.096551895141602
-9.633569717407228,-3.1648545265197754,-8.865765571594238
-9.046623229980469,3.6681318283081055,-7.202123165130615
-11.972579002380373,7.383199214935303,-19.838354110717773
11.717620849609377,0.7772473096847534,-1.7968614101409912
8.405584335327148,2.299900531768799,7.700028896331787
15.560224533081056,-1.5301085710525513,-4.822781085968018
15.287518501281738,3.3481462001800537,-1.469929814338684
19.95223617553711,-2.278387546539306,-2.171437263488769
15.787302017211914,-2.888934135437012,-3.708648443222046
11.878666877746582,-1.3920799493789673,-3.6556496620178223
7.593972206115723,0.7947769165039062,-1.4285101890563965
4.01794958114624,2.038978099822998,1.6075994968414309
0.4073134362697601,3.2627053260803223,4.339991569519043
-9.533888816833496,7.962713718414307,-4.543051719665527
-8.313163757324219,10.82153034210205,-6.677365303039551
-8.141209602355957,-2.3478684425354004,-8.980788230895996
-8.859515190124512,-4.369068622589111,-4.200519561767578
-10.644268989562988,-1.4213098287582395,-2.0194530487060547
-10.639442443847656,-2.066303968429565,1.5364655256271362
-9.76728630065918,-4.602330207824707,4.302985668182373
-9.662286758422852,-5.402552127838135,3.539494037628174
-9.218690872192385,-6.641005516052246,5.675209999084473
-11.452363967895508,-1.873024821281433,-8.22657585144043
0.6182194948196411,15.767358779907228,-13.16624641418457
14.89748764038086,3.699231386184693,10.500006675720217
0.6914504766464233,-2.856052875518799,0.794708788394928
22.844594955444336,7.596503734588623,2.3276612758636475
17.01698875427246,-3.5555739402771,-3.463062524795532
19.279272079467773,-4.714264392852783,-5.266275405883789
17.420066833496094,-3.7328386306762695,-4.84669828414917
13.272482872009276,0.2560487389564514,-1.8505644798278809
8.244316101074219,-0.7868256568908691,-0.0303718149662017
4.920407295227051,-1.023682713508606,3.853050708770752
-5.264231204986572,2.5961291790008545,2.3056812286376958
-11.831615447998049,11.46848487854004,-7.97410249710083
-6.377991199493408,8.076458930969238,-8.412829399108887
-8.196842193603516,-6.438730239868164,-5.829167366027832
-10.866031646728516,1.4580988883972168,-3.863667249679565
-10.716583251953123,1.9504566192626955,1.353532314300537
-10.454544067382812,-0.3918185532093048,3.606217622756958
-9.07202434539795,-4.380813121795654,4.305166244506836
-8.1940279006958,-5.532059192657471,5.104179382324219
-8.705120086669922,-5.210201263427734,6.870344638824463
-14.11179542541504,3.23909592628479,-13.210844039916992
7.82991886138916,3.687364339828491,-12.814876556396484
6.348341464996338,5.053474426269531,8.173900604248047
3.111279964447021,3.046725034713745,7.382140159606934
19.73240089416504,8.889439582824707,4.979516983032227
18.233470916748047,-5.580056667327881,-3.4957261085510254
18.7954216003418,-6.368756294250488,-6.894720554351807
14.76444149017334,-2.3754286766052246,-5.4536213874816895
11.930427551269531,-1.9369226694107056,-4.366640090942383
9.636683464050291,1.450877666473389,-0.6610075235366821
6.837206840515137,-1.3302245140075684,2.192368030548096
3.3428120613098145,-0.6545530557632446,6.485333442687988
-7.833329677581787,2.0945074558258057,1.77910578250885
-10.756864547729492,10.913640022277832,-6.02925968170166
-6.297871112823486,1.95016086101532,-3.863061189651489
-9.512001037597656,-1.552297830581665,-3.0970444679260254
-11.31654167175293,-0.4454347491264343,-2.9321255683898926
-11.42961311340332,-0.8051439523696899,0.0517253652215004
-10.745359420776367,-2.0321972370147705,0.7365276217460632
-8.549720764160156,-2.953815460205078,1.8064922094345093
-8.743861198425293,-2.1062612533569336,2.7986199855804443
-9.679088592529297,-0.9968233704566956,-0.6953652501106262
-2.0308279991149902,-2.163201093673706,-16.08621597290039
9.28101921081543,-0.2391898483037948,0.4879038631916046
-4.0827178955078125,5.761576652526856,6.526297092437744
19.782835006713867,12.186580657958984,6.805761337280273
14.281662940979004,0.5419290661811829,1.8812053203582764
15.861225128173828,1.5224483013153076,-2.970526695251465
14.825121879577637,-7.145542621612549,-8.985745429992676
12.855708122253418,-2.950653076171875,-5.13043737411499
10.43988037109375,-1.5817171335220337,-0.9683171510696412
8.194127082824707,-0.0581180155277252,2.1205224990844727
3.94722318649292,0.7835259437561035,4.444468975067139
-1.1594769954681396,0.144628569483757,6.329484939575195
-12.179360389709473,6.847676753997803,-0.3055357635021209
-8.666155815124512,8.594806671142578,-2.462916612625122
-5.424609661102295,-9.367595672607422,2.3772687911987305
-9.461305618286133,-2.8903753757476807,1.0550196170806885
-11.359786987304688,7.318067073822021,2.7295517921447754
-11.030473709106444,0.6913989782333374,0.4515688121318817
-8.861529350280762,-2.3373680114746094,-5.057127952575684
-9.063632011413574,0.923880696296692,-3.3246419429779053
-8.830209732055664,-2.391535758972168,1.1618876457214355
-7.048013210296631,-1.4546232223510742,-16.10205841064453
8.487886428833008,2.6284985542297363,-5.366724014282227
-0.6384161710739136,4.3585944175720215,3.345191478729248
19.82099723815918,0.7799589037895203,2.615018844604492
17.72100067138672,2.4107344150543213,2.347918033599853
19.90609169006348,-3.0874907970428467,-1.8122767210006716
17.58316421508789,-2.8495078086853027,-2.6942756175994877
13.1754789352417,0.2250134497880935,0.7758583426475525
6.317190647125244,0.0267788879573345,0.9069612622261048
2.410078763961792,1.1809355020523071,4.593373775482178
-8.834556579589844,5.353420734405518,-0.5282459259033203
-9.948030471801758,13.044822692871094,-7.558080673217773
-8.290176391601562,1.114644169807434,-2.394587516784668
-8.545944213867188,-11.10856819152832,2.1259002685546875
-11.97437572479248,1.4084904193878174,4.302412509918213
-12.514132499694824,5.228185653686523,5.519887924194336
-10.551291465759276,-3.2592451572418213,2.3568098545074463
-9.440610885620115,-4.922533512115479,-1.845168113708496
-9.021997451782228,-4.475147247314453,-4.140932559967041
-8.600220680236816,-1.6262972354888916,-1.6905089616775513
-9.394923210144045,3.361753463745117,-12.419590950012209
3.532303810119629,10.563969612121582,-4.287113666534424
16.63380241394043,0.023533672094345,8.458392143249512
7.655435562133789,-6.223324775695801,-1.9404994249343872
17.955150604248047,2.0077645778656006,-2.9096274375915527
12.6510591506958,-4.2066497802734375,-6.045004367828369
13.135846138000488,-1.3135648965835571,-5.480522632598877
10.255041122436523,0.0020464234985411,-5.330657005310059
8.801658630371094,2.0070385932922363,-2.68072509765625
5.658104419708252,-0.9691248536109924,-0.3608949184417724
5.354939937591553,-1.2827584743499756,4.904228687286377
-7.982248783111572,5.402626514434815,-1.020293354988098
-9.52407455444336,15.080079078674316,-9.66530704498291
-6.016002655029297,-10.947197914123535,-1.855364203453064
-10.16657543182373,-0.8054437637329102,-3.430047035217285
-11.601896286010742,3.812863111495972,0.9525189399719238
-11.786352157592772,-3.2752256393432617,0.8484367728233337
-10.099320411682127,-5.732776641845703,-1.645923733711243
-7.6117424964904785,-2.6304075717926025,-2.316232919692993
-7.693398952484131,-2.810887575149536,-0.5615919232368469
-7.820829391479492,-2.7383391857147217,5.878538131713867
-9.42578125,-4.119625568389893,2.851025104522705
-1.756649374961853,0.0077532045543193,-21.309431076049805
12.388816833496094,18.12770652770996,11.954108238220217
7.195590972900391,5.040822982788086,13.217820167541504
23.29297637939453,7.420924663543701,5.486959457397461
17.942256927490234,-11.67074489593506,-9.09282112121582
15.623746871948242,-4.857601642608643,-7.132246971130371
12.874927520751951,-6.995819568634033,-6.701500415802002
8.295294761657715,-0.8787200450897217,-0.6962283253669739
6.54593563079834,-0.2747441828250885,2.6985881328582764
2.5060365200042725,-0.3872371613979339,6.72012996673584
-7.960039138793945,2.0752761363983154,3.695634365081787
-12.078661918640137,10.57472038269043,-5.405181884765625
-6.404296875,6.725861549377441,-7.302462577819824
-8.692648887634277,-7.1349616050720215,-4.796199798583984
-11.335217475891112,2.023077964782715,-3.973395109176636
-10.862651824951172,2.416649103164673,-0.4352741837501526
-9.680179595947266,-0.143451452255249,0.8845725059509277
-8.095219612121582,-3.241300106048584,2.6304726600646973
-8.04239273071289,-5.702032089233398,3.476558923721313
-10.037545204162598,-4.317996025085449,7.626865386962891
-12.220403671264648,-1.6935774087905884,-11.1405668258667
13.590462684631348,10.256844520568848,-9.329041481018066
4.686228752136231,3.4864954948425293,11.428689002990724
12.84804916381836,-1.248125672340393,-0.8301590085029602
12.594930648803713,2.0640223026275635,0.2462874948978424
13.1348237991333,-3.636118173599243,-5.981621742248535
12.576555252075195,-0.3729415535926819,-5.044212818145752
13.025728225708008,1.547468185424805,-2.3501265048980717
9.408163070678713,1.2434486150741575,-0.2047778218984604
6.511628150939941,-1.290210247039795,1.3806548118591309
3.871725559234619,-2.1099250316619877,5.402400493621826
-6.336874485015869,0.2456030696630478,2.850865602493286
-11.006049156188965,8.765254974365234,-6.081952095031738
-5.769582271575928,4.19833517074585,-6.924873352050781
-7.860517024993896,-5.643442630767822,-5.086940765380859
-11.104938507080078,-0.6869618892669678,-3.123617887496948
-11.67339324951172,-0.244042620062828,1.738422393798828
-11.134754180908203,-1.5737615823745728,6.794228076934815
-9.89333724975586,-5.518637657165527,3.359007835388184
-10.262229919433594,-4.153758525848389,5.0633625984191895
-9.921093940734863,-4.122859001159668,6.828486919403076
-9.882824897766112,14.00084114074707,-28.02277374267578
19.637008666992188,9.003717422485352,11.405598640441896
-0.1243641972541809,-2.2694079875946045,-1.968394875526428
20.2736930847168,1.2392024993896484,3.320730447769165
16.863765716552734,-1.698009967803955,-1.4477574825286863
21.077415466308597,-3.965421676635742,-0.1595465242862701
18.683320999145508,-3.182424545288086,1.890671133995056
11.778712272644045,-0.7951417565345764,3.7048847675323486
6.290309429168701,-2.0563135147094727,5.7127556800842285
-5.653101444244385,-0.008134638890624,1.1719081401824951
-11.04947280883789,10.488653182983398,-7.127764701843262
-7.988514423370361,3.3582279682159424,-1.0435181856155396
-9.187175750732422,-11.224111557006836,1.2095811367034912
-10.287107467651367,-2.694236516952514,3.1001033782958984
-11.988624572753906,9.630497932434082,5.020965099334717
-10.9818696975708,2.5401456356048584,1.4834294319152832
-9.973145484924316,-2.9300503730773926,-4.297911643981934
-8.96167278289795,-2.9235663414001465,-5.377884387969971
-8.39755916595459,0.9947052001953124,-2.7942094802856445
-7.643648624420166,0.9186703562736512,0.0897390469908714
-5.669372081756592,3.812652587890625,-6.930929660797119
14.081265449523926,3.028459072113037,-6.048046588897705
7.535488128662109,-1.066201090812683,2.5351827144622803
17.993175506591797,-0.7480706572532654,-3.628229141235352
16.30620574951172,1.997512698173523,-2.155388832092285
17.98172950744629,-2.2185399532318115,-1.814380884170532
14.436426162719728,-3.61393141746521,-2.7677321434021
8.409828186035156,-1.5501099824905396,-0.1000266969203949
3.3792858123779297,-0.8183375597000122,0.9571017026901244
0.2025333195924759,-0.7598161101341248,2.5182173252105717
-10.222970962524414,6.597592353820801,-5.836723327636719
-8.933900833129883,7.171483516693115,-6.102754592895508
-8.845934867858887,-2.800877571105957,-3.895246982574463
-9.9573392868042,-4.564741611480713,-2.216639280319214
-11.20556926727295,-1.4061658382415771,-0.7926815748214722
-11.515983581542969,-0.3454597592353821,2.035614252090454
-10.88473892211914,-0.5476537346839905,2.628918170928955
-9.666651725769045,-3.048130512237549,0.7471883893013
-9.956242561340332,-4.275259017944336,0.5456549525260925
-10.984800338745115,-3.0193331241607666,-5.1410064697265625
-3.226146459579468,16.451589584350586,-8.06867504119873
16.7293758392334,10.885674476623535,10.668570518493652
6.161087512969971,-9.908608436584473,-4.811400413513184
22.07406044006348,5.717750549316406,3.681045293807984
19.49188041687012,-3.4835026264190674,-0.1286683678627014
19.49046516418457,-9.589588165283203,-3.78139066696167
14.234308242797852,-3.7808895111083984,-0.2426859885454177
6.672497749328613,-1.419045090675354,-0.0845987871289253
1.4850975275039673,-1.111769437789917,-0.1623386144638061
-2.0423777103424072,1.4757280349731443,1.6842358112335205
-10.823922157287598,8.272372245788574,-5.089709758758545
-9.137861251831056,9.05102825164795,-4.757666110992432
-9.415124893188477,-1.7699204683303833,-7.139247894287109
-8.670021057128906,-9.180401802062988,-5.071527004241943
-10.688889503479004,0.7833607196807861,0.7906383275985718
-11.7282075881958,4.697282791137695,5.776209354400635
-9.865023612976074,-0.9780423641204834,2.913407564163208
-9.24117374420166,-7.969787120819092,0.2984741330146789
-8.725883483886719,-7.339028835296631,-0.1476242691278457
-12.19876194000244,5.209621429443359,-10.72079372406006
11.01925563812256,18.641305923461918,-0.5982775688171387
6.218029022216797,-2.846193313598633,8.180557250976562
9.847182273864746,-7.818309783935547,-3.2836720943450928
15.641010284423828,7.138603687286377,0.5263091325759888
14.16228199005127,-3.8052260875701904,-4.6586079597473145
14.358163833618164,-1.6771739721298218,-4.84623908996582
13.170701026916504,2.8773107528686523,-2.502469778060913
10.007060050964355,0.913540780544281,-0.9544801712036132
6.910823822021484,-0.9665945172309875,1.714448094367981
0.4737750291824341,-0.9209569096565248,2.90903115272522
-8.133034706115723,3.4086546897888184,-0.3303478956222534
-9.073482513427734,7.51564359664917,-8.17424488067627
-4.795329570770264,0.7587847709655762,-7.357156276702881
-7.452457427978516,-5.8905930519104,-9.552021980285645
-10.10035514831543,2.5712103843688965,-2.441792726516724
-10.671553611755373,3.437795400619507,2.327740430831909
-9.365838050842283,-4.784421920776367,5.686878681182861
-8.568541526794434,-8.006315231323242,5.154849052429199
-8.497198104858398,-6.003451824188232,5.3418402671813965
-8.715679168701172,-3.384672164916992,4.3756022453308105
-5.714127063751221,14.83156394958496,-17.553688049316406
14.985699653625488,3.547361373901367,6.979752540588379
-2.6225268840789795,-0.8827549815177917,2.7169411182403564
19.526508331298828,5.61077880859375,2.969006299972534
14.573511123657228,-2.1296184062957764,-1.7290253639221191
18.35101890563965,-3.2436559200286865,-2.363914251327514
17.369916915893555,-1.9084839820861816,-2.48842191696167
12.141926765441896,-0.2082565575838089,-0.0128094553947448
8.02489185333252,-0.8336589932441711,0.7615162134170532
4.144114017486572,-0.4752313196659088,4.067577838897705
-4.516961574554443,1.9824010133743288,2.614187002182007
-10.000222206115724,8.71141529083252,-4.790348052978516
-7.050962924957275,2.9386701583862305,-0.6208531260490417
-8.57089900970459,-7.812788009643555,0.2347137331962585
-10.102166175842283,-1.973387360572815,-0.234141319990158
-11.088682174682615,2.5344810485839844,1.5054994821548462
-11.042306900024414,0.4566196799278259,2.014767646789551
-9.146562576293944,-2.241079807281494,0.7710676789283752
-9.539841651916504,-3.3640098571777344,-3.224116086959839
-9.295634269714355,-4.853806018829346,-1.907971978187561
-7.7471442222595215,7.127197265625,-15.78798007965088
13.209091186523438,11.947463035583496,4.274708271026611
2.56644058227539,-5.023771286010742,-2.2734158039093018
18.07630157470703,-0.0088779982179403,0.8032099008560181
16.862348556518555,3.6295511722564697,1.2860115766525269
17.680294036865234,-6.293303489685059,-2.867928504943848
15.810834884643556,-5.077518463134766,-2.689798355102539
11.40257740020752,-1.3066939115524292,0.3561042547225952
5.536448001861572,-1.657835602760315,1.3565027713775637
0.9379827976226808,-0.0906254053115844,3.934673547744751
-7.342287540435791,2.257518768310547,0.7898015975952148
-11.329971313476562,10.329634666442873,-5.1173906326293945
-8.325658798217773,2.967459201812744,-2.799086093902588
-8.756714820861816,-7.870987415313721,2.432924747467041
-10.461008071899414,-3.7459230422973633,3.371932983398437
-10.718744277954102,3.183995008468628,5.362438678741455
-9.366997718811035,1.248936414718628,1.9867401123046875
-8.365996360778809,-1.711830496788025,-4.965995788574219
-8.427128791809082,-1.2556605339050293,-6.857839107513428
-8.174593925476074,4.054616451263428,-11.615279197692873
3.1358518600463867,1.5510070323944092,3.031508445739746
11.578814506530762,1.1480871438980105,2.994084358215332
8.907770156860352,-1.7880678176879885,-1.350948691368103
16.064834594726562,2.302678346633911,-0.8935468196868896
15.749345779418944,-1.2805410623550415,-2.894273519515991
12.09963607788086,-0.6074014902114868,-6.605418682098389
9.82160186767578,0.3808574378490448,-6.177323341369629
8.984658241271973,1.7254313230514526,-3.051628351211548
6.828849792480469,0.7384930849075317,0.0974040925502777
4.649556636810303,0.5479452013969421,4.370763778686523
-6.771304607391357,3.087874412536621,0.5047568082809448
-9.91313648223877,9.971988677978516,-9.588008880615234
-5.737934112548828,0.1298442631959915,-8.894713401794434
-8.63901138305664,-3.067525625228882,-9.084251403808594
-9.913498878479004,1.6927424669265747,-1.7267112731933594
-10.280856132507324,-0.864109456539154,4.226339340209961
-10.88257122039795,-7.379475116729736,8.610949516296387
-10.222294807434082,-8.15139102935791,6.13079833984375
-8.914177894592285,-5.823325157165527,5.83640193939209
-10.194143295288086,-0.6018750667572021,-7.040867328643799
-1.7915669679641724,20.08119010925293,-11.221423149108888
14.948111534118652,3.801015853881836,14.804047584533691
4.272648334503174,-10.401840209960938,-5.578014850616455
20.689329147338867,7.398507118225098,4.328980445861816
17.023469924926758,-4.596198081970215,-2.080797910690308
18.6905574798584,-4.471153259277344,-3.2744836807250977
15.210949897766112,-1.603970289230347,-1.0970115661621094
9.25629997253418,0.9986348152160645,-0.4170743525028229
3.77787971496582,0.5455148816108704,0.4874031245708465
0.9541580677032472,1.238937497138977,3.5604379177093506
-8.78765869140625,3.878362655639648,-1.453252911567688
-9.891883850097656,10.233078002929688,-6.858224391937256
-7.819169521331787,-1.8380087614059448,-6.593454360961914
-8.766900062561035,-9.332600593566896,-3.9629929065704346
-10.677898406982422,-1.679047465324402,-1.703350067138672
-11.041074752807615,1.7327147722244265,2.066240072250366
-10.032383918762209,-2.8231871128082275,1.634687900543213
-8.438894271850586,-5.765999794006348,-0.7598179578781128
-7.755538463592529,-4.5226593017578125,0.9820978045463562
-9.109021186828612,-0.1794256865978241,0.4143746495246887
-3.00856614112854,13.770218849182127,-3.2219700813293457
16.563573837280273,8.272377967834473,5.841672897338867
3.431048393249512,-1.986863732337952,-2.940716028213501
17.961071014404297,3.6422293186187744,1.0149588584899902
14.960294723510742,-1.1361244916915894,-3.493967771530152
17.053447723388672,-3.6969404220581055,-4.802420616149902
16.110248565673828,-2.1315062046051025,-2.775756597518921
11.233341217041016,0.7890486121177673,0.3898298442363739
5.631455898284912,-0.8106707334518433,1.7913023233413696
2.156775712966919,-0.5961630344390869,4.995168685913086
-9.475793838500977,3.823427200317383,-1.048283576965332
-9.027701377868652,10.62454891204834,-4.2766876220703125
-6.709974765777588,-3.8491945266723633,-1.2748810052871704
-8.981922149658203,-8.377676010131836,1.769638180732727
-11.325042724609377,1.063687443733215,3.3744304180145264
-11.095663070678713,0.5945261716842651,4.589495658874512
-10.270195960998535,-3.2588932514190674,-3.711162805557251
-9.196481704711914,-5.239810943603516,-6.0174641609191895
-9.227107048034668,0.2484371662139892,-4.864720821380615
-8.915929794311523,-0.3471616506576538,-4.642414569854736
-3.2998218536376958,7.440669536590576,-3.4822888374328613
15.287915229797363,4.714358329772949,2.5229973793029785
5.49086332321167,1.897982120513916,0.1137293353676796
19.63210678100586,4.051271915435791,2.540692090988159
17.1549072265625,-1.5455342531204224,-1.6218491792678833
17.29296112060547,-5.036150932312012,-4.225026607513428
13.622980117797852,-2.190711498260498,-2.680571317672729
8.710088729858398,-0.5527117252349854,-0.4802333414554596
4.0129008293151855,1.097399115562439,1.7012320756912231
-0.1614178419113159,1.6012800931930542,3.886307001113892
-9.81471061706543,6.530208587646484,-3.4066195487976074
-7.902017116546631,8.716206550598145,-4.762862682342529
-9.029541015625,-1.4298582077026367,-5.137288570404053
-9.397647857666016,-5.823517322540283,-0.0580705106258392
-11.467748641967772,-1.3092542886734009,1.437988519668579
-11.644965171813965,1.5474176406860352,2.8328232765197754
-10.409191131591797,-2.8299055099487305,0.0141660496592521
-9.379027366638184,-2.791733741760254,-3.813390731811523
-8.417816162109375,-2.519651174545288,-2.8984596729278564
-8.658204078674316,2.223550796508789,-4.220215797424316
-0.4730610251426697,4.652524471282959,1.2104612588882446
10.932950973510742,1.436742067337036,0.3120315372943878
5.932388782501221,-1.3892312049865725,3.308980226516724
15.451669692993164,4.225688934326172,-0.9689801335334778
12.419927597045898,-2.613866090774536,-3.6530234813690186
11.556533813476562,0.8224733471870422,-8.202125549316406
11.88818645477295,-0.8957990407943726,-7.28766918182373
12.663467407226562,1.8185862302780151,-4.0187602043151855
11.330277442932127,-0.7345266342163086,-0.4523843824863434
8.177812576293945,-1.7591795921325684,4.01701545715332
-1.7826627492904663,-1.4999159574508667,2.6369519233703613
-8.218611717224121,4.71918535232544,-1.6896307468414309
-8.111828804016113,4.316425323486328,-7.6640400886535645
-8.092090606689453,-0.8766747117042542,-4.293363094329834
-10.009719848632812,2.5782339572906494,-3.5257389545440674
-10.778572082519531,-1.5562459230422974,-2.240482807159424
-10.471195220947266,-3.3222060203552246,-1.128328561782837
-9.767813682556152,-4.709607601165772,1.0641528367996216
-8.994401931762695,-2.837116479873657,2.96016526222229
-9.037169456481934,-2.0341243743896484,4.9937357902526855
-11.172972679138184,1.0102174282073977,2.164659261703491
5.205104827880859,8.396244049072266,-8.090387344360352
15.786596298217772,8.036026000976562,13.11872100830078
8.1947021484375,-3.664536237716675,-1.3828527927398682
18.96429252624512,1.6934031248092651,1.81438148021698
15.29097843170166,-6.1197896003723145,-4.830695629119873
14.2357816696167,-4.344592571258545,-5.866954803466797
11.795706748962402,0.9383649826049804,-1.551133394241333
7.426926612854004,3.0032217502593994,0.9221020340919496
3.3372225761413574,1.5088236331939695,2.309995174407959
0.0052471160888671,1.019005537033081,4.939197063446045
-10.299165725708008,2.7140698432922363,-1.565765380859375
-8.887260437011719,5.810933589935303,-6.136390209197998
-6.257554054260254,-5.077108383178711,-4.242440223693848
-8.837932586669922,-7.7071428298950195,-2.3453352451324463
-11.20169734954834,-0.7293694615364075,-0.1716439127922058
-11.53739070892334,-1.0631786584854126,1.734549641609192
-9.7999906539917,-2.2390501499176025,2.2216343879699707
-8.815436363220215,-3.5026659965515137,-1.3456575870513916
-8.6481294631958,-1.767354130744934,-0.1477769613265991
-9.463945388793944,7.830974578857422,-4.729499816894531
10.106586456298828,9.58667278289795,-6.6068620681762695
5.673916339874268,-1.181759476661682,8.502791404724121
9.913719177246094,1.6725692749023438,1.1245124340057373
15.482783317565918,2.8829236030578613,-0.058157779276371
14.116569519042969,-4.454530239105225,-5.726902961730957
13.52421760559082,-0.5227300524711609,-5.140979766845703
13.23867893218994,2.2077736854553223,-2.4360690116882324
10.034680366516112,0.9616442918777466,-0.177198439836502
5.786392688751221,-0.7241668105125427,1.309733271598816
2.661072254180908,-0.796290397644043,4.553313732147217
-6.917097091674805,1.899421453475952,0.7151344418525696
-9.498022079467772,7.928573608398437,-6.847809314727783
-7.144479274749756,0.9165704250335692,-6.131789684295654
-8.835058212280273,-3.7058491706848153,-1.7840207815170288
-11.007054328918455,-1.5582921504974363,-1.4085041284561155
-11.209039688110352,-1.312705159187317,3.051775932312012
-10.89660358428955,-2.824775457382202,4.963703155517578
-8.974040985107422,-3.830728769302368,3.107152938842773
-8.453930854797363,-4.845247745513916,3.23170018196106
-10.134109497070312,-1.545577883720398,-6.696155071258545
-0.6824930906295776,13.913629531860352,-14.983685493469238
12.770191192626951,1.825989842414856,10.525223731994627
5.1243109703063965,-4.766482353210449,-3.462770938873291
18.405576705932617,7.135496616363525,1.6361196041107178
16.356569290161133,-1.3424118757247925,-1.3265892267227173
19.464244842529297,-3.285364866256714,-1.1431680917739868
16.6234188079834,-0.9894694089889526,1.9238842725753784
9.944008827209473,-2.025224208831787,2.8218047618865967
4.3922119140625,-2.146261215209961,4.605426788330078
-4.340044975280762,-0.9155154824256896,1.602336049079895
-11.228437423706056,8.540040969848633,-6.003796100616455
-7.978106021881103,2.940467357635498,-2.3194968700408936
-9.319554328918455,-8.630281448364258,1.647364854812622
-10.10390853881836,-6.984729766845703,3.003389835357666
-11.26873016357422,5.388596057891846,3.9419853687286377
-10.82011604309082,3.1251723766326904,0.7464073300361633
-9.354105949401855,-1.9853379726409912,-6.3557610511779785
-9.259912490844728,-1.1233110427856443,-9.235377311706545
-8.105072021484375,2.8807435035705566,-6.159492015838623
-6.324631690979004,4.399551868438721,-2.630632162094116
2.381085157394409,0.5905393362045288,4.195344924926758
11.857397079467772,1.8548712730407717,-3.434784412384033
6.381696701049805,3.211735725402832,2.237335681915283
17.705400466918945,-1.865911841392517,-2.291337490081787
13.595440864562988,0.8763658404350281,-3.776881456375122
14.4053373336792,-2.111650228500366,-5.345978736877441
13.414717674255373,-0.9070081114768982,-3.999406337738037
9.808637619018556,-0.7288109064102173,-0.8260279297828674
5.062982082366943,-1.0684794187545776,0.6419559717178345
1.9867671728134155,-1.170522689819336,3.7725040912628174
-7.667145729064941,3.047651767730713,0.2984958291053772
-10.260199546813965,9.106627464294434,-6.455918788909912
-7.465346336364746,3.515660762786865,-6.637360572814941
-9.735530853271484,-2.084113121032715,-4.3457136154174805
-11.14682674407959,-1.5744166374206543,-3.252068996429444
-10.92698097229004,-0.1850936710834503,0.00418022274971
-10.114375114440918,-2.5422701835632324,1.8826725482940676
-8.72569751739502,-3.3587546348571777,1.1996077299118042
-8.595499992370605,-4.314023971557617,0.6591046452522278
-10.321632385253906,-1.0222772359848022,0.2584984004497528
1.0533608198165894,6.277278423309326,-4.298255443572998
16.869049072265625,6.906271934509277,9.85133171081543
5.058504104614258,-3.2512102127075195,0.9268540740013124
17.887880325317383,0.3772589862346649,2.0150129795074463
12.8283052444458,-3.440890312194824,-3.9717206954956055
10.75672721862793,-3.3883278369903564,-6.779655933380127
9.14049243927002,-0.2977155447006225,-5.33196496963501
7.971009731292725,4.557924747467041,-1.9564621448516848
5.632713317871094,2.6307971477508545,0.6560789346694946
2.881788492202759,0.2892181277275085,1.663183569908142
0.4512825906276703,0.1471146941184997,4.75306510925293
-8.543968200683594,2.436650037765503,0.2282847613096237
-9.73416233062744,6.580138206481934,-6.544417381286621
-6.307871341705322,-0.9227004647254944,-5.648318767547607
-8.2409029006958,-3.2741756439208984,-4.184638977050781
-9.870244026184082,-2.558155059814453,-1.5260809659957886
-10.707015991210938,-3.144103527069092,1.064672589302063
-9.517656326293944,-4.5590596199035645,2.81093692779541
-8.047947883605957,-4.621157169342041,0.7217968106269836
-9.34675121307373,-2.7845354080200195,2.50592041015625
-6.544816970825195,9.664953231811523,-6.78648042678833
13.34888744354248,8.43303108215332,2.232347249984741
0.5079451203346252,-3.16109037399292,4.693461418151856
16.286701202392578,4.783639430999756,3.787639617919922
13.73007583618164,-3.283031225204468,-1.2507942914962769
13.53976821899414,-4.353602409362793,-6.534686088562012
10.973406791687012,-0.944294810295105,-6.381587982177734
10.290184020996094,4.682374954223633,-2.826845645904541
9.026259422302246,1.4182120561599731,-0.8532112836837769
6.486058712005615,-0.8165876865386963,1.4413065910339355
3.85205340385437,-1.0922133922576904,4.549781799316406
-4.211021900177002,0.2085416615009308,3.834592819213867
-10.500482559204102,5.840146064758301,-3.123668670654297
-7.88161563873291,5.7897629737854,-7.533976078033447
-7.969546318054199,-2.896107912063598,-2.4837024211883545
-10.81722640991211,-3.7970728874206543,-1.2772208452224731
-11.593725204467772,-0.7859048843383789,0.8572221398353577
-10.73259449005127,-1.8385900259017944,3.5201287269592285
-9.395283699035645,-3.098102569580078,1.335593342781067
-8.038769721984863,-3.9001035690307617,1.4308679103851318
-9.94356918334961,1.2039932012557983,-4.574649810791016
-0.6702850461006165,8.114482879638672,-8.152639389038086
14.445721626281738,5.4632110595703125,9.324923515319824
1.860566258430481,-1.7445067167282104,-0.8966104984283447
17.41561508178711,1.484748363494873,0.7961035370826721
13.556396484375,-2.235501289367676,-3.4488534927368164
15.147449493408203,-3.712295293807984,-3.744212865829468
13.325838088989258,-2.2392873764038086,-3.0084211826324463
9.529693603515623,1.6900534629821775,-0.1183103844523429
4.949056625366211,1.4555362462997437,1.1397171020507812
1.7558088302612305,1.17369544506073,3.002845048904419
-5.0560078620910645,1.5657143592834473,1.4152549505233765
-10.547911643981934,7.5007643699646,-5.114406585693359
-7.317789077758789,1.7791693210601809,-4.306961536407471
-7.527225971221924,-5.605660915374756,-1.8939687013626096
-9.669843673706056,-3.350844621658325,-0.8446595668792725
-11.38401699066162,1.720746636390686,0.5515787601470947
-10.611363410949709,-2.3667869567871094,0.8483027219772339
-8.706225395202637,-2.7391457557678223,-1.7786436080932615
-8.93203067779541,-2.621958017349243,-1.2746925354003906
-9.392471313476562,-1.8408217430114744,-2.8508431911468506
-1.4477328062057495,6.536186695098877,-6.5803542137146
11.854125022888184,4.948458194732666,7.174026966094971
3.967568874359131,-1.757071614265442,-0.1527326256036758
18.515459060668945,2.8242340087890625,3.4787139892578125
14.972933769226074,-2.499791145324707,-1.621068239212036
13.64988899230957,-2.8041293621063232,-6.073729991912842
12.589021682739258,0.7790523171424866,-3.5654988288879395
9.91199779510498,2.448829412460327,-0.6258996725082397
5.529928207397461,1.163401484489441,1.3286153078079224
2.7382798194885254,0.799116849899292,3.919622898101807
-3.197497129440308,0.6834139823913574,4.128962993621826
-10.33032512664795,6.285466194152832,-3.1548187732696533
-7.151618480682373,6.518117427825928,-2.6246047019958496
-8.25330638885498,-4.971210479736328,-2.010448694229126
-9.840999603271484,-7.54689359664917,1.054089069366455
-11.822443962097168,-1.2744805812835691,3.1271352767944336
-11.095917701721191,-0.3313586413860321,3.7049307823181152
-9.447562217712402,-3.7094180583953857,-2.189902305603028
-8.636613845825195,-4.687402248382568,-5.137262344360352
-8.776546478271484,-0.198210671544075,-6.156673908233643
-4.578078269958496,6.184793472290039,-6.1926469802856445
8.944818496704102,3.788780689239502,1.6013492345809937
5.197000980377197,-0.0349365212023258,4.220915794372559
15.170059204101562,4.637840270996094,2.0728461742401123
14.202643394470217,-1.2663832902908323,-1.479636311531067
13.426658630371094,-2.2489376068115234,-5.059713363647461
10.210952758789062,-1.4884213209152222,-6.228593349456787
8.913077354431152,2.0974738597869877,-4.308737277984619
7.74638557434082,2.063782215118408,-1.1019294261932373
4.755192279815674,1.4162142276763916,0.9314274191856384
3.0383965969085693,0.5011050701141357,4.530173301696777
-6.388981819152832,1.073943853378296,1.0177209377288818
-9.304414749145508,6.143396377563477,-5.379354476928711
-5.917245864868164,1.0334796905517578,-8.124783515930176
-6.982973098754883,-4.15537691116333,-4.981720924377441
-9.756180763244627,-2.479113340377808,-2.4307668209075928
-10.872424125671388,-1.906821012496948,0.7982158660888672
-10.429889678955078,-5.3778276443481445,3.8427793979644775
-9.170100212097168,-5.507161140441895,1.99151873588562
-9.909099578857422,-5.5970306396484375,2.480146884918213
-10.690449714660645,-1.1450588703155518,-5.454256057739258
-1.780541181564331,15.581031799316406,-9.637876510620115
12.828913688659668,4.760624408721924,12.908462524414062
2.22499680519104,-1.6203830242156982,1.3709415197372437
17.459667205810547,5.200433731079102,4.801672458648682
13.999284744262695,-4.933446884155273,-3.0351219177246094
13.281756401062012,-4.386058330535889,-5.892795562744141
11.580065727233888,-0.2437041848897934,-4.419488906860352
9.142450332641602,2.3606698513031006,-2.014946460723877
6.784140586853027,1.577605128288269,0.3926360011100769
3.429129123687744,0.7870007157325745,2.1794662475585938
-0.4053835868835449,0.1021919995546341,4.315738677978516
-8.409285545349121,3.047463178634644,0.1674487441778183
-9.100374221801758,6.737849235534668,-5.66652250289917
-6.128345966339111,2.3609073162078857,-6.199094772338867
-8.133724212646484,-3.706075668334961,-4.193957805633545
-10.32436180114746,-3.736438751220703,-2.026813507080078
-10.277103424072266,-2.3216402530670166,1.1710904836654663
-9.23360824584961,-3.6135547161102295,4.249547004699707
-8.156816482543945,-4.466169834136963,2.0402534008026123
-8.050877571105957,-3.918797016143799,2.8656980991363525
-8.820730209350586,2.3071796894073486,-6.723704814910889
8.9835844039917,11.157554626464844,-3.503104448318481
6.739413261413574,4.260791301727295,9.179484367370604
11.28014087677002,-4.1329216957092285,-1.5962966680526731
12.727612495422363,2.4146618843078613,0.771426796913147
12.812728881835938,-5.374400615692139,-5.626260280609131
11.354198455810549,-1.0535774230957031,-4.821572303771973
11.062004089355469,1.1177502870559692,-2.565526962280273
7.554178237915039,1.9234914779663088,-0.7818584442138672
4.186831474304199,0.9269656538963318,0.5655510425567627
1.1981260776519775,0.2129908502101898,2.9319188594818115
-6.891847133636475,2.947062969207764,0.502564549446106
-8.771744728088379,5.58300256729126,-4.605888366699219
-6.595208168029785,1.7613654136657717,-4.951032161712647
-7.574655055999756,-5.608231067657471,-2.2442281246185303
-10.141831398010254,-3.415817975997925,-0.5867529511451721
-10.761445999145508,-0.6668391823768616,3.913308620452881
-10.164767265319824,-3.1329023838043213,3.213773727416992
-7.8638787269592285,-5.640262603759766,0.7179372906684875
-8.249835968017578,-6.7609171867370605,-3.1051013469696045
-7.259781360626221,13.40386962890625,-4.792323589324951
10.532916069030762,14.672248840332031,6.718565940856934
4.358926773071289,-6.700804233551025,0.4642159640789032
13.860661506652832,-0.8047356009483337,2.825208902359009
15.095256805419922,-1.5144327878952026,-1.442371129989624
13.10138988494873,-7.439033508300781,-5.817134380340576
11.463261604309082,-0.9470624327659608,-3.680209159851074
9.631783485412598,4.625560283660889,-1.1003857851028442
5.916348457336426,3.1369285583496094,0.4788089692592621
2.5643224716186523,2.458703994750977,2.177570343017578
0.4478713274002075,1.852310299873352,4.456901550292969
-8.654885292053223,2.2529547214508057,-0.605624794960022
-8.935978889465332,7.0510759353637695,-4.822780609130859
-6.525140762329102,-1.598101019859314,-4.09793758392334
-7.859563827514648,-6.121592998504639,0.2850537598133087
-10.663994789123535,-2.4601008892059326,1.5580006837844849
-11.002053260803224,-3.6096150875091553,3.128309965133667
-9.16244411468506,-4.41331148147583,2.387247085571289
-7.903545379638672,-2.1271064281463623,-3.8456130027771
-8.298115730285645,-1.624024510383606,-4.049204349517822
-7.610191345214844,1.9264094829559328,-5.122396469116211
6.697892665863037,7.699672698974609,-5.638953685760498
6.6916022300720215,4.333977222442627,7.189916610717773
10.322806358337402,-0.6717267632484436,0.2763034701347351
16.70501708984375,2.312205076217652,1.6698929071426392
15.441054344177246,-4.249343395233154,-4.074039936065674
12.787457466125488,-1.7597365379333496,-5.222121238708496
10.954546928405762,1.081692814826965,-2.570861339569092
6.471458911895752,1.1049288511276243,-1.799538016319275
3.395024299621582,1.0299993753433228,0.6148223876953125
1.447423219680786,1.5013606548309326,3.934633731842041
-7.7601447105407715,3.211670160293579,0.2814626693725586
-8.877665519714355,7.784150123596191,-6.245444297790527
-6.144943714141846,1.912582874298096,-6.747865200042725
-7.738890171051025,-7.130813121795654,-4.119892597198486
-10.450899124145508,-2.7955801486968994,-1.2453569173812866
-11.067176818847656,0.1827973574399948,4.000927448272705
-10.434806823730469,-5.28341817855835,4.667335510253906
-9.345171928405762,-7.407074451446533,0.8868247270584106
-8.694201469421387,-6.451776504516602,0.5927621722221375
-9.53121280670166,1.0980370044708252,-9.96396827697754
1.5371438264846802,18.4483699798584,-4.213579654693604
11.889673233032228,1.1339788436889648,13.052796363830566
5.866944313049316,-2.998349905014038,-2.1124191284179688
14.665103912353516,5.695068836212158,1.0873806476593018
13.707277297973633,-5.608553886413574,-3.648413419723511
12.73295783996582,-3.0186891555786133,-6.54062557220459
11.563345909118652,3.341385841369629,-3.13784408569336
9.604086875915527,1.807190418243408,-1.9982091188430784
5.913527011871338,0.7039176225662231,0.0902097448706626
3.878382682800293,0.0826212838292121,3.49983024597168
-4.11320686340332,-0.2421111315488815,2.315058469772339
-9.349326133728027,5.171539306640625,-2.873077630996704
-7.20916748046875,5.769052505493164,-7.759324073791504
-7.151953220367432,-3.0475008487701416,-5.026930332183838
-10.164284706115724,-3.763965606689453,-3.420396089553833
-10.94874382019043,-2.156203031539917,-0.928281545639038
-10.135804176330566,-1.7724707126617432,1.1526213884353638
-8.672934532165527,-3.7372851371765137,0.4996985793113708
-7.8125457763671875,-5.550968170166016,0.6787896752357483
-8.404491424560547,-2.6551613807678223,3.5788307189941406
-7.230268955230713,5.8309431076049805,1.626178503036499
13.224777221679688,13.44031810760498,-2.918182849884033
8.387801170349121,3.531526803970337,7.861831188201904
17.23250961303711,-2.9507668018341064,0.0386520251631736
16.11475372314453,-0.1142636612057685,-1.245439529418945
15.34445571899414,-7.797494411468506,-5.3884782791137695
12.707502365112305,-4.139126300811768,-3.475461959838867
8.654327392578125,0.0952808409929275,-1.7591440677642822
3.424137830734253,1.86482036113739,-0.60373455286026
1.556875467300415,1.5995317697525024,2.682037591934204
-7.999941825866699,4.180279731750488,-1.355648398399353
-9.695322036743164,10.905506134033203,-5.53309965133667
-7.315508365631103,1.290131688117981,-1.74543035030365
-7.977383613586426,-11.80233383178711,-2.783832311630249
-9.851325035095217,-1.4003007411956787,0.3614453673362732
-11.53400421142578,6.615813255310059,3.642700433731079
-10.531194686889648,-3.340806484222412,1.008783221244812
-8.638919830322266,-7.619914531707764,-3.370536088943481
-8.886423110961914,-2.9266726970672607,-2.7534799575805664
-9.190574645996094,1.6733194589614868,-4.9191575050354
1.35447096824646,14.205033302307127,0.4357388615608215
13.06813621520996,2.0097227096557617,8.89876651763916
6.449610710144043,-4.996572494506836,-1.1996906995773315
16.798477172851562,2.3011314868927,1.3298720121383667
13.030106544494627,-5.959594249725342,-5.786875247955322
11.898749351501465,-2.1770291328430176,-6.906318664550781
12.0537109375,5.074580669403076,-2.654296875
10.78226375579834,4.1438069343566895,0.8416728973388672
6.449320793151856,1.2250723838806152,2.750969648361206
3.4190917015075684,-0.7392224669456482,4.422793865203857
-1.51603102684021,-2.194039821624756,4.927546501159668
-9.758907318115234,3.606566190719605,-3.851930618286133
-6.802047729492188,5.093596935272217,-5.291061401367188
-8.127570152282715,-4.6332526206970215,-4.566819667816162
-10.440457344055176,-5.6618852615356445,0.5837641954421997
-13.055813789367676,-3.014036178588867,2.5030272006988525
-12.188786506652832,-2.273134469985962,4.618008136749268
-10.76320743560791,-2.119722843170166,-0.3876066207885742
-9.04481029510498,-2.672241687774658,-2.261626482009888
-8.462056159973145,-0.1692998111248016,-3.9093427658081055
-8.530014991760254,9.344161033630373,-12.018938064575195
13.051777839660645,6.332253456115723,0.7084356546401978
4.1873064041137695,1.4070326089859009,5.260336399078369
16.190139770507812,2.84966778755188,1.1400814056396484
15.68223762512207,-0.6927646994590759,-0.3101324737071991
16.738140106201172,-3.7411584854125977,-3.723754644393921
13.518179893493652,-2.133690118789673,-4.341616153717041
10.051302909851074,1.3542356491088867,-2.932583332061768
5.48040771484375,1.9794865846633911,-1.2275879383087158
2.028132438659668,1.8037022352218628,0.698668897151947
-1.7282733917236328,2.015674352645874,3.198324203491211
-10.164579391479492,6.722238063812256,-4.160092353820801
-7.506026268005371,7.601889133453369,-9.154271125793455
-6.942360877990723,-3.139304876327514,-5.362903118133545
-10.173683166503906,-3.547926425933838,-3.574462890625
