Acc_X,Acc_Y,Acc_Z
18.161104202270508,7.036285877227783,1.2544238567352295
15.172922134399414,8.356061935424805,9.676467895507812
1.0705342292785645,-4.5194621086120605,4.079649925231934
-10.72668170928955,-7.075815677642822,-1.1745697259902954
-11.55927562713623,-7.946085453033447,-16.837617874145508
-2.441281795501709,-4.596567630767822,-15.628069877624512
-5.028992652893066,-9.80622673034668,-11.35196590423584
-8.692376136779785,-8.792329788208008,4.564318656921387
-18.28634452819824,2.3416714668273926,25.010984420776367
-16.83871841430664,6.011804580688477,21.89858055114746
-13.39890956878662,-0.8020333051681519,-19.22352600097656
16.169340133666992,11.877840042114258,-15.41139030456543
6.885445594787598,-6.722126483917236,19.58688735961914
14.03220558166504,6.135815143585205,-0.477944016456604
20.39058494567871,13.322416305541992,2.6025681495666504
17.22519302368164,-6.604379177093506,-0.6071842312812805
10.103071212768556,-1.687738060951233,-2.8782331943511963
10.201229095458984,0.0338212586939334,-6.058726787567139
15.708984375,0.1141365468502044,-2.815672874450684
16.545564651489258,1.4864404201507568,2.524043083190918
12.10661506652832,2.9520814418792725,9.890110969543455
0.5766648054122925,-1.62471342086792,1.7788503170013428
-4.847981452941895,-5.647948741912842,-5.1007843017578125
-8.420276641845703,-12.113719940185549,-18.443679809570312
-8.812505722045898,6.34307336807251,-8.454912185668945
-12.001849174499512,-1.496187686920166,-3.273234367370605
-13.830281257629396,-7.65760326385498,-1.300968050956726
-12.433464050292969,-2.3825888633728027,4.202874183654785
-12.27631950378418,4.551397323608398,7.045254230499268
-10.940437316894531,2.506605863571167,4.956042766571045
-11.59934425354004,0.8298504948616028,7.618982791900635
-11.075631141662598,-4.053638935089111,-7.08153247833252
-0.677840530872345,-4.659904956817627,-28.69841766357422
19.54208755493164,10.28972625732422,20.318832397460938
1.9126434326171875,6.25068473815918,0.867560625076294
20.474363327026367,2.03275728225708,4.92457914352417
22.278718948364254,-0.9483188390731812,0.4631225764751434
16.7420711517334,4.061415672302246,-0.939003050327301
11.630172729492188,2.8602406978607178,-4.510188579559326
10.630657196044922,1.3965471982955933,-3.6197335720062256
12.028820037841797,2.59366512298584,0.6676375865936279
8.769168853759766,3.5398011207580566,4.494979381561279
4.082061767578125,3.933936595916748,5.731478214263916
-5.128414154052734,-0.2924995422363281,-0.2959173023700714
-9.966033935546877,-8.556248664855957,-9.595799446105955
-6.108188629150391,-4.835387229919434,-11.997719764709473
-7.704582691192627,4.608246803283691,-6.203828811645508
-11.620594024658203,-5.028561592102051,-5.565530776977539
-11.450053215026855,-5.65553617477417,-0.2102451622486114
-10.390915870666504,-0.0054612159729003,6.658393859863281
-10.438416481018066,4.459778785705566,12.002436637878418
-11.016179084777832,-4.565695762634277,11.575220108032228
-14.1453275680542,-5.395427703857422,-25.184741973876957
8.705089569091797,10.828414916992188,-8.405516624450684
2.5405313968658447,-1.2427263259887695,7.966142654418945
0.742885172367096,-3.426893949508667,4.943639278411865
20.20357322692871,-1.821738839149475,4.049607276916504
16.38711929321289,-2.5880239009857178,2.454617977142334
19.271808624267575,1.9229944944381716,1.692787528038025
15.304949760437012,4.752254962921143,-2.7762370109558105
14.218932151794434,3.4228320121765137,-1.921338677406311
11.581136703491213,3.006047487258911,0.8849397301673889
6.832047462463379,2.928449869155884,2.382733106613159
3.755964756011963,3.929311513900757,7.043573379516602
-3.846498966217041,-1.4195210933685305,-0.302483320236206
-10.186076164245604,-8.9384183883667,-9.533488273620604
-8.189937591552734,-7.245961666107178,-14.40131378173828
-7.885896682739258,2.951580762863159,-3.220678806304932
-12.565178871154783,-2.086021900177002,-2.359647035598755
-11.672256469726562,-5.641870021820068,2.137033462524414
-11.22371768951416,-3.636002779006958,6.245264530181885
-9.906423568725586,2.5918893814086914,8.12677001953125
-9.637505531311035,2.700453042984009,9.514849662780762
-10.014596939086914,-3.4658403396606445,0.649290919303894
-6.534638404846191,-1.9984492063522337,-34.339866638183594
14.470932960510254,7.836221218109131,12.57347583770752
2.1065943241119385,-0.2418032586574554,0.30805304646492
16.892778396606445,7.03898811340332,3.698173046112061
19.937936782836918,-0.274919718503952,-0.9657917618751526
17.6763858795166,-2.995124578475952,0.4306519329547882
17.979629516601562,1.7667148113250732,1.9042208194732664
14.812806129455566,0.857812762260437,2.447339534759521
10.87877082824707,0.9674222469329834,3.6971609592437744
5.380550861358643,2.687893867492676,5.830944061279297
-0.7148011326789856,2.169069528579712,8.227493286132812
-9.230341911315918,-7.068188190460205,-4.946047306060791
-8.213480949401855,-11.466522216796877,-11.178045272827148
-7.336531162261963,-1.9118260145187376,2.6979076862335205
-13.352130889892578,10.962047576904297,11.91744327545166
-13.591309547424316,2.123967170715332,8.965426445007324
-11.413739204406738,-1.463582992553711,7.965425968170166
-10.002800941467283,-2.222180128097534,-3.5210182666778564
-8.762344360351562,-0.410984605550766,-9.216885566711426
-10.159299850463867,-4.603630542755127,-11.403732299804688
-10.901535987854004,-7.0120930671691895,-28.89484024047852
9.268806457519531,8.400084495544434,-0.8717844486236572
13.965218544006348,6.008396625518799,10.489192962646484
17.11341667175293,4.360562801361084,1.32037615776062
19.13188743591309,-1.9417359828948972,-0.0136463493108749
18.90721321105957,1.9988007545471191,2.522314071655273
14.2251558303833,0.1266460120677948,-0.9377289414405824
8.36939525604248,0.7055361866950989,-5.681464672088623
4.076834201812744,-0.6036003828048706,-4.111611366271973
4.136872291564941,0.5566806197166443,0.6911972165107727
3.807705879211426,0.4267981350421905,4.4481120109558105
-2.087437868118286,-2.8495233058929443,1.3210026025772097
-8.705330848693848,-9.85705852508545,-13.36700439453125
-7.656228065490723,-6.285109519958496,-14.737339973449709
-9.442211151123049,2.589833498001098,-4.599301338195801
-13.098577499389648,1.7173070907592771,-0.6819278597831726
-13.091073036193848,-1.2254983186721802,3.167710781097412
-12.01443576812744,1.1711063385009766,7.000701904296875
-10.822484016418455,3.790583372116089,5.687138557434082
-10.366782188415527,3.826765298843384,4.590159893035889
-11.97969913482666,-5.3888325691223145,-19.810754776000977
6.283533573150635,-1.34898841381073,-5.442226886749268
10.510666847229004,0.8238669633865356,12.92182445526123
8.676900863647461,3.642441272735596,4.429447174072266
20.22035789489746,1.0816428661346436,3.574249744415283
18.756526947021484,-0.8352121710777283,-0.1037871018052101
16.023365020751953,3.6458005905151367,-1.4460097551345823
13.512805938720703,2.755167245864868,-2.819417953491211
11.951804161071776,2.54163146018982,-1.1482564210891724
10.952012062072754,3.994030475616455,4.082257270812988
4.992770671844482,5.684582710266113,3.500750064849853
-4.658596992492676,1.4947586059570312,-1.336755633354187
-9.5746431350708,-7.781719207763672,-12.67630386352539
-3.133500814437866,-5.53878116607666,-17.616424560546875
-7.202751159667969,-0.2728855907917022,-14.965280532836914
-9.529190063476562,-6.738088130950928,-12.37424373626709
-7.288036346435547,-3.629964828491211,-2.988045692443848
-8.268844604492188,5.245147228240967,11.908802032470703
-13.776143074035645,6.33197021484375,20.20317649841309
-18.26991081237793,3.740210771560669,27.21290397644043
-14.759403228759766,1.9257488250732424,3.970768451690674
7.093267917633057,-22.143428802490234,-49.02998352050781
15.518905639648438,3.839164257049561,24.70001220703125
1.37360680103302,5.404226779937744,2.9839084148406982
14.969340324401855,12.438528060913086,1.6128181219100952
18.214534759521484,1.63603675365448,-1.921598196029663
16.37877082824707,-4.207656383514404,-1.026156306266785
18.29026985168457,-3.2949419021606445,2.9548492431640625
13.484758377075195,-4.767691135406494,1.54262113571167
13.014095306396484,-0.3750476241111755,2.323065280914306
8.883238792419434,4.653468608856201,5.278069496154785
3.54999041557312,5.962521076202393,6.177762031555176
-3.6207876205444336,0.6447885036468506,2.041637420654297
-8.34930419921875,-10.86655330657959,-12.041208267211914
-7.732424736022949,-4.098113059997559,-0.7702121138572693
-12.106212615966797,8.188854217529297,2.877838134765625
-13.261611938476562,3.007419347763061,-0.7650778889656067
-13.738211631774902,-5.119868278503418,-2.273758172988892
-11.113698959350586,-6.263658046722412,0.445758044719696
-9.152756690979004,-2.651883602142334,-0.5832937955856323
-9.500722885131836,-3.2081634998321533,-1.233676791191101
-11.220063209533691,-2.587367534637451,-18.85934066772461
5.197061538696289,5.537650108337402,-7.132399559020996
6.612365245819092,8.49764633178711,5.873133182525635
5.255414009094238,4.285101890563965,-1.1068158149719238
20.067890167236328,2.28613829612732,2.476210594177246
19.79743003845215,-3.492879629135132,1.296965479850769
19.615283966064453,-4.526946544647217,2.172699213027954
17.729915618896484,1.983633518218994,1.7675600051879885
14.143770217895508,2.696981430053711,2.149388074874878
8.115851402282715,2.911226511001587,1.69474458694458
3.835202932357788,2.2138102054595947,3.300142288208008
-1.755069375038147,0.8706045746803284,3.458873748779297
-8.699590682983398,-8.381630897521973,-8.723042488098145
-7.769514560699463,-8.536532402038574,-3.409287691116333
-8.81601333618164,5.133947849273682,3.367969751358032
-10.83752155303955,7.671205520629883,5.5538506507873535
-12.258387565612791,-0.6009326577186584,3.9174258708953857
-12.359466552734377,-2.1353518962860107,3.2910315990448
-8.989182472229004,1.519292950630188,-2.465175151824951
-9.037064552307127,-0.0806587189435958,-8.755964279174805
-10.481683731079102,-3.4614098072052,-9.142026901245115
-4.32529878616333,-5.452835559844971,-25.165769577026367
11.26684856414795,2.3967185020446777,13.271848678588867
6.289013862609863,1.256183624267578,-0.3037510514259338
17.617204666137695,5.049764156341553,3.7382519245147705
18.64668655395508,-1.28311026096344,-1.1126744747161863
17.969270706176758,0.5994061827659607,0.0493260622024536
15.63192367553711,1.8254456520080569,0.0158366169780492
11.270416259765623,1.059520602226257,-1.1334353685379028
7.579197883605957,0.7589448690414429,0.4192056655883789
3.7210803031921382,0.7328664064407349,2.4883062839508057
-0.9607906341552734,0.2581463456153869,3.631994009017944
-7.1577653884887695,-4.218189716339111,-3.85076904296875
-7.938202857971191,-8.620844841003418,-13.148649215698242
-9.02151107788086,-1.573944926261902,-10.677539825439451
-11.18870735168457,4.485730648040772,-4.552938938140869
-12.44669246673584,4.214881420135498,-1.713172197341919
-11.846821784973145,-0.1824855953454971,0.5525765419006348
-10.66152572631836,-2.2398080825805664,2.181701183319092
-10.036383628845217,-0.914775848388672,5.048932075500488
-11.398717880249023,-0.2606090009212494,-5.14963960647583
-3.462707281112671,-1.2416515350341797,-12.261404991149902
10.571175575256348,0.7214310765266418,10.985705375671388
1.2797698974609375,-2.939404010772705,3.723738193511963
12.428564071655272,3.1180708408355717,4.197210311889648
18.60441017150879,2.3331472873687744,-1.8812416791915891
18.638561248779297,-0.5469882488250732,-0.445656806230545
20.599056243896484,2.657768964767456,1.171666979789734
17.08090591430664,2.233879327774048,0.5717362761497498
14.594828605651855,2.3770408630371094,3.031368970870972
8.582796096801758,3.5317223072052,3.0148396492004395
1.8751178979873655,4.588278770446777,5.4377264976501465
-7.268781185150146,-2.8545713424682617,-3.6250791549682617
-10.275290489196776,-11.109967231750488,-16.89259147644043
-6.181346893310547,-0.7831117510795593,-5.8298749923706055
-10.550009727478027,3.89873480796814,-3.803097724914551
-13.090378761291504,-3.675953149795532,-3.672208547592163
-11.576133728027344,-4.418555736541748,1.304790735244751
-10.516626358032228,-2.745277166366577,1.729699969291687
-10.389588356018066,0.0315509885549545,3.640201091766357
-10.269587516784668,-0.104016825556755,5.895841121673584
-10.057985305786133,-2.8688104152679443,3.87294340133667
-6.553534984588623,-2.133625268936157,-29.75544548034668
10.760075569152832,9.818498611450195,11.173608779907228
-1.766887068748474,-1.4068883657455444,2.5823755264282227
11.544426918029783,2.621424674987793,4.118700981140137
21.55048179626465,1.6277137994766235,1.826453804969788
17.40386199951172,-2.3608198165893555,3.3371336460113525
18.84261131286621,2.695314407348633,1.1304749250411987
13.743939399719238,2.288796901702881,-2.6856071949005127
11.322169303894045,2.2048568725585938,-1.833739638328552
9.90839958190918,2.3177621364593506,1.585227131843567
6.469155311584473,1.7183444499969482,6.324484348297119
-1.868481159210205,-3.0467071533203125,3.278372049331665
-7.2728681564331055,-6.828834056854248,-4.624363899230957
-8.264778137207031,-7.331753253936768,-12.919017791748049
-7.751556396484375,-2.5868594646453857,-4.734070301055908
-11.956502914428713,-2.387742042541504,-3.889315843582153
-13.134465217590332,-1.8778622150421145,-1.0388381481170654
-12.112072944641112,-0.4979281425476074,3.432041883468628
-10.676643371582031,-2.8174610137939453,2.726923942565918
-9.797450065612791,-0.4749122560024261,2.6385691165924072
-9.384535789489746,-1.6764748096466064,4.1036376953125
-9.396157264709473,0.0713222622871398,-13.942413330078123
3.784717321395874,11.609216690063477,-7.300387382507324
5.959741115570068,5.94373893737793,8.904730796813965
1.5045545101165771,3.3014066219329834,1.8421592712402344
18.103670120239254,-1.5064338445663452,1.5721522569656372
19.841064453125,-5.977485179901123,3.593247652053833
19.11292839050293,2.896514415740967,4.678715229034424
12.546703338623049,3.6720669269561768,-4.244427680969238
13.302194595336914,3.4921271800994877,-1.1700553894042969
12.623887062072754,4.9874701499938965,2.466007232666016
8.8375883102417,3.956366777420044,5.219685077667236
1.3707826137542725,2.0113019943237305,9.773261070251465
-5.991697788238525,-4.689597129821777,0.0147756487131118
-9.896247863769531,-7.927641868591309,-9.759885787963867
-8.488728523254395,-3.0170960426330566,-0.7357445955276489
-11.815814018249512,3.563123941421509,5.331882476806641
-11.981548309326172,-1.1488394737243652,-0.0597310364246368
-10.665377616882324,-1.2215561866760254,0.8897854089736938
-9.05763816833496,-2.619003772735596,-4.99025297164917
-8.73623275756836,-4.204935550689697,-7.991580963134766
-8.358715057373047,-4.9088640213012695,-5.174222469329834
-8.43065357208252,-4.952385425567627,-1.8675376176834104
-5.774731636047363,9.259074211120604,-2.642441987991333
8.944297790527344,4.378701686859131,-4.736149311065674
8.021069526672363,-1.2206699848175049,3.2049038410186768
12.105408668518066,-0.0466270297765731,1.4569697380065918
22.761877059936523,3.989947080612183,0.7440769672393799
16.734973907470703,1.2655072212219238,0.9701316356658936
16.441499710083008,0.0586877614259719,1.2683250904083252
10.782023429870604,0.7304633259773254,2.204665184020996
6.137238502502441,2.605559825897217,3.016886949539185
1.908840298652649,1.2608410120010376,4.209021091461182
-5.5831618309021,-1.296751618385315,1.5393517017364502
-11.583555221557615,-7.130254745483398,-12.0499267578125
-7.9370927810668945,-6.643132209777832,-8.73426342010498
-10.36058521270752,5.793355941772461,3.4159457683563232
-12.411547660827637,4.8036723136901855,1.1058741807937622
-11.693097114562988,-1.5248661041259766,0.2697457671165466
-11.170450210571287,-3.4298207759857178,1.949732542037964
-10.88271141052246,-0.9031899571418762,0.9539477229118348
-9.858302116394045,1.4755280017852783,-1.5329638719558716
-9.94013500213623,-1.7678616046905518,-5.9207258224487305
-4.862893104553223,-4.210515975952148,-16.188791275024414
11.64785861968994,3.322258710861206,9.084372520446776
7.778501033782959,6.5829386711120605,3.510763645172119
13.924211502075195,4.468709468841553,4.225841045379639
18.9247989654541,-3.231139659881592,-1.443389892578125
13.600893020629885,-0.938330054283142,-1.13395357131958
10.777820587158203,-0.3672601282596588,-1.245485782623291
8.708547592163086,-1.5567848682403564,-3.5389695167541504
8.388293266296387,-0.392395943403244,-0.9089863300323486
7.005084991455078,1.9554206132888796,2.39682936668396
2.76910662651062,2.887727737426758,7.159562110900879
-6.196670055389404,-1.8406729698181152,-1.0684622526168823
-11.01534366607666,-10.297823905944824,-15.1732759475708
-5.435619354248047,-0.7835738658905029,-5.077426433563232
-7.358253479003906,6.399696350097656,-1.838468313217163
-12.552411079406738,-1.7263740301132202,-2.205294609069824
-12.76482105255127,-2.565406322479248,0.3185390830039978
-10.587601661682127,0.2347574979066848,-4.69744348526001
-8.3280668258667,3.3589653968811035,-1.73833167552948
-9.97692584991455,-1.2297998666763306,0.920422375202179
-10.875612258911133,-4.561418533325195,7.856132507324219
-9.97350788116455,0.0087125152349472,-6.227059364318848
5.260659694671631,10.88150119781494,-8.679936408996582
7.513944625854492,-1.6944944858551023,11.35558032989502
9.349082946777344,-11.45354175567627,5.498680114746094
30.310623168945312,1.8325257301330569,7.912044525146484
19.35995483398437,9.011735916137695,0.0227434001863002
17.49814224243164,5.454129695892334,-2.225425720214844
12.724525451660156,4.575412273406982,-0.1998238265514373
6.568287372589111,2.40195107460022,0.529776930809021
3.3297526836395264,2.0648975372314453,6.683645248413086
-3.439870595932007,-4.556297302246094,-0.2117359638214111
-7.345209121704102,-8.847956657409668,-6.387209892272949
-7.464929580688477,-7.205269813537598,-10.112605094909668
-8.83557415008545,0.4883261620998382,-2.3775975704193115
-11.145719528198242,-2.2219598293304443,-3.661912202835083
-11.861351013183594,-2.6719799041748047,-1.5907464027404783
-10.619036674499512,-2.568042039871216,0.210111916065216
-9.598370552062988,-4.226893424987793,1.8292776346206665
-8.662215232849121,-3.403438806533813,4.051772594451904
-8.945600509643555,-0.4373109340667724,7.9554972648620605
-10.819429397583008,-2.4897077083587646,-3.4093921184539795
-5.9796223640441895,8.114311218261719,-17.548540115356445
11.923624992370604,5.691955089569092,4.022533893585205
2.1117477416992188,2.976600170135498,0.916670024394989
10.92820167541504,4.948407173156738,2.8391120433807373
20.0400390625,1.6607897281646729,1.2445138692855835
16.159143447875977,-0.4572389125823974,2.0670042037963867
15.80751895904541,-0.2665122151374817,1.2409725189208984
14.121402740478516,3.354944467544556,2.207295656204224
9.361913681030272,2.825700521469116,1.940761923789978
5.867714405059815,4.291773319244385,3.5228631496429443
-0.9965516924858092,2.1665470600128174,4.443076133728027
-9.226344108581545,-5.705511093139648,-6.387959003448486
-8.209318161010742,-8.368535995483398,-11.821264266967772
-8.257538795471191,1.113652586936951,-0.4938696622848511
-12.516058921813965,2.893819093704224,-3.0616166591644287
-12.006837844848633,-1.574970245361328,-3.8352489471435542
-11.021648406982422,-1.660897970199585,-0.0740357935428619
-9.818108558654783,-3.31228256225586,-0.1674095094203949
-9.7601900100708,-3.6966359615325928,2.142319917678833
-10.38080883026123,-0.0177814066410064,6.714571475982666
-11.501383781433104,-1.1108474731445312,-6.610286712646484
-3.93929386138916,-3.241888523101806,-17.216312408447266
12.996932983398438,3.6289103031158447,9.736947059631348
6.604628086090088,-1.210494875907898,0.7485569715499878
20.70147705078125,9.111981391906738,8.30213451385498
21.49258804321289,3.4318459033966064,-2.117187738418579
16.730445861816406,1.4092843532562256,1.5642881393432615
15.290814399719238,2.910571813583374,3.5277578830718994
8.64828872680664,2.9498178958892822,2.5172722339630127
2.720984935760498,2.1966848373413086,2.567051649093628
-1.233224868774414,1.303735852241516,3.9626524448394775
-8.972498893737793,-3.629186153411865,-3.0181565284729004
-10.377909660339355,-10.26562786102295,-12.37862491607666
-7.06291389465332,-4.392958641052246,-3.536926746368408
-11.36229419708252,6.0463948249816895,1.4565495252609253
-11.085436820983888,3.524925470352173,1.509940266609192
-11.55008602142334,-1.8750115633010864,3.003847122192383
-11.522375106811523,-3.298549175262451,4.576193809509277
-10.336310386657717,-0.7082731127738953,2.224882125854492
-9.663986206054688,1.8782241344451904,1.27513587474823
-12.135808944702148,-5.904322624206543,-22.486656188964844
7.105069160461426,-1.6887402534484863,-9.540205001831056
11.902647972106934,6.450784683227539,14.724440574645996
10.492098808288574,5.206876277923584,0.733090877532959
19.414928436279297,1.9732694625854488,-0.6020565032958984
18.214370727539062,-4.213692665100098,1.295735239982605
16.667402267456055,-0.7247408032417297,2.96850323677063
12.688570976257324,0.0811886042356491,0.6600818037986755
6.321338653564453,0.6599578857421875,0.6232537627220154
2.702240228652954,1.7727231979370115,2.0902764797210693
-0.7674263715744019,2.2832164764404297,5.924596786499023
-9.005722999572754,-5.645226955413818,-4.585700511932373
-8.59035587310791,-11.708760261535645,-12.376924514770508
-6.667036533355713,-0.9269208312034608,-3.3359503746032715
-11.542792320251465,8.43386173248291,2.9069578647613525
-12.561338424682615,1.6055216789245603,1.1847740411758425
-12.86979866027832,-2.479757308959961,4.02773904800415
-11.906740188598633,-1.7856831550598145,1.6028636693954468
-10.4787015914917,0.6112038493156433,-1.5340609550476074
-10.15501880645752,1.156485915184021,-0.805260419845581
-10.820847511291504,-4.422460079193115,-14.680774688720703
4.729731559753418,-3.165231943130493,-13.248201370239258
16.923294067382812,8.229517936706543,15.361970901489258
10.037224769592283,3.8495240211486816,1.8982125520706177
20.905221939086918,1.4922384023666382,1.5649199485778809
18.19417762756348,-2.442283391952514,0.7987378239631653
15.003944396972656,0.7011991143226624,2.034962654113769
11.58986473083496,0.0369036197662353,2.171897649765014
6.379432678222656,1.520798921585083,1.4659053087234497
1.500033617019653,2.6628990173339844,1.2900980710983276
-3.528352737426758,1.0389076471328735,1.5580116510391235
-8.651060104370117,-7.510059356689453,-10.461602210998535
-7.379484176635742,-6.416341304779053,-10.133861541748049
-9.079389572143556,-0.4936239719390869,-7.262886047363281
-11.682244300842283,2.460418701171875,-3.9107649326324463
-11.474093437194824,-0.5742312073707581,-1.2135471105575562
-11.160456657409668,-3.706642389297485,1.6521739959716797
-10.798364639282228,-2.2417187690734863,4.961158275604248
-10.138449668884276,0.4658572971820831,7.07673454284668
-9.9064359664917,1.6463172435760498,6.574227809906006
-12.068758010864258,-2.2210679054260254,-23.4871768951416
11.289263725280762,-1.9518238306045528,-3.090017557144165
8.648335456848145,-0.2661904096603393,11.63372039794922
8.959318161010742,3.781628370285034,2.909663438796997
22.303829193115234,6.762884140014648,2.0828752517700195
17.441556930541992,2.9138853549957275,0.1540822982788086
16.02109718322754,2.2078652381896973,-0.7578388452529907
14.31171417236328,3.62398624420166,2.819679021835327
8.275266647338867,0.5786044001579285,0.4773142635822296
4.1068034172058105,2.748553991317749,3.709709405899048
-2.6420860290527344,-1.0393575429916382,-1.6630306243896484
-6.935257911682129,-5.869016170501709,-9.580816268920898
-6.52901554107666,-4.74698543548584,-11.05772876739502
-9.40818977355957,2.7457637786865234,-4.380618095397949
-12.614182472229004,-1.115412712097168,-4.454394340515137
-11.468629837036133,-5.476287841796875,-2.2452023029327397
-9.21586799621582,-3.503792762756348,-0.1077041029930114
-9.108139991760254,1.351673603057861,2.477926731109619
-9.08218479156494,5.400351047515869,9.613083839416504
-10.881916999816896,0.2827913165092468,9.553253173828123
-10.56386947631836,-4.0955023765563965,-24.95419311523437
7.837782859802246,6.93140172958374,-0.1403324604034423
1.4407957792282104,1.714154839515686,5.191497802734375
6.291141033172607,-1.2051780223846436,7.793695449829102
20.468828201293945,-4.674117088317871,3.1154990196228027
17.029443740844727,-0.4221492707729339,2.807835102081299
17.621061325073242,1.2570267915725708,0.9145228266716005
16.62260627746582,4.479660034179688,0.972581684589386
12.479260444641112,2.9342219829559326,1.4103593826293943
7.561254024505615,2.095712661743164,2.198495864868164
2.145329713821411,3.179879903793335,3.154649257659912
-3.8362011909484863,0.596156656742096,3.5134642124176025
-10.88441276550293,-6.94733190536499,-6.25457763671875
-8.169403076171875,-7.592445850372314,-10.539958000183104
-6.539732933044434,3.729705333709717,1.522974967956543
-11.387717247009276,2.532234907150269,-1.8243565559387207
-12.558345794677734,-2.894972085952759,-0.8374665975570679
-11.884297370910645,-3.5579946041107178,1.8700779676437376
-10.689539909362791,-1.3786388635635376,1.3642972707748413
-9.009739875793455,-0.3885925710201263,0.164403036236763
-9.202098846435549,-2.390055656433105,-6.95194673538208
-1.7455333471298218,-6.784777641296387,-13.767813682556152
13.313742637634276,4.841617107391357,10.824213027954102
5.656003475189209,3.491196393966675,-0.5402197241783142
19.129636764526367,10.347806930541992,5.24623966217041
21.22357749938965,0.1650035381317138,0.7986372709274292
15.074990272521973,-0.5324318408966064,0.91399747133255
13.071117401123049,1.6168766021728516,1.781341314315796
6.874939918518066,0.4787939190864563,0.4246409833431244
2.691521167755127,0.2118293642997741,0.882307767868042
-0.6086788773536682,-0.1159974858164787,3.5447347164154053
-7.812935829162598,-4.967084884643555,-4.506341457366943
-8.96541976928711,-9.721355438232422,-10.73011875152588
-7.2656707763671875,-4.133694648742676,-1.8412986993789675
-11.151073455810549,5.161480903625488,5.717311382293701
-11.408285140991213,1.4761598110198977,3.828593492507935
-10.434191703796388,-2.951087951660156,4.04503345489502
-10.132325172424316,-3.089848756790161,2.069971799850464
-8.520739555358887,1.0593619346618652,-3.6013498306274414
-7.755747318267822,0.7258634567260742,-5.986218452453613
-5.754170894622803,-2.0214662551879883,-14.372387886047363
6.243939399719238,4.2508225440979,2.939976692199707
7.487864017486572,6.8878984451293945,3.285042285919189
11.772380828857422,2.3143625259399414,0.6466460824012756
17.7098331451416,-3.116873264312744,0.6239917874336243
15.90762710571289,-0.7237976789474487,0.9577472805976868
13.07297134399414,1.3179974555969238,-2.041090488433838
10.37641143798828,1.7702250480651855,-4.327832221984863
8.454913139343262,1.2313852310180664,-1.0943658351898191
6.726607322692871,0.7595893740653992,1.713847279548645
3.523591995239258,1.0658427476882937,6.867959499359131
-6.141286849975586,-4.19195556640625,-3.5971076488494877
-9.202982902526855,-8.517589569091797,-15.51723289489746
-6.593480587005615,-0.925595998764038,-8.736660957336426
-9.313638687133787,0.4314407408237457,-5.629091262817383
-11.903316497802734,-2.558405637741089,-2.925424575805664
-10.815176963806152,-1.933166742324829,2.9066290855407715
-10.213354110717772,2.007650852203369,7.360516548156738
-9.981919288635254,5.230000019073486,9.945279121398926
-10.599037170410156,5.041821002960205,9.891404151916504
-13.011646270751951,-3.145547389984131,-16.555925369262695
4.248605251312256,-7.655843257904053,-15.141148567199709
13.000615119934082,5.667564868927002,15.35977268218994
6.326077938079834,3.794091701507568,0.5940474271774292
17.952829360961914,3.801521062850952,3.2123053073883057
22.34208297729492,-2.347055196762085,1.4073004722595217
16.15372085571289,0.497344970703125,0.5647848844528198
14.432415962219238,3.9192841053009033,1.838674068450928
8.653898239135742,1.3774003982543943,1.0513442754745483
3.833248853683472,0.5726931095123291,1.5839930772781372
-0.3186964988708496,2.0974528789520264,3.5232186317443848
-7.145040512084961,-1.2822649478912354,-1.4006597995758057
-9.547635078430176,-7.9438395500183105,-12.275869369506836
-7.233514785766602,-2.570457935333252,-7.059121608734131
-9.953603744506836,5.219850540161133,-1.5684387683868408
-11.830755233764648,2.8968777656555176,-2.9110331535339355
-11.097811698913574,-1.782557487487793,-0.1009952798485755
-10.541810989379885,-3.788794994354248,1.8242088556289675
-9.305536270141602,0.0151114221662282,2.2490122318267822
-9.059688568115234,1.0063761472702026,4.722113609313965
-11.343949317932127,-3.994795799255371,-9.947986602783203
4.851938247680664,-4.166046142578125,-8.687655448913574
13.317548751831056,3.909116268157959,11.983433723449709
8.934943199157715,-0.0598528757691383,2.3275599479675293
18.36712455749512,3.6355466842651367,1.3225388526916504
18.918354034423828,2.500836133956909,-1.6716464757919312
14.500795364379885,-0.0303964167833328,-1.318885326385498
13.67496395111084,0.9372363090515136,1.302162528038025
8.463311195373535,-0.3258007764816284,1.321012258529663
4.204659461975098,0.7437391877174377,2.088202476501465
0.6601023077964783,2.090959072113037,4.654623031616211
-7.183962821960449,-3.357984781265259,-2.7856154441833496
-8.935685157775879,-10.875975608825684,-12.22404670715332
-6.9326653480529785,-0.4915655851364136,-0.7912808060646057
-10.832830429077148,6.5728068351745605,3.25899600982666
-12.161959648132324,1.130898118019104,1.3687883615493774
-11.87429428100586,-1.8331000804901123,2.987916946411133
-10.938677787780762,-2.412949085235596,1.6608809232711792
-9.122794151306152,0.0028615924529731,-3.617740631103516
-9.207894325256348,-0.3251489400863647,-2.1392555236816406
-10.21333122253418,-5.002941131591797,-10.645427703857422
0.0217198729515075,0.3316057920455932,-10.55702781677246
15.939270973205566,6.3275227546691895,11.339088439941406
10.188507080078123,0.9947699904441832,0.5047106146812439
22.391197204589844,4.544460773468018,5.572249412536621
19.926103591918945,-0.0629158690571785,1.00444495677948
15.950766563415527,2.576082229614258,-0.1811160296201706
12.092365264892578,1.2295266389846802,0.2175908088684082
6.254266738891602,0.0640875250101089,0.3261265456676483
2.514445781707764,1.2950893640518188,1.8913023471832275
-0.7959744334220886,1.816874861717224,5.184726715087891
-8.957559585571289,-5.235764980316162,-6.685029029846191
-8.536837577819824,-9.803829193115234,-11.833779335021973
-7.880296230316162,-0.6515299081802368,-1.995003581047058
-12.441636085510254,6.459681510925293,1.5140873193740845
-12.055660247802734,1.935502052307129,0.4558643698692322
-11.444735527038574,-2.267364263534546,1.7555835247039795
-9.89876937866211,-1.8228968381881716,0.4851415753364563
-8.584580421447754,-0.2493664324283599,-3.12888503074646
-9.611672401428224,-1.8356704711914065,-2.561939477920532
-7.868568420410156,-2.869927406311035,-9.1021146774292
3.471768617630005,0.8325471878051758,-4.682125568389893
4.156924247741699,3.841946840286255,5.813980579376221
7.013979911804199,0.993282675743103,2.8811798095703125
18.38656234741211,-0.6622652411460876,1.2434229850769043
16.011262893676758,0.2434175014495849,-0.1462710797786712
14.781935691833496,1.3665591478347778,-2.7613370418548584
14.140935897827148,2.399434804916382,-2.15907621383667
13.045557975769045,1.7444498538970947,-0.007372573018074
10.39861011505127,2.6152355670928955,3.5256335735321045
2.279138565063477,2.9959847927093506,1.2659379243850708
-3.570798635482788,-0.3482653498649597,-0.7349027395248413
-7.724747180938721,-4.658266544342041,-4.766709327697754
-7.678782939910889,-8.241378784179688,-12.07406234741211
-8.419656753540039,-3.3289029598236084,-5.956058025360107
-11.338191986083984,-1.7778668403625488,-5.798401832580566
-11.515830039978027,-0.7675107717514038,-1.6765223741531372
-10.365878105163574,1.0881826877593994,1.3616169691085815
-9.81035041809082,0.1471648067235946,3.801884174346924
-10.006634712219238,-2.004102945327759,6.637077331542969
-10.494219779968262,-1.932705521583557,9.03128719329834
-9.889184951782228,-2.85895037651062,-15.136091232299805
10.310369491577148,1.7292946577072144,-0.7591260075569153
12.263553619384766,5.397714614868164,8.722967147827148
11.253031730651855,4.720362663269043,3.3295576572418213
21.224830627441406,5.898685932159424,1.2896448373794556
18.462865829467773,3.123673677444458,0.6648387908935547
13.432315826416016,0.3738094270229339,0.1265603750944137
9.768488883972168,-0.6089997887611389,1.887836217880249
6.159998893737793,-2.0966482162475586,1.7824952602386477
2.912871122360229,0.1953573226928711,3.770721435546875
-2.639636516571045,-1.3639436960220337,1.3415106534957886
-8.696640014648438,-7.295397281646728,-8.174964904785156
-7.831815719604492,-5.753084659576416,-8.025040626525879
-9.509934425354004,3.8221845626831055,0.9829028844833374
-12.484965324401855,2.86050796508789,-1.747821807861328
-11.60452651977539,-1.2311509847640991,-1.2687273025512695
-10.37443733215332,-2.505568742752075,1.233470797538757
-9.520201683044434,-0.9915142059326172,1.407331466674805
-8.958675384521484,0.4189960658550262,2.0182406902313232
-9.587481498718262,-0.5053924918174744,-6.1628522872924805
-4.309903144836426,-1.4060101509094238,-14.202259063720703
8.417072296142578,1.9494879245758057,6.340024471282959
3.02193284034729,1.431280493736267,2.598785400390625
12.558822631835938,4.843294143676758,3.7201507091522217
17.84332275390625,1.2677587270736694,-2.312788724899292
15.372220993041992,-0.1036850810050964,0.9597113132476808
17.215885162353516,1.6424570083618164,1.7826875448226929
15.329636573791504,2.9339282512664795,2.543260097503662
11.60616683959961,2.526205539703369,3.4099583625793457
6.033485889434815,4.607799530029297,3.820271015167236
0.6556891202926636,4.739397048950195,6.939416408538818
-7.827310085296631,-2.338144302368164,-0.9334184527397156
-11.477184295654297,-10.331083297729492,-12.213412284851074
-7.1330246925354,-4.310651302337647,-5.864101886749268
-10.440040588378906,5.854816913604736,2.3582260608673096
-13.146121978759766,0.6071478128433228,-2.495189428329468
-11.541449546813965,-3.570563316345215,-0.1766100823879242
-10.67431640625,-4.194218635559082,0.2194974422454834
-9.581521034240724,-2.6830074787139893,0.3790172934532165
-9.916184425354004,-1.020248293876648,0.9323856830596924
-10.648439407348633,-3.720404863357544,-12.394380569458008
4.887719631195068,-2.4588773250579834,-9.49460792541504
11.17361831665039,5.581995964050293,10.717631340026855
8.892984390258789,4.663496971130371,0.515817403793335
19.635183334350582,6.7037672996521,0.2216558009386062
18.229007720947266,-1.9984506368637085,0.0790268257260322
15.258593559265137,-1.2314375638961792,1.7410175800323486
12.621472358703612,0.5505526065826416,3.332627773284912
7.142317295074463,-0.1113976687192916,2.721560478210449
2.851184606552124,1.9583032131195068,3.127275228500366
-3.3869643211364746,1.5605158805847168,1.350171685218811
-9.783672332763672,-6.145380020141602,-9.054193496704102
-8.582691192626953,-6.06606912612915,-7.960494041442871
-9.315338134765623,2.7794618606567383,0.6463788747787476
-12.233871459960938,5.705253601074219,0.6798457503318787
-11.054518699645996,-0.7467517256736755,-0.1109654828906059
-11.008560180664062,-5.364448547363281,-0.421782523393631
-9.537943840026855,-2.80492639541626,-2.165503025054932
-9.09266471862793,-1.8663846254348757,-0.6272867918014526
-10.268445014953612,-5.063810348510742,-7.160036563873291
-1.6668180227279663,2.7716877460479736,-7.840539932250977
8.563247680664062,7.001960754394531,6.859742164611816
1.7146728038787842,2.107142448425293,1.2205432653427124
13.777161598205566,1.8288899660110476,3.0250942707061768
19.71919059753418,-0.4029973149299621,-1.2347979545593262
15.712523460388184,-1.88353168964386,1.4164485931396484
15.916749000549316,1.339325189590454,0.3687540292739868
12.383766174316406,1.8743716478347776,-0.3473104238510132
8.780272483825684,1.5206483602523804,1.5330803394317627
3.536996841430664,1.8649780750274656,2.2564897537231445
-1.667598843574524,0.4542917609214782,3.0400540828704834
-8.471980094909668,-4.4246673583984375,-3.948235511779785
-9.125211715698242,-8.737411499023438,-10.937592506408691
-7.023117542266846,-1.037685513496399,-3.6411266326904297
-9.733441352844238,2.2524428367614746,-0.4916308224201202
-11.702305793762209,-2.062243223190308,-2.6327099800109863
-11.072392463684082,-1.8115334510803225,0.3199356198310852
-10.459187507629396,-1.108574390411377,0.2972908616065979
-9.34577178955078,1.2214173078536987,2.065020799636841
-9.671127319335938,2.226055860519409,4.594379425048828
-8.929435729980469,-3.342117547988892,-8.355802536010742
5.099155902862549,0.2744917869567871,-8.352351188659668
11.81667423248291,8.745113372802734,10.25989818572998
9.036279678344728,4.991856575012207,1.7314025163650513
16.668384552001953,2.530522108078003,1.8107718229293823
14.881247520446776,-2.333427906036377,-0.8278828859329224
10.933673858642578,-1.5733174085617063,-0.8501293659210205
9.18629264831543,0.5657687187194824,-0.8393957614898682
7.52549934387207,0.3313294351100921,-1.2424911260604858
6.330334186553955,0.5515497922897339,0.7814751267433167
4.06779146194458,1.901253700256348,4.641647338867188
-3.854106903076172,-1.253059983253479,-0.3714183866977691
-8.109633445739746,-5.646544456481934,-6.649791717529297
-7.690147876739502,-5.569106101989746,-9.723370552062988
-9.089899063110352,2.248366594314575,-3.9163997173309326
-10.751567840576172,0.2749493420124054,-3.523895025253296
-10.83880615234375,-1.1794813871383667,-1.9984616041183472
-9.668357849121094,-1.9370214939117432,1.0077261924743652
-9.103870391845703,1.5817508697509766,2.863436698913574
-8.482449531555176,3.5989022254943848,6.654189586639404
-10.617133140563965,-2.664431571960449,-1.807418704032898
-3.3340446949005127,0.2737588882446289,-9.701858520507812
9.913371086120604,4.469547748565674,4.716194152832031
4.835521697998047,-3.1372478008270264,7.083423614501953
14.414226531982422,-3.700124502182007,4.256772518157959
19.508852005004883,2.4018454551696777,0.1487908959388733
13.342035293579102,2.2886526584625244,-0.8374398946762085
13.250710487365724,4.518185615539551,-1.630945920944214
11.762968063354492,3.295510053634644,-0.6383110284805298
8.665290832519531,1.800746202468872,0.8369267582893372
5.325239658355713,2.381509304046631,3.4040095806121826
-0.3100929856300354,1.1562278270721436,5.19780158996582
-7.193922996520996,-4.979730129241943,-3.676147937774658
-8.371036529541016,-8.373520851135254,-10.265777587890623
-7.299610137939453,-0.773348867893219,-0.8665435314178467
-10.664177894592283,4.441051483154297,0.8816903829574585
-11.286993980407717,-1.2025246620178225,-2.356135845184326
-11.149518966674805,-1.934057712554932,0.3075694143772125
-10.509862899780272,-2.036646604537964,-0.0710582211613655
-8.921894073486328,0.0684366002678871,1.7100192308425903
-9.474297523498535,-0.4391387701034546,3.095346689224243
-10.584088325500488,-4.14443302154541,-8.942172050476074
3.216327428817749,0.2499956488609314,-11.352738380432127
11.675779342651367,6.6489577293396,10.683134078979492
6.782139778137207,1.0397783517837524,1.992806434631348
15.891169548034668,2.9244961738586426,0.8201794624328613
16.948190689086914,0.0103549677878618,-0.9003127217292786
13.048772811889648,-1.0934020280838013,-0.2857000529766083
12.082639694213867,-0.2657084167003631,1.5186156034469604
9.53788948059082,0.2116564214229583,1.7746357917785645
5.59310245513916,1.2044998407363892,2.3026058673858643
1.9894006252288816,3.2970595359802246,4.9010419845581055
-5.483534812927246,-1.009232759475708,-0.7809807062149048
-9.369477272033691,-7.257488250732422,-8.584988594055176
-7.493380069732666,-3.9618980884552,-4.955221176147461
-9.15123176574707,4.371737957000732,1.4662514925003052
-11.793170928955078,2.481200933456421,-0.1645610630512237
-11.315555572509766,-2.2329964637756348,1.308090329170227
-10.781025886535645,-3.3319766521453857,1.2511323690414429
-9.019573211669922,-1.1275813579559326,-0.4009544849395752
-8.861181259155273,0.0553616024553775,0.8862805366516113
-9.885472297668455,-3.923668146133423,-12.556196212768556
1.9926390647888184,-0.5190221071243286,-9.28250789642334
8.639617919921875,2.595625877380371,10.301643371582031
6.601002216339111,1.5524835586547852,2.3361823558807373
21.11473846435547,6.389084339141846,1.9478498697280884
16.363258361816406,1.662598967552185,-0.9655424356460572
14.635919570922852,0.4974539577960968,0.1179137378931045
13.633105278015137,1.7750579118728638,2.0322108268737797
8.34939193725586,0.387067049741745,1.616266846656799
5.1298017501831055,1.0712798833847046,2.4121718406677246
1.16085946559906,1.1714236736297607,3.852471828460693
-5.793811321258545,-4.447762489318848,-3.0191125869750977
-7.960396766662598,-8.851609230041504,-8.398930549621582
-9.536331176757812,-2.44622540473938,-0.3962114453315735
-12.28951644897461,5.387381553649902,4.316152095794678
-10.82418727874756,3.0883562564849854,3.2585878372192383
-10.485834121704102,-2.392369747161865,2.7528886795043945
-10.75002384185791,-3.6184840202331534,-1.3848235607147217
-9.23784065246582,-0.0176965184509754,-3.940863847732544
-9.112051010131836,-0.2469359338283538,-5.175135135650635
-10.388766288757324,-2.096902370452881,-17.538433074951172
1.547931432723999,5.979315757751465,-2.7428712844848637
8.03622817993164,4.685236930847168,11.128405570983888
4.941978931427002,-0.1911352574825287,-0.1641445159912109
16.780929565429688,-1.5963773727416992,2.1641733646392822
14.826617240905762,-2.847572088241577,0.964495062828064
13.646706581115724,-0.284948468208313,-0.0950247049331665
11.856874465942385,2.5318851470947266,-1.8366155624389648
10.107610702514648,3.139747142791748,-1.709484577178955
7.078407764434815,2.4570374488830566,-0.2557510435581207
4.4128618240356445,1.7459769248962402,1.2082587480545044
0.7387787699699402,1.2225699424743652,5.9024271965026855
-5.843145370483398,-4.303694248199463,-3.9513096809387207
-8.240190505981445,-7.326205730438232,-11.344709396362305
-7.978432178497314,-1.2619709968566897,-6.865542411804199
-9.531591415405272,2.581629037857056,-2.7876827716827397
-11.266590118408203,1.33564555644989,-2.482753276824951
-10.755502700805664,-2.647670269012451,-1.106075406074524
-10.05990505218506,-1.964703917503357,0.8076413869857788
-8.983648300170898,1.3847315311431885,2.6742753982543945
-9.636024475097656,3.6850645542144775,5.735447406768799
-10.314321517944336,-2.291099071502685,-4.150977611541748
-0.6729129552841187,-1.1142830848693848,-10.477459907531738
11.492231369018556,2.1527533531188965,10.236658096313477
6.597750663757324,-3.733814477920532,5.271790981292725
17.39116668701172,1.6230286359786987,4.462317943572998
16.948728561401367,2.727803468704224,-1.6276105642318726
11.946303367614746,1.931776762008667,-1.1528276205062866
11.52949333190918,4.13518762588501,-0.966767430305481
10.025153160095217,2.5946500301361084,0.2250791043043136
6.055596828460693,1.0339908599853516,0.7180268168449402
2.503530979156494,1.5533530712127686,3.1619834899902344
-2.511157751083374,-1.2913672924041748,1.8123916387557983
-7.744503498077393,-5.29238748550415,-7.477481365203857
-8.022309303283691,-5.19703483581543,-9.79885196685791
-8.842219352722168,1.1853030920028689,-3.331327199935913
-10.474061965942385,1.485516905784607,-2.8244824409484863
-10.385197639465332,-1.7876983880996704,-1.719630479812622
-9.703256607055664,-1.2295292615890503,0.5117077827453613
-8.224377632141113,0.3071023821830749,3.019127607345581
-8.57953929901123,0.870455801486969,7.541240692138672
-10.965871810913086,-2.5361521244049072,-2.326457023620605
-4.727890968322754,1.128948450088501,-13.459254264831545
9.33520793914795,1.772903561592102,7.317853450775146
4.1072998046875,-3.0512523651123047,3.7803053855896
13.035764694213867,0.9329580664634703,5.308968544006348
17.511669158935547,1.3453433513641355,-0.7628495693206787
13.32668399810791,2.014647483825684,0.099756121635437
13.059016227722168,2.408907413482666,-0.0907219648361206
11.316657066345217,2.65349555015564,0.9409898519515992
6.794702529907227,0.7645297050476074,0.211967721581459
3.233254194259644,1.2466214895248413,0.9452168941497804
-1.2457284927368164,1.0990225076675415,2.419295310974121
-7.595768928527832,-3.556473970413208,-3.6189043521881104
-8.327474594116211,-6.707904815673828,-7.759964942932129
-6.677326679229736,-0.1861343532800674,-0.5884047746658325
-9.458474159240724,3.469246387481689,1.1364396810531616
-10.57269287109375,-1.613866925239563,-0.508916974067688
-10.321741104125977,-3.29436993598938,2.6273739337921143
-9.634395599365234,-2.8309783935546875,0.4356267154216766
-8.362003326416016,0.1188776269555091,1.2113755941390991
-8.209013938903809,1.9225168228149412,3.8158771991729736
-6.87987232208252,-6.747117519378662,-14.028729438781738
6.976415157318115,0.8639262914657593,-3.487053871154785
11.200431823730469,4.668834686279297,7.57451057434082
9.944365501403809,2.9420201778411865,1.7263590097427368
18.18997001647949,4.642302513122559,0.9889962077140808
14.476781845092772,1.1520655155181885,0.1967287957668304
12.25563621520996,1.2616708278656006,0.7475261688232422
10.167780876159668,0.8464154601097107,1.9165517091751096
6.603251457214356,-0.2591930627822876,2.322556734085083
3.2330050468444824,-0.0250019505620002,3.2616097927093506
-2.1935794353485107,-1.0827332735061646,3.078847646713257
-8.074721336364746,-7.946353912353516,-7.484447002410889
-8.006193161010742,-5.927879333496094,-4.295172214508057
-9.759628295898438,3.941924333572388,4.393928050994873
-11.94887351989746,3.5619168281555176,1.588670253753662
-10.481592178344728,-1.817071318626404,1.028122067451477
-10.039427757263184,-2.7573938369750977,-1.980298638343811
-9.152400970458984,-0.8084743022918701,-4.690405368804932
-8.915319442749023,-0.2345501482486724,-2.331756591796875
-8.959585189819336,-2.3577804565429688,-5.723169326782227
-4.665954113006592,0.2584416270256042,-11.61160945892334
6.99020528793335,4.379137992858887,5.039285659790039
5.591010570526123,-0.8693202137947083,2.93184232711792
14.159660339355469,2.1914899349212646,2.5875372886657715
17.42913055419922,1.7229090929031372,-0.5956615209579468
13.999066352844238,1.8492101430892944,-0.2917829751968384
13.915000915527344,2.568731546401977,-0.5045175552368164
10.521138191223145,2.2262678146362305,-0.0861232802271843
5.769394397735596,1.2747262716293335,-0.7316993474960327
2.887855291366577,1.1098366975784302,1.0509885549545288
0.2277678698301315,0.5926884412765503,4.77234411239624
-5.730418682098389,-5.521668434143066,-5.8688273429870605
-7.779144763946533,-7.899023532867432,-12.144948959350586
-8.767557144165039,-0.8937523365020752,-5.698995590209961
-10.565958023071287,2.68345046043396,-1.996752381324768
-11.147605895996094,0.7363797426223755,-2.1092565059661865
-10.828092575073242,-2.8013598918914795,0.0122200772166252
-10.076327323913574,-0.7275295257568359,2.2941906452178955
-8.88169002532959,2.4074583053588867,3.766468048095703
-9.01325798034668,2.433985471725464,4.838009834289551
-10.27615737915039,-2.2205350399017334,-4.766104221343994
1.3654098510742188,-5.929373741149902,-9.45999240875244
13.427728652954102,3.6007840633392334,10.517922401428224
9.065970420837402,3.40444278717041,3.462656259536743
17.470897674560547,5.954067230224609,1.5499850511550903
15.09218406677246,1.5446641445159912,-3.304973602294922
12.101027488708496,-0.0449025072157382,-1.8486592769622805
12.263886451721191,2.1228485107421875,1.1365259885787964
8.26111888885498,0.5108062624931335,-0.2528184056282043
5.988157749176025,1.478915095329285,1.070499062538147
2.156425952911377,2.119670391082764,3.1051087379455566
-3.5743415355682373,-1.4349688291549685,1.154499888420105
-9.351614952087402,-6.115444660186768,-8.406936645507812
-9.16030502319336,-4.218647480010986,-8.634092330932617
-8.987519264221191,1.0902392864227295,-0.8455523252487183
-11.33830451965332,1.0170810222625732,-0.6977647542953491
-10.747075080871582,-0.5925999879837036,-0.2826571464538574
-10.22076416015625,-0.2030957788228988,2.201831817626953
-9.328075408935549,1.2297226190567017,2.405137538909912
-9.822624206542969,0.1394229978322982,4.09677267074585
-8.566795349121094,-5.608074188232422,-12.940762519836426
4.781953811645508,0.0373644866049289,-2.549476861953736
5.592655181884766,-1.9477943181991575,9.941876411437988
9.683317184448242,0.4266504645347595,4.755762577056885
19.10552978515625,4.181613922119141,-1.2749000787734983
15.25589656829834,1.7947804927825928,-1.0343223810195925
14.880841255187988,2.268686532974243,-0.739130437374115
13.194453239440918,1.924394488334656,1.5382574796676636
7.895792484283447,-0.062464565038681,1.5966451168060305
4.463627338409424,0.855943500995636,1.518073558807373
0.467290312051773,1.8549087047576904,4.490713596343994
-6.818309783935547,-3.050941467285156,-2.546300172805786
-9.063321113586426,-7.759429931640625,-8.946142196655273
-6.913076877593994,-3.149211406707764,-3.582634210586548
-9.730731964111328,5.897065162658691,1.5205490589141846
-11.253374099731444,0.5685778260231018,-1.5328903198242188
-11.328142166137695,-4.245694637298584,0.1482886523008346
-10.712813377380373,-5.120022296905518,-0.8638952970504761
-8.86133861541748,0.2573984861373901,-0.9462325572967528
-8.680672645568848,2.003364086151123,2.230545997619629
-9.617182731628418,-1.905777931213379,-7.180054664611816
2.3899624347686768,-4.959931373596191,-9.913846015930176
11.002968788146973,3.674114227294922,9.718360900878906
8.763996124267578,5.664402961730957,2.4875974655151367
19.226470947265625,9.048962593078612,0.9368232488632202
16.323232650756836,0.9123495221138,-2.0720114707946777
13.274022102355955,0.1408951729536056,-1.142380714416504
11.985173225402832,0.9191197752952576,1.0795817375183103
8.215781211853027,0.004003913141787,1.2758560180664062
5.743139743804932,0.98189377784729,2.180683851242065
1.2773158550262451,1.1632671356201172,3.0537242889404297
-5.512863636016846,-4.527904510498047,-3.706264734268189
-7.289801120758057,-7.914205074310303,-9.900532722473145
-8.658591270446777,-0.1106023788452148,-1.9782639741897583
-12.50981330871582,7.162637233734131,2.0393309593200684
-12.266048431396484,3.3313825130462646,1.266207933425903
-11.371881484985352,-2.988347291946411,1.674576997756958
-10.68083381652832,-4.760045528411865,-0.1074446216225624
-9.766454696655272,-2.301919221878052,-1.181585431098938
-9.538314819335938,0.2569963037967682,-0.4287938475608825
-9.860089302062988,-5.026095390319824,-10.34717082977295
-1.952668309211731,-2.3220157623291016,-9.145638465881348
12.118531227111816,6.529814720153809,9.963770866394045
4.806258678436279,5.51792573928833,0.3790157437324524
15.084497451782228,4.506874561309815,-0.2908041477203369
17.115564346313477,-2.0022480487823486,-1.2297427654266355
15.436525344848633,-2.4068679809570312,0.7680085301399231
14.352910041809082,1.035112977027893,2.0090620517730717
10.85713005065918,1.019533634185791,0.1911024004220962
7.293829441070557,2.2951409816741943,0.9981380701065063
3.52420711517334,2.529593706130981,2.442126512527466
-1.9475139379501345,1.5083951950073242,4.550904750823975
-9.367862701416016,-5.604490280151367,-6.67791223526001
-9.262640953063965,-8.195813179016113,-11.659595489501951
