Acc_X,Acc_Y,Acc_Z
5.3678131103515625,1.93800950050354,7.007563591003418
1.1563464403152466,-4.227898120880127,-2.052719831466675
-1.6097453832626345,0.4190965890884399,-9.93487548828125
1.5814281702041626,1.2155746221542358,-4.135363578796387
4.884288787841797,1.2926290035247805,4.03546953201294
1.940021276473999,-1.1422786712646484,-0.796816885471344
0.7371501326560974,-0.899741530418396,-4.219902038574219
2.3015458583831787,0.3014879822731018,-0.1475326418876648
4.74183988571167,-0.4423146247863769,0.6828879714012146
5.484750270843506,-0.5463418960571289,-1.7501970529556274
5.859146595001221,0.0154028171673417,-2.749849796295166
6.977655410766602,2.7733089923858643,-2.0067477226257324
8.742432594299316,2.641447067260742,0.6228165626525879
10.065744400024414,1.6298092603683472,4.551335334777832
8.499529838562012,0.962959349155426,7.943225860595703
2.208329916000366,-1.6772583723068235,7.172407627105713
-5.000826358795166,-3.37271499633789,0.4661624431610107
-5.661309719085693,0.616184651851654,-1.8138647079467771
-6.860891342163086,-1.0380847454071045,-4.978021621704102
-10.007416725158691,-0.4502722322940826,-9.519805908203123
-14.612997055053713,6.05806303024292,-0.3153916299343109
-16.974225997924805,6.83003568649292,12.801092147827148
-16.797229766845703,-0.1067362427711486,17.028886795043945
-6.434532642364502,-25.52250289916992,-57.41521072387695
5.80432653427124,10.001413345336914,12.706329345703123
11.953227043151855,-1.5248725414276123,9.469712257385254
18.964845657348636,-4.8225603103637695,0.9165409803390504
18.279916763305664,6.925565719604492,3.2787482738494877
12.480815887451172,5.262526988983154,5.19891357421875
-4.375131607055664,-1.815662741661072,-9.71852207183838
-5.693286895751953,-2.6006696224212646,-10.182146072387695
5.8042426109313965,-4.330251216888428,-4.259776592254639
8.63004207611084,1.0764966011047363,-2.4190683364868164
8.287643432617188,4.630122184753418,0.288844496011734
6.30681037902832,2.300637006759644,-0.5004932284355164
7.500232219696045,3.546083211898804,-0.5907332897186279
8.67929458618164,4.2599406242370605,5.074535846710205
2.337898015975952,-0.1421785652637481,4.303952693939209
-7.18394136428833,-4.616845607757568,-4.037937641143799
-10.31067943572998,-5.159851551055908,-13.84213161468506
-8.717194557189941,-6.9898362159729,-10.73697280883789
-9.807294845581056,-4.242827892303467,-0.8995069265365601
-12.611612319946287,-1.703112006187439,9.706191062927246
-14.26562213897705,2.4797072410583496,11.61357593536377
-11.61527156829834,1.912598729133606,7.387003421783447
-5.670644283294678,-6.419217109680176,-19.663509368896484
9.141629219055176,0.8511490821838379,12.371835708618164
33.59392547607422,8.56820011138916,19.003665924072266
23.32063865661621,14.86910343170166,11.452582359313965
3.4736812114715576,-1.6307191848754885,-1.0860246419906616
-12.774916648864746,-7.960647583007812,-17.434452056884766
-10.222946166992188,-8.612557411193848,-17.504182815551758
8.24103832244873,-2.562614679336548,-3.7883615493774414
15.866480827331545,7.052530765533447,6.634492874145508
10.913976669311523,5.698770999908447,4.935625553131104
9.057497024536133,5.524133205413818,6.0493927001953125
4.477930068969727,3.493905067443848,10.217469215393066
-0.4432175457477569,-1.367252230644226,3.8457651138305664
-6.66858434677124,-5.460775375366211,-3.352869749069214
-8.48517894744873,-6.043670177459717,-7.93408203125
-8.199911117553711,-10.117891311645508,-3.2397990226745605
-11.61879062652588,-3.6511714458465576,4.942424774169922
-13.340333938598633,0.8382648229598999,10.208935737609863
-11.763484954833984,1.4582046270370483,2.771550416946411
-12.105546951293944,-2.344082355499268,-12.628697395324709
-1.2414541244506836,13.82682991027832,-20.60970115661621
3.325514078140259,-1.194916605949402,11.947542190551758
13.923548698425291,-3.197345733642578,3.1222493648529053
21.739234924316406,5.633583068847656,11.76388454437256
11.140941619873049,3.7011349201202393,3.925888538360596
1.4645527601242063,-2.64450740814209,-6.894529342651367
-3.957369327545166,-4.385221481323242,-11.7877197265625
2.8882594108581543,-3.030299663543701,-7.47924280166626
11.083149909973145,1.0044941902160645,-2.882123708724976
16.198200225830078,5.916442394256592,3.6411755084991455
15.971702575683594,3.6608245372772217,8.97066593170166
10.323951721191406,-0.0462987422943115,16.20746612548828
-4.682761192321777,-7.22530460357666,7.485246658325195
-6.075113773345947,-10.020116806030272,-5.35009241104126
-7.75325345993042,-9.458003997802734,-10.99424648284912
-14.213462829589844,0.2283004224300384,5.6913228034973145
-18.5452823638916,4.456546783447266,8.442394256591797
-17.463232040405273,2.566180467605591,10.67055892944336
-13.664321899414062,-1.6888495683670044,-4.823275566101074
-11.620840072631836,1.845241904258728,-8.981670379638672
-9.041621208190918,-9.705370903015137,-35.971866607666016
1.2218300104141235,7.989208698272705,-5.005321025848389
0.9143937826156616,5.140661716461182,11.552127838134766
12.965978622436523,-0.2771592140197754,0.8141615390777588
24.98827171325684,0.3571515083312988,10.16204833984375
21.85525894165039,16.013378143310547,9.827112197875977
2.9855196475982666,1.654166340827942,-6.229639530181885
-6.000489711761475,-5.691502094268799,-12.27813720703125
-0.4111977815628052,-6.298354148864746,-9.129067420959473
7.069384574890137,-1.0012394189834597,-4.056550025939941
13.696221351623535,3.5132319927215576,0.5805844068527222
15.195569038391112,4.549800395965576,6.184019565582275
4.445655822753906,4.185014247894287,2.846851587295532
-3.244473934173584,0.6809872388839722,-4.67963171005249
-6.489035129547119,1.8725184202194212,-13.592901229858398
-8.014542579650879,-3.731151342391968,-14.540492057800291
-13.37753677368164,-0.1224484220147132,-4.422766208648682
-13.956050872802734,-0.0310308896005153,3.4873170852661133
-14.82214069366455,3.8245482444763184,10.54274082183838
-13.79864501953125,0.9376614093780518,11.016736030578612
-9.572482109069824,-11.859010696411133,-0.6168025732040405
-3.2919368743896484,-3.451507091522217,-13.188028335571287
2.564626216888428,-1.0674210786819458,8.175751686096191
5.645404815673828,-2.0442230701446533,11.42634391784668
16.230493545532227,-0.2390977442264557,7.776293754577637
15.943440437316896,5.3013916015625,2.982309103012085
14.52718448638916,5.694883823394775,2.8635640144348145
6.640847206115723,0.9856552481651306,-4.377231597900391
5.042791843414307,-0.8741884827613831,-5.651876926422119
7.264696598052978,-2.112771987915039,-4.0558271408081055
10.417868614196776,0.3328009843826294,-1.052645921707153
12.176576614379885,3.0556468963623047,4.823745250701904
4.523509502410889,3.611358165740967,4.637336254119873
-3.968033790588379,-0.22272589802742,0.1698286235332489
-8.23478889465332,-3.572211742401123,-6.85050106048584
-8.152438163757324,-0.307028204202652,-10.808877944946287
-6.447666645050049,-3.753289461135864,-13.946739196777344
-11.637613296508787,-1.7793796062469482,-0.0858685076236724
-14.538094520568848,-2.373553991317749,12.12928867340088
-15.002415657043455,5.066722869873047,20.09839630126953
-15.098427772521973,-1.0749530792236328,14.705016136169434
-12.681390762329102,-2.3915865421295166,-22.673002243041992
6.625260353088379,-11.988816261291504,-22.612945556640625
-2.173194169998169,-0.538818895816803,11.31923770904541
7.758326530456543,6.678872585296631,4.21349048614502
14.971322059631348,10.68799114227295,1.5506845712661743
13.7897310256958,-1.309193730354309,1.8311060667037964
18.42664337158203,-3.2689125537872314,4.576739311218262
12.09870147705078,1.6165515184402466,-2.2814908027648926
11.127477645874023,2.2858550548553467,-3.517056465148926
10.915757179260254,-0.2718040943145752,-1.552995681762695
10.97990894317627,0.3347015976905823,2.334836483001709
7.172561168670654,0.0706653892993927,5.550865650177002
2.4923598766326904,-1.0572781562805176,7.91560173034668
-5.137870788574219,-4.728107929229736,-1.7603214979171753
-8.569558143615723,-0.3219493329524994,-4.543131351470947
-11.007863998413086,-3.6600182056427,-6.3195390701293945
-13.677278518676758,1.191032886505127,3.6035830974578857
-16.94369888305664,1.701899170875549,8.168259620666504
-14.52646541595459,-1.606788158416748,7.544347763061523
-12.598331451416016,1.258109211921692,-1.8877688646316528
-11.531892776489258,-1.9562039375305176,-5.874492645263672
-9.001755714416504,-6.5577392578125,-7.3283915519714355
-1.5021259784698486,2.0320403575897217,-26.89561462402344
4.440035343170166,14.278158187866213,10.5108642578125
5.113672256469727,3.401911497116089,2.4134480953216557
12.601520538330078,-2.328298807144165,-1.7619129419326782
13.759722709655762,-3.911612272262573,2.7903945446014404
16.389984130859375,1.0096293687820437,0.2384603917598724
11.28465175628662,2.165027618408203,-3.4160914421081543
10.054567337036133,-1.2271606922149658,-4.68046236038208
10.786395072937012,-0.3885725140571594,-0.826771080493927
10.199849128723145,0.9835249185562134,-0.3266555964946747
8.51059341430664,1.4983346462249756,2.54360294342041
4.163532733917236,1.4060055017471311,3.6069183349609375
-0.3462186455726623,0.1639425754547119,5.535597324371338
-8.102570533752441,-4.120616436004639,-6.473184585571289
-10.504125595092772,-0.7500427961349487,-12.44609832763672
-9.097148895263672,-2.5545668601989746,-7.802825927734375
-14.872257232666016,2.320427894592285,4.164468765258789
-16.09835433959961,-2.364633083343506,5.734831809997559
-14.77163314819336,2.5218756198883057,9.305560111999512
-12.669652938842772,1.296499252319336,0.5824993252754211
-12.023360252380373,-1.923900842666626,-2.5854763984680176
-8.199419975280762,-9.570823669433594,-24.10020637512207
2.10458779335022,8.348343849182129,-3.643815279006958
4.13927698135376,4.528763771057129,8.515544891357422
12.21921730041504,0.4918021261692047,3.607439994812012
17.200061798095703,-6.549912929534912,4.818032741546631
19.30067443847656,0.6467126607894897,3.503765106201172
14.443312644958496,7.241844177246094,2.241976499557495
7.21640157699585,1.8391679525375368,-8.040786743164062
3.414076328277588,-2.222295045852661,-7.081118583679199
5.841500282287598,-0.3764704167842865,-3.666542053222656
10.451249122619627,1.3046317100524902,0.7619832754135132
8.953372955322266,0.8714250326156616,6.630855560302734
-1.5542062520980835,-1.2520363330841064,3.903067827224731
-5.985565662384033,-3.986817359924317,-4.699464797973633
-8.322405815124512,1.657184600830078,-10.980037689208984
-9.25705623626709,-5.819303512573242,-11.732855796813965
-12.688034057617188,-0.7517824769020081,-3.532295227050781
-13.452739715576172,-0.8118302822113037,-0.0360040664672851
-13.845393180847168,4.430099010467529,6.145262718200684
-13.101814270019531,5.20566463470459,9.567533493041992
-13.672335624694824,-1.9311201572418213,8.871575355529785
-13.29427719116211,-7.553075790405273,-12.116283416748049
4.239506721496582,-1.8093785047531128,-18.266815185546875
3.0101184844970703,3.955592632293701,9.733975410461426
8.913243293762207,1.5392807722091677,7.751158714294434
18.158655166625977,-2.9215447902679443,4.585501194000244
19.614023208618164,4.0774030685424805,4.1111602783203125
16.834157943725586,7.464701652526855,2.0929315090179443
8.373930931091309,2.110135793685913,-5.567788124084473
5.340822219848633,-1.6089906692504885,-5.905964374542236
6.870230674743652,-3.154348134994507,-3.6766233444213863
10.62917137145996,-1.7927836179733276,1.1599631309509275
9.062434196472168,1.4676536321640017,5.289435386657715
4.27332878112793,0.7234829664230347,9.85812282562256
-4.5450615882873535,-3.619110584259033,0.17340087890625
-8.21371841430664,-2.8311767578125,-7.242311000823975
-9.103729248046877,-0.7089624404907227,-12.800039291381836
-11.212827682495115,-0.7930041551589966,-5.64736270904541
-13.792402267456056,0.8881381154060364,-3.2605037689208984
-13.182799339294434,-0.1310947239398956,3.14835524559021
-13.7498197555542,1.298012614250183,11.902587890625
-13.030966758728027,-0.7479468584060669,9.936753273010254
-13.567102432250977,-1.5429236888885498,7.298136711120605
-9.142208099365234,-5.004050254821777,-35.80783462524414
8.716901779174805,0.2115009129047393,4.659151077270508
6.557871341705322,0.8343350291252136,8.702993392944336
15.58779525756836,9.598762512207031,4.71234941482544
17.57685089111328,3.4871203899383545,0.9141176342964172
14.433792114257812,-2.007202625274658,-0.5003018379211426
12.458284378051758,0.3470982909202575,-0.3563338816165924
9.731331825256348,1.2013739347457886,-3.698349475860596
9.429410934448242,-0.946868896484375,-2.017225742340088
8.090322494506836,-0.7827586531639099,1.061225414276123
5.517570018768311,-0.4486244916915893,3.4844980239868164
1.7994987964630127,-3.2691962718963623,5.888595104217529
-5.299062728881836,-6.459610939025879,1.2571238279342651
-8.833517074584961,-1.7451597452163696,-4.799262046813965
-9.774170875549316,-1.3294825553894043,-5.528045177459717
-10.263153076171877,-0.3092800378799438,-0.8499965667724609
-14.714326858520508,2.702052116394043,7.690946578979492
-15.407448768615724,2.005593776702881,12.984416007995604
-14.368654251098633,5.472841262817383,12.344073295593262
-11.286036491394045,6.100668907165527,4.087090015411377
-10.2493257522583,-5.682438850402832,-40.94830322265625
8.55726432800293,0.7334555387496948,-15.531444549560549
-3.4073421955108643,10.32791805267334,16.516508102416992
2.675081253051758,2.1747965812683105,-6.801475524902344
2.156056404113769,-8.64161491394043,-4.400750160217285
21.91453742980957,-11.280245780944824,9.108766555786133
26.99186134338379,11.197674751281738,10.391729354858398
13.20933437347412,4.313175678253174,-3.6212892532348633
8.516918182373047,-1.4543052911758425,-5.332789421081543
8.049277305603027,2.28147554397583,0.1558463275432586
9.291505813598633,1.0265473127365112,2.047869205474853
4.3989763259887695,-0.1702835708856582,2.8119986057281494
-3.7320826053619385,-4.420003414154053,0.9172176122665404
-6.865432262420654,-7.940248012542725,-6.264369964599609
-8.016236305236816,-3.692784070968628,-9.53195095062256
-8.756452560424805,-3.676414728164673,-7.134865760803223
-12.553267478942873,2.424840211868286,2.312208652496338
-14.133915901184082,-0.2331880182027816,2.362443447113037
-14.143804550170898,1.3129884004592896,7.145313739776611
-12.14953327178955,4.465987205505371,7.318235874176025
-11.651972770690918,0.1871428340673446,-0.2984309494495392
-8.042238235473633,0.5966345071792603,-18.709980010986328
3.5991530418396,1.5397791862487793,-3.930143594741821
4.177241802215576,-2.283374309539795,10.84458065032959
14.578556060791016,4.815107345581055,4.740443706512451
15.555235862731934,0.483297199010849,0.9293967485427856
15.466694831848145,0.7616990208625793,1.8431388139724727
13.799562454223633,1.436113715171814,2.178645133972168
11.503491401672363,2.754156827926636,-0.6764470338821411
8.331094741821289,1.9738825559616089,-2.6572890281677246
5.132641792297363,0.0400592871010303,0.5437930226325989
3.27667498588562,-1.8281916379928589,4.173396110534668
-4.766596794128418,-5.607902526855469,-2.824225187301636
-7.050239562988281,-2.9426348209381104,-6.360232830047607
-7.938246250152588,0.4090409576892853,-7.418859958648682
-10.50536060333252,4.615989208221436,-3.926405191421509
-15.420515060424805,4.217240810394287,0.4554574489593506
-16.598783493041992,0.8862015604972839,5.313313007354736
-15.152225494384766,2.938071012496948,7.1275835037231445
-13.19232177734375,3.429628372192383,5.158172130584717
-10.478755950927734,-5.325218677520752,-8.463605880737305
1.72100830078125,-15.881349563598633,-26.56954002380371
2.678776979446411,0.1114526540040969,14.12893772125244
3.820505142211914,5.433142185211182,9.395160675048828
14.703217506408691,6.173264503479004,1.6851279735565186
13.94442367553711,0.2795328199863434,0.4054624736309051
15.3410005569458,0.7328982949256897,1.5505014657974243
8.327258110046387,-0.6289217472076416,-2.593306541442871
5.02798318862915,-1.0602991580963137,-5.965213298797607
6.373074531555176,-2.321838855743408,-4.994647026062012
12.181052207946776,0.2691487073898315,0.9296932220458984
8.36129093170166,1.889976024627685,5.160433292388916
-0.5576218366622925,-1.684922695159912,-1.319909691810608
-5.585999488830566,-2.3402490615844727,-3.37709641456604
-6.365680694580078,1.027937650680542,-11.795352935791016
-6.4730143547058105,1.968731164932251,-10.937042236328123
-10.774442672729492,-0.5229063034057617,-5.291778087615967
-14.263025283813477,0.0573996901512146,5.114020824432373
-15.00405216217041,9.111929893493652,9.23118019104004
-12.791175842285156,4.343077182769775,10.01678466796875
-10.119799613952637,0.5905970931053162,8.576355934143066
-3.0379467010498047,-20.21182632446289,-21.872896194458008
3.1219911575317383,-0.1960680782794952,9.309226989746094
3.3507237434387207,2.961636543273926,9.50007152557373
11.69081687927246,1.070536732673645,6.500734329223633
14.982075691223145,5.096098899841309,3.56787371635437
10.162320137023926,2.2360610961914062,-1.3099381923675537
5.403656959533691,-2.600510835647583,-4.3705034255981445
4.974364757537842,-2.1518354415893555,-3.786144495010376
9.604896545410156,0.5613722801208496,-0.7282690405845642
11.928138732910156,2.1355276107788086,2.5269291400909424
10.058865547180176,3.3819522857666016,4.62956428527832
6.871692180633545,2.610022783279419,5.170332431793213
1.4665464162826538,0.0621796622872352,7.948151111602783
-4.5598015785217285,-3.737983942031861,-1.6424932479858398
-7.17540168762207,-3.4478020668029785,-6.560792922973633
-9.25620174407959,-3.2824769020080566,-6.7716474533081055
-11.916614532470703,0.1879540234804153,1.0914298295974731
-13.453042984008787,-0.3391631543636322,1.750061273574829
-13.708932876586914,-2.8338377475738525,4.858453273773193
-12.632813453674316,-1.699296236038208,7.980565547943115
-11.429409980773926,-2.799078226089477,-0.6821897029876709
-7.315712928771973,0.4856063723564148,-36.48204040527344
1.6274616718292236,7.165350437164307,10.155339241027832
1.723510503768921,0.5737934708595276,4.726461410522461
11.473413467407228,6.902581691741943,4.651020050048828
14.653608322143556,-0.9538611769676208,2.276334047317505
15.425548553466797,-1.8988845348358157,4.3951520919799805
12.153093338012695,2.545064687728882,1.3885746002197266
8.851318359375,2.095534324645996,-4.145132541656494
7.500707626342773,-0.5544884204864502,-3.596993923187256
8.363485336303711,-0.3517385721206665,-0.4583744704723358
7.149020671844482,0.6154547929763794,3.793241024017334
0.7245753407478333,-1.1552120447158811,3.0692200660705566
-2.840282917022705,-3.971156120300293,-1.9933221340179443
-5.40855598449707,-0.4569595158100128,-6.783807754516602
-8.03316879272461,-0.8546557426452637,-2.79475736618042
-13.414023399353027,2.209892511367798,3.2503209114074707
-14.200647354125977,-1.403089165687561,3.290006160736084
-12.543734550476074,-1.2336537837982178,8.548717498779297
-10.215242385864258,0.6065751314163208,4.618936061859131
-9.624467849731444,-1.8242779970169067,0.5078046321868896
-9.989334106445312,-5.217560291290283,-4.213811874389648
-4.127506256103516,-5.792519092559815,-28.77553939819336
6.343625545501709,13.753314971923828,9.762563705444336
6.488661766052246,4.037457466125488,8.214035034179688
16.20850944519043,5.467679500579834,-1.2442615032196045
14.542049407958984,-3.4243476390838623,-0.003807820379734
16.059017181396484,-1.960345983505249,3.0397231578826904
18.49201202392578,0.5811920762062073,5.508906364440918
18.26931381225586,3.087705373764038,9.509737968444824
9.981511116027832,3.02372145652771,8.190820693969727
-1.8291208744049072,0.4451746046543121,0.7886058688163757
-11.395651817321776,-2.1505894660949707,-12.144929885864258
-12.31425952911377,1.6801369190216064,-12.919807434082031
-12.325233459472656,-1.7060222625732422,2.4491426944732666
-13.404125213623049,3.249058485031128,4.059327125549316
-12.53468132019043,0.7309306859970093,-2.695244550704956
-12.657907485961914,-0.2328266352415084,-2.112830400466919
-11.5969877243042,-1.5561339855194092,-3.923215866088867
-10.634450912475586,-1.1827507019042969,-1.8010742664337158
-10.352864265441896,-2.6882224082946777,1.1935712099075315
-5.057567596435547,0.7857886552810669,-19.9912166595459
6.331879138946533,2.397343397140503,6.180965900421143
5.799603462219238,-2.6910111904144287,4.639843463897705
18.04732894897461,0.6493796110153198,6.507602691650391
16.60579490661621,1.7707140445709229,3.2589433193206787
10.724468231201172,1.8229674100875852,-2.1179802417755127
1.5252437591552734,-0.5209947228431702,-7.337817668914795
-1.1015866994857788,-3.926316022872925,-7.7654709815979
3.7236249446868896,-2.41176438331604,-5.8323259353637695
10.888587951660156,1.735335350036621,-0.1231164336204528
13.885427474975586,2.314643144607544,4.988302230834961
2.9757511615753174,1.552707314491272,2.129068374633789
-5.139566898345947,-1.2456269264221191,-1.623157978057861
-6.928893089294434,1.1885217428207395,-6.741729259490967
-4.761598587036133,-2.763835906982422,-16.069278717041016
-8.25853443145752,-0.3436717987060547,-6.960937023162842
-11.43813133239746,-1.7536581754684448,0.5843335390090942
-13.755738258361816,2.4379000663757324,12.696012496948242
-15.152183532714844,5.325246334075928,11.280014038085938
-11.44637393951416,-3.1566240787506104,11.750179290771484
-4.773085594177246,-13.08336353302002,-17.544179916381836
7.609586715698242,0.2950762510299682,-0.5541693568229675
4.299320220947266,2.01893949508667,13.62646198272705
11.358025550842283,4.697843074798584,7.134398460388184
13.74341869354248,5.90306568145752,-0.195216491818428
7.549546241760254,1.839242696762085,-2.27767276763916
5.588417530059815,-1.6858118772506714,-1.107083082199097
4.727767467498779,0.0791609734296798,-3.596067428588867
8.496344566345215,1.8626694679260252,-2.411933422088623
10.944313049316406,1.5216381549835205,0.6048476696014404
11.06126594543457,2.318844079971313,5.55844783782959
5.129307270050049,0.432219535112381,5.833779335021973
-2.5974292755126958,-4.568930149078369,-0.4646314680576324
-5.5074310302734375,-4.5725202560424805,-4.452032089233398
-6.363007545471191,-3.468984365463257,-8.91689682006836
-10.730635643005373,-0.4770251810550689,-3.2833499908447266
-13.67158031463623,-1.8347506523132324,-0.2158323228359222
-13.943621635437012,2.0049848556518555,5.989930152893066
-12.735551834106444,3.127614736557007,9.076048851013184
-10.1503324508667,-3.6936421394348153,5.399961948394775
-8.704194068908691,-5.031972408294678,-20.2120418548584
1.1460809707641602,1.2852401733398438,-6.226991176605225
0.8079390525817871,4.343103408813477,8.138946533203125
7.511953353881836,5.794364929199219,4.926236629486084
15.911287307739258,1.6157439947128296,3.635585784912109
18.77816772460937,3.419205665588379,9.58469009399414
10.174522399902344,2.6374433040618896,0.375854879617691
2.875032424926758,-0.7470062971115112,-8.395757675170898
3.703429698944092,-4.020211219787598,-6.953044891357422
8.578150749206543,-1.0441666841506958,-1.80974805355072
11.98287296295166,2.930410623550415,2.764925479888916
10.864766120910645,2.202167510986328,5.623873233795166
5.17018461227417,0.5337673425674438,8.284456253051758
-2.136042594909668,-3.181828260421753,0.2711301743984222
-6.093254089355469,-0.8443641066551208,-3.4418280124664307
-9.13762664794922,-1.5680549144744873,-5.6118268966674805
-12.25348663330078,-3.599600315093994,-0.7617014646530151
-15.171308517456056,0.0787011608481407,6.179084777832031
-13.485650062561035,-0.2133482694625854,7.084815979003906
-11.021657943725586,-0.960402011871338,3.117895126342773
-9.995635032653809,-2.2591235637664795,-3.246962547302246
-10.141812324523926,-1.773918628692627,-17.984262466430664
-1.858333706855774,1.0072976350784302,-18.03702735900879
2.363218069076538,7.577116966247559,13.275132179260254
7.015446186065674,2.196278810501098,5.1367506980896
14.52311897277832,-1.0732619762420654,0.0033433139324188
14.250580787658691,-1.823767900466919,4.654012680053711
13.883995056152344,2.888271808624268,0.842598021030426
7.272566318511963,1.8532053232192995,-4.833620548248291
4.791112899780273,-1.7046579122543335,-7.938577651977539
8.161306381225586,-1.320136547088623,-2.530383586883545
11.5857515335083,0.8622742891311646,1.4433947801589966
10.312826156616213,2.944925546646118,4.754395961761475
4.890292644500732,3.0621256828308105,8.111976623535156
-5.471084117889404,-0.8139503598213196,0.7225819230079651
-8.510748863220215,-2.5425045490264893,-5.52772331237793
-9.395062446594238,1.760814905166626,-7.167191982269287
-10.598666191101074,0.5341347455978394,-4.180620670318604
-15.390117645263672,2.0377132892608643,3.0955028533935547
-14.780632019042969,-2.490588426589966,4.7480340003967285
-13.60277271270752,-2.2812020778656006,8.551385879516602
-11.67545223236084,-1.2765226364135742,2.791914224624634
-9.90394401550293,-9.054861068725586,-22.693151473999023
3.136713981628418,0.1832713782787323,-14.167405128479004
4.173094272613525,7.513045310974121,11.045328140258787
4.990898609161377,7.467747211456299,0.6725507378578186
12.433516502380373,-2.40624475479126,-0.6375401616096497
19.30118179321289,-5.81154203414917,6.248562812805176
17.71854019165039,4.982291221618652,3.438098907470703
9.999821662902832,3.2343013286590576,-5.522698402404785
7.231388092041016,-2.2037034034729004,-5.482858180999756
7.673905372619629,-0.3764466047286987,-2.4183571338653564
8.162903785705566,0.993342101573944,0.5384072661399841
6.7510833740234375,-0.6199678778648376,5.207157611846924
-2.0611772537231445,-1.9961153268814087,2.261727809906006
-6.143725395202637,-4.354805946350098,-5.389840602874756
-8.629472732543945,1.4509012699127195,-9.962409019470217
-9.993060111999512,-2.915069341659546,-10.610621452331545
-13.156149864196776,-1.917286992073059,-3.966371774673462
-13.725578308105469,-2.4754598140716557,0.977602481842041
-12.757822036743164,1.948318600654602,4.108489036560059
-12.622353553771973,2.9923970699310303,5.719707012176514
-12.167291641235352,1.0971559286117554,6.5505571365356445
-4.829160690307617,-6.236915111541748,-20.306381225585938
4.900582313537598,5.027227401733398,4.738979339599609
6.004245758056641,3.54939341545105,7.154860973358154
14.15014362335205,2.950814008712769,7.223142623901367
17.218320846557617,-0.8193098902702332,0.5327156782150269
15.787859916687012,0.7507069110870361,1.4854528903961182
11.495641708374023,4.612916469573975,-1.3791590929031372
8.032069206237793,1.4575337171554563,-4.912247180938721
5.774752616882324,-2.3912394046783447,-4.384683609008789
6.851260185241699,-0.8053698539733887,-1.17602276802063
6.782714366912842,0.093482494354248,1.5046451091766355
4.474967956542969,-0.5545024275779724,5.8106536865234375
-4.0503692626953125,-2.706816911697388,0.6401469111442566
-7.1693196296691895,-3.7741129398345943,-5.351214408874512
-8.79245662689209,1.615963101387024,-6.028045177459717
-9.568345069885254,-1.48151695728302,-8.350555419921875
-11.93592357635498,0.4737299084663391,-3.0987420082092285
-13.055904388427734,-0.7670108675956726,1.2337112426757812
-12.81487274169922,3.949676513671875,6.63649845123291
-11.207293510437012,4.287646293640137,8.088395118713379
-8.68722152709961,-5.73257303237915,-13.610672950744627
1.6430846452713013,-1.1093661785125732,-5.15198278427124
4.6409220695495605,1.1152851581573486,6.344521999359131
7.505727291107178,1.4012911319732666,8.05250358581543
14.690160751342772,0.6656150817871094,0.6585294008255005
13.520010948181152,0.234130859375,0.852881669998169
14.01053237915039,2.077910184860229,-1.603384256362915
13.179399490356444,2.6601133346557617,-1.952616572380066
13.518364906311035,1.6242820024490356,-0.1275186091661453
11.945113182067873,1.3059335947036743,1.8414831161499023
7.413119316101074,2.241274833679199,3.679809093475342
3.1311264038085938,1.0892454385757446,6.45709228515625
-5.05300760269165,-4.279477119445801,-1.967639446258545
-8.677968978881836,-5.680394649505615,-7.979540824890137
-9.998224258422852,-0.9729517698287964,-5.791655540466309
-11.215027809143066,0.2984924614429474,-0.1381215304136276
-13.14768409729004,0.2919376492500305,2.702859878540039
-13.006036758422852,-4.724191665649414,2.326324701309204
-11.568026542663574,-2.2482235431671143,3.066128730773926
-11.283795356750488,-3.10703706741333,1.7744557857513428
-10.456603050231934,0.1764964610338211,-13.650651931762695
0.7817832827568054,0.1528517752885818,-14.258278846740724
1.6698017120361328,1.1941184997558594,8.74178695678711
9.276588439941406,5.395895481109619,2.950331449508667
17.69514274597168,5.172675132751465,0.8708161115646362
15.699005126953123,0.2461143732070922,1.437858819961548
16.77187728881836,1.3738679885864258,2.1004762649536133
12.66075611114502,2.532703399658203,-1.6899312734603882
8.832663536071777,0.8380125761032104,-3.1366677284240723
6.118176460266113,-1.5555440187454224,-0.9981775879859924
4.123035430908203,-1.364085078239441,1.8656556606292725
1.8182940483093264,-2.445855140686035,5.181535720825195
-4.635524272918701,-6.175604820251465,0.3057958483695984
-8.405722618103027,-5.578915596008301,-5.046890258789063
-9.650670051574709,0.7093003988265991,-6.223094940185547
-10.60219955444336,0.4875324964523315,-0.1865293979644775
-13.800084114074709,3.791076183319092,3.749143362045288
-13.954083442687988,0.073647990822792,6.432352542877197
-12.639094352722168,2.4326183795928955,4.878829479217529
-10.112157821655272,2.916980743408203,-3.1094002723693848
-4.936433792114258,-12.62201976776123,-30.91792869567871
3.99411940574646,8.605907440185547,10.883506774902344
4.321057796478272,3.9739840030670166,6.224867820739746
14.38757038116455,4.006903171539307,2.422948837280273
13.781322479248049,-3.804774761199951,-0.106492131948471
14.969615936279297,2.9150218963623047,0.7685941457748413
11.646222114562988,2.0032691955566406,-1.837186574935913
9.439627647399902,0.621830403804779,-5.432544708251953
9.231691360473633,0.2381314039230346,-3.5115487575531006
9.205130577087402,0.8104207515716553,0.7138199210166931
6.178698539733887,0.0622971355915069,3.777756929397583
0.9675320982933044,-1.433402180671692,6.861509323120117
-6.686869621276856,-6.249621868133545,-1.8900175094604488
-8.768720626831055,-4.239907741546631,-5.869918346405029
-10.035721778869627,-1.2211637496948242,-6.777700424194336
-12.277531623840332,-1.0350364446640017,-2.644692659378052
-14.316685676574709,2.033613920211792,3.475433588027954
-13.789371490478516,-0.5384539365768433,4.1854777336120605
-12.319421768188477,1.8682959079742432,4.013707160949707
-10.4690523147583,1.2721734046936035,-0.2038961946964264
-6.515218257904053,-7.649651050567627,-29.068601608276367
2.16900634765625,5.485769748687744,7.064621448516846
2.088294982910156,1.6685776710510254,6.579787254333496
11.279868125915527,1.5043171644210815,2.2161781787872314
13.686278343200684,-1.909071445465088,-0.3092576861381531
20.963106155395508,3.2261712551116943,3.053865432739258
15.580107688903809,5.953593730926514,0.4628916382789612
11.533380508422852,2.355185985565185,-4.448642730712891
9.952070236206056,0.4323541820049286,-1.790329098701477
8.44015121459961,0.168534904718399,0.8800604939460754
6.036632061004639,-1.4850916862487793,3.531689405441284
1.8678141832351685,-2.021216630935669,6.964242935180664
-6.764461994171143,-4.002250671386719,-1.6539838314056396
-8.963543891906738,-4.057914733886719,-8.996369361877441
-9.357295036315918,0.3962033987045288,-8.955465316772461
-11.821401596069336,1.6347737312316897,-2.537278652191162
-13.270044326782228,1.0625795125961304,-3.350458860397339
-13.110916137695312,-1.178910732269287,0.0573732703924179
-12.305018424987791,0.7115023136138916,3.9691972732543945
-10.966012001037598,-1.818759560585022,4.118403434753418
-8.588831901550293,-3.5985357761383057,-9.384220123291016
1.0924022197723389,-0.2098759710788726,-7.240166187286377
3.9632678031921382,3.433608055114746,7.036434650421143
5.402619361877441,4.339896202087402,3.4496397972106934
11.793327331542969,-1.3376675844192505,3.753331422805786
17.55366325378418,-0.3395205736160278,2.883830070495605
14.139512062072754,4.833145618438721,0.7194740772247314
6.945518493652344,3.128584861755371,-5.422887802124023
4.733655452728272,-1.1256566047668457,-6.461844444274902
7.254072666168213,-0.2979408502578735,-3.4065096378326416
11.22791576385498,1.852985143661499,2.797006845474243
7.194788455963135,1.9904332160949707,3.6509504318237305
-0.1064549461007118,-2.101243019104004,1.540031909942627
-5.619426250457764,-1.7962992191314695,-2.1800451278686523
-7.198115825653076,-0.9535502195358276,-5.451429843902588
-5.863012790679932,-6.523935317993164,-10.650390625
-10.542162895202637,-0.4565987586975097,-2.3451685905456543
-12.130661964416504,-1.8731204271316528,2.0845041275024414
-14.016586303710938,3.4801156520843506,10.584407806396484
-13.96970272064209,0.984216809272766,9.93331813812256
-13.334577560424805,-0.7544979453086853,-4.405440330505371
4.730266094207764,-4.727011680603027,-20.659717559814453
3.284069776535034,-1.5989834070205688,13.54538345336914
9.884075164794922,-0.509774386882782,5.862247467041016
16.709381103515625,6.290914535522461,2.724841833114624
14.850628852844238,4.684979438781738,3.1304943561553955
12.55223560333252,3.815020084381104,0.4208206534385681
9.198018074035645,2.2058751583099365,-3.889343738555908
7.318459510803223,-0.156390905380249,-3.2572617530822754
7.691797256469727,-0.6129069924354553,0.0855242609977722
6.324789524078369,0.3658547401428222,3.6845932006835938
1.8124605417251587,-0.6661552786827087,6.8418450355529785
-5.336928367614746,-4.119264602661133,0.9216233491897584
-8.113367080688477,-4.6407856941223145,-3.5883126258850098
-9.82235336303711,-0.2133351862430572,-3.596308946609497
-11.08031940460205,-0.6029131412506104,-3.887472629547119
-12.32142448425293,1.437679886817932,-1.275784969329834
-13.237253189086914,2.8296985626220703,2.459215879440308
-12.705533981323242,-0.4997332692146301,4.32623291015625
-12.212244987487791,-1.8683286905288696,-6.587961196899414
-1.4925835132598877,-6.781553268432617,-20.54589462280273
2.1549713611602783,4.452026844024658,10.787652015686035
6.055419445037842,3.6887965202331534,4.211602210998535
9.912603378295898,4.491118431091309,-2.010045528411865
9.68726921081543,-3.0585052967071533,4.150228023529053
17.205440521240234,3.857413053512573,3.3928122520446777
10.53019905090332,2.8864500522613525,-1.85574471950531
7.768138885498047,-0.6079190373420715,-5.208786010742188
8.17724895477295,-2.1025993824005127,-2.922905206680298
11.485391616821287,0.1247662529349327,0.5806670784950256
10.019231796264648,1.7150959968566897,3.5446970462799072
5.5480170249938965,0.6748855710029602,7.695518970489502
-4.329582691192627,-2.8200387954711914,0.7857325673103333
-8.781914710998535,-6.23008394241333,-8.310066223144531
-9.375584602355955,0.3742023110389709,-6.062506198883057
-11.477715492248535,0.616358757019043,4.02142858505249
-12.615736961364746,-0.1094954684376716,1.9845943450927732
-12.105634689331056,-1.2040884494781494,4.694002151489258
-10.844301223754885,-0.6271193623542786,-1.4413659572601318
-11.486541748046877,-5.2054443359375,-3.215547800064087
-10.668211936950684,-1.4629848003387451,-5.14876127243042
-1.4704753160476685,4.520582675933838,-18.20749282836914
3.1144027709960938,6.8348069190979,7.695852756500244
3.132378339767456,-0.8827135562896729,5.376414299011231
14.949926376342772,-3.908144474029541,2.1771585941314697
15.95168113708496,0.1986475884914398,5.473559856414795
15.544059753417969,5.758086681365967,0.8004964590072632
9.26934051513672,3.378687620162964,-4.682236194610596
7.522353172302246,-0.9623615741729736,-4.535055637359619
8.870607376098633,-0.2985581457614898,-1.6377137899398804
9.645586013793944,0.2230622172355651,1.2219772338867188
7.223387718200684,-0.4393794536590576,3.8159525394439697
-3.5315752029e-06,-1.376219391822815,6.378773212432861
-6.580385684967041,-5.2853546142578125,-2.13855242729187
-8.140419006347656,-1.4501930475234983,-7.936481475830078
-9.44341278076172,-0.5707113146781921,-6.966536045074463
-12.727113723754885,3.703930377960205,0.156889796257019
-13.77782154083252,0.0356004610657691,0.3993153870105743
-13.06926441192627,-0.4947985112667084,4.446866035461426
-12.003144264221191,0.7187575697898865,4.842836380004883
-10.282090187072754,-2.232978582382202,2.901824951171875
-8.775352478027344,-7.854067325592041,-26.23793601989746
2.7967679500579834,1.6269651651382446,3.225038290023804
4.107080936431885,3.862504720687866,5.705889701843262
10.39028549194336,7.997729301452637,5.6257100105285645
15.235052108764648,1.7868510484695437,-0.6186847686767578
13.048762321472168,-1.214362382888794,3.667434692382813
8.858052253723145,2.6670572757720947,-1.6470767259597778
3.7152209281921382,0.0798373371362686,-6.742379188537598
4.500144004821777,-2.272430419921875,-5.342143058776856
8.416670799255371,-1.3504233360290527,-2.0068836212158203
10.704485893249512,1.6570138931274414,0.9211825132369996
9.333328247070312,2.4385616779327397,5.049205780029297
1.2642943859100342,0.5402571558952332,6.003269195556641
-5.02042293548584,-3.359904766082764,-0.4006158411502838
-7.6917195320129395,-2.2515745162963867,-5.369997978210449
-8.809890747070312,-1.6977229118347168,-8.727054595947266
-9.5667085647583,-1.4166204929351809,-4.194017887115479
-11.291217803955078,0.2469432651996612,-2.345909595489502
-11.838698387145996,0.4115002751350403,3.69009780883789
-13.508163452148438,3.194931030273437,8.506327629089355
-12.710500717163086,2.9749722480773926,10.029595375061035
-8.677958488464355,-7.933387756347656,-27.36358070373535
3.503647327423096,0.5696736574172974,1.248643398284912
4.232999801635742,-0.6684368252754211,8.020699501037598
9.977725982666016,0.4006349742412567,8.21064281463623
17.117225646972656,0.4028362929821014,2.660101890563965
16.282072067260742,5.692444324493408,4.698657512664795
11.025781631469728,5.934407711029053,-2.3345422744750977
7.2648539543151855,1.7107746601104736,-5.773566722869873
5.337311744689941,-1.4297715425491333,-3.3569982051849365
7.481825351715088,-2.16011905670166,0.1288857012987136
8.299172401428223,-0.4975928664207458,2.9377009868621826
5.387673377990723,-0.3487826585769653,5.286614418029785
-1.8298698663711548,-1.162797212600708,3.6988253593444815
-7.108715534210205,-4.953031539916992,-3.923914670944214
-9.34977912902832,-0.1998745799064636,-6.353107452392578
-9.756206512451172,0.7438524961471558,-6.225271701812744
-10.844642639160156,1.9264949560165403,-1.5585635900497437
-12.27614974975586,1.3590770959854126,0.5562721490859985
-12.197678565979004,-0.5982844829559326,5.841983795166016
-11.567787170410156,0.061748918145895,7.726518154144287
-11.06857204437256,-1.5178298950195312,-5.05625581741333
0.317624419927597,-5.2866034507751465,-22.67245864868164
0.7536901235580444,2.31848406791687,10.730474472045898
3.116133451461792,2.827805280685425,1.5656840801239014
9.994366645812988,-0.2253941148519516,2.8368732929229736
15.24177360534668,-0.0707519128918647,1.858802795410156
16.985578536987305,3.1983792781829834,2.5705554485321045
11.62020778656006,4.661704063415527,-1.6547737121582031
9.681341171264648,0.8995611071586609,-3.170565128326416
7.860909938812256,-0.725823163986206,-1.8362178802490237
6.873664855957031,1.1962498426437378,0.6919604539871216
3.759135007858277,0.7739481329917908,2.6148436069488525
0.2392213642597198,-1.5144612789154053,4.313977241516113
-6.593827247619629,-3.5216758251190186,-1.6000972986221311
-9.192049980163574,-4.744104385375977,-6.123182773590088
-9.114078521728516,-0.2920479774475097,-4.446086883544922
-9.381071090698242,-0.9788550734519958,-3.0983424186706543
-11.39284324645996,1.4139357805252075,1.4766018390655518
-11.986486434936523,-1.9854711294174197,4.108463764190674
-11.636877059936523,-0.7390151619911194,4.778214454650879
-10.376507759094238,1.7040690183639526,1.933953166007996
-2.515340566635132,-4.193350315093994,-21.63079071044922
2.879652500152588,4.20323371887207,8.64376163482666
3.735081911087036,0.8120722770690918,1.59405255317688
10.143152236938477,1.3103491067886353,4.171260356903076
13.125370979309082,1.8343242406845093,0.5445572137832642
11.997173309326172,3.1100528240203857,-0.6523818373680115
9.78464698791504,3.138054609298706,-1.895835876464844
8.170734405517578,1.3510544300079346,-3.2414588928222656
7.9380927085876465,-0.1076561361551284,-1.535349726676941
10.05322265625,0.4315630197525024,1.7301207780838013
7.444333553314209,0.5561248660087585,3.497462511062622
3.644402265548706,-0.0825887620449066,5.573777675628662
-2.7374520301818848,-2.918298721313477,5.359875202178955
-8.388891220092773,-6.499109745025635,-3.87602162361145
-9.578817367553713,-4.977879524230957,-8.593768119812012
-10.999704360961914,-0.654088020324707,-5.382981300354004
-12.412498474121094,3.0467782020568848,2.545428991317749
-13.6939058303833,2.174966096878052,4.235390663146973
-12.90729808807373,1.0581369400024414,6.267049312591553
-10.818321228027344,2.4609086513519287,2.2535550594329834
-9.619865417480469,-2.1987180709838867,-13.88180160522461
0.7854156494140625,-4.003759860992432,-18.81015396118164
4.071229457855225,1.9155023097991943,15.509685516357422
8.157907485961914,1.5933194160461426,3.270235061645508
16.67137336730957,0.5608592629432678,1.425203561782837
15.914862632751465,3.2851576805114746,3.6508285999298096
12.440196990966797,5.910450458526611,-1.6208268404006958
7.216042518615723,-0.1974377334117889,-6.712323188781738
4.974140644073486,-2.540081739425659,-5.0113844871521
6.282641410827637,-1.9433776140213013,-2.497768878936768
6.993812561035156,-0.34323450922966,0.8158968687057495
5.608410835266113,-0.1752012521028518,5.595637321472168
-2.0267457962036133,-2.4514875411987305,3.4436352252960205
-6.665454864501953,-5.342758655548096,-4.04075813293457
-8.378944396972656,0.2259969711303711,-7.343865394592285
-8.855964660644531,-2.602252244949341,-9.10841178894043
-11.38717269897461,0.7890880107879639,-4.1577019691467285
-11.818981170654297,-0.3911909759044647,-1.857316017150879
-11.645204544067385,1.1556018590927124,5.159595012664795
-12.301626205444336,2.895644187927246,8.85811996459961
-12.269400596618652,4.052164077758789,9.095122337341309
-6.735426425933838,-4.925748348236084,-22.28824615478516
6.450675964355469,2.629892110824585,3.3587968349456787
5.82213020324707,-0.6760328412055969,4.945081233978272
10.461079597473145,1.829280972480774,5.331174373626709
17.33159828186035,2.219460248947144,-0.2129764556884765
14.610628128051758,2.167894124984741,1.1531081199645996
14.25979995727539,3.776114463806152,0.5043124556541443
11.19367504119873,2.762648344039917,-2.4344944953918457
8.439995765686035,0.1622380018234253,-0.954637050628662
6.784904479980469,0.108985461294651,1.6837425231933594
4.188596248626709,-0.0996307581663131,3.590513229370117
-1.5759055614471436,-3.0242769718170166,4.3268327713012695
-7.318482875823975,-7.123312473297119,-3.9101505279541016
-9.583566665649414,-1.600358963012695,-7.057887077331543
-9.907659530639648,-0.586026132106781,-5.520678043365479
-12.254705429077148,2.794908285140991,1.08542799949646
-12.92464542388916,0.3701530992984772,0.5333520770072937
-12.965229988098145,-0.3738030791282654,4.097723484039307
-12.575620651245115,1.7095659971237185,7.425057888031006
-9.734627723693848,0.7740664482116699,2.5726511478424072
-5.73542594909668,-10.816174507141112,-32.282569885253906
3.746557235717773,6.9040069580078125,11.538182258605955
3.554969072341919,0.1178383156657219,5.487852096557617
12.338518142700195,4.107992649078369,3.746199369430542
13.161191940307615,-0.3425419628620147,-1.8798142671585083
13.260828971862791,2.078055620193481,0.4903210401535034
12.142702102661133,1.6123864650726318,-0.9128416180610656
8.905409812927246,0.8326989412307739,-4.625510215759277
7.408952713012695,-0.8914137482643127,-3.6489334106445312
8.5237455368042,0.2693133950233459,0.0814526230096817
7.395996570587158,1.4682140350341797,2.817723274230957
5.647749900817871,0.09131520986557,7.740341663360596
-4.099642753601074,-2.468616247177124,2.8210580348968506
-8.3218355178833,-6.419053554534912,-4.728094577789307
-8.939648628234863,-0.6808230876922607,-6.691576480865479
-8.35529899597168,-0.7152333855628967,-4.789409637451172
-12.62092113494873,1.9846611022949217,2.2244155406951904
-14.26602554321289,-0.7183611989021301,2.979943037033081
-13.599451065063477,1.1494340896606443,10.480809211730955
-11.327879905700684,4.353006362915039,4.167201519012451
-10.012866020202637,-1.24075448513031,-7.92060661315918
0.8607596158981323,-9.331462860107422,-27.43866729736328
5.235249996185303,3.978762149810791,14.789175987243652
6.288863182067871,6.235983848571777,2.915824174880981
13.705852508544922,1.2791790962219238,1.1295210123062134
13.762246131896973,-2.7540981769561768,2.89521598815918
14.73953342437744,3.594799041748047,2.5666890144348145
11.091184616088867,2.654018878936768,-3.4783737659454346
9.844865798950195,0.6492915153503418,-2.113056898117065
9.491442680358888,-0.5719442963600159,1.165023684501648
6.480586051940918,-0.8257606625556946,3.738171577453613
2.9767608642578125,-2.3128387928009038,6.650699615478516
-5.891642093658447,-5.342371940612793,-1.2445688247680664
-9.62621784210205,-5.110084533691406,-7.066891670227051
-9.716707229614258,-0.7060778141021729,-9.075947761535645
-9.774415016174316,0.8145133852958679,-2.524243831634521
-12.339051246643066,1.5991348028182983,0.3580472767353058
-12.681718826293944,-3.8389508724212646,0.0322572253644466
-11.95816707611084,-4.212358474731445,2.7756354808807373
-11.235147476196287,0.0469983294606208,0.9161004424095154
-10.360759735107422,1.4800455570220947,-3.653686761856079
-3.733657121658325,5.039224147796631,-16.169076919555664
1.155398726463318,5.993741035461426,4.5808587074279785
0.9584051370620728,3.097319841384888,2.9533064365386963
12.399209022521973,0.0513294972479343,2.52026891708374
14.908561706542969,-1.7927476167678833,1.876453518867493
17.8824520111084,0.3597801923751831,3.3098361492156982
13.281728744506836,5.692574501037598,-0.657920241355896
10.586247444152832,2.855412721633911,-3.53543758392334
8.488624572753906,-0.457898736000061,-2.370946884155273
7.853515625,0.1935676336288452,-0.3481550812721252
3.6171040534973145,0.0175849348306655,2.8606441020965576
-2.112881660461426,-3.069969654083252,0.5449007749557495
-5.711286067962647,-5.21669340133667,-3.82415509223938
-7.362817287445068,-1.559310793876648,-6.8847336769104
-8.480331420898438,-1.2673060894012451,-6.864932537078857
-10.56162452697754,1.8727262020111084,-3.0436675548553467
-11.89543342590332,-1.7545530796051023,-0.5152187943458557
-11.779890060424805,-0.3527072668075561,2.837964534759521
-11.795136451721191,2.3631534576416016,4.765812397003174
-12.463653564453123,4.33854866027832,6.954460620880127
-10.340353965759276,-0.9139937162399292,-6.927781581878662
1.802131414413452,-1.42403244972229,-11.164557456970217
6.518093109130859,0.2756990492343902,12.25558853149414
12.929861068725586,-0.3331424593925476,6.388580322265625
18.615726470947266,1.4861711263656616,4.370345115661621
14.197071075439451,2.508214235305786,0.7125473618507385
11.025099754333496,4.004454612731934,-1.439356803894043
7.803951740264893,1.6266034841537476,-5.97746467590332
6.740394592285156,-1.1051993370056152,-3.3207874298095703
8.91084098815918,-0.8095541000366211,0.9004707336425781
8.004865646362305,0.4931807219982147,4.402164459228516
3.3278701305389404,-0.1649361550807953,8.044675827026367
-5.038750648498535,-2.542858123779297,0.5359368920326233
-7.842460632324219,-2.7607247829437256,-5.129992485046387
-10.04054069519043,2.716071367263794,-5.213003635406494
-10.909910202026367,-1.4079556465148926,-4.901890754699707
-14.1102876663208,3.964909076690674,2.3479835987091064
-14.22719955444336,0.8291178345680237,2.353577852249145
-13.517952919006348,0.5789695382118225,5.8939127922058105
-12.591129302978516,-0.2432821691036224,7.560427665710449
-10.752066612243652,-4.249674320220947,-15.24738311767578
1.8498479127883911,-11.749897003173828,-25.1136474609375
3.483879566192627,4.147927761077881,16.65439796447754
7.430995941162109,6.136300086975098,2.3187344074249268
12.457280158996582,3.535745620727539,0.239979863166809
13.117908477783203,-0.9290258288383484,2.8448524475097656
17.36310386657715,2.8160881996154785,3.23305344581604
11.228979110717772,1.6585915088653564,-2.757441282272339
8.96677303314209,0.9060720801353456,-2.9355945587158203
8.27864933013916,0.0320916622877121,-1.4370237588882446
7.6453537940979,0.0056415665894746,2.341646194458008
5.713352203369141,-0.2947200536727905,4.76944637298584
-0.26289102435112,-2.323699712753296,5.624127864837647
-7.640627861022949,-5.751885414123535,-4.52785062789917
-9.438592910766602,-2.131337404251098,-8.78674030303955
-9.97039031982422,0.9181373119354248,-7.181675434112549
-11.45107364654541,2.052692413330078,0.3557686805725097
-13.646108627319336,-0.3232609629631042,0.049568086862564
-13.230897903442385,-1.262190341949463,4.785792827606201
-12.346049308776855,0.6086686849594116,8.420320510864258
-10.563214302062988,-1.0846326351165771,3.713616609573364
-9.396172523498535,-4.357109069824219,-20.79850196838379
4.477818012237549,1.070601224899292,-11.108070373535156
1.31734037399292,4.315123081207275,8.521206855773926
4.641053676605225,4.611284255981445,3.901568174362183
17.016845703125,-3.6168155670166016,2.3565545082092285
21.60152244567871,0.1214657798409462,6.466168880462647
15.501349449157717,6.310858726501465,2.166018009185791
9.61544704437256,3.178741216659546,-4.285938739776611
8.463693618774414,0.0327028334140777,-2.002598524093628
8.402259826660156,0.2668138742446899,1.7449607849121094
5.601023674011231,-1.209323525428772,2.2739150524139404
0.552814245223999,-2.632746934890747,4.055848121643066
-5.59317684173584,-6.062921524047852,-2.693601608276367
-8.067974090576172,-5.8645734786987305,-7.777562141418457
-9.466859817504885,-0.993189811706543,-5.333651065826416
-10.878983497619627,-0.1448329091072082,2.211377620697021
-11.564217567443848,0.6022181510925293,3.3901567459106445
-11.184112548828123,-1.6102707386016846,0.323225200176239
-10.231571197509766,-0.1658518612384796,-1.8476741313934328
-9.678592681884766,-0.8896360397338867,-2.4680135250091557
-9.351825714111328,1.284555196762085,1.192583680152893
-3.6729636192321777,-0.9022696018218994,-10.998008728027344
1.412549614906311,5.875333309173584,5.3290181159973145
6.118595600128174,0.8015257716178894,3.614473342895508
16.232757568359375,2.613877773284912,0.6527077555656433
16.19614028930664,0.8782517313957214,2.2576115131378174
14.297293663024902,4.909690380096436,1.1094346046447754
11.057689666748049,3.236532688140869,-1.534810185432434
7.677762508392334,0.8934747576713562,-3.524377584457397
6.229104518890381,-1.3575904369354248,-2.0924081802368164
5.365387916564941,-2.0527565479278564,0.9593198895454408
2.540106773376465,-1.9198373556137085,3.0042099952697754
-2.465617179870605,-1.7917654514312744,4.026723384857178
-8.25573444366455,-3.1039843559265137,-4.028700828552246
-8.935504913330078,0.3146161735057831,-7.0579705238342285
-9.844003677368164,1.4608795642852783,-6.738557815551758
-12.259376525878906,2.4356093406677246,-0.4212641716003418
