PacketCounter,SampleTimeFine,Quat_W,Quat_X,Quat_Y,Quat_Z,Acc_X,Acc_Y,Acc_Z,Gyr_X,Gyr_Y,Gyr_Z 
1,901423314,0.39923823,-0.5238653,-0.37353945,-0.6531785,-0.06037314236164093,-0.5731289982795715,-0.9104403853416443,0.2492208331823349,1.0161654949188232, -0.21939505636692047
2,901439981,0.3992667,-0.5240757,-0.37348765,-0.65302205,9.645233154296875,0.64246666431427,1.6803302764892578,1.0303860902786255,-0.02705981954932213, -0.11500103026628494
3,901456648,0.39967987,-0.5241869,-0.37346235,-0.6526945,9.729199409484863,0.7145866751670837,1.6977227926254272,1.067389965057373,0.009111717343330383, 0.039078570902347565
4,901473315,0.39962584,-0.5241541,-0.37355047,-0.65270346,9.746962547302246,0.7578250765800476,1.7257964611053467,0.834762692451477,0.12790341675281525, -0.015047460794448853
5,901489982,0.39946806,-0.5238603,-0.3738056,-0.6528899,9.65618896484375,0.7441026568412781,1.7243109941482544,0.8146695494651794,0.19439400732517242, -0.07886151224374771
6,901506649,0.39944208,-0.523474,-0.3741301,-0.65302974,9.646489143371582,0.6754505634307861,1.693052053451538,1.361052393913269,0.04877298325300217, 0.012607851065695286
7,901523316,0.39960015,-0.5231768,-0.37443027,-0.6529991,9.67174243927002,0.6686289310455322,1.6759051084518433,1.7016375064849854,0.029640300199389458, -0.04496309533715248
8,901539983,0.39965707,-0.5230557,-0.374605,-0.65296113,9.675525665283203,0.6824495196342468,1.6874667406082153,1.9312806129455566,-0.048728156834840775, -0.17566469311714172
9,901556650,0.39990115,-0.52284855,-0.37492463,-0.65279394,9.706893920898438,0.6521758437156677,1.6858149766921997,2.028724193572998,-0.03257935121655464, -0.33224791288375854
10,901573317,0.4001943,-0.52264076,-0.37527674,-0.6525785,9.676501274108887,0.63932204246521,1.7261979579925537,2.196756362915039,-0.07167714089155197, -0.5558980703353882
11,901589984,0.4004359,-0.5224664,-0.3755466,-0.6524146,9.687198638916016,0.6755558252334595,1.7047866582870483,1.8452857732772827,-0.1434054970741272, -0.7464308142662048
12,901606651,0.40050405,-0.5223753,-0.37570265,-0.652356,9.685917854309082,0.7017379403114319,1.6872029304504395,1.4972671270370483,-0.1841937154531479, -0.9133872389793396
13,901623318,0.4007715,-0.52213216,-0.37607124,-0.65217394,9.639636039733887,0.6954056620597839,1.6742275953292847,1.5010257959365845,-0.11781841516494751, -1.1005008220672607
14,901639985,0.4009334,-0.5219693,-0.3763503,-0.6520437,9.733819961547852,0.6892686486244202,1.7121243476867676,1.4563957452774048,-0.17711180448532104, -0.9088793992996216
15,901656652,0.400694,-0.5220373,-0.37629262,-0.6521698,9.768423080444336,0.7688162326812744,1.7441575527191162,1.613952398300171,-0.1069970652461052, -0.8244984745979309
16,901673319,0.3999463,-0.5223783,-0.37579656,-0.6526415,9.679309844970703,0.7385774254798889,1.7357661724090576,1.336566686630249,0.09992154687643051, -0.6610382199287415
17,901689986,0.39940903,-0.5226116,-0.37543306,-0.65299284,9.670639038085938,0.801152765750885,1.6930029392242432,1.5378055572509766,0.1304006576538086, -0.3638283908367157
18,901706653,0.39767995,-0.52352065,-0.37410867,-0.6540792,9.68433952331543,0.8224150538444519,1.6754884719848633,1.0575547218322754,0.21939197182655334, -0.27481144666671753
19,901723320,0.39928257,-0.52251077,-0.3754231,-0.65315664,9.704216957092285,0.7378599643707275,1.6941643953323364,0.7165985107421875,0.46622151136398315, -0.130048468708992
20,901739987,0.39427093,-0.5253165,-0.37140346,-0.6562413,9.713919639587402,0.7096928954124451,1.7306175231933594,1.3856918811798096,0.4751347601413727, 0.2739085853099823
21,901756654,0.39485243,-0.5249673,-0.37177876,-0.6559584,9.708154678344727,0.7895101308822632,1.7191739082336426,0.6700090169906616,0.5715793967247009, 0.49634212255477905
22,901773321,0.39505553,-0.52485955,-0.371765,-0.6559302,9.743094444274902,0.806052029132843,1.7338347434997559,-0.041671860963106155,0.7641229033470154, 0.8236595988273621
23,901789988,0.39475945,-0.5250305,-0.37131992,-0.6562238,9.730690002441406,0.7602596282958984,1.7380820512771606,-0.22263841331005096,0.936637282371521, 0.9273526072502136
24,901806655,0.3938948,-0.52554965,-0.37038872,-0.65685374,9.676403045654297,0.6855444312095642,1.7614197731018066,-0.07157469540834427,0.8941842317581177, 1.180559754371643
25,901823322,0.3944175,-0.5252946,-0.370559,-0.656648,9.678364753723145,0.7143758535385132,1.7190667390823364,0.3714289665222168,0.866317629814148, 1.257910132408142
26,901839989,0.39278743,-0.5262537,-0.36900195,-0.6577331,9.71510124206543,0.7472315430641174,1.7056070566177368,0.12038610130548477,0.8681745529174805, 1.211102843284607
27,901856656,0.3965848,-0.52417,-0.37179014,-0.6555446,9.68176555633545,0.7331586480140686,1.7638224363327026,-0.09367844462394714,0.7443370819091797, 1.2406600713729858
28,901873323,0.39510295,-0.5250991,-0.3703477,-0.65651137,9.690576553344727,0.7385539412498474,1.7648097276687622,-0.49371036887168884,0.4982374906539917, 1.3457615375518799
29,901889990,0.39582485,-0.5247902,-0.37067378,-0.65613943,9.707859992980957,0.7144758701324463,1.7581461668014526,-1.053975224494934,0.3534488379955292, 1.2649407386779785
30,901906657,0.39622676,-0.52466756,-0.3707684,-0.65594137,9.718616485595703,0.650844931602478,1.754000186920166,-0.9199569225311279,0.19023190438747406, 1.2251642942428589
31,901923324,0.39695248,-0.5243518,-0.37116954,-0.6555281,9.69376277923584,0.6356993317604065,1.7671561241149902,-0.510729968547821,0.04663431644439697, 1.052918791770935
32,901939991,0.39816517,-0.52377254,-0.3719662,-0.6548037,9.647493362426758,0.6782525181770325,1.7452956438064575,-0.359269380569458,-0.08001407980918884, 1.080196499824524
33,901956658,0.39916852,-0.5232988,-0.37264037,-0.65418816,9.710105895996094,0.6967976689338684,1.6982111930847168,-0.27137935161590576,-0.2183866649866104, 0.885270893573761
34,901973325,0.3991424,-0.5234023,-0.37250063,-0.6542009,9.714359283447266,0.6625440120697021,1.7195730209350586,-0.06841151416301727,-0.16262783110141754, 0.8487855792045593
35,901989992,0.398363,-0.5239135,-0.3717751,-0.6546793,9.689308166503906,0.6523645520210266,1.7384980916976929,0.30938220024108887,-0.05942145735025406, 0.7459890246391296
36,902006659,0.3984679,-0.52391016,-0.3717499,-0.6546324,9.663619995117188,0.6639801263809204,1.7173733711242676,0.3028509318828583,0.06703483313322067, 0.6918054223060608
37,902023326,0.40278888,-0.5214797,-0.3751144,-0.65200406,9.688621520996094,0.6568419933319092,1.719336748123169,0.4702427387237549,0.1299012154340744, 0.5760103464126587
38,902039993,0.40370739,-0.5209962,-0.3757433,-0.6514602,9.656126976013184,0.6968919038772583,1.7165477275848389,0.37625694274902344,0.1603034883737564, 0.6180792450904846
39,902056660,0.403419,-0.5211975,-0.37542388,-0.6516619,9.666016578674316,0.6626712083816528,1.7323760986328125,0.4166225790977478,0.15893319249153137, 0.5276792645454407
40,902073327,0.40509683,-0.5202493,-0.3767098,-0.65063584,9.674583435058594,0.6345378160476685,1.7310168743133545,0.8548686504364014,0.12343397736549377, 0.4297490417957306
41,902089994,0.4084801,-0.518302,-0.37940067,-0.6485078,9.6919584274292,0.6012157797813416,1.749602198600769,1.069707989692688,-0.08580254018306732, 0.33057668805122375
42,902106661,0.40859994,-0.5182278,-0.3795557,-0.6484007,9.628606796264648,0.5961467027664185,1.7191367149353027,1.3908528089523315,-0.26607754826545715, 0.01901102438569069
43,902123328,0.40823466,-0.51841974,-0.37939095,-0.6485739,9.627998352050781,0.6218792200088501,1.710883378982544,1.8436981439590454,-0.4617585241794586, -0.2127774953842163
44,902139995,0.40830204,-0.5183513,-0.37960112,-0.6484632,9.694637298583984,0.6725061535835266,1.7520253658294678,1.596151351928711,-0.5755813717842102, -0.391464501619339
45,902156662,0.40885094,-0.518005,-0.3801708,-0.6480601,9.694725036621094,0.6943691372871399,1.7998169660568237,1.032876968383789,-0.5163905024528503, -0.3897612690925598
46,902173329,0.4064209,-0.51939386,-0.3783662,-0.64953154,9.681591033935547,0.7001920342445374,1.7243260145187378,0.7330545783042908,-0.5377514362335205, -0.49476051330566406
47,902189996,0.40759063,-0.5187103,-0.37938657,-0.6487492,9.668354988098145,0.7154314517974854,1.7376221418380737,0.6303220391273499,-0.48250478506088257, -0.19292762875556946
48,902206663,0.40757185,-0.5187156,-0.37946048,-0.64871347,9.699066162109375,0.7247614860534668,1.771191954612732,0.8461602926254272,-0.45329350233078003, -0.17822596430778503
49,902223330,0.40674654,-0.51919115,-0.37888497,-0.6491872,9.669739723205566,0.6785157322883606,1.7451558113098145,1.6339813470840454,-0.37295934557914734, -0.020861541852355003
50,902239997,0.4084344,-0.518186,-0.3803367,-0.64808095,9.64357852935791,0.6574440598487854,1.72020423412323,2.02734112739563,-0.36234286427497864, -0.05643758177757263
51,902256664,0.40829372,-0.51827604,-0.38027862,-0.6481316,9.694021224975586,0.7092832922935486,1.7121244668960571,1.8915681838989258,-0.29861846566200256, 0.18331646919250488
52,902273331,0.4081482,-0.51835686,-0.38017628,-0.6482185,9.754993438720703,0.735671877861023,1.756337285041809,0.9943938255310059,-0.054990462958812714, 0.08974049240350723
53,902289998,0.40397942,-0.52079564,-0.3768055,-0.650838,9.700104713439941,0.6987372040748596,1.7890831232070923,0.22419437766075134,0.052320342510938644, 0.1831500232219696
54,902306665,0.40477735,-0.5203526,-0.37742713,-0.6503363,9.644759178161621,0.6993917226791382,1.7452893257141113,0.3298851549625397,-0.12324829399585724, 0.19562338292598724
55,902323332,0.40575504,-0.5197972,-0.37819213,-0.64972645,9.707868576049805,0.7108319997787476,1.752953052520752,0.46246927976608276,-0.06743823736906052, 0.1910899430513382
56,902339999,0.40518638,-0.52013797,-0.3777318,-0.65007627,9.689619064331055,0.6353682279586792,1.7637925148010254,0.9154940247535706,-0.0787462517619133, 0.22575674951076508
57,902356666,0.4060824,-0.5196393,-0.37847808,-0.6494818,9.678980827331543,0.645980179309845,1.7510091066360474,1.6398979425430298,-0.3068017065525055, 0.3024795651435852
58,902373333,0.40629232,-0.51954037,-0.37869447,-0.64930356,9.686633110046387,0.687396764755249,1.7402199506759644,1.5920660495758057,-0.4189212918281555, 0.23391437530517578
59,902390000,0.40582243,-0.5198341,-0.3783749,-0.6495486,9.719544410705566,0.701852023601532,1.7713602781295776,0.8950293064117432,-0.4846178889274597, 0.06974978744983673
60,902406667,0.4066304,-0.5193939,-0.37905216,-0.6490001,9.704177856445312,0.6672022938728333,1.769468069076538,0.534812331199646,-0.46000412106513977, 0.143463134765625
61,902423334,0.40703705,-0.51919216,-0.37939984,-0.64870346,9.661808013916016,0.6931731104850769,1.7278589010238647,0.2740238606929779,-0.47160664200782776, 0.1451023370027542
62,902440001,0.40661657,-0.5194621,-0.3791037,-0.6489241,9.707908630371094,0.6867781281471252,1.7282594442367554,0.5760999917984009,-0.4610286056995392, 0.08780673891305923
63,902456668,0.40664944,-0.51944584,-0.37921035,-0.6488542,9.746899604797363,0.6664281487464905,1.7835772037506104,1.072102665901184,-0.4806991219520569, -0.05031614750623703
64,902473335,0.4065207,-0.51954484,-0.3791331,-0.64890087,9.711274147033691,0.6953203678131104,1.7740979194641113,1.1762951612472534,-0.34104591608047485, 0.23012369871139526
65,902490002,0.40657684,-0.5195398,-0.3791722,-0.64884686,9.709609031677246,0.7364038228988647,1.7532967329025269,0.8918149471282959,-0.22650590538978577, 0.29812541604042053
66,902506669,0.40670872,-0.519491,-0.3792402,-0.6487636,9.736714363098145,0.7011047005653381,1.7504104375839233,0.708863377571106,-0.07610812783241272, 0.3695848286151886
67,902523336,0.40667242,-0.5195344,-0.3791783,-0.64878774,9.676474571228027,0.6447815895080566,1.7370434999465942,0.998363733291626,-0.03791959956288338, 0.37761440873146057
68,902540003,0.4066741,-0.51953137,-0.3792,-0.6487765,9.635783195495605,0.6208587288856506,1.7166004180908203,1.3620001077651978,-0.1185227632522583, 0.15639755129814148
69,902556670,0.40803927,-0.5186996,-0.38036883,-0.6479,9.64600944519043,0.6401559114456177,1.6949282884597778,1.8292909860610962,-0.16077090799808502, -0.08238323777914047
70,902573337,0.40831387,-0.51849025,-0.380696,-0.64770234,9.777912139892578,0.6808468699455261,1.7818944454193115,1.6806477308273315,-0.2209351509809494, -0.285632848739624
71,902590004,0.40827706,-0.51847404,-0.380748,-0.64770794,9.7793550491333,0.6211722493171692,1.8212993144989014,0.9073490500450134,-0.21457038819789886, -0.2924329936504364
72,902606671,0.4083391,-0.5184306,-0.3808374,-0.64765096,9.687015533447266,0.7018378376960754,1.7870200872421265,0.514693558216095,-0.2534888684749603, -0.09280761331319809
73,902623338,0.40699825,-0.5192228,-0.37975368,-0.6484962,9.615888595581055,0.756389319896698,1.7162362337112427,-0.3608444929122925,-0.14462211728096008, -0.036113906651735306
74,902640005,0.40622172,-0.51967406,-0.37916473,-0.6489661,9.64779281616211,0.6589808464050293,1.7045814990997314,0.11284314095973969,-0.2785636782646179, -0.11334897577762604
75,902656672,0.40621346,-0.51968753,-0.37925726,-0.64890635,9.679580688476562,0.6097484230995178,1.7718896865844727,1.1472631692886353,-0.6380507349967957, -0.0749683752655983
76,902673339,0.40602148,-0.5198289,-0.3792667,-0.6489079,9.6605224609375,0.6770299673080444,1.7920987606048584,1.8948596715927124,-1.0783714056015015, -0.043323881924152374
77,902690006,0.40600142,-0.51989335,-0.37936565,-0.648811,9.697509765625,0.8078963756561279,1.7801947593688965,1.6283206939697266,-1.0197950601577759, 0.17268720269203186
78,902706673,0.40612575,-0.5199256,-0.37947425,-0.6486438,9.696487426757812,0.8331342935562134,1.7579395771026611,0.3484671711921692,-0.9342615604400635, 0.5368998050689697
79,902723340,0.40581453,-0.52025515,-0.37912473,-0.6487785,9.660501480102539,0.7658125162124634,1.7840559482574463,-0.7838765978813171,-0.7494787573814392, 0.8925192952156067
80,902740007,0.40601397,-0.52033824,-0.3791113,-0.6485949,9.694280624389648,0.6904938220977783,1.7572662830352783,-1.751754879951477,-0.8142789602279663, 1.2091050148010254
81,902756674,0.40572602,-0.5206991,-0.37877136,-0.6486843,9.562722206115723,0.6189163327217102,1.6774007081985474,-1.245481252670288,-1.0717376470565796, 1.0705530643463135
82,902773341,0.40408382,-0.52185154,-0.37736782,-0.6496007,9.705360412597656,0.5927649736404419,1.6820094585418701,0.6054521203041077,-1.0949939489364624, 1.329522967338562
83,902790008,0.40418568,-0.521966,-0.37738487,-0.6494354,9.671518325805664,0.7169874310493469,1.7382702827453613,1.0689139366149902,-1.004555583000183, 1.2297488451004028
84,902806675,0.40415752,-0.52213126,-0.37728843,-0.64937603,9.69594955444336,0.6694923043251038,1.7309696674346924,0.6949301362037659,-0.8060572743415833, 1.0738059282302856
85,902823342,0.4053657,-0.5215619,-0.37815282,-0.64857715,9.663386344909668,0.6494885683059692,1.724049687385559,0.07602488994598389,-0.5630055665969849, 0.9935486912727356
86,902840009,0.4063642,-0.52109796,-0.3788495,-0.64791846,9.685023307800293,0.5444664359092712,1.7160519361495972,-0.5144310593605042,-0.4984871745109558, 0.8146695494651794
87,902856676,0.40598765,-0.5214062,-0.37851888,-0.6480995,9.627610206604004,0.56087726354599,1.7028728723526,0.27795538306236267,-0.6371799111366272, 0.552997350692749
88,902873343,0.40774485,-0.52043253,-0.37996376,-0.6469326,9.682270050048828,0.593839704990387,1.6761841773986816,0.7599480152130127,-0.676930844783783, 0.2890969514846802
89,902890010,0.4075855,-0.5205793,-0.37991625,-0.6469428,9.69748306274414,0.5899947285652161,1.7197624444961548,1.1407320499420166,-0.895432710647583, 0.19134606420993805
90,902906677,0.41012636,-0.5191336,-0.38202372,-0.64525545,9.687249183654785,0.668857753276825,1.789311408996582,0.7051112651824951,-0.8286092877388, 0.16312088072299957
91,902923344,0.41013762,-0.5191769,-0.38207626,-0.6451824,9.714982032775879,0.6797192692756653,1.7261817455291748,0.27577832341194153,-0.7428578734397888, 0.13535669445991516
92,902940011,0.4099986,-0.5193133,-0.38194716,-0.64523757,9.723775863647461,0.6560051441192627,1.6976327896118164,0.3740414083003998,-0.4432917833328247, 0.3523218631744385
93,902956678,0.40904543,-0.51995087,-0.3810761,-0.6458437,9.743537902832031,0.715477466583252,1.7159429788589478,0.23897287249565125,-0.13833418488502502, 0.6848387718200684
94,902973345,0.41051942,-0.51915437,-0.3820929,-0.6449477,9.698718070983887,0.6884350180625916,1.7002688646316528,0.19616124033927917,0.20479273796081543, 0.8798282146453857
95,902990012,0.41075864,-0.51911056,-0.38207087,-0.6448438,9.679614067077637,0.7124307155609131,1.6948899030685425,0.47799062728881836,0.2994188666343689, 1.1769613027572632
96,903006679,0.4106865,-0.5192323,-0.38176706,-0.64497167,9.75655460357666,0.7221569418907166,1.7177766561508179,0.23443946242332458,0.5854743123054504, 1.1374280452728271
97,903023346,0.411504,-0.51877934,-0.38215378,-0.64458597,9.719074249267578,0.6226124167442322,1.7188650369644165,0.5315211415290833,1.0877649784088135, 1.028151512145996
98,903040013,0.41233045,-0.51831996,-0.3825294,-0.6442045,9.679693222045898,0.5650695562362671,1.7047313451766968,0.911536693572998,1.2128061056137085, 1.1421918869018555
99,903056680,0.41273913,-0.51810503,-0.38255435,-0.6441009,9.721264839172363,0.6369606256484985,1.7235456705093384,0.5768683552742004,1.292282223701477, 1.1036447286605835
100,903073347,0.4115227,-0.5188395,-0.38117817,-0.6451032,9.733566284179688,0.7695046067237854,1.7869365215301514,-0.31583020091056824,1.8321086168289185, 1.154934287071228
101,903090014,0.41181466,-0.5186791,-0.3808935,-0.6452139,9.759716033935547,0.6348286867141724,1.7025656700134277,-2.6939313411712646,2.326869010925293, 1.1042211055755615
102,903106681,0.4124427,-0.5183248,-0.3809681,-0.6450534,9.714750289916992,0.5076749324798584,1.8137023448944092,-1.1580654382705688,1.9220858812332153, 1.1312808990478516
103,903123348,0.41171584,-0.5187126,-0.38006967,-0.6457357,9.787419319152832,0.4966330826282501,1.856887698173523,0.24038156867027283,1.804587483406067, 0.7401109337806702
104,903140015,0.41168708,-0.5185827,-0.37996945,-0.6459171,9.619296073913574,0.44595420360565186,1.7482831478118896,1.2502132654190063,1.3662388324737549, -0.322694331407547
105,903156682,0.410951,-0.51881,-0.3795916,-0.64642555,9.479296684265137,0.4223554730415344,1.6599342823028564,3.7313029766082764,0.41138479113578796, -1.0492115020751953
106,903173349,0.41020074,-0.5190615,-0.3793359,-0.64685,9.619468688964844,0.5312509536743164,1.7352473735809326,4.088203430175781,-0.38737931847572327, -1.3129327297210693
107,903190016,0.40873706,-0.5197383,-0.3784945,-0.64772534,9.777275085449219,0.6342306137084961,1.8112492561340332,1.8337218761444092,-0.5238437652587891, -1.6364210844039917
108,903206683,0.40828142,-0.51984954,-0.37842792,-0.6479624,9.723649978637695,0.6987754106521606,1.8590400218963623,0.38666853308677673,-0.6228880882263184, -1.6680527925491333
109,903223350,0.4083862,-0.5196584,-0.37877724,-0.6478455,9.723691940307617,0.7078364491462708,1.830986499786377,0.26796644926071167,-0.6438520550727844, -1.458387017250061
110,903240017,0.40794134,-0.51981455,-0.37865236,-0.64807355,9.722702026367188,0.6772300004959106,1.7798798084259033,1.3227230310440063,-0.5915765166282654, -1.0379801988601685
111,903256684,0.40788364,-0.5197533,-0.37882516,-0.64805806,9.70574951171875,0.7084195613861084,1.7210429906845093,2.897507429122925,-0.48314517736434937, -0.6774430871009827
112,903273351,0.4087831,-0.51914716,-0.37973836,-0.6474422,9.661166191101074,0.680861234664917,1.707450032234192,3.9714736938476562,-0.3803742825984955, -0.3253069818019867
113,903290018,0.40891808,-0.51901835,-0.3799687,-0.64732504,9.678335189819336,0.6985791921615601,1.753326177597046,4.146766185760498,-0.2132897526025772, 0.0652291402220726
114,903306685,0.4091825,-0.51882017,-0.38020056,-0.64718103,9.724807739257812,0.7344517707824707,1.7531806230545044,3.1516876220703125,0.213846817612648, 0.22948336601257324
115,903323352,0.4088058,-0.51902634,-0.37974983,-0.6475181,9.733526229858398,0.7096866369247437,1.7995543479919434,1.4806894063949585,0.789505124092102, 0.5825800895690918
116,903340019,0.40817901,-0.51938725,-0.3789872,-0.64807075,9.667275428771973,0.6831961274147034,1.7649298906326294,0.18102414906024933,1.2239091396331787, 0.734719455242157
117,903356686,0.40929228,-0.51873076,-0.37959668,-0.6475376,9.65362548828125,0.6496246457099915,1.7346240282058716,0.0014279078459367156,1.3170753717422485, 0.7801691889762878
118,903373353,0.40946412,-0.51861006,-0.3794541,-0.6476091,9.69035816192627,0.6511961817741394,1.7920891046524048,0.1318477839231491,1.4244568347930908, 0.7182633280754089
119,903390020,0.4116135,-0.5172937,-0.38087967,-0.6464614,9.630301475524902,0.5764989256858826,1.7702586650848389,1.2880563735961914,1.8229902982711792, 0.7963308691978455
120,903406687,0.41074806,-0.51772416,-0.37996206,-0.6472068,9.779865264892578,0.5722281336784363,1.7954776287078857,2.7836458683013916,1.7324877977371216, 0.7251403331756592
121,903423354,0.4119366,-0.51691777,-0.3807642,-0.64662445,9.61801528930664,0.5895838737487793,1.821205973625183,2.6155881881713867,1.5218875408172607, 0.317501425743103
122,903440021,0.41147876,-0.5170719,-0.38028944,-0.6470719,9.681894302368164,0.5726944804191589,1.7594680786132812,2.363290309906006,1.3420350551605225, 0.11384206265211105
123,903456688,0.40868723,-0.5185755,-0.37792358,-0.64902097,9.671961784362793,0.6930846571922302,1.8252226114273071,1.1392079591751099,1.5037791728973389, -0.09909553080797195
124,903473355,0.40875217,-0.5183842,-0.37786862,-0.6491647,9.594823837280273,0.6418368220329285,1.790834903717041,0.11891335248947144,1.4528228044509888, -0.4792904555797577
125,903490022,0.40744376,-0.5189823,-0.37677163,-0.65014625,9.71931266784668,0.5758092999458313,1.8085265159606934,0.8668938279151917,1.2757492065429688, -0.5494179725646973
126,903506689,0.40550923,-0.5199307,-0.37518525,-0.651514,9.666966438293457,0.5989310145378113,1.8822755813598633,1.2250488996505737,1.3001197576522827, -0.5526323914527893
127,903523356,0.40505043,-0.51999557,-0.37482402,-0.6519554,9.641874313354492,0.6064874529838562,1.8159880638122559,1.8952821493148804,1.3097758293151855, -0.7242246866226196
128,903540023,0.40439072,-0.52016884,-0.37437773,-0.6524829,9.66779899597168,0.6201156377792358,1.7807729244232178,2.375276565551758,0.9962506294250488, -0.8991464972496033
129,903556690,0.40511227,-0.51950544,-0.3751005,-0.65214884,9.655292510986328,0.6025580167770386,1.8091961145401,3.1571178436279297,1.0095053911209106, -1.1813089847564697
130,903573357,0.40553004,-0.51899564,-0.37558585,-0.6520155,9.677177429199219,0.6803721189498901,1.841875433921814,2.997678279876709,1.1165664196014404, -1.327736735343933
131,903590024,0.40578604,-0.5185893,-0.3758879,-0.6520055,9.706125259399414,0.6586188077926636,1.845981478691101,2.070075750350952,1.2570264339447021, -1.2779711484909058
132,903606691,0.40518972,-0.5187135,-0.3754467,-0.6525317,9.708375930786133,0.6573067903518677,1.8830628395080566,2.128664970397949,1.3158973455429077, -0.8727526664733887
133,903623358,0.4037115,-0.5193295,-0.37421966,-0.6536618,9.71643352508545,0.8217844367027283,1.8644590377807617,0.955974817276001,1.773916482925415, -0.888773500919342
134,903640025,0.40379688,-0.51908547,-0.3741826,-0.6538241,9.665392875671387,0.6928684711456299,1.8107526302337646,-0.2754645347595215,1.6875884532928467, -0.7593011856079102
135,903656692,0.39992517,-0.5211221,-0.3710785,-0.6563479,9.561765670776367,0.6308020353317261,1.8320204019546509,0.9816387295722961,1.174425482749939, -0.607955813407898
136,903673359,0.40034375,-0.5207354,-0.37142152,-0.65620565,9.672779083251953,0.7008403539657593,1.8875324726104736,1.7719441652297974,0.9012916088104248, -0.5145590901374817
137,903690026,0.39867952,-0.52155906,-0.370109,-0.6573053,9.670320510864258,0.7245545983314514,1.8781388998031616,1.820031762123108,0.6666280627250671, -0.3284187614917755
138,903706693,0.4014526,-0.5198838,-0.37232903,-0.65568894,9.713921546936035,0.7265219688415527,1.8864281177520752,1.7209748029708862,0.5268596410751343, -0.3421856462955475
139,903723360,0.39951456,-0.5209203,-0.37077865,-0.65692735,9.620171546936035,0.7414690852165222,1.8515750169754028,1.2657476663589478,0.32893750071525574, -0.08967006951570511
140,903740027,0.39530864,-0.52323765,-0.3673959,-0.6595255,9.762141227722168,0.7468873262405396,1.941733956336975,0.37883105874061584,0.292695552110672, -0.05023931339383125
141,903756694,0.39535376,-0.52318555,-0.36732143,-0.6595812,9.717642784118652,0.6812281608581543,1.8944350481033325,-0.10400036722421646,0.4745328426361084, 0.1349853277206421
142,903773361,0.39621863,-0.52268726,-0.3679072,-0.65913063,9.668319702148438,0.6437458992004395,1.860128402709961,0.5505129098892212,0.38615626096725464, 0.2757527232170105
143,903790028,0.40011817,-0.5204667,-0.370891,-0.656856,9.618803024291992,0.6876944899559021,1.8114560842514038,0.880609393119812,0.5579789876937866, 0.28172045946121216
144,903806695,0.39911675,-0.5210015,-0.36998755,-0.6575505,9.686753273010254,0.6941501498222351,1.8401830196380615,0.7145366668701172,0.550717830657959, 0.2643550634384155
145,903823362,0.3996289,-0.52067065,-0.3702497,-0.657354,9.648661613464355,0.7372713685035706,1.9005216360092163,0.4264834523200989,0.7992635369300842, 0.25705549120903015
146,903840029,0.40126517,-0.5197433,-0.37138742,-0.6564486,9.6745023727417,0.6873756647109985,1.9238708019256592,0.24788610637187958,0.5729624629020691, 0.4594470262527466
147,903856696,0.39962697,-0.520652,-0.3698832,-0.65757614,9.704553604125977,0.7131430506706238,1.9096027612686157,0.06631768494844437,0.8972319960594177, 0.5227487683296204
148,903873363,0.40193632,-0.51936,-0.37151,-0.65627193,9.660805702209473,0.6833073496818542,1.8794745206832886,-0.6828473806381226,0.614544689655304, 0.4926154613494873
149,903890030,0.39676613,-0.52227396,-0.36725426,-0.659493,9.634430885314941,0.581834614276886,1.92559814453125,0.2510620653629303,0.479809045791626, 0.5475162267684937
150,903906697,0.3964252,-0.5224706,-0.36689624,-0.6597415,9.662245750427246,0.642227053642273,1.8752802610397339,1.2481260299682617,0.18427695333957672, 0.47440484166145325
151,903923364,0.39721632,-0.5220259,-0.36741802,-0.6593272,9.665467262268066,0.6480582356452942,1.870845079421997,1.1224828958511353,0.34208962321281433, 0.44857439398765564
152,903940031,0.3957552,-0.52282053,-0.3661681,-0.6602708,9.635634422302246,0.6360640525817871,1.8933137655258179,1.2866473197937012,0.39025425910949707, 0.3766154944896698
153,903956698,0.3962404,-0.5225636,-0.36644447,-0.66002977,9.589777946472168,0.7049092650413513,1.8967723846435547,0.8908032774925232,0.21626721322536469, 0.4915909171104431
154,903973365,0.3975921,-0.5218687,-0.36737153,-0.6592511,9.695308685302734,0.7106603384017944,1.9587066173553467,-0.18447548151016235,-0.008413772098720074, 0.6172596216201782
155,903990032,0.39502746,-0.5233466,-0.36515692,-0.6608496,9.713022232055664,0.7060473561286926,1.9224791526794434,-0.6265122294425964,0.17939774692058563, 0.6540651321411133
156,904006699,0.3947422,-0.52357274,-0.36473122,-0.661076,9.664507865905762,0.6085342764854431,1.890666127204895,-0.36644092202186584,0.17084312438964844, 0.8252988457679749
157,904023366,0.39446488,-0.5238098,-0.36433843,-0.66127026,9.567220687866211,0.6535416841506958,1.875260829925537,0.498403936624527,-0.021975696086883545, 0.9752867817878723
158,904040033,0.39332503,-0.52451426,-0.3633458,-0.66193676,9.603340148925781,0.6699385643005371,1.8557547330856323,1.1207668781280518,-0.3597944378852844, 0.7890568971633911
159,904056700,0.38950032,-0.52665514,-0.36029848,-0.66416043,9.63355541229248,0.6095464825630188,1.8636608123779297,1.8490252494812012,-0.5124588012695312, 0.5682240128517151
160,904073367,0.38906565,-0.5269226,-0.3599894,-0.6643705,9.631853103637695,0.6026478409767151,1.907370686531067,2.811563730239868,-0.5438984632492065, 0.4756726324558258
161,904090034,0.38973615,-0.5265755,-0.36057255,-0.66393644,9.664819717407227,0.6127815842628479,1.873766541481018,2.2912802696228027,-0.5505322217941284, 0.25010162591934204
162,904106701,0.3884347,-0.5272706,-0.35961396,-0.66466695,9.662528991699219,0.6603260636329651,1.8845889568328857,2.2268643379211426,-0.4683026373386383, 0.031830184161663055
163,904123368,0.39003164,-0.5263642,-0.3609543,-0.66372293,9.69970989227295,0.7479274272918701,1.9564622640609741,1.586943507194519,-0.29510951042175293, -0.22677482664585114
164,904140035,0.3891005,-0.52681386,-0.36025268,-0.6642936,9.733342170715332,0.7641096115112305,2.0318453311920166,0.862206757068634,-0.04680721089243889, -0.3151002526283264
165,904156702,0.3898241,-0.5260846,-0.3606202,-0.66424805,9.967327117919922,0.7278552055358887,2.119788646697998,3.6866860389709473,3.443326711654663, -0.30311352014541626
166,904173369,0.39685333,-0.51988304,-0.3645657,-0.66281295,10.81679916381836,0.2524060010910034,2.9479808807373047,22.891292572021484,26.726398468017578, -1.6791760921478271
167,904190036,0.40271348,-0.5144875,-0.3638874,-0.6638604,9.97365951538086,0.42807915806770325,2.8451387882232666,-8.706042289733887,41.70751953125, 4.742624759674072
168,904206703,0.41067877,-0.5114352,-0.36422005,-0.6611511,8.815971374511719,0.7302400469779968,1.1844803094863892,-54.78527069091797,16.245100021362305, 13.610017776489258
169,904223370,0.41519633,-0.5111788,-0.36326218,-0.6590516,9.51803970336914,0.7738990783691406,1.798506736755371,-59.376468658447266,2.8259053230285645, 12.337574005126953
170,904240037,0.41186175,-0.51473004,-0.35767168,-0.66143334,9.405965805053711,0.6108531355857849,1.7111531496047974,-43.88969802856445,0.016424261033535004, 8.536113739013672
171,904256704,0.41017914,-0.5166407,-0.35444856,-0.66272306,9.52928638458252,0.41454508900642395,1.8337432146072388,-27.211000442504883,0.6015734076499939, 5.142741680145264
172,904273371,0.40868255,-0.518072,-0.3518349,-0.6639219,9.653987884521484,0.2298765331506729,2.042297840118408,-18.140613555908203,1.3985127210617065, 3.8057634830474854
173,904290038,0.40879318,-0.5185492,-0.35065112,-0.66410756,9.733567237854004,0.2812505066394806,1.9807065725326538,-14.450911521911621,1.409192442893982, 3.5499160289764404
174,904306705,0.4078511,-0.5199211,-0.34837225,-0.664813,9.641956329345703,0.43600669503211975,2.114720582962036,-18.146759033203125,0.11430320143699646, 5.287818908691406
175,904323372,0.40732756,-0.52123636,-0.34616426,-0.6652574,9.573992729187012,0.4448593854904175,2.2101404666900635,-18.952722549438477,0.11320191621780396, 6.788969993591309
176,904340039,0.406869,-0.52235997,-0.34404108,-0.6657579,9.478914260864258,0.48100608587265015,2.184873580932617,-14.637939453125,1.229941964149475, 6.904759883880615
177,904356706,0.4061413,-0.5239305,-0.3413402,-0.6663581,9.575081825256348,0.5989148020744324,2.1411352157592773,-21.868227005004883,0.4490234851837158, 8.058979988098145
178,904373373,0.40545964,-0.52576685,-0.33841893,-0.6668167,9.547011375427246,0.17950083315372467,2.1278092861175537,-27.76993751525879,-0.6783159971237183, 9.063050270080566
179,904390040,0.40392247,-0.52821183,-0.33464825,-0.6677196,9.52012825012207,0.06976190954446793,2.2438600063323975,-30.635229110717773,-1.2954566478729248, 9.912887573242188
180,904406707,0.40336862,-0.5297439,-0.33191437,-0.6682052,9.65463924407959,0.16755735874176025,2.2653610706329346,-27.34332275390625,0.5949270129203796, 7.804307460784912
181,904423374,0.40178522,-0.5310377,-0.3290127,-0.6695659,9.667444229125977,0.15831798315048218,2.144340753555298,-18.18113136291504,3.2476747035980225, 4.073915958404541
182,904440041,0.40235928,-0.53088146,-0.32841033,-0.66964066,9.46557903289795,-0.018017349764704704,2.0287046432495117,-9.707447052001953,3.5124690532684326, 2.0859439373016357
183,904456708,0.4010662,-0.5316387,-0.32656538,-0.6707173,9.368941307067871,-0.08043625950813293,2.2138476371765137,-10.839093208312988,2.4088172912597656, 0.9620198011398315
184,904473375,0.39965174,-0.53227407,-0.32452935,-0.67204463,9.492535591125488,-0.17918524146080017,2.0126099586486816,-16.179752349853516,4.088463306427002, -0.7302188277244568
185,904490042,0.3984698,-0.53242,-0.32336798,-0.6731896,9.351675033569336,-0.06008461117744446,1.8160388469696045,-10.549158096313477,3.7981021404266357, -3.6937496662139893
186,904506709,0.39906055,-0.5312759,-0.3243499,-0.67327106,9.40893268585205,-0.0059019760228693485,2.2000370025634766,-3.06937575340271,3.777880907058716, -6.702052116394043
187,904523376,0.3986366,-0.5305209,-0.32507774,-0.6737662,9.382909774780273,-0.1311769038438797,2.230325698852539,-1.2538444995880127,2.021726131439209, -8.749582290649414
188,904540043,0.39980263,-0.5289226,-0.32764542,-0.6730878,9.456469535827637,-0.12530776858329773,2.28043794631958,2.496220827102661,-0.12817880511283875, -10.362658500671387
189,904556710,0.39835468,-0.52842367,-0.32880825,-0.6737708,9.22066593170166,-0.29585638642311096,2.533846139907837,8.163458824157715,-1.7827221155166626, -12.213566780090332
190,904573377,0.39757136,-0.5274536,-0.3309312,-0.67395437,9.252248764038086,-0.5429179072380066,2.7451376914978027,8.441781997680664,-2.753406524658203, -14.42713737487793
191,904590044,0.3976819,-0.5253484,-0.33430025,-0.6738707,9.308621406555176,-0.4324896037578583,2.3217203617095947,17.81740379333496,0.0239927489310503, -17.46738624572754
192,904606711,0.3980173,-0.52278423,-0.33855838,-0.6735407,9.341064453125,-0.24389506876468658,1.5567647218704224,25.299707412719727,-0.6652922630310059, -19.88707733154297
193,904623378,0.39794594,-0.52044487,-0.34277275,-0.673263,9.21550178527832,-0.15391132235527039,1.9605401754379272,27.730960845947266,-2.122507333755493, -20.153486251831055
194,904640045,0.39753276,-0.5181187,-0.34654957,-0.67336786,9.618409156799316,-0.289743036031723,2.7657976150512695,24.211442947387695,-0.3702712953090668, -21.06261444091797
195,904656712,0.39755726,-0.5152734,-0.3511326,-0.6731624,9.319231986999512,-0.28873857855796814,2.5671966075897217,28.82700538635254,-0.42194557189941406, -22.984638214111328
196,904673379,0.39740774,-0.51269484,-0.3560018,-0.67266196,9.05158519744873,1.0783056020736694,2.0210776329040527,30.30538558959961,-3.8826873302459717, -23.21630096435547
197,904690046,0.39618793,-0.5112355,-0.3600226,-0.67235225,9.160050392150879,2.277076244354248,1.9969773292541504,19.243188858032227,-8.673822402954102, -22.8902645111084
198,904706713,0.39388618,-0.51082695,-0.36306202,-0.6723807,9.988296508789062,1.8937357664108276,2.911691665649414,7.03598690032959,-12.353857040405273, -22.707294464111328
199,904723380,0.39176208,-0.5102921,-0.3671462,-0.67180985,10.046907424926758,0.3875254690647125,2.3094403743743896,14.609210014343262,-16.269437789916992, -24.124958038330078
200,904740047,0.39031675,-0.50910515,-0.37323394,-0.6701953,9.582708358764648,-0.02619994804263115,2.0985841751098633,30.56461524963379,-20.614107131958008, -26.895830154418945
201,904756714,0.3886144,-0.5074073,-0.38011113,-0.66860485,9.830259323120117,0.4234663248062134,3.2874088287353516,34.59504699707031,-20.959007263183594, -32.2735481262207
202,904773381,0.3876922,-0.5042539,-0.38914645,-0.6663244,10.88253116607666,-0.4461818337440491,2.315629482269287,52.95516586303711,-20.46894073486328, -38.20242691040039
203,904790048,0.38769358,-0.49962348,-0.40091604,-0.6628249,13.384318351745605,-0.9393545389175415,2.968380928039551,75.90202331542969,-22.756914138793945, -44.23989486694336
204,904806715,0.38847387,-0.49217054,-0.4157145,-0.6588158,17.59963607788086,0.06896699965000153,2.8793368339538574,101.3443603515625,-17.602279663085938, -57.65062713623047
205,904823382,0.38551146,-0.48572406,-0.42954692,-0.6564625,23.27341651916504,-5.306970596313477,6.22495698928833,76.9052734375,-24.670795440673828, -73.00849914550781
206,904840049,0.38493705,-0.47265935,-0.44746268,-0.65436554,22.70551109313965,-11.26147747039795,7.048947811126709,120.20698547363281,2.144801616668701, -96.5670394897461
207,904856716,0.3768776,-0.47136843,-0.44934374,-0.65868473,10.996749877929688,-10.547728538513184,6.719705581665039,-26.988420486450195,-10.753030776977539, -59.68243408203125
208,904873383,0.35968292,-0.4828624,-0.4345994,-0.6697728,0.5616372227668762,-2.0973453521728516,0.12291814386844635,-185.7947235107422,-32.02403259277344, -25.88751220703125
209,904890050,0.3510729,-0.49248603,-0.42044482,-0.676337,-0.2339167445898056,-11.815580368041992,-1.3516392707824707,-136.4304656982422,-14.10264778137207, 17.167470932006836
210,904906717,0.36383337,-0.49821797,-0.4120886,-0.67051274,1.895994782447815,-18.673282623291016,5.185122013092041,8.169561386108398,9.943644523620605, 114.9977798461914
211,904923384,0.38599175,-0.50194734,-0.40009144,-0.66256064,5.288372039794922,-6.565845012664795,7.0755839347839355,34.822845458984375,47.32345199584961, 169.55691528320312
212,904940051,0.41475204,-0.5015107,-0.38400182,-0.6549891,6.073265552520752,-1.1216859817504883,9.94105052947998,49.106468200683594,96.24373626708984, 201.01368713378906
213,904956718,0.44586077,-0.49652508,-0.36332607,-0.65012723,7.511888027191162,5.635282516479492,8.847699165344238,42.49317932128906,144.8281707763672, 207.70425415039062
214,904973385,0.4744445,-0.48861733,-0.33752298,-0.64979535,9.056370735168457,8.224910736083984,8.1898775100708,8.553305625915527,182.3579864501953, 193.09918212890625
215,904990052,0.49295062,-0.48689187,-0.3027919,-0.654411,11.339635848999023,6.278428077697754,5.821719646453857,-96.91451263427734,176.8419647216797, 176.7511444091797
216,905006719,0.51107514,-0.4826205,-0.27414638,-0.65629566,16.98236083984375,8.135457992553711,-0.7564353942871094,-56.58527755737305,157.68243408203125, 158.96214294433594
217,905023386,0.53001136,-0.47004762,-0.2618701,-0.6554142,15.871596336364746,9.358930587768555,-0.5017232894897461,54.23388671875,130.3140411376953, 102.89453887939453
218,905040053,0.5460745,-0.456678,-0.25668618,-0.65372807,11.579779624938965,8.045393943786621,-1.8934035301208496,81.09178161621094,100.60201263427734, 69.14232635498047
219,905056720,0.5562188,-0.44693932,-0.25207597,-0.65370023,11.812941551208496,6.800750255584717,-3.150613307952881,48.364009857177734,77.2164535522461, 41.41944122314453
220,905073387,0.56283915,-0.44114164,-0.2480652,-0.65350604,11.913512229919434,3.976628541946411,-2.302668571472168,25.321226119995117,51.0067024230957, 31.629688262939453
221,905090054,0.56646264,-0.43889448,-0.24326037,-0.6536948,10.888710021972656,4.339104652404785,-0.8430771827697754,-1.8007123470306396,34.56839370727539, 25.43352699279785
222,905106721,0.56883705,-0.43777084,-0.2398065,-0.6536621,11.076179504394531,3.727375030517578,-1.734119176864624,-3.6033201217651367,21.809064865112305, 18.76827621459961
223,905123388,0.5706822,-0.43734562,-0.23843178,-0.65284103,11.765924453735352,2.508087396621704,-3.200152635574341,2.6406784057617188,7.641537189483643, 14.625411033630371
224,905140055,0.5722834,-0.4372545,-0.23894005,-0.6513126,12.106911659240723,2.0397510528564453,-1.4171160459518433,10.177760124206543,-3.351975440979004, 11.404467582702637
225,905156722,0.57047355,-0.44156605,-0.23823167,-0.65025026,11.656362533569336,1.3850417137145996,-0.2913908362388611,-23.647781372070312,-22.133861541748047, 5.382266998291016
226,905173389,0.5653764,-0.45054123,-0.23734428,-0.64886826,11.962603569030762,0.3834630250930786,-3.2772023677825928,-52.22251892089844,-48.358402252197266, 0.29650428891181946
227,905190056,0.5601799,-0.4602791,-0.2400278,-0.6455453,12.228158950805664,0.9039323329925537,-4.067844390869141,-36.36696243286133,-71.42278289794922, -2.274087905883789
228,905206723,0.55451536,-0.47081304,-0.24626662,-0.6404695,11.930371284484863,1.104012370109558,-3.0102477073669434,-22.210065841674805,-94.55081176757812, -7.371849536895752
229,905223390,0.5490511,-0.48137677,-0.25677475,-0.63315606,11.3943510055542,0.4312562048435211,-2.756913900375366,0.9425616264343262,-117.51168823242188, -11.565149307250977
230,905240057,0.54449564,-0.49123135,-0.27156287,-0.6232737,10.141219139099121,0.40139198303222656,-1.7314280271530151,29.831783294677734,-137.160888671875, -13.22617244720459
231,905256724,0.53773457,-0.503854,-0.28681156,-0.6121376,8.331219673156738,1.062422275543213,-2.6059863567352295,16.38646125793457,-158.86996459960938, -14.287981986999512
232,905273391,0.5287844,-0.51852244,-0.30455625,-0.5989721,8.247016906738281,3.136260509490967,-19.632123947143555,15.782490730285645,-187.8431854248047, -20.52536392211914
233,905290058,0.51658726,-0.5348772,-0.3318763,-0.5804331,14.648639678955078,12.316182136535645,-15.172663688659668,48.92756652832031,-254.6345672607422, -44.831336975097656
234,905306725,0.49190086,-0.56140065,-0.35149857,-0.5650771,17.98183822631836,-0.5833460092544556,2.6796555519104004,-71.08621215820312,-283.9043884277344, -53.824527740478516
235,905323392,0.4755907,-0.5755998,-0.37740278,-0.5477827,9.502163887023926,-3.2489349842071533,11.767049789428711,32.14280319213867,-244.53146362304688, -68.6688003540039
236,905340059,0.4645882,-0.5883672,-0.40630525,-0.5223967,7.767159461975098,-2.877652168273926,-3.343379497528076,90.11602020263672,-267.7273254394531, -38.01366424560547
237,905356726,0.45691168,-0.5976269,-0.4350903,-0.49474302,12.766311645507812,1.39750075340271,-4.053328514099121,120.79717254638672,-254.47198486328125, -28.415252685546875
238,905373393,0.45210296,-0.60344344,-0.46252948,-0.46639675,11.608431816101074,7.015699863433838,-4.429484844207764,140.98300170898438,-232.6286163330078, -21.3400821685791
239,905390060,0.43875653,-0.61379117,-0.48091438,-0.44662616,11.32656478881836,3.913032293319702,-1.8763132095336914,35.26773452758789,-210.4368133544922, -23.192646026611328
240,905406727,0.42455462,-0.62515885,-0.49480578,-0.4290658,13.21180534362793,-2.4990391731262207,-3.415778875350952,7.569600582122803,-193.56614685058594, -10.006786346435547
241,905423394,0.41818944,-0.6291615,-0.5105761,-0.41059235,16.858379364013672,1.0059534311294556,-4.490477561950684,71.43678283691406,-154.61155700683594, -17.5080509185791
242,905440061,0.40899113,-0.6341999,-0.5202756,-0.39978814,19.972627639770508,0.027413221076130867,-2.99015736579895,12.19362735748291,-116.90672302246094, -17.637269973754883
243,905456728,0.3972982,-0.6414243,-0.52454627,-0.394437,24.392108917236328,0.5589765906333923,-5.702845573425293,-39.24365997314453,-93.02616119384766, -8.26862907409668
244,905473395,0.38210666,-0.6488477,-0.52699655,-0.39403814,20.965742111206055,-0.47240251302719116,-0.824658215045929,-77.97791290283203,-79.61035919189453, -22.38707160949707
245,905490062,0.36629432,-0.65687835,-0.526064,-0.39698407,19.396100997924805,0.39904576539993286,-2.702277898788452,-103.63365173339844,-60.1198844909668, -15.460762023925781
246,905506729,0.3465556,-0.66471857,-0.5236881,-0.40472198,18.712234497070312,-0.32624056935310364,2.7868247032165527,-142.1716766357422,-48.87777328491211, -32.27140808105469
247,905523396,0.32183436,-0.67256045,-0.5172022,-0.42022312,16.59242820739746,-2.997972249984741,5.620771884918213,-204.3940887451172,-22.14569091796875, -45.74595260620117
248,905540063,0.2921487,-0.6794355,-0.5123627,-0.43646452,12.716146469116211,-3.299306869506836,5.15337610244751,-223.196044921875,-37.90988540649414, -72.82872009277344
249,905556730,0.25767133,-0.6875537,-0.50847244,-0.44981274,10.046310424804688,-5.3102707862854,-3.2040703296661377,-235.1162109375,-74.52875518798828, -81.57624053955078
250,905573397,0.22159624,-0.6981722,-0.50143546,-0.46044937,11.169750213623047,-11.841739654541016,10.447988510131836,-247.46568298339844,-95.28746795654297, -58.31246566772461
251,905590064,0.1798927,-0.7097116,-0.48906073,-0.47409725,6.700520992279053,-8.583274841308594,5.068742275238037,-303.3670959472656,-95.73645782470703, -52.47181701660156
252,905606731,0.13994367,-0.7164054,-0.48356125,-0.48306102,8.362308502197266,-7.869917869567871,1.4697169065475464,-250.73277282714844,-105.77053833007812, -91.2259521484375
253,905623398,0.10178952,-0.7218762,-0.4815209,-0.48648915,9.738593101501465,-7.061821937561035,2.3977720737457275,-210.92483520507812,-126.56657409667969, -101.46687316894531
254,905640065,0.060244042,-0.72582453,-0.47450444,-0.49436384,11.280475616455078,-8.166522979736328,8.171388626098633,-258.18359375,-107.41780090332031, -96.70258331298828
255,905656732,0.027781406,-0.7258228,-0.4721331,-0.49949998,10.134636878967285,-8.607697486877441,9.078871726989746,-186.4870147705078,-80.3883056640625, -101.27892303466797
256,905673399,0.0016412772,-0.72333646,-0.47257486,-0.5034432,11.109347343444824,-7.744384288787842,6.593846321105957,-140.9163360595703,-58.246700286865234, -101.9573745727539
257,905690066,-0.012596108,-0.7208243,-0.4780473,-0.50172186,12.4198579788208,-9.524771690368652,4.03015661239624,-45.89399337768555,-48.073368072509766, -86.2791748046875
258,905706733,-0.011618699,-0.71843666,-0.48976567,-0.4938053,13.797342300415039,-8.861893653869629,4.631743907928467,71.34921264648438,-29.01754379272461, -65.3791275024414
259,905723400,-0.0029481468,-0.71591914,-0.5017586,-0.4854793,13.765864372253418,-5.03132963180542,4.409306049346924,111.59776306152344,-5.141917705535889, -41.523193359375
260,905740067,0.00839169,-0.7129117,-0.5097882,-0.48145905,13.186014175415039,-3.450549602508545,4.121335506439209,96.66276550292969,26.332298278808594, -14.993346214294434
261,905756734,0.023044147,-0.70897305,-0.5145061,-0.481778,12.54410457611084,-1.1732898950576782,2.499063014984131,86.83367156982422,62.02786636352539, 8.477076530456543
262,905773401,0.0422398,-0.70410216,-0.51563555,-0.48639122,12.220006942749023,-1.2461856603622437,1.0991637706756592,82.12179565429688,102.33619689941406, 36.950565338134766
263,905790068,0.06917154,-0.6984489,-0.5137246,-0.49342865,11.393940925598145,-2.8996810913085938,0.3993522524833679,101.08057403564453,144.77365112304688, 74.06719970703125
264,905806735,0.10441994,-0.69209427,-0.50867456,-0.50135106,10.9788179397583,-3.8954765796661377,-1.3835538625717163,127.5648193359375,182.15817260742188, 114.53545379638672
265,905823402,0.1492803,-0.6843421,-0.5010021,-0.5083193,11.439257621765137,-4.599835395812988,-3.1925089359283447,168.5487823486328,217.95281982421875, 156.1077423095703
266,905840069,0.20255888,-0.67373174,-0.49092025,-0.5138613,12.583967208862305,-2.8504397869110107,-5.024783611297607,207.50811767578125,252.83163452148438, 188.7133026123047
267,905856736,0.25863194,-0.66013193,-0.47632545,-0.52004784,13.243284225463867,-1.7189323902130127,-5.979089260101318,206.4159698486328,282.3214111328125, 208.80369567871094
268,905873403,0.3150101,-0.6440018,-0.456521,-0.526896,14.831028938293457,-1.8536077737808228,-6.3791184425354,191.43214416503906,304.94781494140625, 224.39610290527344
269,905890070,0.37116665,-0.62355983,-0.43235582,-0.53523576,18.38396453857422,0.696147084236145,-5.371544361114502,179.2696075439453,336.3023681640625, 226.4236297607422
270,905906737,0.42132068,-0.60002714,-0.40281534,-0.54790175,19.916486740112305,2.2186858654022217,-6.53279972076416,128.7643585205078,362.4567565917969, 207.4407501220703
271,905923404,0.4590153,-0.5813896,-0.3644038,-0.5643596,20.351055145263672,2.223785877227783,-10.01091194152832,19.166690826416016,351.25543212890625, 199.93231201171875
272,905940071,0.49289405,-0.56060374,-0.33009872,-0.57776636,23.690202713012695,6.130802631378174,-13.234601020812988,34.40169906616211,325.3746032714844, 173.1782684326172
273,905956738,0.523261,-0.5377829,-0.3054694,-0.5862391,23.94391632080078,7.602664470672607,-17.679546356201172,77.37543487548828,274.2412109375, 134.34129333496094
274,905973405,0.54705876,-0.519414,-0.2864984,-0.5906395,16.252674102783203,2.954418897628784,-19.925537109375,68.43207550048828,207.70504760742188, 111.25879669189453
275,905990072,0.5647248,-0.5066909,-0.27495104,-0.5905526,10.191893577575684,4.391317367553711,-23.09943389892578,64.40814971923828,129.29649353027344, 88.01605987548828
276,906006739,0.5724305,-0.50260985,-0.26921216,-0.5892638,6.924517631530762,12.023551940917969,-24.93427276611328,22.110004425048828,49.139129638671875, 48.48305892944336
277,906023406,0.56490767,-0.5140382,-0.2646978,-0.58871,2.6415975093841553,13.06959056854248,-23.046310424804688,-87.9189682006836,-43.72837829589844, 8.615541458129883
278,906040073,0.5452865,-0.5348021,-0.26631516,-0.5879847,5.186839580535889,14.457700729370117,-23.939537048339844,-141.79342651367188,-127.68612670898438, -44.14322280883789
279,906056740,0.5131796,-0.5650859,-0.2691872,-0.58725065,7.452498435974121,11.95889949798584,-21.500118255615234,-218.32606506347656,-193.5708465576172, -81.53045654296875
280,906073407,0.47758847,-0.6030468,-0.27969706,-0.5744684,14.41691780090332,1.6557269096374512,-50.533809661865234,-205.79019165039062,-304.7072448730469, -68.35730743408203
281,906090074,0.46631357,-0.61330193,-0.32147425,-0.5505155,31.669193267822266,-3.5498745441436768,20.194854736328125,131.35472106933594,-296.85906982421875, -118.60221862792969
282,906106741,0.45020932,-0.62562907,-0.35584474,-0.5284645,4.985648155212402,-0.1785905957221985,4.016056537628174,71.95326232910156,-284.032958984375, -107.28224182128906
283,906123408,0.43694425,-0.63749295,-0.38186154,-0.50681823,19.739154815673828,5.586298942565918,-2.658137798309326,54.22626876831055,-247.98887634277344, -63.524620056152344
284,906140075,0.42727757,-0.6447249,-0.40605748,-0.48670477,7.6634440422058105,1.123268723487854,-2.311485767364502,73.5748519897461,-210.31582641601562, -59.76755142211914
285,906156742,0.42408836,-0.6477947,-0.42801514,-0.46617004,14.938167572021484,0.8052592277526855,-0.6789708137512207,108.18244171142578,-173.6831512451172, -38.636295318603516
286,906173409,0.41674003,-0.6516247,-0.4439819,-0.45232007,13.439779281616211,-2.1682543754577637,-3.041511297225952,48.530967712402344,-141.23739624023438, -42.59407043457031
287,906190076,0.41497302,-0.65086645,-0.46300757,-0.43565452,11.80260944366455,-3.3487422466278076,-6.791217803955078,104.76422882080078,-131.40713500976562, -44.963897705078125
288,906206743,0.4120211,-0.6502494,-0.47876337,-0.42213783,10.020598411560059,0.29134079813957214,-5.4956560134887695,79.21756744384766,-112.21992492675781, -42.50701141357422
289,906223410,0.4110465,-0.64700305,-0.49394277,-0.41042522,14.965129852294922,-0.3395962417125702,-5.453299522399902,87.8780517578125,-88.43092346191406, -47.99783706665039
290,906240077,0.41156957,-0.6415041,-0.50903404,-0.39995944,15.006109237670898,-1.7673505544662476,-6.997439384460449,96.40000915527344,-71.25743865966797, -54.58761978149414
291,906256744,0.4131581,-0.6353561,-0.5218939,-0.39147198,17.61379051208496,-0.17800168693065643,-5.196865558624268,89.85334777832031,-50.7497673034668, -49.728004455566406
292,906273411,0.4118567,-0.6322843,-0.5298843,-0.38705796,20.069541931152344,2.267638683319092,-3.6740834712982178,40.74467849731445,-37.845149993896484, -36.77970504760742
293,906290078,0.39637408,-0.64199317,-0.52487224,-0.39400762,23.523386001586914,4.840641498565674,-1.10206139087677,-133.1115264892578,-37.406436920166016, -3.5792577266693115
294,906306745,0.367552,-0.66132474,-0.5070171,-0.4129032,19.689388275146484,5.112833023071289,-0.8087067008018494,-296.19549560546875,-24.032737731933594, 19.217857360839844
295,906323412,0.34436324,-0.6729388,-0.49700564,-0.42609045,15.701333999633789,3.222520112991333,-1.4454796314239502,-208.8487548828125,-28.38682746887207, -12.890657424926758
296,906340079,0.326237,-0.6771856,-0.49680838,-0.43378663,14.469161987304688,1.6261694431304932,2.6818060874938965,-120.44194793701172,-38.229957580566406, -55.63694763183594
297,906356746,0.28323117,-0.69308746,-0.47659442,-0.4607253,15.625316619873047,2.8754324913024902,2.8883814811706543,-388.0705871582031,-23.606719970703125, -40.01831817626953
298,906373413,0.23934498,-0.705127,-0.4619248,-0.4818046,8.64201831817627,-9.320826530456543,1.6815961599349976,-347.930419921875,-53.101348876953125, -70.50140380859375
299,906390080,0.20736445,-0.70815486,-0.46141082,-0.49256188,6.361203193664551,-10.363333702087402,1.5778703689575195,-195.6458282470703,-58.814781188964844, -111.4164810180664
300,906406747,0.1803004,-0.70926344,-0.4696753,-0.4938043,7.626662731170654,-13.899313926696777,1.2107141017913818,-109.07186889648438,-95.58861541748047, -130.1315460205078
301,906423414,0.15550974,-0.7101876,-0.48525688,-0.4857741,8.518830299377441,-9.248908042907715,1.2415368556976318,-43.02300262451172,-141.94598388671875, -147.31210327148438
302,906440081,0.12007498,-0.7125403,-0.49808073,-0.47935846,14.787453651428223,-3.3269152641296387,7.120633125305176,-111.1793212890625,-171.4461669921875, -166.44520568847656
303,906456748,0.08181764,-0.7131224,-0.51057756,-0.47336373,15.971253395080566,-11.463157653808594,11.167003631591797,-126.0710220336914,-173.0349884033203, -180.6134796142578
304,906473415,0.046876747,-0.7103814,-0.5226953,-0.46898946,18.283132553100586,-14.240252494812012,9.606996536254883,-114.88124084472656,-142.51405334472656, -180.62332153320312
305,906490082,0.02117173,-0.7049941,-0.53617877,-0.46373257,22.171581268310547,-18.689538955688477,8.022951126098633,-61.34992218017578,-105.62141418457031, -166.83224487304688
306,906506749,0.0124353245,-0.6975914,-0.55576915,-0.4520318,22.624570846557617,-17.607128143310547,9.055747032165527,64.37995910644531,-68.87447357177734, -148.92735290527344
307,906523416,0.010560895,-0.6905768,-0.572511,-0.44184145,19.561044692993164,-12.175875663757324,9.52570915222168,82.59872436523438,-36.49522018432617, -112.66316223144531
308,906540083,0.010182515,-0.6846324,-0.58158636,-0.4392406,16.85811996459961,-10.53285026550293,8.06301212310791,36.45001220703125,2.6358518600463867, -68.09880065917969
309,906556750,0.017910887,-0.68034273,-0.5846376,-0.441602,13.227225303649902,-8.383512496948242,4.970768928527832,36.45231246948242,53.76393127441406, -9.02491283416748
310,906573417,0.036814213,-0.67786634,-0.5809748,-0.4490106,9.619612693786621,-5.467284202575684,2.8386404514312744,47.820640563964844,117.58673858642578, 62.966407775878906
311,906590084,0.06619898,-0.67642635,-0.5699135,-0.46180522,8.744739532470703,-5.3780903816223145,0.10483711957931519,52.05186080932617,183.25416564941406, 132.60711669921875
312,906606751,0.10620819,-0.6750925,-0.55275667,-0.4768967,8.381440162658691,-4.120208740234375,-2.0793418884277344,73.05477905273438,238.06895446777344, 194.10809326171875
313,906623418,0.15444644,-0.6726698,-0.529434,-0.49331692,9.97717571258545,-1.9874356985092163,-3.007509231567383,86.77543640136719,283.6784362792969, 244.66844177246094
314,906640085,0.20754178,-0.667115,-0.5001964,-0.5115544,11.971860885620117,2.810894012451172,-2.8348679542541504,85.88641357421875,326.7750244140625, 275.2338562011719
315,906656752,0.26060352,-0.6594532,-0.4636552,-0.5312548,13.005167007446289,3.334881544113159,-4.925199031829834,58.01762008666992,351.2902526855469, 299.350341796875
316,906673419,0.3210925,-0.64529,-0.42829254,-0.5450379,15.075475692749023,8.057916641235352,-4.97583532333374,126.59109497070312,369.8828125, 311.09149169921875
317,906690086,0.38477454,-0.622279,-0.3942377,-0.5561424,19.670854568481445,9.354686737060547,-6.180889129638672,173.17601013183594,397.7796630859375, 297.2061767578125
318,906706753,0.44187462,-0.59653926,-0.3574132,-0.5666956,23.567594528198242,6.135808944702148,-12.889217376708984,143.13641357421875,395.36376953125, 278.00390625
319,906723420,0.49938416,-0.5631888,-0.3300038,-0.56967676,30.074031829833984,6.330585956573486,-20.399229049682617,223.32513427734375,366.4324035644531, 245.33531188964844
320,906740087,0.55092686,-0.5244679,-0.31303474,-0.5687027,30.857126235961914,10.255329132080078,-21.504085540771484,268.5343322753906,322.86688232421875, 182.9535675048828
321,906756754,0.57938445,-0.50280005,-0.28935674,-0.57251996,26.60901641845703,9.985676765441895,-25.025514602661133,84.02584075927734,249.22434997558594, 135.46493530273438
322,906773421,0.5863025,-0.49843007,-0.2636377,-0.5816465,12.83153247833252,16.49582862854004,-22.157995223999023,-77.9308853149414,164.92457580566406, 71.07809448242188
323,906790088,0.57417303,-0.51159954,-0.23918834,-0.5927737,4.818418025970459,11.111483573913574,-30.415870666503906,-212.39976501464844,62.11192321777344, 14.439560890197754
324,906806755,0.55945367,-0.5266307,-0.23112355,-0.5968701,5.153426170349121,9.80585765838623,-29.249561309814453,-150.44970703125,-39.003387451171875, -22.841495513916016
325,906823422,0.54148287,-0.54495245,-0.24012157,-0.59343505,6.79374361038208,7.832186698913574,-28.385587692260742,-92.82719421386719,-150.44927978515625, -63.69512939453125
326,906840089,0.52395487,-0.56262827,-0.2632858,-0.5827535,10.884817123413086,6.654923915863037,-25.993799209594727,-18.928531646728516,-226.8608856201172, -89.01876831054688
327,906856756,0.5098396,-0.58144224,-0.2959435,-0.5607196,21.47837257385254,3.0628325939178467,-27.111286163330078,48.85096740722656,-303.27880859375, -69.09907531738281
328,906873423,0.49868912,-0.5914366,-0.33138457,-0.5400893,21.16842269897461,-7.192850589752197,20.36602020263672,99.56364440917969,-267.2091064453125, -91.68192291259766
329,906890090,0.48759744,-0.60177815,-0.3632061,-0.51787406,9.136577606201172,-7.475412845611572,1.6329843997955322,88.7843017578125,-262.55780029296875, -70.594970703125
330,906906757,0.48512578,-0.6027958,-0.4026069,-0.48907903,22.532085418701172,4.788218021392822,0.2622796297073364,199.09933471679688,-260.52337646484375, -72.60936737060547
331,906923424,0.483828,-0.6021552,-0.43786275,-0.4599959,8.629347801208496,5.46604061126709,-1.8891899585723877,196.36805725097656,-239.08438110351562, -55.12363815307617
332,906940091,0.4768914,-0.60760826,-0.46097505,-0.43690896,12.532868385314941,-1.6121402978897095,1.5488797426223755,96.24021911621094,-210.09312438964844, -24.288429260253906
333,906956758,0.46895704,-0.6135384,-0.47641772,-0.42032912,11.552420616149902,1.2944062948226929,-5.083625316619873,46.81901168823242,-162.3939666748047, -15.102781295776367
334,906973425,0.4633294,-0.6153328,-0.49394208,-0.40337697,6.156818866729736,0.20973345637321472,-6.806125164031982,77.12885284423828,-151.1861114501953, -29.58062744140625
335,906990092,0.456537,-0.6191049,-0.50867,-0.38670185,12.32291030883789,-4.267914772033691,-1.7308951616287231,57.18937301635742,-150.54293823242188, -15.166845321655273
336,907006759,0.45160735,-0.62103426,-0.52102536,-0.37269306,16.360990524291992,0.6500858068466187,-4.612330913543701,55.24465560913086,-120.37181091308594, -14.967897415161133
337,907023426,0.44032285,-0.6282746,-0.52273667,-0.371663,11.088306427001953,1.9115873575210571,-4.865704536437988,-62.1552619934082,-68.31102752685547, -7.065796852111816
338,907040093,0.4289732,-0.6368282,-0.51700723,-0.37833303,12.742180824279785,-0.5561367869377136,-6.779529571533203,-113.10284423828125,-16.1397705078125, 6.343758583068848
339,907056760,0.41614243,-0.64597195,-0.5069582,-0.39056292,16.195228576660156,-0.9220374226570129,-5.147780418395996,-152.34141540527344,14.12473201751709, 7.126534938812256
340,907073427,0.39565316,-0.65926313,-0.4909647,-0.4096153,18.447547912597656,-0.6111786365509033,-4.030605316162109,-238.0068817138672,23.564332962036133, 7.925508975982666
341,907090094,0.378187,-0.6691692,-0.4815284,-0.4210912,17.035751342773438,-0.17055357992649078,-5.8275837898254395,-171.0364227294922,-8.934672355651855, -4.074928283691406
342,907106761,0.3637434,-0.6755788,-0.4800183,-0.4252843,17.513525009155273,1.8220925331115723,-3.6560583114624023,-100.97523498535156,-42.95330047607422, -24.418548583984375
343,907123428,0.35674372,-0.67571825,-0.4889726,-0.42076722,16.39068603515625,1.301365613937378,0.8241276741027832,8.631893157958984,-66.71882629394531, -50.160316467285156
344,907140095,0.34895375,-0.6723767,-0.50074697,-0.4188004,18.545530319213867,0.7767923474311829,4.611672401428223,13.066507339477539,-54.43144989013672, -83.5075912475586
345,907156762,0.3327804,-0.67144954,-0.5068905,-0.42599905,17.63286781311035,-1.2042027711868286,7.300097942352295,-79.2702407836914,-34.45365524291992, -95.29627227783203
346,907173429,0.30736145,-0.6734866,-0.5082127,-0.44007385,12.86036491394043,-2.0164825916290283,7.4290361404418945,-166.87069702148438,-32.6888542175293, -105.53938293457031
347,907190096,0.27470955,-0.6786039,-0.50958693,-0.45205414,7.156928062438965,-8.024581909179688,3.3142342567443848,-199.4280548095703,-77.19194030761719, -112.51236724853516
348,907206763,0.2433342,-0.68646526,-0.51161885,-0.45585135,7.322134971618652,-14.15791130065918,6.878089904785156,-167.97930908203125,-120.72067260742188, -86.5917739868164
349,907223430,0.204345,-0.6975456,-0.5123336,-0.4573708,8.214731216430664,-9.838658332824707,7.928992748260498,-205.50628662109375,-166.22836303710938, -89.20877075195312
350,907240097,0.16174756,-0.7071486,-0.5163102,-0.45519528,11.1116304397583,-11.765618324279785,2.3148584365844727,-197.5217742919922,-196.6864776611328, -116.29130554199219
351,907256764,0.12922828,-0.71100146,-0.529357,-0.44447556,13.964712142944336,-10.856911659240723,3.0257387161254883,-83.42493438720703,-194.57229614257812, -139.8294219970703
352,907273431,0.09746631,-0.7125652,-0.5403303,-0.43680057,20.244770050048828,-7.776228427886963,7.534228801727295,-95.168212890625,-168.1564178466797, -138.4739532470703
353,907290098,0.065224715,-0.711093,-0.54801226,-0.4356323,21.98054313659668,-13.955147743225098,11.429512977600098,-129.5739288330078,-126.84679412841797, -139.4976806640625
354,907306765,0.047487892,-0.70547247,-0.55951023,-0.43243742,23.24676513671875,-11.131877899169922,11.827288627624512,-37.76584243774414,-71.5298843383789, -129.51296997070312
355,907323432,0.0336324,-0.6985207,-0.5673318,-0.43482506,19.767478942871094,-9.610464096069336,8.047296524047852,-50.93259811401367,-24.51807403564453, -107.16854858398438
356,907340099,0.026694577,-0.6922267,-0.572037,-0.4391854,16.264484405517578,-11.228257179260254,5.2883405685424805,-34.8871955871582,10.579137802124023, -69.48628234863281
357,907356766,0.033647828,-0.68606937,-0.57640964,-0.4426387,12.418850898742676,-9.129767417907715,5.727375030517578,33.72538757324219,60.451778411865234, -25.31509017944336
358,907373433,0.0516348,-0.68041664,-0.57664037,-0.4492811,9.049015045166016,-6.25822114944458,3.0166590213775635,60.395503997802734,118.57905578613281, 29.0278263092041
359,907390100,0.08104759,-0.6756443,-0.57075316,-0.4595402,9.087158203125,-6.117171764373779,0.9242495894432068,80.29295349121094,180.23822021484375, 95.14607238769531
360,907406767,0.1231058,-0.67049265,-0.5596428,-0.47125906,9.422538757324219,-5.259407997131348,-0.30055898427963257,117.0056381225586,240.77731323242188, 157.08860778808594
361,907423434,0.17459442,-0.6641565,-0.54250526,-0.4838404,10.384000778198242,-2.7587711811065674,-0.9551219940185547,138.63223266601562,290.03741455078125, 210.18496704101562
362,907440101,0.23070069,-0.65548515,-0.51809955,-0.4986879,10.799515724182129,-0.2695070207118988,-1.2386682033538818,129.8829803466797,334.1778869628906, 247.3538055419922
363,907456768,0.28831425,-0.6448229,-0.48554862,-0.51509356,11.659442901611328,2.74204158782959,-2.1627981662750244,106.33660888671875,366.3984069824219, 279.72174072265625
364,907473435,0.346865,-0.6298705,-0.44827634,-0.53103364,14.239877700805664,8.396055221557617,-2.5407116413116455,103.85242462158203,392.1088562011719, 290.6174621582031
365,907490102,0.40620732,-0.6072522,-0.40919968,-0.5466227,19.103328704833984,11.20494270324707,-5.494069576263428,120.12826538085938,425.42938232421875, 278.60400390625
366,907506769,0.46366093,-0.5780572,-0.37266326,-0.5585617,23.92045021057129,8.988993644714355,-12.718355178833008,150.5344696044922,422.5458984375, 252.66358947753906
367,907523436,0.5144278,-0.5459976,-0.34295258,-0.5653623,31.012712478637695,8.708907127380371,-19.919723510742188,172.46678161621094,374.25372314453125, 208.9285430908203
368,907540103,0.5443845,-0.5279257,-0.30823135,-0.5743986,31.5477294921875,11.82845401763916,-30.388294219970703,20.02456283569336,296.9925537109375, 171.9502716064453
369,907556770,0.56185925,-0.5162188,-0.28172275,-0.5817774,21.448312759399414,12.568039894104004,-25.759815216064453,-13.020258903503418,208.8662109375, 112.6745834350586
370,907573437,0.5603408,-0.5180285,-0.26251945,-0.59054923,6.701021194458008,16.264249801635742,-33.46916961669922,-106.07434844970703,94.95621490478516, 31.710580825805664
371,907590104,0.5471187,-0.5307775,-0.25103626,-0.59658825,7.050133228302002,10.780329704284668,-33.07917785644531,-153.4900360107422,-9.828649520874023, -12.83829116821289
372,907606771,0.52329373,-0.55331135,-0.24847357,-0.5985579,7.383053302764893,10.135705947875977,-31.368343353271484,-185.29124450683594,-116.45573425292969, -56.55329513549805
373,907623438,0.48906425,-0.58685577,-0.25247142,-0.5938645,10.560698509216309,5.0206122398376465,-49.10614013671875,-226.0552215576172,-228.34747314453125, -81.43150329589844
374,907640105,0.4649034,-0.61080605,-0.27939442,-0.5768189,28.523881912231445,1.1766157150268555,-5.648799896240234,-37.894065856933594,-298.2662658691406, -107.86507415771484
375,907656772,0.4476978,-0.6230301,-0.3122538,-0.560266,14.359175682067871,-3.3950629234313965,24.896163940429688,51.40729522705078,-255.19625854492188, -129.2978057861328
376,907673439,0.4270161,-0.6413088,-0.33410475,-0.5429131,15.145383834838867,-2.314687728881836,-4.998326301574707,-22.797748565673828,-255.74673461914062, -80.10955047607422
377,907690106,0.4166285,-0.6484623,-0.3649598,-0.52222806,12.413774490356445,8.863224029541016,-1.1361310482025146,96.61901092529297,-231.66558837890625, -97.216552734375
378,907706773,0.40007025,-0.66016865,-0.38256454,-0.50770646,4.950190544128418,1.703242301940918,-3.2507615089416504,-6.993497848510742,-198.0306396484375, -66.47734832763672
379,907723440,0.39530343,-0.66423595,-0.40149945,-0.49124786,9.711599349975586,1.0591363906860352,-3.7772998809814453,77.27671813964844,-152.77069091796875, -46.142303466796875
380,907740107,0.39318204,-0.6662579,-0.41770226,-0.4764803,7.425541400909424,-3.8330633640289307,-5.303093910217285,81.05648040771484,-123.39512634277344, -35.01007080078125
381,907756774,0.388913,-0.6703671,-0.42661694,-0.4662114,11.720735549926758,-2.018925905227661,-3.7683193683624268,28.749881744384766,-96.06316375732422, -14.890406608581543
382,907773441,0.37919715,-0.67539185,-0.43383527,-0.46026373,21.912473678588867,1.4234189987182617,-0.5210345387458801,-16.926570892333984,-90.53323364257812, -33.43107223510742
383,907790108,0.36998585,-0.6784012,-0.4439314,-0.45366025,13.107661247253418,1.0678268671035767,-4.319711685180664,1.7366796731948853,-93.2686538696289, -49.489559173583984
384,907806775,0.3590188,-0.6816201,-0.44979334,-0.4518695,14.016900062561035,1.1486650705337524,-5.392838954925537,-34.880584716796875,-66.0738525390625, -46.81559753417969
385,907823442,0.34315974,-0.68715864,-0.45011517,-0.455468,15.431044578552246,0.5471953749656677,-4.904976844787598,-97.4139175415039,-49.4935302734375, -42.162940979003906
386,907840109,0.3227507,-0.69386375,-0.4465602,-0.4636481,15.20425796508789,2.123792886734009,-4.3425493240356445,-147.99192810058594,-36.46986770629883, -45.27118682861328
387,907856776,0.30389258,-0.69907963,-0.44358256,-0.47135082,15.169296264648438,3.080332040786743,-5.079841136932373,-133.9796600341797,-30.560626983642578, -46.5533561706543
388,907873443,0.2869746,-0.7030759,-0.4413985,-0.47801417,15.324535369873047,3.0246918201446533,-3.9648847579956055,-116.3513412475586,-27.378572463989258, -45.590084075927734
389,907890110,0.27449855,-0.70538414,-0.44194713,-0.48142177,16.566648483276367,0.3313281536102295,-1.034716010093689,-72.67652893066406,-29.521202087402344, -42.87255859375
390,907906777,0.26769173,-0.7045165,-0.44821018,-0.4807346,19.365764617919922,-3.8931665420532227,0.7264280915260315,-7.8505964279174805,-32.493492126464844, -53.7528076171875
391,907923444,0.26263046,-0.69994617,-0.46282232,-0.4763368,17.528730392456055,-6.18035364151001,4.137820720672607,46.39848327636719,-48.304595947265625, -93.06954193115234
392,907940111,0.25713256,-0.6915973,-0.4832029,-0.4712656,13.225025177001953,-4.545958518981934,1.9797050952911377,72.0772705078125,-51.08706283569336, -133.15713500976562
393,907956778,0.2470354,-0.68432677,-0.50398237,-0.465481,12.049173355102539,-9.173664093017578,4.478525638580322,51.90632247924805,-74.0308837890625, -145.18270874023438
394,907973445,0.23122825,-0.6839809,-0.514872,-0.46218055,9.590459823608398,-10.510124206542969,8.915578842163086,-27.078628540039062,-87.59637451171875, -97.2401351928711
395,907990112,0.20360889,-0.6888668,-0.5195906,-0.4626358,8.720306396484375,-6.3422112464904785,5.140435218811035,-123.96184539794922,-118.7256851196289, -93.31210327148438
396,908006779,0.16926618,-0.6931527,-0.5250435,-0.46391633,11.31746768951416,-7.350189685821533,7.12106466293335,-155.6490478515625,-138.07122802734375, -121.55783081054688
397,908023446,0.1327251,-0.69653934,-0.53278357,-0.4619082,11.73625373840332,-10.795873641967773,1.6453584432601929,-145.97068786621094,-161.62277221679688, -138.98904418945312
398,908040113,0.09612364,-0.6995433,-0.54000133,-0.4580375,19.45469093322754,-10.468971252441406,5.672097206115723,-140.85870361328125,-169.17938232421875, -136.49114990234375
399,908056780,0.06143521,-0.6998239,-0.5459987,-0.45646253,20.419178009033203,-15.806568145751953,8.582073211669922,-142.3240966796875,-141.8367156982422, -136.36349487304688
400,908073447,0.042640507,-0.69604766,-0.55836254,-0.44936764,23.93659019470215,-15.760759353637695,10.676788330078125,-23.543689727783203,-98.91931915283203, -130.1742401123047
401,908090114,0.036507174,-0.6897481,-0.5740547,-0.4397456,21.808555603027344,-12.307353019714355,10.552824020385742,57.66392135620117,-55.89570999145508, -116.09744262695312
402,908106781,0.038579665,-0.6835221,-0.5870766,-0.43203107,19.580368041992188,-10.238693237304688,9.149460792541504,80.89302825927734,-14.31183910369873, -78.93711853027344
403,908123448,0.05298999,-0.6771132,-0.5992068,-0.42386475,15.132153511047363,-7.391256809234619,8.802011489868164,138.04112243652344,33.862789154052734, -38.791263580322266
404,908140115,0.074525796,-0.67127115,-0.6051257,-0.42150205,10.562158584594727,-5.421799659729004,5.481649875640869,128.9723663330078,90.62311553955078, 11.076590538024902
405,908156782,0.104795955,-0.6659012,-0.60398424,-0.42520234,9.266593933105469,-5.228311538696289,3.3768157958984375,123.32508850097656,157.05587768554688, 67.83364868164062
406,908173449,0.14324354,-0.6601905,-0.59559876,-0.43461755,8.30748462677002,-5.136850833892822,1.5223164558410645,116.05369567871094,223.3216094970703, 119.3756332397461
407,908190116,0.18896694,-0.6536062,-0.5792968,-0.44889405,9.375925064086914,-3.610508680343628,-0.6038551330566406,106.30799865722656,285.58154296875, 168.6895751953125
408,908206783,0.23777775,-0.64582294,-0.5535106,-0.46904242,10.89637279510498,-1.3410283327102661,-2.1429734230041504,68.99376678466797,340.3359069824219, 208.41969299316406
409,908223450,0.28763038,-0.63697416,-0.51912904,-0.49197394,11.48147201538086,0.6192196011543274,-4.427192211151123,36.9753303527832,374.2287292480469, 241.3022003173828
410,908240117,0.34258944,-0.62506664,-0.48194483,-0.50956213,12.514824867248535,2.300251007080078,-7.259235382080078,74.97502136230469,385.0527648925781, 270.4722900390625
411,908256784,0.40379554,-0.6054479,-0.44710517,-0.52007633,15.867533683776855,6.82401180267334,-9.027754783630371,151.72401428222656,396.9977111816406, 273.4020080566406
412,908273451,0.4609274,-0.58368164,-0.40913165,-0.52865237,20.38838768005371,5.17894172668457,-12.959609031677246,135.5543670654297,392.8987121582031, 270.7193298339844
413,908290118,0.51773566,-0.5547565,-0.3762877,-0.5316042,25.47849464416504,6.559871196746826,-16.99325942993164,191.48553466796875,379.36749267578125, 246.71676635742188
414,908306785,0.5667698,-0.5233775,-0.3482585,-0.5325078,30.159557342529297,7.147134304046631,-19.602113723754883,193.57142639160156,343.4580993652344, 200.98890686035156
415,908323452,0.6008868,-0.49938422,-0.3194096,-0.53621674,27.093368530273438,10.641201972961426,-19.175128936767578,101.35086822509766,294.24664306640625, 156.18748474121094
416,908340119,0.6142306,-0.49113202,-0.2907057,-0.54497784,19.171178817749023,11.838338851928711,-24.171695709228516,-45.37922668457031,207.59622192382812, 93.03974151611328
417,908356786,0.611833,-0.49575698,-0.2642653,-0.55682117,13.006649017333984,12.372803688049316,-25.925701141357422,-150.38641357421875,129.07449340820312, 39.41423034667969
418,908373453,0.59280306,-0.5154678,-0.24119146,-0.5698285,4.067783832550049,13.563405990600586,-30.00469970703125,-259.6361389160156,31.226642608642578, -12.96131420135498
419,908390120,0.5634476,-0.5433889,-0.2284081,-0.5788657,8.254742622375488,12.434687614440918,-29.388593673706055,-282.6378479003906,-73.81635284423828, -59.84410858154297
420,908406787,0.5337449,-0.57034403,-0.23427291,-0.5787406,8.48361587524414,7.301044464111328,-26.939088821411133,-191.3670196533203,-176.73330688476562, -96.68006896972656
421,908423454,0.4985921,-0.6066729,-0.24426131,-0.56893814,12.466911315917969,-1.2660309076309204,-43.91038131713867,-215.05587768554688,-275.7037048339844, -83.8062973022461
422,908440121,0.48715407,-0.619289,-0.28312543,-0.54681116,28.04133415222168,-0.0891503244638443,5.430641174316406,99.26589965820312,-293.039306640625, -109.04989624023438
423,908456788,0.48033503,-0.62413853,-0.32158887,-0.5256525,10.105506896972656,-3.655423641204834,16.722768783569336,141.49758911132812,-249.37701416015625, -108.38616180419922
424,908473455,0.46696082,-0.6384906,-0.34831163,-0.50294805,11.764988899230957,-7.308562278747559,-5.541657447814941,42.899662017822266,-266.2912292480469, -55.69883346557617
425,908490122,0.47023726,-0.63731486,-0.3811187,-0.47692284,14.401922225952148,7.098560333251953,-2.4854202270507812,194.87705993652344,-206.7858428955078, -51.525909423828125
426,908506789,0.46562532,-0.6402719,-0.4061615,-0.45637515,15.716643333435059,0.4088052809238434,2.1112220287323,107.12297058105469,-191.884521484375, -50.237518310546875
427,908523456,0.46507433,-0.6383161,-0.43381408,-0.4336635,18.786773681640625,0.572716236114502,0.049259722232818604,154.98960876464844,-183.09799194335938, -55.84305191040039
428,908540123,0.458619,-0.6397361,-0.45752454,-0.413616,9.703326225280762,0.651856005191803,-2.4943246841430664,98.52761840820312,-186.52903747558594, -54.63636779785156
429,908556790,0.44706616,-0.6464025,-0.4718718,-0.39954126,9.654047012329102,-0.34791049361228943,-3.5027308464050293,14.13566780090332,-161.7072296142578, -30.317731857299805
430,908573457,0.43012947,-0.6579818,-0.47196358,-0.39912328,13.908863067626953,-0.34467920660972595,-3.079289436340332,-108.3912353515625,-88.18746948242188, -7.799849033355713
431,908590124,0.41077563,-0.67040366,-0.4628748,-0.40935278,12.392961502075195,-3.0668556690216064,-5.862453937530518,-181.5812225341797,-23.099313735961914, -1.626880407333374
432,908606791,0.39504844,-0.6773867,-0.4565322,-0.42031312,13.471519470214844,0.47990506887435913,-6.576047420501709,-144.1310272216797,-0.6738055348396301, -23.442827224731445
433,908623458,0.37666425,-0.68442297,-0.45007855,-0.43257236,13.026305198669434,-1.7743767499923706,-6.327571392059326,-161.06423950195312,-2.850043296813965, -33.925785064697266
434,908640125,0.35900402,-0.69032663,-0.44509023,-0.44323826,18.062416076660156,3.4615821838378906,-5.733637809753418,-145.46286010742188,-8.566776275634766, -38.035980224609375
435,908656792,0.34088165,-0.6961995,-0.44110647,-0.4522515,18.627700805664062,2.3772943019866943,-3.91438364982605,-139.44960021972656,-20.268558502197266, -40.173423767089844
436,908673459,0.3308703,-0.6980886,-0.44297206,-0.4549434,17.7490234375,1.52894926071167,-2.219416379928589,-53.919342041015625,-27.319175720214844, -40.19249725341797
437,908690126,0.32532436,-0.69640857,-0.45168316,-0.45294788,19.113534927368164,-0.3329799771308899,0.1281943917274475,11.30074405670166,-40.69489288330078, -59.290462493896484
438,908706793,0.3206961,-0.690863,-0.4667716,-0.44942972,17.605358123779297,-5.009264945983887,4.916913032531738,48.897037506103516,-47.44951248168945, -95.59971618652344
439,908723460,0.31053406,-0.6858711,-0.480543,-0.44969794,16.61700439453125,-5.273659706115723,6.926482677459717,5.0790934562683105,-46.157737731933594, -113.08606719970703
440,908740127,0.28758365,-0.6854746,-0.48898235,-0.4564178,10.883018493652344,-2.3952813148498535,1.2762010097503662,-102.93592071533203,-60.96331024169922, -126.14889526367188
441,908756794,0.25727764,-0.6904713,-0.49546015,-0.45997524,8.256267547607422,-15.932373046875,9.30434799194336,-143.84507751464844,-113.72322845458984, -115.65208435058594
442,908773461,0.23008572,-0.69613826,-0.5013727,-0.45943224,6.529882907867432,-10.186914443969727,9.171069145202637,-118.2176513671875,-123.84654998779297, -93.73859405517578
443,908790128,0.18644834,-0.70747054,-0.49988726,-0.46350345,10.917282104492188,-8.995087623596191,8.958953857421875,-245.34228515625,-164.81373596191406, -98.1737289428711
444,908806795,0.14087209,-0.71562606,-0.50050336,-0.46640232,10.966421127319336,-10.558510780334473,5.886965274810791,-240.05857849121094,-169.8932647705078, -124.11378479003906
445,908823462,0.099372976,-0.72076166,-0.50568235,-0.46358764,13.520540237426758,-10.988505363464355,-0.6112591624259949,-182.8448028564453,-178.81033325195312, -138.46185302734375
446,908840129,0.06675262,-0.7234966,-0.51186615,-0.45835602,21.999658584594727,-11.912212371826172,7.3782243728637695,-125.68414306640625,-152.9990692138672, -121.93020629882812
447,908856796,0.04190938,-0.72305924,-0.5189694,-0.45398244,17.761682510375977,-14.549903869628906,9.564459800720215,-85.7559814453125,-111.9672622680664, -113.6789779663086
448,908873463,0.028601967,-0.71966296,-0.52829367,-0.44963712,19.600000381469727,-9.536115646362305,9.616094589233398,-20.816726684570312,-62.25294876098633, -99.39411926269531
449,908890130,0.019840635,-0.7141887,-0.5356801,-0.45009768,15.914660453796387,-7.232929706573486,5.918707847595215,-21.39631462097168,-15.340189933776855, -84.3410873413086
450,908906797,0.015198417,-0.7093603,-0.53862375,-0.45438072,13.509818077087402,-8.892267227172852,3.705068349838257,-29.09840202331543,17.09393882751465, -47.997772216796875
451,908923464,0.02468309,-0.7042102,-0.5422169,-0.45769018,11.417877197265625,-8.024740219116211,2.895082712173462,45.42279815673828,65.51029205322266, -8.182865142822266
452,908940131,0.047033913,-0.6988033,-0.54458743,-0.46139637,9.178486824035645,-4.427770137786865,1.4979826211929321,102.39740753173828,116.34654998779297, 37.176788330078125
453,908956798,0.07717998,-0.6937412,-0.54062307,-0.4695676,8.662025451660156,-4.867895603179932,0.49555084109306335,102.9197006225586,167.92971801757812, 92.20175170898438
454,908973465,0.117363,-0.68850166,-0.53231305,-0.47836664,8.783811569213867,-5.6630401611328125,-1.0916026830673218,134.5135498046875,211.13351440429688, 144.3686065673828
455,908990132,0.1683988,-0.681489,-0.52090126,-0.48567182,9.980055809020996,-4.94602632522583,-1.6897776126861572,182.57412719726562,252.17408752441406, 189.51071166992188
456,909006799,0.22775862,-0.6705948,-0.504831,-0.49353296,12.813798904418945,-1.3381946086883545,-1.8580691814422607,208.52464294433594,303.0381164550781, 224.65029907226562
457,909023466,0.28494367,-0.656688,-0.47960246,-0.5074938,12.880044937133789,2.6956379413604736,-2.4560210704803467,150.93235778808594,348.2518005371094, 239.5155792236328
458,909040133,0.33841372,-0.641948,-0.445945,-0.5239394,14.028494834899902,2.7157063484191895,-4.971266746520996,98.19537353515625,366.7278747558594, 257.0308532714844
459,909056800,0.39385992,-0.6222941,-0.4109674,-0.5373365,17.691709518432617,7.108623504638672,-5.2484211921691895,122.98615264892578,380.234375, 262.046875
460,909073467,0.44616446,-0.59905654,-0.37298745,-0.55040854,21.206501007080078,4.117566108703613,-8.184052467346191,109.178955078125,391.4450378417969, 254.11648559570312
461,909090134,0.49757686,-0.57156867,-0.34086457,-0.5563618,24.06361198425293,3.422184467315674,-13.946609497070312,159.08824157714844,358.02838134765625, 237.61050415039062
462,909106801,0.5427646,-0.54215014,-0.31462163,-0.5590109,28.46434783935547,7.508013725280762,-19.051862716674805,171.55575561523438,317.837646484375, 197.5354766845703
463,909123468,0.5700851,-0.52405274,-0.287586,-0.5636191,24.71346092224121,8.321452140808105,-25.520021438598633,55.322505950927734,246.11190795898438, 149.05897521972656
464,909140135,0.5873692,-0.51088196,-0.26994884,-0.56667876,15.422320365905762,10.978082656860352,-25.289640426635742,39.524715423583984,165.00595092773438, 92.29834747314453
465,909156802,0.58305514,-0.51633984,-0.2515994,-0.57457656,4.850437164306641,13.535379409790039,-28.75874900817871,-123.15936279296875,72.44889831542969, 25.900806427001953
466,909173469,0.5668154,-0.5343834,-0.23929489,-0.57956296,6.375024318695068,10.88558292388916,-33.66279983520508,-186.91810607910156,-32.2396240234375, -9.027342796325684
467,909190136,0.5447647,-0.5573641,-0.24120145,-0.5782727,5.965755462646484,10.542643547058105,-30.12633514404297,-160.38323974609375,-139.6750030517578, -51.629364013671875
468,909206803,0.51436985,-0.5915834,-0.25088233,-0.5679008,9.911827087402344,5.721841812133789,-56.32935333251953,-188.38084411621094,-261.9677429199219, -61.807796478271484
469,909223470,0.5006782,-0.6066157,-0.29133096,-0.5444864,34.072750091552734,6.555019378662109,-0.3655613660812378,90.42839050292969,-319.6471252441406, -108.65311431884766
470,909240137,0.49700585,-0.6077855,-0.33820283,-0.518846,15.436986923217773,-1.9540965557098389,26.698259353637695,208.54684448242188,-279.0197448730469, -118.019287109375
471,909256804,0.4837325,-0.6210561,-0.37438613,-0.49002838,12.267294883728027,-2.8311851024627686,-7.299392223358154,96.25711822509766,-321.524658203125, -68.7052001953125
472,909273471,0.48826626,-0.61723435,-0.41559628,-0.4559583,14.274845123291016,8.584875106811523,-5.343127250671387,259.67156982421875,-257.1617431640625, -56.84257125854492
473,909290138,0.47871503,-0.6216336,-0.44958565,-0.4269388,2.8044817447662354,-2.5475049018859863,-1.1211150884628296,135.2515411376953,-277.44573974609375, -63.84425735473633
474,909306805,0.4769785,-0.6210487,-0.47789496,-0.39800367,16.78577995300293,-0.6420640349388123,-1.4537663459777832,168.08616638183594,-219.5740509033203, -32.44282913208008
475,909323472,0.46972442,-0.62411475,-0.4952929,-0.38016474,17.385839462280273,-2.5671958923339844,-0.7310271859169006,66.18665313720703,-164.53570556640625, -25.4032039642334
476,909340139,0.46097037,-0.6285092,-0.5098746,-0.36402062,14.887317657470703,3.4453468322753906,-4.63110876083374,42.27894592285156,-156.8105926513672, -18.23271942138672
477,909356806,0.44993848,-0.63187015,-0.52176183,-0.35505,9.267498970031738,0.6921814680099487,-5.805266857147217,3.8513567447662354,-122.6953353881836, -38.63926696777344
478,909373473,0.44257146,-0.6337621,-0.52885395,-0.3504144,10.926677703857422,-2.3717634677886963,-7.901536464691162,-2.9483532905578613,-72.29288482666016, -27.54267692565918
479,909390140,0.43901184,-0.6320351,-0.5352307,-0.3483229,12.579965591430664,-2.25551176071167,-6.741703033447266,13.668630599975586,-36.4580192565918, -36.173858642578125
480,909406807,0.43224475,-0.63299805,-0.5386931,-0.34969723,15.290398597717285,-0.34345054626464844,-9.157432556152344,-28.140623092651367,-30.857542037963867, -31.761960983276367
481,909423474,0.42464727,-0.6340501,-0.5416567,-0.3525103,17.495079040527344,-2.674199342727661,-5.178688049316406,-38.55043029785156,-26.40266990661621, -35.51215362548828
482,909440141,0.41558215,-0.63876265,-0.5405477,-0.35648608,20.79886817932129,1.3599096536636353,-5.834408283233643,-69.87419891357422,-23.832956314086914, -11.066324234008789
483,909456808,0.40157276,-0.64748466,-0.5313135,-0.3704177,22.777366638183594,2.2867231369018555,0.7423640489578247,-159.96600341796875,14.838767051696777, -0.9834890961647034
484,909473475,0.37752864,-0.6621988,-0.50901186,-0.3998403,19.128368377685547,2.708881139755249,-0.4114079177379608,-311.1649169921875,67.82797241210938, 10.857095718383789
485,909490142,0.35218942,-0.67073214,-0.50139433,-0.4179536,12.850168228149414,1.8391224145889282,1.1723206043243408,-221.01223754882812,-9.469482421875, -51.76100540161133
486,909506809,0.32763416,-0.67451906,-0.5002941,-0.432881,14.806312561035156,1.3885340690612793,5.724795341491699,-176.19541931152344,-23.699941635131836, -88.1766586303711
487,909523476,0.28572375,-0.6853843,-0.48946092,-0.45720744,14.171696662902832,-2.572474956512451,3.845012903213501,-334.0850830078125,-39.11857604980469, -91.51888275146484
488,909540143,0.24151178,-0.69946545,-0.4779066,-0.47331354,8.062932968139648,-18.174076080322266,3.3805201053619385,-325.8895263671875,-94.46041870117188, -68.40772247314453
489,909556810,0.208968,-0.70500237,-0.48099354,-0.47744074,3.9121170043945312,-11.231854438781738,2.000593662261963,-168.66470336914062,-110.32154083251953, -109.20046997070312
490,909573477,0.17660777,-0.7090858,-0.49011427,-0.47517928,9.663146018981934,-11.200618743896484,1.8273043632507324,-124.9000473022461,-144.64736938476562, -133.5773468017578
491,909590144,0.14498536,-0.71195114,-0.5032568,-0.46780133,12.266303062438965,-7.634844779968262,3.097322940826416,-89.5502700805664,-168.0977783203125, -148.7945556640625
492,909606811,0.10215647,-0.71419513,-0.5111281,-0.46715927,15.567523002624512,-6.895972728729248,7.830137729644775,-184.1793212890625,-166.7797393798828, -168.01681518554688
493,909623478,0.061870225,-0.71304506,-0.51846355,-0.46790472,15.350837707519531,-13.938529968261719,11.39936351776123,-175.9674835205078,-139.91604614257812, -170.22402954101562
494,909640145,0.030594345,-0.70738274,-0.52785736,-0.46908513,16.46201515197754,-11.749176979064941,9.13636589050293,-124.88727569580078,-92.22210693359375, -167.74668884277344
495,909656812,0.007920012,-0.7001785,-0.53813916,-0.4691417,19.23014259338379,-13.031848907470703,5.881183624267578,-75.85916900634766,-61.88416290283203, -149.81968688964844
496,909673479,-0.0009329401,-0.6929822,-0.5518805,-0.4638998,20.018600463867188,-11.070298194885254,6.032296657562256,21.334993362426758,-36.68613052368164, -121.72044372558594
497,909690146,-0.00046591208,-0.687045,-0.5645165,-0.45748305,17.372173309326172,-9.090128898620605,5.250742435455322,66.5973892211914,-11.177777290344238, -82.08280944824219
498,909706813,0.008508088,-0.6827541,-0.5744812,-0.45138252,14.444869995117188,-9.368799209594727,3.2101259231567383,97.0807876586914,17.930452346801758, -36.39415740966797
499,909723480,0.0298363,-0.6798272,-0.58202356,-0.44518957,11.057535171508789,-7.520988941192627,1.296000361442566,147.7642822265625,62.02940368652344, 18.66069984436035
500,909740147,0.06170443,-0.6772446,-0.5845112,-0.4425826,8.494016647338867,-5.931692600250244,0.027257561683654785,167.05397033691406,120.83264923095703, 75.19693756103516
501,909756814,0.1027209,-0.67403364,-0.5805506,-0.4450712,7.309658527374268,-5.0485029220581055,0.041070014238357544,169.75328063964844,185.927490234375, 128.4006805419922
502,909773481,0.14907601,-0.67015845,-0.5679164,-0.45402122,9.003008842468262,-3.6258671283721924,-0.3363173305988312,142.55184936523438,245.3452911376953, 177.74688720703125
503,909790148,0.20051152,-0.6642632,-0.5477526,-0.46745783,11.358694076538086,-1.8698569536209106,-0.12367391586303711,126.93737030029297,299.9283447265625, 215.8297576904297
504,909806815,0.2538958,-0.65524024,-0.5199127,-0.48568326,12.943227767944336,1.4991140365600586,-0.9081953167915344,97.37864685058594,349.8471374511719, 238.76351928710938
505,909823482,0.30542672,-0.6455108,-0.48215514,-0.5075009,14.134069442749023,1.6903133392333984,-1.7463083267211914,44.27531051635742,379.1839599609375, 268.4475402832031
506,909840149,0.3616876,-0.63092315,-0.44063708,-0.52626747,17.446088790893555,4.607892036437988,-2.218116521835327,72.50546264648438,406.32586669921875, 291.94537353515625
507,909856816,0.41722593,-0.61136675,-0.3962191,-0.54329,21.446632385253906,5.10947847366333,-4.625372886657715,76.56546020507812,421.8873291015625, 291.2084655761719
508,909873483,0.47494802,-0.584268,-0.35630086,-0.55326813,25.789031982421875,3.8596067428588867,-7.838990211486816,143.57762145996094,413.6027526855469, 280.165771484375
509,909890150,0.53125167,-0.54861856,-0.3257333,-0.5573938,32.62013244628906,8.957489013671875,-14.183967590332031,215.8362579345703,388.721435546875, 235.43093872070312
510,909906817,0.57435244,-0.5151423,-0.30236867,-0.5597512,33.15208053588867,11.022432327270508,-23.41878318786621,189.67544555664062,317.95135498046875, 169.11480712890625
511,909923484,0.5957496,-0.50162315,-0.27485332,-0.56383765,19.195894241333008,10.166393280029297,-28.60956573486328,14.495881080627441,218.80772399902344, 135.17747497558594
512,909940151,0.59861606,-0.50104207,-0.25539988,-0.5704271,5.605979919433594,14.930503845214844,-33.36273956298828,-75.59811401367188,109.57286834716797, 50.015769958496094
513,909956818,0.5889847,-0.5105993,-0.24698564,-0.57565963,6.081817626953125,15.111048698425293,-37.622825622558594,-114.5066146850586,-1.893289566040039, -13.368289947509766
514,909973485,0.565027,-0.5343424,-0.24753952,-0.5778819,7.077035427093506,10.36680793762207,-35.9177131652832,-181.43649291992188,-128.9104766845703, -64.99307250976562
515,909990152,0.5335292,-0.564569,-0.258283,-0.57436806,10.606172561645508,8.482986450195312,-32.73777389526367,-183.88916015625,-227.8760528564453, -98.8765869140625
516,910006819,0.50576335,-0.59695435,-0.2833879,-0.55456346,21.142406463623047,-2.0155460834503174,-39.297035217285156,-91.43211364746094,-345.46197509765625, -76.14214324951172
517,910023486,0.50054663,-0.59994686,-0.3304796,-0.5294342,25.34441566467285,1.3267314434051514,25.05434226989746,197.81008911132812,-287.2577819824219, -119.2435302734375
518,910040153,0.48547056,-0.6136631,-0.36459294,-0.5047854,8.259618759155273,1.0204544067382812,-2.2365429401397705,71.90225219726562,-302.3099365234375, -78.90259552001953
519,910056820,0.48456082,-0.6133875,-0.4054866,-0.473854,18.52106475830078,6.978610515594482,-2.3372621536254883,217.75904846191406,-267.3603210449219, -72.57300567626953
520,910073487,0.47843656,-0.6173455,-0.433087,-0.4499102,8.283281326293945,-1.9519760608673096,-0.11853691190481186,118.85958099365234,-221.85330200195312, -44.98310470581055
521,910090154,0.4715865,-0.6219915,-0.46069676,-0.4224829,18.634504318237305,-2.8576388359069824,-0.31319907307624817,123.90511322021484,-241.0014190673828, -33.896820068359375
522,910106821,0.46606246,-0.6241257,-0.48453104,-0.39809918,11.512076377868652,3.6201188564300537,-3.7496047019958496,117.08556365966797,-204.28533935546875, -31.834924697875977
523,910123488,0.45462716,-0.62844706,-0.5044583,-0.37932906,8.913311004638672,-0.8268685340881348,-3.315967559814453,55.32169723510742,-193.3594207763672, -41.987876892089844
524,910140155,0.4457185,-0.63126713,-0.5187754,-0.365663,14.921185493469238,-2.3906824588775635,-4.065338134765625,38.56818389892578,-141.0973358154297, -32.37854766845703
525,910156822,0.43749633,-0.63410705,-0.52680045,-0.35914755,10.259921073913574,0.8856119513511658,-7.6622209548950195,0.1165732815861702,-88.4189224243164, -25.223960876464844
526,910173489,0.42953077,-0.63579965,-0.532972,-0.35665601,12.28312873840332,-2.286533832550049,-6.958072185516357,-14.448291778564453,-61.531883239746094, -32.770240783691406
527,910190156,0.42355537,-0.63670474,-0.5367834,-0.35647145,14.595645904541016,-3.501495838165283,-7.850688934326172,-17.700056076049805,-35.26577377319336, -27.285240173339844
528,910206823,0.4134644,-0.64067894,-0.5387409,-0.35824087,17.435455322265625,1.8686007261276245,-8.450380325317383,-56.44488525390625,-44.04322052001953, -23.634675979614258
529,910223490,0.40115198,-0.646346,-0.5369288,-0.36472145,19.741674423217773,-1.5718823671340942,-2.0073471069335938,-97.76313018798828,-25.00423812866211, -19.57404136657715
530,910240157,0.3881931,-0.65499574,-0.5286144,-0.3753047,21.459264755249023,1.7368608713150024,-5.468347549438477,-140.3702850341797,1.1767486333847046, 7.432509422302246
531,910256824,0.3749904,-0.6586514,-0.5245462,-0.38782993,20.379077911376953,3.1013941764831543,-0.5215137004852295,-124.2441635131836,10.50183391571045, -35.58891677856445
532,910273491,0.35820815,-0.6607319,-0.521124,-0.40441355,17.95846939086914,0.8901893496513367,4.94489049911499,-149.33172607421875,18.377351760864258, -64.13929748535156
533,910290158,0.33238265,-0.6663779,-0.51474226,-0.42485633,15.240713119506836,-1.4592268466949463,5.532260417938232,-221.3389434814453,0.7042085528373718, -72.53959655761719
534,910306825,0.3017941,-0.672321,-0.51003844,-0.44358298,11.898640632629395,-4.351642608642578,5.239502429962158,-232.95994567871094,-28.89391326904297, -89.1735610961914
535,910323492,0.26013452,-0.6869257,-0.4999321,-0.4588369,8.228671073913574,-12.727032661437988,2.053873300552368,-306.5590515136719,-99.15974426269531, -60.44194412231445
536,910340159,0.22584453,-0.69835895,-0.49432486,-0.46576014,6.710787296295166,-9.515417098999023,3.101999521255493,-223.3573455810547,-111.30522918701172, -54.567527770996094
537,910356826,0.18955761,-0.70473546,-0.49676725,-0.469722,7.648158550262451,-8.6621675491333,3.240572929382324,-189.3726806640625,-128.71095275878906, -112.32009887695312
538,910373493,0.15689474,-0.7090691,-0.50552624,-0.4658848,11.703577041625977,-10.108271598815918,2.6162796020507812,-122.2065658569336,-155.84793090820312, -128.13394165039062
539,910390160,0.12064915,-0.7126112,-0.51222956,-0.46395084,14.724401473999023,-7.689094543457031,7.879154205322266,-152.16534423828125,-154.38671875, -134.5106658935547
540,910406827,0.081634074,-0.7140667,-0.5155281,-0.46655753,13.64841079711914,-11.521844863891602,11.050283432006836,-190.96104431152344,-132.58871459960938, -137.89028930664062
541,910423494,0.04972955,-0.71099055,-0.5201133,-0.47064006,14.649950981140137,-10.645228385925293,9.186407089233398,-154.6873321533203,-86.50279235839844, -138.42129516601562
542,910440161,0.024440803,-0.706392,-0.5247547,-0.47439003,15.723718643188477,-11.955985069274902,5.249431610107422,-120.52852630615234,-59.73781967163086, -122.7454833984375
543,910456828,0.014351843,-0.7016172,-0.53408754,-0.47146377,16.201494216918945,-11.40869140625,4.239806175231934,-7.376542091369629,-37.691349029541016, -95.59707641601562
544,910473495,0.017747456,-0.69682914,-0.5461787,-0.4645464,15.113662719726562,-7.555418014526367,3.900606632232666,81.15872192382812,-7.834955215454102, -64.94454956054688
545,910490162,0.024966624,-0.69378066,-0.55326,-0.46037894,12.619389533996582,-7.1034836769104,2.5267629623413086,72.86964416503906,14.59835147857666, -22.587011337280273
546,910506829,0.041257557,-0.69162875,-0.55700314,-0.4579254,10.735372543334961,-6.837330341339111,0.9089783430099487,98.84325408935547,54.90925216674805, 25.127174377441406
547,910523496,0.068690024,-0.68928134,-0.5573396,-0.4577618,10.096543312072754,-4.58013391494751,-0.0939808189868927,132.31304931640625,109.97591400146484, 74.9972915649414
548,910540163,0.10388967,-0.6863112,-0.55184174,-0.46222857,9.106090545654297,-3.7819175720214844,0.8102787733078003,133.25912475585938,166.37046813964844, 122.52911376953125
549,910556830,0.1446286,-0.68257964,-0.5398904,-0.4708356,10.067461967468262,-2.686521291732788,-0.17377221584320068,123.68094635009766,213.95603942871094, 164.75241088867188
550,910573497,0.19135861,-0.6772464,-0.5224288,-0.48144364,11.304880142211914,-2.333719491958618,0.04023030400276184,128.09169006347656,256.28936767578125, 202.08738708496094
551,910590164,0.24340467,-0.6690525,-0.49969557,-0.49338388,12.439706802368164,-0.48157402873039246,0.2601344883441925,134.35324096679688,298.0541687011719, 232.21575927734375
552,910606831,0.2989164,-0.65699774,-0.4710899,-0.5070282,14.243757247924805,1.2855725288391113,0.151985764503479,130.98141479492188,340.81060791015625, 254.8907012939453
553,910623498,0.35658938,-0.6399269,-0.43725923,-0.5216727,16.47808074951172,3.337177038192749,-0.8500033020973206,129.63232421875,380.6573181152344, 267.7531433105469
554,910640165,0.4128483,-0.6178641,-0.39985764,-0.53657657,19.678268432617188,4.937671184539795,-2.821960687637329,122.1424560546875,404.29547119140625, 262.772705078125
555,910656832,0.46886954,-0.59008515,-0.36356935,-0.5475207,22.514230728149414,2.7223541736602783,-6.633203029632568,152.4457550048828,404.82855224609375, 252.75071716308594
556,910673499,0.5234923,-0.5557696,-0.3329697,-0.55336004,27.982757568359375,5.242550373077393,-13.161394119262695,202.1722412109375,386.9783630371094, 224.58702087402344
557,910690166,0.55987036,-0.53078085,-0.29827207,-0.5620063,32.00775146484375,10.309850692749023,-21.400548934936523,76.78450012207031,335.28887939453125, 182.12110900878906
558,910706833,0.5790849,-0.5192758,-0.26833823,-0.56833816,20.32162094116211,10.618585586547852,-27.346988677978516,-14.422586441040039,221.41026306152344, 135.1913299560547
559,910723500,0.58360875,-0.5167194,-0.24665691,-0.5758147,8.396621704101562,10.434494018554688,-30.794687271118164,-72.22640228271484,130.90008544921875, 60.4820556640625
560,910740167,0.5756368,-0.52470326,-0.23448914,-0.58167344,5.3211774826049805,15.262678146362305,-38.255619049072266,-118.24935913085938,24.351572036743164, 1.8350841999053955
561,910756834,0.5504813,-0.54977936,-0.22828874,-0.5853185,5.249047756195068,15.060577392578125,-34.104854583740234,-220.27488708496094,-102.9825668334961, -51.82133102416992
562,910773501,0.5161384,-0.58590275,-0.23186213,-0.58013767,10.315871238708496,6.727315425872803,-51.17129898071289,-243.4593963623047,-232.01336669921875, -74.74198150634766
563,910790168,0.49709192,-0.6090562,-0.26835743,-0.55671793,30.020824432373047,5.67214298248291,-21.383447647094727,24.986061096191406,-345.75299072265625, -102.18569946289062
564,910806835,0.4887244,-0.6134583,-0.3147429,-0.5345604,21.588457107543945,-0.3295559883117676,31.379947662353516,169.48660278320312,-282.4500732421875, -141.60667419433594
565,910823502,0.47356924,-0.62789166,-0.34794945,-0.5103095,6.7644548416137695,-2.057624340057373,-6.147356986999512,63.19783401489258,-298.86279296875, -82.26129150390625
566,910840169,0.47385496,-0.6278679,-0.3868055,-0.48127472,19.504222869873047,8.127591133117676,-2.332510232925415,208.3818359375,-250.1726531982422, -71.62266540527344
567,910856836,0.46949753,-0.63085955,-0.4177433,-0.45505956,4.842344284057617,-2.014475107192993,-3.341878890991211,144.82598876953125,-234.4585418701172, -53.96860122680664
568,910873503,0.4735961,-0.6265882,-0.45112818,-0.42376634,16.038700103759766,1.6125038862228394,-1.8275113105773926,227.22203063964844,-217.34033203125, -42.76222610473633
569,910890170,0.4689082,-0.6253799,-0.47924677,-0.3991843,15.01534366607666,1.39606511592865,-0.8619132041931152,143.2182159423828,-207.4376983642578, -58.120574951171875
570,910906837,0.45765743,-0.6312443,-0.4961552,-0.3819829,10.679256439208984,-1.3250666856765747,-3.5266501903533936,37.08098602294922,-180.61080932617188, -28.46769142150879
571,910923504,0.4496877,-0.63456154,-0.50979257,-0.36772883,15.2274808883667,-1.621055245399475,-4.2440409660339355,40.68704605102539,-139.6520538330078, -23.68029022216797
572,910940171,0.44331715,-0.63539344,-0.5188608,-0.36128786,11.439151763916016,0.6982706785202026,-7.782639026641846,16.39092445373535,-79.57266235351562, -32.60557556152344
573,910956838,0.43716073,-0.6350232,-0.5255507,-0.35976794,9.926362991333008,-3.1294305324554443,-7.28585958480835,-2.456855297088623,-47.054969787597656, -40.970638275146484
574,910973505,0.4334482,-0.63305724,-0.532237,-0.3578903,14.753214836120605,-5.1439948081970215,-8.21679401397705,14.25101375579834,-35.80787658691406, -39.62984085083008
575,910990172,0.4283429,-0.6319927,-0.53721833,-0.3584755,18.01097869873047,-0.6392964720726013,-6.0947160720825195,-7.755550861358643,-27.315631866455078, -39.714996337890625
576,911006839,0.41842374,-0.6346558,-0.53807706,-0.36415264,18.982088088989258,-0.520780086517334,-3.1214332580566406,-68.6368408203125,-20.054872512817383, -34.8663215637207
577,911023506,0.40340725,-0.6433205,-0.5346276,-0.37091127,20.268901824951172,3.124136209487915,-4.034682273864746,-122.95610046386719,-36.9130744934082, -9.696086883544922
578,911040173,0.38477767,-0.6527073,-0.5280323,-0.38353842,21.53861427307129,4.317671298980713,1.643123745918274,-170.53070068359375,-17.443437576293945, -18.5312442779541
579,911056840,0.36408958,-0.6598673,-0.5214816,-0.40008906,17.709468841552734,3.26540207862854,3.4979724884033203,-188.00888061523438,-1.719503402709961, -42.527950286865234
580,911073507,0.3363272,-0.6674541,-0.51462,-0.42018557,16.23804473876953,0.6452629566192627,6.7607197761535645,-234.7977294921875,-11.562116622924805, -67.85183715820312
581,911090174,0.3028181,-0.6762118,-0.50681216,-0.4406594,12.2329740524292,-1.7747750282287598,3.1240522861480713,-268.0142822265625,-31.564733505249023, -76.82106018066406
582,911106841,0.25907493,-0.6907704,-0.4945823,-0.45946172,9.669027328491211,-12.079200744628906,3.2352757453918457,-335.3843078613281,-83.54064178466797, -63.59273147583008
583,911123508,0.22355081,-0.69928586,-0.49103785,-0.468942,6.460783958435059,-11.185555458068848,6.980942249298096,-226.53977966308594,-96.36901092529297, -82.9461669921875
584,911140175,0.18807766,-0.7041648,-0.49354783,-0.47454154,7.6272101402282715,-10.908041954040527,2.250572681427002,-188.23150634765625,-112.581787109375, -118.34207153320312
585,911156842,0.15553917,-0.7062622,-0.50316936,-0.47309858,10.486268997192383,-10.15199089050293,1.5004910230636597,-123.46115112304688,-136.93093872070312, -143.66464233398438
586,911173509,0.11917483,-0.7087562,-0.51210946,-0.47032586,13.440539360046387,-8.274126052856445,3.99459171295166,-140.2496337890625,-157.30442810058594, -150.13818359375
587,911190176,0.08092238,-0.7088866,-0.51815116,-0.47164735,13.772107124328613,-11.613884925842285,10.67845630645752,-171.43499755859375,-134.1344451904297, -153.92483520507812
588,911206843,0.05280091,-0.7034819,-0.52821964,-0.4725564,14.47412109375,-9.969260215759277,10.38304615020752,-104.5406494140625,-84.55552673339844, -160.33901977539062
589,911223510,0.030595636,-0.69586384,-0.53846824,-0.4742254,17.967308044433594,-9.954324722290039,6.5468902587890625,-77.37743377685547,-52.4989128112793, -150.44451904296875
590,911240177,0.020420423,-0.6886239,-0.550803,-0.4711651,20.821151733398438,-12.600316047668457,5.567813396453857,4.313736438751221,-32.4957275390625, -118.9546890258789
591,911256844,0.024740845,-0.68368536,-0.56501746,-0.46121356,17.795866012573242,-12.023066520690918,5.075123310089111,104.64978790283203,-18.24313735961914, -71.36580657958984
592,911273511,0.037232243,-0.68004835,-0.57624924,-0.4517579,13.624130249023438,-8.894571304321289,4.210396766662598,131.30380249023438,11.939499855041504, -26.562355041503906
593,911290178,0.055984303,-0.67765033,-0.5812765,-0.44696078,11.065475463867188,-8.753149032592773,2.2572593688964844,122.41637420654297,56.06496047973633, 25.566438674926758
594,911306845,0.085473895,-0.6751725,-0.58181643,-0.4453385,8.980951309204102,-6.4537153244018555,1.5715010166168213,145.8763885498047,115.60726165771484, 77.9098892211914
595,911323512,0.12362082,-0.6719425,-0.5757978,-0.44907504,8.402527809143066,-4.676322937011719,1.8203985691070557,144.8909149169922,181.2118682861328, 128.7161865234375
596,911340179,0.16793375,-0.66755635,-0.562361,-0.45816737,9.744158744812012,-3.0329885482788086,1.0391905307769775,130.1737518310547,240.23272705078125, 172.9073028564453
597,911356846,0.21804158,-0.661207,-0.5417109,-0.47097048,11.777207374572754,-2.4896085262298584,0.8100069165229797,121.9018325805664,294.2284240722656, 212.401123046875
598,911373513,0.27242458,-0.65158874,-0.5141372,-0.48670352,13.76256275177002,-0.3855527937412262,0.30634844303131104,112.84105682373047,344.51226806640625, 241.14024353027344
599,911390180,0.32807362,-0.63900894,-0.4773518,-0.5061332,16.04038429260254,1.7101191282272339,0.057842254638671875,80.1176528930664,392.8398742675781, 269.23895263671875
600,911406847,0.3831401,-0.62289613,-0.43402052,-0.526147,18.57705307006836,4.585354804992676,-1.5976651906967163,60.84733581542969,420.68408203125, 283.0257873535156
601,911423514,0.43692917,-0.6026405,-0.38825646,-0.5432998,22.897266387939453,4.356112957000732,-6.065547943115234,66.14009857177734,426.13299560546875, 283.9942626953125
602,911440181,0.4927181,-0.5753701,-0.34743917,-0.5526885,27.222118377685547,4.842875957489014,-11.700553894042969,134.87937927246094,410.7857360839844, 275.6118469238281
603,911456848,0.54333943,-0.54384995,-0.31434393,-0.556954,34.773441314697266,10.939971923828125,-17.497631072998047,170.51119995117188,368.31451416015625, 232.6937255859375
604,911473515,0.5732028,-0.5249996,-0.2804023,-0.56319517,31.002805709838867,13.045093536376953,-26.903003692626953,38.15898513793945,285.6628723144531, 176.5848846435547
605,911490182,0.5913235,-0.5121765,-0.25718412,-0.56733435,14.564495086669922,10.97425365447998,-31.308265686035156,17.84279441833496,190.2196044921875, 112.64785766601562
606,911506849,0.59402335,-0.509422,-0.24534214,-0.5722179,5.2026166915893555,14.64335823059082,-35.36442184448242,-34.07100296020508,80.44210052490234, 27.515914916992188
607,911523516,0.5810073,-0.521987,-0.24131626,-0.57595736,5.645714282989502,18.35158920288086,-36.76009750366211,-118.72311401367188,-41.88043212890625, -30.835247039794922
608,911540183,0.55491805,-0.5480139,-0.24604598,-0.57550704,6.264371871948242,11.271738052368164,-33.543922424316406,-177.54937744140625,-166.54812622070312, -74.58785247802734
609,911556850,0.5203208,-0.5862066,-0.25847706,-0.56463987,11.797341346740723,3.4688777923583984,-58.079017639160156,-207.7073516845703,-297.489013671875, -76.72296905517578
610,911573517,0.5080186,-0.59836954,-0.30290034,-0.540484,36.33544158935547,3.783252477645874,6.75002384185791,123.56696319580078,-324.1104736328125, -117.79649353027344
611,911590184,0.49487463,-0.6062067,-0.34428626,-0.51872927,12.767277717590332,-0.7776599526405334,20.587451934814453,119.03794860839844,-289.2810363769531, -125.77400207519531
612,911606851,0.47880602,-0.6197492,-0.37912726,-0.49286774,13.835470199584961,-2.0675368309020996,-5.088685035705566,73.73987579345703,-311.6500549316406, -81.57783508300781
613,911623518,0.48079878,-0.6160351,-0.41966587,-0.4617513,14.108680725097656,8.095054626464844,-4.250007152557373,240.6963348388672,-247.1581268310547, -72.49732208251953
614,911640185,0.4763836,-0.6159032,-0.45508566,-0.43199447,5.039350509643555,-3.1979169845581055,-2.4439573287963867,181.61727905273438,-254.2600555419922, -65.3655776977539
615,911656852,0.47699025,-0.6124605,-0.48647276,-0.4008957,13.653942108154297,0.5855003595352173,-2.227267026901245,205.9219207763672,-221.14071655273438, -39.55073547363281
616,911673519,0.46591058,-0.6173927,-0.50703055,-0.38036034,15.302099227905273,-1.4601609706878662,0.351696640253067,63.9899787902832,-203.29957580566406, -32.893402099609375
617,911690186,0.45788765,-0.621581,-0.51986134,-0.36567834,16.674158096313477,2.115851402282715,-5.0069708824157715,38.68278884887695,-141.16802978515625, -13.514045715332031
618,911706853,0.45050582,-0.6227183,-0.5302431,-0.35792312,13.029767036437988,1.2073289155960083,-5.208961009979248,20.12374496459961,-93.92271423339844, -34.147918701171875
619,911723520,0.4420438,-0.6255313,-0.5361512,-0.3547539,9.864757537841797,-2.4122045040130615,-7.509692192077637,-17.4050235748291,-68.5172348022461, -25.74674415588379
620,911740187,0.43395275,-0.6283291,-0.5409587,-0.3524939,12.511055946350098,-2.5047736167907715,-7.042510509490967,-21.81362533569336,-59.8463020324707, -22.962270736694336
621,911756854,0.42486745,-0.63228285,-0.54451954,-0.3510054,15.77138614654541,-4.684347152709961,-6.19952392578125,-35.491416931152344,-59.304019927978516, -18.005489349365234
622,911773521,0.41421962,-0.6377991,-0.5457466,-0.35184598,18.254831314086914,0.029950100928544998,-8.297758102416992,-61.27397537231445,-52.028255462646484, -12.609604835510254
623,911790188,0.40179747,-0.6416273,-0.54796857,-0.35581434,19.266698837280273,0.8689662218093872,-2.6783599853515625,-73.56566619873047,-43.758636474609375, -36.4792366027832
624,911806855,0.3891738,-0.6465889,-0.5467354,-0.36269468,19.556596755981445,1.6002055406570435,-3.7301132678985596,-97.03850555419922,-25.016019821166992, -25.4564208984375
625,911823522,0.37252378,-0.6525927,-0.5423599,-0.37575924,19.796789169311523,2.588009834289551,2.5958738327026367,-148.85108947753906,-6.960453510284424, -34.0903434753418
626,911840189,0.34789106,-0.661641,-0.53144836,-0.39845487,16.381032943725586,2.05013370513916,3.415576934814453,-245.34922790527344,15.162473678588867, -38.62373733520508
627,911856856,0.31913936,-0.66884196,-0.5242041,-0.4195367,13.715714454650879,0.7083800435066223,3.1381919384002686,-243.77577209472656,-11.137598037719727, -69.42552185058594
628,911873523,0.28784093,-0.67477417,-0.5204409,-0.43700022,11.823001861572266,-4.454485893249512,1.0384984016418457,-229.67942810058594,-41.10144805908203, -89.40065002441406
629,911890190,0.2464811,-0.68915564,-0.5072741,-0.454956,10.010089874267578,-15.353472709655762,8.97707462310791,-323.28448486328125,-81.75276184082031, -46.801544189453125
630,911906857,0.20885071,-0.69915193,-0.50196666,-0.4643251,5.420312404632568,-10.19591999053955,3.6437551975250244,-243.856201171875,-109.26040649414062, -73.30199432373047
631,911923524,0.1755081,-0.70261633,-0.50747126,-0.4669052,9.749113082885742,-12.24688720703125,2.6707918643951416,-156.0442352294922,-121.866943359375, -124.51898193359375
632,911940191,0.14389798,-0.70546913,-0.51806766,-0.46174982,12.046432495117188,-8.91876220703125,3.358884811401367,-103.79509735107422,-157.502685546875, -136.5076904296875
633,911956858,0.105464324,-0.7079627,-0.5238925,-0.46173915,15.598974227905273,-8.66131591796875,10.362394332885742,-170.1969451904297,-151.1527099609375, -141.52255249023438
634,911973525,0.07050631,-0.7071351,-0.529313,-0.46348354,16.37201499938965,-12.389752388000488,11.289803504943848,-158.5740966796875,-119.48548889160156, -141.89883422851562
635,911990192,0.04473191,-0.70353675,-0.5356646,-0.46486452,18.978252410888672,-13.443511962890625,6.787775993347168,-108.41072082519531,-79.70664978027344, -127.23463439941406
636,912006859,0.032085203,-0.6999916,-0.54398674,-0.46158555,19.32440185546875,-13.204087257385254,5.351434707641602,-21.63874053955078,-54.931846618652344, -93.34513854980469
637,912023526,0.027407516,-0.6972735,-0.5508665,-0.4578266,15.765961647033691,-10.481293678283691,5.8414154052734375,13.565717697143555,-30.001869201660156, -58.06550216674805
638,912040193,0.029500013,-0.69563437,-0.55437475,-0.45595136,13.176450729370117,-9.427838325500488,3.6974611282348633,27.94753646850586,1.6968028545379639, -16.968246459960938
639,912056860,0.043379374,-0.69431806,-0.55622774,-0.45458958,12.159526824951172,-7.994029998779297,2.808988094329834,76.98946380615234,48.24576187133789, 28.947919845581055
640,912073527,0.0702768,-0.6924042,-0.5565079,-0.45380268,9.903677940368652,-5.185764789581299,1.533791422843933,132.09791564941406,102.9884033203125, 74.65377807617188
641,912090194,0.10586492,-0.690047,-0.5510483,-0.45713663,8.725750923156738,-4.8472514152526855,0.5136735439300537,139.9390411376953,159.96066284179688, 125.41615295410156
642,912106861,0.15073617,-0.6864456,-0.53976005,-0.46339065,9.450074195861816,-4.288013458251953,-0.5544924736022949,155.4383544921875,217.14927673339844, 175.42864990234375
643,912123528,0.2026928,-0.68064994,-0.522408,-0.47193402,10.518316268920898,-3.4175631999969482,-0.2926366925239563,163.27072143554688,267.5809326171875, 216.12559509277344
644,912140195,0.25976616,-0.6712497,-0.49866918,-0.48298532,12.404988288879395,-1.1429423093795776,-0.801956832408905,162.46090698242188,318.3839111328125, 246.1810302734375
645,912156862,0.31789842,-0.6582714,-0.46656364,-0.49793395,14.20841121673584,1.0143189430236816,-1.0321791172027588,132.56788635253906,366.9513244628906, 269.07684326171875
646,912173529,0.3776859,-0.6399533,-0.4299694,-0.5127767,17.27940559387207,4.5975022315979,-2.2871453762054443,136.75753784179688,400.01019287109375, 278.1556701660156
647,912190196,0.4364117,-0.6150043,-0.39105183,-0.5276299,21.53927993774414,6.62416410446167,-4.541842460632324,141.241455078125,426.45831298828125, 265.0334777832031
648,912206863,0.4905557,-0.5859726,-0.3512869,-0.54091525,25.244279861450195,6.225257396697998,-9.57245922088623,135.4518280029297,424.9501037597656, 245.8024444580078
649,912223530,0.53777486,-0.5541764,-0.31697258,-0.5506501,33.426692962646484,11.388139724731445,-17.827091217041016,145.83270263671875,385.916748046875, 203.4718780517578
650,912240197,0.57002646,-0.5313745,-0.28590345,-0.5576474,29.781206130981445,10.85261344909668,-24.114694595336914,73.8219223022461,297.02349853515625, 164.36325073242188
651,912256864,0.5853345,-0.5207576,-0.2587075,-0.565036,15.155435562133789,9.236994743347168,-29.37241554260254,-21.4792537689209,203.5751953125, 107.99576568603516
652,912273531,0.592045,-0.5144317,-0.24702562,-0.56905335,10.288064956665039,12.605067253112793,-36.57661819458008,-2.9812815189361572,97.48643493652344, 40.53797149658203
653,912290198,0.58582956,-0.5203383,-0.24396813,-0.57142943,2.80666184425354,15.099607467651367,-33.788124084472656,-61.61438751220703,-12.801590919494629, -12.707206726074219
654,912306865,0.56753963,-0.5399995,-0.24873638,-0.5695877,6.645695686340332,11.754414558410645,-34.396263122558594,-122.16293334960938,-133.35345458984375, -47.77829360961914
655,912323532,0.5375117,-0.5710347,-0.25882447,-0.5639245,9.331141471862793,9.76864242553711,-39.80572509765625,-182.4971466064453,-232.61843872070312, -78.87533569335938
656,912340199,0.5205591,-0.5911337,-0.293599,-0.54164475,26.86563491821289,2.2873694896698,-24.833471298217773,34.903648376464844,-322.9869689941406, -83.00055694580078
657,912356866,0.51254356,-0.5945028,-0.33695203,-0.5199321,22.52703285217285,-1.0803955793380737,27.772863388061523,162.2431182861328,-270.64385986328125, -120.38041687011719
658,912373533,0.499949,-0.60625917,-0.37293336,-0.49337798,9.557914733886719,-1.2734750509262085,-2.657139778137207,98.74186706542969,-305.3829650878906, -70.24715423583984
659,912390200,0.4982955,-0.6056311,-0.41338933,-0.4626254,18.986719131469727,5.083420753479004,-0.7691868543624878,212.95498657226562,-268.14422607421875, -69.30355834960938
660,912406867,0.49274492,-0.6083118,-0.44383472,-0.43608552,4.194273471832275,-0.019211530685424805,-3.877361297607422,141.63613891601562,-237.85516357421875, -45.096885681152344
661,912423534,0.48778278,-0.6112518,-0.4700823,-0.40922144,15.069217681884766,-1.9050912857055664,-0.6788849830627441,131.60186767578125,-223.92056274414062, -24.049684524536133
662,912440201,0.4793982,-0.61635065,-0.4871464,-0.39112395,16.80504608154297,0.6691368222236633,-1.1366968154907227,55.78453063964844,-173.4429168701172, -17.630817413330078
663,912456868,0.47064772,-0.6208467,-0.5019983,-0.37555054,13.727009773254395,1.889961838722229,-3.9424405097961426,41.797298431396484,-155.12770080566406, -19.627275466918945
664,912473535,0.4615177,-0.62349945,-0.5160136,-0.36329094,11.996641159057617,-2.6940386295318604,-4.074583530426025,32.5683708190918,-134.85670471191406, -34.153560638427734
665,912490202,0.45419526,-0.62544215,-0.5252585,-0.35585484,10.086505889892578,-2.128734588623047,-6.9939284324646,13.484709739685059,-90.8788833618164, -27.079288482666016
666,912506869,0.44665676,-0.6265431,-0.53197354,-0.35347715,11.676777839660645,-1.8613646030426025,-7.104587554931641,-9.292498588562012,-59.937965393066406, -35.609649658203125
667,912523536,0.4409686,-0.6268119,-0.5371427,-0.35232332,13.90820026397705,-4.377885818481445,-7.6427483558654785,-7.0315093994140625,-41.12894821166992, -31.275238037109375
668,912540203,0.4370381,-0.62621254,-0.541376,-0.35180667,19.055355072021484,-0.17510053515434265,-7.837887763977051,-1.5112980604171753,-26.959686279296875, -28.160057067871094
669,912556870,0.42925307,-0.62693655,-0.5444668,-0.3553149,20.894872665405273,-0.09659074991941452,-2.048903703689575,-39.826908111572266,-23.7822265625, -39.70856475830078
670,912573537,0.41860008,-0.631795,-0.54200846,-0.3630929,21.39474105834961,1.7826097011566162,-3.200991153717041,-93.9891586303711,-9.964524269104004, -19.86797523498535
671,912590204,0.40288058,-0.6389348,-0.53612506,-0.37685525,21.147228240966797,2.9224343299865723,2.293344497680664,-153.4381866455078,1.1888700723648071, -26.277198791503906
672,912606871,0.38166133,-0.6480194,-0.5261518,-0.39695102,16.679767608642578,3.320305109024048,4.814241409301758,-216.99728393554688,14.828742027282715, -32.83506774902344
673,912623538,0.35322574,-0.65735835,-0.517713,-0.41843185,12.314801216125488,2.9649136066436768,5.481295108795166,-250.69024658203125,-10.043591499328613, -62.006404876708984
674,912640205,0.31953502,-0.6657552,-0.5117707,-0.4390431,10.048903465270996,0.5387638807296753,-0.5140530467033386,-261.9500732421875,-36.22963333129883, -89.60304260253906
675,912656872,0.28006643,-0.67745864,-0.50587016,-0.45465183,9.185249328613281,-13.86392879486084,8.788528442382812,-277.9383544921875,-89.639892578125, -84.63185119628906
676,912673539,0.24324128,-0.6902165,-0.49905393,-0.4640911,4.240555286407471,-11.212509155273438,3.8587443828582764,-249.33436584472656,-110.94728088378906, -56.72248458862305
677,912690206,0.20347919,-0.6990819,-0.4991398,-0.46983054,8.491116523742676,-8.414880752563477,1.5974308252334595,-222.238037109375,-137.82740783691406, -106.18600463867188
678,912706873,0.16944185,-0.7041634,-0.50763714,-0.46663502,10.874221801757812,-12.722517967224121,0.8325141072273254,-131.71737670898438,-160.7640838623047, -128.73739624023438
679,912723540,0.13649102,-0.7070014,-0.51889086,-0.4607296,12.489543914794922,-5.387629985809326,5.5077714920043945,-105.76937866210938,-166.22625732421875, -143.4417724609375
680,912740207,0.09368636,-0.70926374,-0.52315146,-0.46312073,15.364340782165527,-9.095494270324707,8.01270866394043,-205.01905822753906,-152.8534698486328, -150.6268310546875
681,912756874,0.059887204,-0.7078459,-0.52950156,-0.46367693,17.904726028442383,-14.013873100280762,9.166288375854492,-145.595947265625,-119.2578125, -144.33486938476562
682,912773541,0.039293654,-0.7030545,-0.5399429,-0.46112105,20.344528198242188,-13.577406883239746,6.6777191162109375,-55.724082946777344,-77.53436279296875, -133.34568786621094
683,912790208,0.028116928,-0.6981476,-0.5505553,-0.45682448,19.728870391845703,-12.253286361694336,5.172076225280762,-3.381434440612793,-50.98670959472656, -104.45225524902344
684,912806875,0.023463571,-0.69372857,-0.5595724,-0.45284575,16.67673683166504,-10.453498840332031,4.9717864990234375,21.444618225097656,-26.28533363342285, -74.67919158935547
685,912823542,0.025093552,-0.6907685,-0.56473964,-0.45086426,14.034584999084473,-10.616485595703125,3.2976603507995605,31.355792999267578,3.23835825920105, -31.579397201538086
686,912840209,0.04080332,-0.68804616,-0.5688787,-0.4486702,12.338027000427246,-7.904609203338623,3.1515235900878906,95.66368865966797,56.13178253173828, 17.820371627807617
687,912856876,0.06668193,-0.68547183,-0.5679415,-0.45069373,10.047972679138184,-4.584650993347168,1.6538984775543213,111.455078125,116.66607666015625, 72.55345916748047
688,912873543,0.10126637,-0.6827328,-0.56083447,-0.4572592,9.311442375183105,-4.688943386077881,0.45229673385620117,115.62590789794922,175.33786010742188, 125.87345886230469
689,912890210,0.14650269,-0.6786825,-0.54907244,-0.46523857,9.553854942321777,-4.260066986083984,-0.24257630109786987,146.37155151367188,230.4109649658203, 175.17530822753906
690,912906877,0.19878936,-0.6728774,-0.53094655,-0.47519994,11.259230613708496,-2.55765962600708,-0.7405021786689758,153.10281372070312,278.34112548828125, 218.80599975585938
691,912923544,0.25554037,-0.6633769,-0.5067437,-0.4876898,12.310280799865723,0.7552509307861328,-0.6234578490257263,149.65769958496094,326.8007507324219, 244.54421997070312
