PacketCounter,SampleTimeFine,Quat_W,Quat_X,Quat_Y,Quat_Z,Acc_X,Acc_Y,Acc_Z,Gyr_X,Gyr_Y,Gyr_Z 
1,625532347,0.76202637,0.23128575,-0.5032569,0.33549252,0.4641397297382355,0.530387282371521,0.6494053602218628,-1.7388792037963867,0.12681226432323456, 0.1690705269575119
2,625549014,0.761824,0.2313845,-0.5035218,0.3354865,9.147619247436523,0.13698111474514008,3.7753047943115234,0.9051336050033569,-0.7129166126251221, -0.051443103700876236
3,625565681,0.7612294,0.23195459,-0.5038129,0.33600524,9.16087532043457,0.16917334496974945,3.7859394550323486,1.0267682075500488,-0.5250987410545349, 0.08733290433883667
4,625582348,0.7608547,0.23247702,-0.504039,0.33615378,9.149696350097656,0.19067221879959106,3.770150661468506,0.9395186901092529,-0.44928520917892456, 0.1746850311756134
5,625599015,0.76048994,0.23318413,-0.50407726,0.33643204,9.15976333618164,0.12747332453727722,3.7811615467071533,0.8231858015060425,-0.32063257694244385, 0.1174406185746193
6,625615682,0.7601932,0.23361693,-0.504102,0.336765,9.14283561706543,0.07445906847715378,3.7819528579711914,1.1199216842651367,-0.12203169614076614, 0.14401379227638245
7,625632349,0.7600473,0.23363106,-0.50423115,0.3368914,9.12398910522461,0.09887342154979706,3.749736785888672,1.391595721244812,-0.10989129543304443, 0.22552619874477386
8,625649016,0.7598071,0.23376918,-0.5042772,0.33726805,9.120218276977539,0.13763482868671417,3.7876687049865723,1.2858022451400757,0.0031695712823420763, 0.22050611674785614
9,625665683,0.75960445,0.2339547,-0.50423485,0.33765918,9.146442413330078,0.14778538048267365,3.7962160110473633,1.0257309675216675,0.03321326524019241, 0.07688292115926743
10,625682350,0.75952667,0.23401028,-0.5042424,0.33778408,9.14658260345459,0.12130272388458252,3.8319249153137207,0.8461218476295471,-0.12233905494213104, 0.013568326830863953
11,625699017,0.7594861,0.23405424,-0.50422305,0.33787394,9.151750564575195,0.11438200622797012,3.8236148357391357,1.029009461402893,-0.20997290313243866, -0.06897500157356262
12,625715684,0.759428,0.23414257,-0.5042006,0.33797672,9.102981567382812,0.13147781789302826,3.8082971572875977,1.0196863412857056,-0.46743178367614746, -0.24435794353485107
13,625732351,0.75920933,0.2344875,-0.50406057,0.33843744,9.11724853515625,0.1463792771100998,3.784855604171753,1.0555697679519653,-0.5609949827194214, -0.24772605299949646
14,625749018,0.7589925,0.23484012,-0.5039157,0.33889475,9.167041778564453,0.18266195058822632,3.7930610179901123,1.1369540691375732,-0.49496540427207947, -0.1538170576095581
15,625765685,0.75896436,0.23491873,-0.5038898,0.33894172,9.169878959655762,0.18196678161621094,3.8098254203796387,0.797163188457489,-0.35814234614372253, -0.10989128053188324
16,625782352,0.75902426,0.23489816,-0.5038703,0.3388508,9.160292625427246,0.1436283439397812,3.764117479324341,0.8650240302085876,-0.04158221557736397, -0.04758839309215546
17,625799019,0.7586852,0.23546182,-0.5035501,0.33969387,9.158998489379883,0.13799530267715454,3.745877742767334,0.8165521621704102,0.2705789804458618, 0.06435831636190414
18,625815686,0.7586868,0.23553008,-0.5034009,0.339864,9.139640808105469,0.1126035749912262,3.7178359031677246,0.9811007380485535,0.8337382674217224, 0.2234259992837906
19,625832353,0.7590701,0.23502247,-0.5034987,0.33921394,9.11351490020752,0.1567174643278122,3.7146785259246826,0.9643374681472778,1.1120201349258423, 0.2914276719093323
20,625849020,0.7597331,0.23408088,-0.5037698,0.33797598,9.141546249389648,0.13012145459651947,3.7481489181518555,1.0152043104171753,1.3978067636489868, 0.5468760132789612
21,625865687,0.7596185,0.23428977,-0.50349015,0.33850548,9.157156944274902,0.18959538638591766,3.8100616931915283,1.102748155593872,1.542069911956787, 0.6585344672203064
22,625882354,0.7596606,0.23426503,-0.50331926,0.33868197,9.12830924987793,0.18027552962303162,3.8523778915405273,0.7209398746490479,1.4928810596466064, 0.5695304274559021
23,625899021,0.75968665,0.23425302,-0.50316924,0.338855,9.135370254516602,0.10236457735300064,3.859872817993164,0.7907600402832031,1.2088360786437988, 0.6366741061210632
24,625915688,0.7594661,0.23457812,-0.502892,0.3395352,9.132098197937012,0.21245776116847992,3.882789134979248,0.6912163496017456,0.9172484278678894, 0.6428595185279846
25,625932355,0.75957,0.23439449,-0.502872,0.33945903,9.159173011779785,0.19552138447761536,3.8735125064849854,0.07391184568405151,0.6878354549407959, 0.5859737396240234
26,625949022,0.7595983,0.2343314,-0.50285745,0.33946094,9.126505851745605,0.10275516659021378,3.868040084838867,0.23224954307079315,0.19512395560741425, 0.45043128728866577
27,625965689,0.75975573,0.2340759,-0.5030042,0.33906707,9.059001922607422,0.04001060873270035,3.8516645431518555,0.5844369530677795,-0.3685027062892914, 0.3396051824092865
28,625982356,0.7604214,0.23304714,-0.5035831,0.33742037,9.059174537658691,0.010822865180671215,3.833216428756714,0.859581470489502,-0.9492193460464478, 0.25101083517074585
29,625999023,0.76008826,0.23349994,-0.5035291,0.33793804,9.105106353759766,0.06516999006271362,3.833040237426758,1.2278791666030884,-1.3655794858932495, 0.18372628092765808
30,626015690,0.7597313,0.23401405,-0.5034473,0.3385063,9.136154174804688,0.11825542151927948,3.836768388748169,1.2797832489013672,-1.3749408721923828, -0.01833869144320488
31,626032357,0.7596923,0.23405154,-0.5036,0.3383411,9.16463565826416,0.14776307344436646,3.829655885696411,1.013270378112793,-1.4749201536178589, -0.13948675990104675
32,626049024,0.7595469,0.234235,-0.5036699,0.33843616,9.172445297241211,0.22390276193618774,3.823495388031006,0.6672812700271606,-1.358164668083191, -0.13713040947914124
33,626065691,0.7593707,0.23448229,-0.50366783,0.33866364,9.137447357177734,0.11065990477800369,3.7953574657440186,0.4036369025707245,-1.032114863395691, -0.17712461948394775
34,626082358,0.7593626,0.2345217,-0.5037452,0.33853966,9.129703521728516,0.02025281824171543,3.7331957817077637,1.2058907747268677,-0.8742383718490601, -0.09296129643917084
35,626099025,0.7593727,0.23455063,-0.5038164,0.33839053,9.105998039245605,0.08286098390817642,3.7483112812042236,1.837243676185608,-0.7453039288520813, 0.03755462169647217
36,626115692,0.75930357,0.23471473,-0.50377643,0.3384915,9.126766204833984,0.11805713176727295,3.7400035858154297,1.8103504180908203,-0.3621635437011719, 0.04116601124405861
37,626132359,0.75887316,0.2354119,-0.5034492,0.339458,9.118464469909668,0.11915118247270584,3.760937213897705,1.7351516485214233,-0.0522242970764637, 0.15260687470436096
38,626149026,0.75877374,0.2356197,-0.5033193,0.33972868,9.110734939575195,0.1222725510597229,3.754594326019287,1.6005439758300781,0.18901531398296356, 0.1724310964345932
39,626165693,0.75867754,0.23583661,-0.5031669,0.34001872,9.184085845947266,0.18323442339897156,3.817957639694214,1.4981316328048706,0.3346363306045532, 0.09436358511447906
40,626182360,0.7588602,0.23564221,-0.50320405,0.3396909,9.196671485900879,0.17046792805194855,3.9066452980041504,0.8932492733001709,0.34892818331718445, -0.1312650889158249
41,626199027,0.7587284,0.235938,-0.50305915,0.3399944,9.168513298034668,0.09917856007814407,3.891141653060913,1.1381065845489502,-0.0283532552421093, -0.32959699630737305
42,626215694,0.7586041,0.23626518,-0.5029378,0.34022376,9.102354049682617,0.08393849432468414,3.8543243408203125,1.5640716552734375,-0.3286365568637848, -0.5697289109230042
43,626232361,0.7583258,0.23681803,-0.50278544,0.34068465,9.073896408081055,0.02442891150712967,3.824925661087036,1.8032941818237305,-0.9030141830444336, -0.6953336596488953
44,626249028,0.758121,0.23720698,-0.5027988,0.3408506,9.093080520629883,-0.020851057022809982,3.7326552867889404,2.650216817855835,-1.5613758563995361, -0.2643871307373047
45,626265695,0.75786984,0.23765391,-0.50277597,0.34113082,9.194746017456055,0.35902640223503113,3.946781635284424,1.999090313911438,-1.4947059154510498, -0.4846819043159485
46,626282362,0.7579237,0.23759606,-0.5029332,0.34081995,9.251810073852539,0.41688576340675354,3.8650331497192383,0.08109620213508606,-1.1182760000228882, -0.6581823229789734
47,626299029,0.75779665,0.23781341,-0.5029379,0.34094372,9.276535987854004,0.1759095937013626,3.845465660095215,0.14092746376991272,-0.9512812495231628, -0.5519408583641052
48,626315696,0.7582944,0.23713557,-0.50334626,0.33970428,9.153374671936035,0.2025548815727234,3.7965950965881348,0.29193994402885437,-0.8006657361984253, -0.615818977355957
49,626332363,0.75804776,0.23758236,-0.5032455,0.34009176,9.061079978942871,0.055391762405633926,3.726691722869873,0.7450158596038818,-0.9483359456062317, -0.64426189661026
50,626349030,0.7581899,0.23746145,-0.5034603,0.33954072,9.040852546691895,0.03034062869846821,3.761319398880005,2.055476665496826,-1.2719395160675049, -0.3343737721443176
51,626365697,0.7580453,0.2377393,-0.5035014,0.33960807,9.117402076721191,0.08473079651594162,3.7628753185272217,1.9583791494369507,-1.3824455738067627, -0.2688693404197693
52,626382364,0.7580193,0.2378891,-0.5035834,0.33943948,9.157769203186035,0.1262843757867813,3.765626907348633,2.2835323810577393,-1.2245945930480957, -0.4134145975112915
53,626399031,0.7580105,0.23804463,-0.50365025,0.33925113,9.13198184967041,0.14115560054779053,3.76267409324646,1.798299789428711,-1.1350780725479126, -0.7953895926475525
54,626415698,0.75799286,0.23821497,-0.50371957,0.339068,9.130361557006836,0.10478998720645905,3.7667107582092285,1.7670522928237915,-1.202439546585083, -0.8573339581489563
55,626432365,0.7579339,0.2384462,-0.50376964,0.33896285,9.152459144592285,0.14426706731319427,3.792308807373047,1.460365891456604,-1.2788678407669067, -1.010331392288208
56,626449032,0.7576602,0.23900838,-0.5036943,0.3392905,9.1613130569458,0.1343771368265152,3.7883312702178955,1.5075186491012573,-1.5143765211105347, -1.178389072418213
57,626465699,0.7573287,0.23969635,-0.5035825,0.33971098,9.149012565612793,0.14608852565288544,3.7887089252471924,2.1006064414978027,-1.6806412935256958, -1.2811344861984253
58,626482366,0.7572171,0.24006103,-0.5036549,0.33959493,9.12860107421875,0.07650922238826752,3.706804037094116,2.835780620574951,-1.8968511819839478, -1.1042275428771973
59,626499033,0.7573859,0.24000075,-0.5039097,0.3388823,9.116339683532715,0.19418103992938995,3.7357749938964844,3.257352590560913,-1.727269172668457, -0.8306326270103455
60,626515700,0.7573231,0.24023904,-0.50396657,0.33876947,9.240387916564941,0.47873231768608093,3.768477439880371,2.4981796741485596,-1.3258031606674194, -0.6545454263687134
61,626532367,0.757038,0.24072932,-0.5037887,0.33932284,9.315893173217773,0.46921491622924805,3.7818167209625244,0.8354541659355164,-0.5067600011825562, -0.4035024344921112
62,626549034,0.75698817,0.24079806,-0.5036763,0.3395518,9.268610000610352,0.3263145983219147,3.760192394256592,-0.2901918888092041,0.4865708351135254, 0.08262016624212265
63,626565701,0.75711226,0.2405703,-0.5035797,0.33958,9.178306579589844,0.37534192204475403,3.7254867553710938,-0.19516877830028534,1.435982346534729, 0.7905167937278748
64,626582368,0.75734586,0.24002738,-0.5035251,0.33952394,9.24276065826416,0.52707839012146,3.7269434928894043,-1.674417495727539,2.2154407501220703, 1.5741500854492188
65,626599035,0.75746024,0.23954712,-0.5033677,0.33984113,9.280756950378418,0.5711175203323364,3.8245463371276855,-2.895477533340454,2.73974609375, 2.1192526817321777
66,626615702,0.7577081,0.2387769,-0.50328237,0.33995694,9.27970027923584,0.48176634311676025,3.899162769317627,-4.127934455871582,3.2043344974517822, 2.4853603839874268
67,626632369,0.7580306,0.23778461,-0.5033089,0.33989468,9.198485374450684,0.31612876057624817,3.906090259552002,-4.723405838012695,3.129059314727783, 3.0126242637634277
68,626649036,0.75829655,0.23682496,-0.5033549,0.33990335,9.175139427185059,0.27694860100746155,3.950575590133667,-4.7182698249816895,2.8486130237579346, 3.2608113288879395
69,626665703,0.7582959,0.2362057,-0.50324935,0.34049135,9.110271453857422,0.21287526190280914,3.8139829635620117,-5.838171482086182,2.74686598777771, 3.1437859535217285
70,626682370,0.7585298,0.23515406,-0.50339574,0.34048188,9.07094955444336,0.13652987778186798,3.772233247756958,-6.788058280944824,2.361433506011963, 3.1782355308532715
71,626699037,0.75889117,0.23385468,-0.50371176,0.3401041,9.046019554138184,0.006269514560699463,3.810271739959717,-7.5643792152404785,1.9406040906906128, 3.0740044116973877
72,626715704,0.7591607,0.23272832,-0.504031,0.33980227,9.013381004333496,-0.1637495756149292,3.783770799636841,-6.993100643157959,1.306830644607544, 2.7706222534179688
73,626732371,0.7592752,0.23190697,-0.5042772,0.33974257,9.003934860229492,-0.3342288136482239,3.8031814098358154,-5.966222763061523,0.8030030727386475, 2.419459342956543
74,626749038,0.75927556,0.23142846,-0.5044693,0.3397831,8.987967491149902,-0.385301411151886,3.757399559020996,-3.8531486988067627,0.043547991663217545, 1.742553472518921
75,626765705,0.75928175,0.23112871,-0.50466806,0.3396776,8.994701385498047,-0.40053701400756836,3.7189931869506836,-1.8070913553237915,-0.603717029094696, 0.9881187677383423
76,626782372,0.7593531,0.23094118,-0.5048917,0.33931303,9.016388893127441,-0.41950103640556335,3.740725517272949,0.3543965518474579,-1.1522384881973267, 0.17383980751037598
77,626799039,0.7591854,0.23132825,-0.50492257,0.33937845,9.075422286987305,-0.31795984506607056,3.792858362197876,1.888353705406189,-1.6640572547912598, -0.9519216418266296
78,626815706,0.7590765,0.23185602,-0.5049409,0.33923507,9.113424301147461,-0.2435704469680786,3.8249576091766357,3.0183732509613037,-2.043893337249756, -2.2376790046691895
79,626832373,0.758943,0.23259683,-0.50487494,0.33912453,9.106267929077148,-0.17923283576965332,3.7851574420928955,3.822228193283081,-2.1418237686157227, -3.1834025382995605
80,626849040,0.75887,0.2333706,-0.5048085,0.33885524,9.070082664489746,-0.14430496096611023,3.719618558883667,4.395056247711182,-2.2468104362487793, -3.8612301349639893
81,626865707,0.7586406,0.23442572,-0.50461036,0.33893615,9.010628700256348,-0.19447416067123413,3.692155361175537,5.338437557220459,-2.2215819358825684, -3.82647442817688
82,626882374,0.75846833,0.23544025,-0.5044752,0.3388198,8.980253219604492,-0.083673857152462,3.7048940658569336,6.7745537757873535,-2.532635450363159, -3.713944435119629
83,626899041,0.7581061,0.23673551,-0.5042425,0.33907393,9.10727596282959,0.09112966060638428,3.7693898677825928,7.455417156219482,-2.7799646854400635, -3.5538783073425293
84,626915708,0.7574792,0.23840421,-0.50383157,0.33991534,9.217796325683594,0.22476540505886078,3.829258680343628,7.482155799865723,-2.779926061630249, -3.429438591003418
85,626932375,0.7572491,0.23952815,-0.5035854,0.34000257,9.306401252746582,0.4632931649684906,3.8940441608428955,6.957389831542969,-2.1152379512786865, -3.6732583045959473
86,626949042,0.75722706,0.24026175,-0.503511,0.3396444,9.278581619262695,0.3262900710105896,3.7835047245025635,5.59475564956665,-2.048696279525757, -3.6006081104278564
87,626965709,0.7570694,0.24114767,-0.5033257,0.33964252,9.157432556152344,0.3109295666217804,3.86519718170166,5.830276966094971,-1.755942702293396, -3.0516252517700195
88,626982376,0.7571024,0.24162762,-0.50330853,0.33925357,9.145340919494629,0.3789037764072418,3.7646372318267822,4.910575866699219,-1.5909456014633179, -2.4959447383880615
89,626999043,0.75709534,0.24199787,-0.50332993,0.338973,9.170370101928711,0.4093164801597595,3.79203724861145,3.7672762870788574,-1.517155408859253, -1.7504487037658691
90,627015710,0.75671214,0.24281178,-0.5031034,0.33958244,9.213488578796387,0.4935711920261383,3.8200948238372803,3.2532293796539307,-1.2771389484405518, -1.0606348514556885
91,627032377,0.7565324,0.2431817,-0.50304145,0.33981013,9.293230056762695,0.5013935565948486,3.8920681476593018,1.7278774976730347,-0.95762038230896, -0.5294016003608704
92,627049044,0.75646144,0.24331003,-0.50306135,0.33984658,9.239052772521973,0.4217812716960907,3.8542661666870117,0.9125099778175354,-0.7285147905349731, -0.1871519833803177
93,627065711,0.75648206,0.24324639,-0.50312006,0.3397594,9.196989059448242,0.2807317078113556,3.738280773162842,0.5063822865486145,-0.342723548412323, 0.21612636744976044
94,627082378,0.7563633,0.24335158,-0.5030725,0.34001866,9.116406440734863,0.20854653418064117,3.658545970916748,0.5196752548217773,-0.1564807891845703, 0.5552512407302856
95,627099045,0.7562717,0.24340224,-0.5030133,0.34027356,9.084282875061035,0.1306937038898468,3.6527531147003174,0.6617104411125183,0.1364068239927292, 0.8227887153625488
96,627115712,0.75626296,0.2433699,-0.502955,0.34040254,9.084630966186523,0.0578903965651989,3.6378486156463623,1.227687120437622,0.4492659866809845, 0.8918022513389587
97,627132379,0.75621134,0.24347018,-0.5028262,0.34063566,9.10428524017334,0.05919819325208664,3.69848895072937,1.7362143993377686,0.5161918997764587, 0.6248409748077393
98,627149046,0.75612116,0.24369887,-0.502621,0.34097514,9.145543098449707,0.12373030930757523,3.7603583335876465,1.963930368423462,0.6293936967849731, 0.2598664462566376
99,627165713,0.7561325,0.24386595,-0.5024375,0.34110072,9.175130844116211,0.15393589437007904,3.8062102794647217,1.9518221616744995,0.6866061091423035, -0.33716562390327454
100,627182380,0.75624955,0.24391426,-0.5023734,0.34090123,9.133186340332031,0.0002528527984395623,3.8750619888305664,1.853955864906311,0.2179064154624939, -0.820067286491394
101,627199047,0.75614494,0.24431305,-0.50218374,0.3411267,9.18807601928711,-0.09134814143180847,3.8110220432281494,2.537200689315796,-0.10672812163829803, -0.862213134765625
102,627215714,0.7562343,0.2445359,-0.50205773,0.34095448,9.255709648132324,0.2346194088459015,3.8083078861236572,3.3664629459381104,0.07698537409305573, -1.2378875017166138
103,627232381,0.7562888,0.24491158,-0.5017301,0.34104657,9.380491256713867,0.5703060030937195,3.801497220993042,2.0227181911468506,0.9849427342414856, -2.103942394256592
104,627249048,0.75664896,0.24490158,-0.5013396,0.34082866,9.343022346496582,0.4143957793712616,3.807671546936035,-0.6703612804412842,2.771301031112671, -2.878086805343628
105,627265715,0.7570429,0.24488574,-0.5008588,0.34067225,9.165796279907227,0.19629119336605072,3.679589033126831,0.13259054720401764,3.492489814758301, -2.563997745513916
106,627282382,0.75730574,0.24497999,-0.5003076,0.34082982,9.029977798461914,0.15481452643871307,3.6534767150878906,0.5145654678344727,3.6307857036590576, -1.8045810461044312
107,627299049,0.75728816,0.2454517,-0.49951905,0.3416852,9.167552947998047,0.3468073308467865,3.805819034576416,0.7393682599067688,4.029102325439453, -1.3539769649505615
108,627315716,0.757667,0.2452725,-0.4989601,0.34179068,9.220602035522461,0.5430441498756409,3.852004051208496,-0.902463436126709,4.63726282119751, -1.2841823101043701
109,627332383,0.75821614,0.24480759,-0.49850237,0.34157413,9.139492988586426,0.48870211839675903,3.9256818294525146,-1.3671164512634277,4.908373832702637, -1.0901790857315063
110,627349050,0.75862944,0.24448831,-0.49795625,0.3416817,9.077774047851562,0.39795002341270447,3.8592588901519775,-1.689529299736023,5.012604236602783, -0.805711567401886
111,627365717,0.7590627,0.24405931,-0.4975637,0.34159794,9.053603172302246,0.18865060806274414,3.8067667484283447,-1.384212613105774,4.273356914520264, -0.4037841558456421
112,627382384,0.7590426,0.24429041,-0.49701437,0.34227705,8.997259140014648,-0.004082796163856983,3.9201791286468506,0.5986136198043823,3.0987460613250732, -0.06054842844605446
113,627399051,0.7591588,0.24438521,-0.49663478,0.3425023,9.017904281616211,0.06126860901713371,3.898109197616577,2.8446297645568848,2.3980212211608887, 0.12589281797409058
114,627415718,0.7585089,0.2456193,-0.49579024,0.34427825,9.093960762023926,0.23511247336864471,3.8233096599578857,3.327378034591675,1.6828633546829224, -0.1838095635175705
115,627432385,0.75800836,0.24657261,-0.49513274,0.34564286,9.05527114868164,0.09570576995611191,4.122261047363281,2.494081497192383,1.2746351957321167, -0.2739662528038025
116,627449052,0.75742334,0.24710415,-0.49518654,0.3464679,9.059526443481445,-1.4932124614715576,4.6039862632751465,0.9019448757171631,-2.5134129524230957, 1.4237909317016602
117,627465719,0.7563968,0.2489378,-0.49429652,0.34866202,8.932458877563477,-1.5706318616867065,4.4539618492126465,20.727628707885742,0.25454580783843994, 5.694436073303223
118,627482386,0.75555664,0.25088823,-0.49304405,0.350852,10.170514106750488,-0.18305230140686035,5.540333271026611,20.100191116333008,2.3747940063476562, 3.3237714767456055
119,627499053,0.75628,0.25015932,-0.49217004,0.35104084,10.244659423828125,0.3548068404197693,5.141172885894775,-2.9149560928344727,8.685683250427246, -0.5988378524780273
120,627515720,0.7585336,0.2452532,-0.49284497,0.34868568,9.845637321472168,-0.3521965444087982,3.9329159259796143,-39.95405960083008,11.457880020141602, -0.8678404688835144
121,627532387,0.7612514,0.23758042,-0.4950675,0.3449063,8.580798149108887,-1.789446473121643,3.803213357925415,-64.37133026123047,9.206500053405762, 2.2297658920288086
122,627549054,0.76269794,0.23186639,-0.4966667,0.3432961,8.907448768615723,0.4829023778438568,4.057244777679443,-58.30171585083008,6.7842020988464355, 2.189483642578125
123,627565721,0.7653591,0.2239758,-0.49930122,0.33876088,8.628220558166504,0.8006771802902222,4.04868745803833,-68.1471176147461,6.266512870788574, 0.009214320220053196
124,627582388,0.7669258,0.21851447,-0.50086784,0.33646375,8.594635009765625,1.3789860010147095,3.718977928161621,-56.14279556274414,5.893130779266357, -1.137357234954834
125,627599055,0.76750946,0.21550794,-0.5014665,0.3361799,8.905078887939453,2.434490919113159,3.4006974697113037,-45.363922119140625,5.106844425201416, -3.7222445011138916
126,627615722,0.76844305,0.21330701,-0.5019169,0.3347757,8.928267478942871,1.810678243637085,2.9649930000305176,-28.320070266723633,3.568044900894165, -5.837522506713867
127,627632389,0.76866245,0.21430726,-0.5012457,0.33463892,9.080770492553711,1.3861228227615356,2.6572577953338623,1.759291648864746,1.5451568365097046, -7.758382320404053
128,627649056,0.76832926,0.21742977,-0.4998433,0.3354863,8.88533878326416,1.1678760051727295,2.9952991008758545,21.390119552612305,0.13624060153961182, -8.442920684814453
129,627665723,0.76774865,0.22132008,-0.49812418,0.33682615,8.546913146972656,0.4195583164691925,3.2831127643585205,29.405569076538086,-0.01978587545454502, -7.773505687713623
130,627682390,0.76693505,0.22535811,-0.49626064,0.3387474,8.377555847167969,-0.26506057381629944,3.2835934162139893,32.826839447021484,0.5205864310264587, -4.878033638000488
131,627699057,0.7660067,0.22904314,-0.49447215,0.34098452,8.459135055541992,-0.34428659081459045,3.172607660293579,32.149234771728516,1.0744374990463257, -1.6039881706237793
132,627715724,0.76509094,0.23183116,-0.49305344,0.3432032,8.645347595214844,0.025380518287420273,3.4643895626068115,26.3493709564209,1.2782047986984253, 1.810168981552124
133,627732391,0.7643917,0.23319739,-0.49234033,0.34485564,8.776368141174316,-0.24304576218128204,3.920365333557129,15.054973602294922,0.7781465649604797, 4.3067216873168945
134,627749058,0.763752,0.23386748,-0.49187165,0.34648436,9.006880760192871,-0.3472328186035156,4.170401573181152,9.943502426147461,1.292539119720459, 6.448788166046143
135,627765725,0.76353323,0.23316275,-0.49195573,0.34732124,9.285173416137695,0.07029344886541367,4.575436115264893,-1.5506312847137451,1.8125147819519043, 6.9644455909729
136,627782392,0.7637185,0.23106483,-0.4926338,0.34735414,9.300163269042969,-0.1551695168018341,4.641348361968994,-13.944526672363281,2.0687203407287598, 7.305356025695801
137,627799059,0.76395977,0.22878593,-0.49339885,0.34724653,9.258316993713379,-0.07943043112754822,4.504422187805176,-16.233768463134766,1.9775265455245972, 6.911140441894531
138,627815726,0.7641408,0.22676794,-0.4941269,0.34713686,9.21424674987793,-0.0008172262459993362,4.663605690002441,-15.194082260131836,1.3206238746643066, 5.861388683319092
139,627832393,0.7641447,0.22593422,-0.49419397,0.34757596,9.40647029876709,0.3783479630947113,4.643212795257568,-5.349264621734619,2.19244122505188, 4.066843032836914
140,627849060,0.76437986,0.2248661,-0.49454388,0.34725404,9.187106132507324,0.04886462911963463,4.649427890777588,-8.393745422363281,0.8507324457168579, 1.5879687070846558
141,627865727,0.7641635,0.22468236,-0.49475637,0.34754625,8.85379695892334,-1.3015937805175781,4.773058891296387,-2.200655937194824,-1.1549533605575562, 1.972760558128357
142,627882394,0.7636545,0.22501339,-0.49478528,0.34840837,8.819290161132812,-1.1060307025909424,4.557590484619141,3.7305729389190674,-1.5811361074447632, 3.717254400253296
143,627899061,0.76293564,0.22570129,-0.4947507,0.3495853,8.950027465820312,-0.5938327312469482,4.02154016494751,8.332165718078613,-2.3660762310028076, 5.013885974884033
144,627915728,0.7622035,0.22682089,-0.4944517,0.3508783,9.311351776123047,0.6511997580528259,3.9674746990203857,7.252166748046875,-1.8746578693389893, 1.771649956703186
145,627932395,0.76217085,0.22698307,-0.49437943,0.3509463,9.264620780944824,0.6013873219490051,3.7334964275360107,0.18368786573410034,-0.278230756521225, -0.9991897940635681
146,627949062,0.7622176,0.22712758,-0.49424702,0.3509381,8.983536720275879,0.17977742850780487,3.588728189468384,-1.4495635032653809,0.25865623354911804, -2.161161184310913
147,627965729,0.7622849,0.22759776,-0.49388686,0.35099417,8.848921775817871,-0.10124343633651733,3.9788553714752197,0.44647422432899475,0.8608748912811279, -3.565211057662964
148,627982396,0.7623456,0.22808865,-0.4935191,0.35106084,8.880951881408691,-0.8813230395317078,4.227993965148926,1.5059819221496582,0.8447517156600952, -3.1884100437164307
149,627999063,0.7622994,0.22875197,-0.4929522,0.35152578,9.103497505187988,-0.38357117772102356,4.120205402374268,3.0435760021209717,1.7151734828948975, -2.410961627960205
150,628015730,0.76243067,0.22923388,-0.49240673,0.35169163,9.305623054504395,0.23805612325668335,4.064818382263184,2.783735752105713,2.1733341217041016, -2.873335599899292
151,628032397,0.7626477,0.22978385,-0.49175796,0.35177,9.309745788574219,0.4346821904182434,4.402056694030762,2.669311046600342,2.708191394805908, -4.046576976776123
152,628049064,0.7630291,0.23013525,-0.49101964,0.35174462,9.248076438903809,0.0937206819653511,4.513865947723389,0.37694859504699707,4.034404754638672, -4.819760322570801
153,628065731,0.7629848,0.23138057,-0.489732,0.35281712,9.108519554138184,-0.36798638105392456,4.339634895324707,4.723360538482666,4.98936128616333, -4.65806770324707
154,628082398,0.7632535,0.23229183,-0.4885636,0.3532568,8.9312105178833,-0.37520819902420044,4.111630439758301,8.295270919799805,5.268156051635742, -3.7138428688049316
155,628099065,0.7635078,0.2326634,-0.48776054,0.35357243,8.874248504638672,-0.3262503743171692,4.1920671463012695,3.924499988555908,4.412959575653076, -2.084028720855713
156,628115732,0.7636635,0.23272802,-0.4871418,0.35404643,8.9059419631958,-0.6010954976081848,4.012632369995117,1.1239686012268066,4.090264797210693, -0.3690405786037445
157,628132399,0.76374125,0.23429734,-0.4851846,0.355528,9.275731086730957,-0.8571167588233948,3.700423240661621,15.107876777648926,8.800230979919434, -2.431467056274414
158,628149066,0.7638805,0.23543513,-0.4835821,0.35665905,8.905257225036621,-1.1364213228225708,3.3603708744049072,13.593984603881836,7.702622890472412, -1.138792872428894
159,628165733,0.7638875,0.23515536,-0.48327604,0.3572422,8.884300231933594,-0.4462314546108246,4.101311683654785,-0.1547519564628601,3.0644896030426025, 2.328662395477295
160,628182400,0.76452166,0.23215011,-0.4843577,0.35638526,8.821847915649414,-0.15173743665218353,4.440138339996338,-24.395803451538086,2.22234845161438, 4.154382228851318
161,628199067,0.7656826,0.22726521,-0.48615673,0.35458764,8.737812995910645,-0.398425817489624,4.250446319580078,-40.134151458740234,3.3042941093444824, 5.249513149261475
162,628215734,0.7671891,0.22092715,-0.4885144,0.35208786,9.015623092651367,-0.4394873380661011,3.281109094619751,-51.136837005615234,3.9752371311187744, 6.828724384307861
163,628232401,0.7682699,0.21533719,-0.4909303,0.34982723,9.160920143127441,-0.18639379739761353,3.057734727859497,-43.84130859375,0.8370224833488464, 7.631389141082764
164,628249068,0.76834375,0.21209468,-0.49262545,0.34926206,9.15526008605957,-0.9805262684822083,3.154533624649048,-23.110044479370117,-1.8145099878311157, 9.7276029586792
165,628265735,0.76755995,0.21084763,-0.49367818,0.35025275,9.282176971435547,-1.0660220384597778,3.4904234409332275,-5.738887310028076,-3.7591655254364014, 11.682414054870605
166,628282402,0.7661803,0.21063003,-0.49432135,0.35248998,9.289030075073242,-1.3723450899124146,3.658097505569458,5.4018964767456055,-4.234820365905762, 15.383186340332031
167,628299069,0.7642304,0.21132459,-0.4948343,0.35557407,9.044687271118164,-1.0051486492156982,4.3720173835754395,14.932046890258789,-6.454745292663574, 18.197351455688477
168,628315736,0.76226807,0.2118811,-0.4954154,0.35863265,8.710978507995605,-0.534419596195221,5.078444480895996,13.814230918884277,-6.561577320098877, 18.54796600341797
169,628332403,0.7606552,0.21188343,-0.49614677,0.36103684,8.684508323669434,-0.5843665599822998,5.052778720855713,10.709129333496094,-5.916914939880371, 17.697872161865234
170,628349070,0.75903857,0.21223816,-0.49661052,0.3635846,8.828248023986816,-0.2794017791748047,4.719165802001953,11.811101913452148,-5.18996000289917, 15.982545852661133
171,628365737,0.7580303,0.2121807,-0.49711707,0.36502588,9.044903755187988,-0.12857301533222198,4.591704845428467,11.516039848327637,-4.252673149108887, 13.205097198486328
172,628382404,0.7564815,0.21246757,-0.49744913,0.36761078,9.18805980682373,-0.014916984364390373,4.4933390617370605,3.9605517387390137,-3.7545299530029297, 12.494645118713379
173,628399071,0.75651324,0.20924397,-0.49950272,0.36660844,9.324213027954102,0.09648683667182922,4.655909061431885,-16.630250930786133,-4.510659694671631, 11.963472366333008
174,628415738,0.75550616,0.20698889,-0.5013941,0.36738268,9.262201309204102,-0.36605751514434814,4.274835586547852,-24.301645278930664,-6.000878810882568, 10.90351390838623
175,628432405,0.7552656,0.20379917,-0.5038665,0.3662766,9.164731979370117,-0.5970512628555298,4.199821949005127,-23.1917667388916,-7.585000991821289, 10.056639671325684
176,628449072,0.7546726,0.20145777,-0.50603276,0.36580774,9.079510688781738,-0.7784331440925598,4.251078128814697,-17.668197631835938,-8.312142372131348, 9.825272560119629
177,628465739,0.7540635,0.19945566,-0.50803876,0.36537984,8.929159164428711,-0.9879477024078369,4.211779594421387,-11.40160846710205,-8.632719039916992, 10.41633129119873
178,628482406,0.75274295,0.19896723,-0.5091865,0.3667688,8.878911972045898,-1.0145431756973267,4.082487106323242,-1.7947728633880615,-7.410872936248779, 11.724254608154297
179,628499073,0.7519483,0.19740129,-0.5106456,0.367216,8.90831470489502,-0.8901717662811279,3.9762511253356934,-4.1058855056762695,-6.4164605140686035, 13.257790565490723
180,628515740,0.75097984,0.19563925,-0.51209575,0.36812043,8.957086563110352,-0.9272257685661316,3.4323806762695312,-8.573884963989258,-5.420561790466309, 14.397135734558105
181,628532407,0.7501142,0.1931428,-0.51400083,0.36854818,8.958561897277832,-1.1500718593597412,3.516400098800659,-14.06052303314209,-6.279820919036865, 15.424088478088379
182,628549074,0.74937826,0.18963985,-0.516523,0.3683385,9.126630783081055,-0.9556335210800171,2.8060214519500732,-23.781156539916992,-7.228489398956299, 15.932538032531738
183,628565741,0.74851114,0.1859818,-0.5196844,0.36751875,9.170317649841309,-1.3146837949752808,2.42771053314209,-28.42285919189453,-11.30763053894043, 14.407054901123047
184,628582408,0.74730575,0.18281536,-0.5232501,0.36649972,9.118003845214844,-1.8056843280792236,2.145608425140381,-27.660600662231445,-15.960800170898438, 12.780617713928223
185,628599075,0.74574745,0.17892222,-0.5280433,0.36471635,9.222195625305176,-2.057842493057251,2.26012921333313,-36.857093811035156,-22.564926147460938, 13.831527709960938
186,628615742,0.74415,0.1732363,-0.5342278,0.3617054,9.44655704498291,-1.6723085641860962,1.5344579219818115,-53.85585403442383,-26.776830673217773, 15.842880249023438
187,628632409,0.74224544,0.16814578,-0.54050756,0.35867873,9.878439903259277,-1.3720287084579468,1.0592163801193237,-50.765037536621094,-29.76139259338379, 14.423445701599121
188,628649076,0.7398259,0.16417328,-0.54708004,0.35553935,9.830267906188965,-1.5998824834823608,1.0802137851715088,-45.59255599975586,-35.90690231323242, 11.315196990966797
189,628665743,0.7366222,0.16121507,-0.55414575,0.35259056,9.782771110534668,-2.2567062377929688,1.2878973484039307,-40.03062057495117,-43.48898696899414, 10.945247650146484
190,628682410,0.7325682,0.1595006,-0.56155926,0.35007828,9.83650016784668,-2.0025417804718018,1.3020917177200317,-31.944747924804688,-50.90549850463867, 10.838611602783203
191,628699077,0.7277546,0.1589731,-0.56919044,0.34802777,9.73417854309082,-1.6897462606430054,1.408287525177002,-23.861520767211914,-57.179752349853516, 10.636686325073242
192,628715744,0.7223833,0.1592378,-0.576979,0.3462676,9.666192054748535,-1.585119605064392,1.84428870677948,-18.521587371826172,-61.641544342041016, 10.501370429992676
193,628732411,0.716697,0.15957671,-0.5850512,0.3443774,9.642746925354004,-1.2047736644744873,1.36607027053833,-19.005355834960938,-64.56879425048828, 10.632279396057129
194,628749078,0.71055615,0.16196635,-0.59223866,0.343701,9.70821762084961,-1.1024506092071533,1.3338606357574463,-1.4311572313308716,-65.4986572265625, 8.49986457824707
195,628765745,0.7040165,0.16552414,-0.5989912,0.34376162,9.79539966583252,-1.274342656135559,1.7511558532714844,8.738907814025879,-66.88471221923828, 7.8347649574279785
196,628782412,0.6972457,0.1699304,-0.60527015,0.34441277,9.74248218536377,-0.9656956791877747,1.88267982006073,16.652677536010742,-66.85842895507812, 7.229747772216797
197,628799079,0.6904058,0.17420359,-0.6116414,0.34480095,9.685432434082031,-0.7326377034187317,2.3481760025024414,14.761726379394531,-67.57783508300781, 6.831502914428711
198,628815746,0.6839877,0.1772256,-0.61854297,0.34373927,9.640217781066895,-0.2660827338695526,2.551510810852051,0.9424663186073303,-67.12480926513672, 4.899845600128174
199,628832413,0.6781733,0.17891675,-0.62595767,0.34094974,9.80218505859375,-0.2939683198928833,2.04455304145813,-14.648215293884277,-65.98114776611328, 1.713715672492981
200,628849080,0.67233086,0.18107256,-0.63319176,0.33801252,9.87011432647705,-0.8300272822380066,1.5983866453170776,-12.675341606140137,-66.56483459472656, -1.0455914735794067
201,628865747,0.66620284,0.18424708,-0.6398661,0.33585444,9.874297142028809,-0.8096504211425781,1.4891412258148193,-2.9400641918182373,-66.63639831542969, -1.8584611415863037
202,628882414,0.6599762,0.1884871,-0.64576274,0.33450648,9.63565444946289,-0.6069669723510742,1.685482144355774,7.408245086669922,-64.96537017822266, -3.541200876235962
203,628899081,0.6537026,0.19289261,-0.65142983,0.33332327,9.28172779083252,-1.1647340059280396,2.1250967979431152,9.46607494354248,-64.34613037109375, -3.6594433784484863
204,628915748,0.64732194,0.19827728,-0.65642965,0.3328071,9.21321964263916,-1.2922906875610352,1.7214055061340332,18.51062774658203,-63.264122009277344, -5.6627349853515625
205,628932415,0.64059085,0.20460923,-0.66089666,0.33315784,9.435524940490723,-1.2946218252182007,0.853548526763916,28.317981719970703,-63.525001525878906, -5.991002559661865
206,628949082,0.6340073,0.21169235,-0.66454095,0.33407566,9.464353561401367,-0.6369300484657288,1.4291563034057617,35.878021240234375,-60.18198013305664, -8.389086723327637
207,628965749,0.6278914,0.218173,-0.6680061,0.33454603,9.66672134399414,-0.8538244366645813,1.0984113216400146,30.919261932373047,-56.594051361083984, -8.875470161437988
208,628982416,0.62195945,0.22496419,-0.6709086,0.3353199,9.379390716552734,-0.645080029964447,0.8624134659767151,34.66343688964844,-53.6330451965332, -10.222332000732422
209,628999083,0.6162325,0.23180291,-0.67361283,0.33581364,9.297356605529785,-0.7902687191963196,0.977432370185852,33.70394515991211,-52.42861557006836, -12.376450538635254
210,629015750,0.6109462,0.2379172,-0.6766367,0.33511665,9.285207748413086,-0.9763675928115845,0.9781081080436707,23.668542861938477,-52.025997161865234, -14.539804458618164
211,629032417,0.6062617,0.24309176,-0.67988175,0.33333787,9.341655731201172,-1.2070115804672241,0.37400150299072266,13.187826156616211,-49.823421478271484, -15.713384628295898
212,629049084,0.60169125,0.24803911,-0.68323815,0.33110443,9.179187774658203,-1.441138744354248,0.5372419953346252,9.663507461547852,-50.0339469909668, -16.61020851135254
213,629065751,0.59717363,0.25289595,-0.68654174,0.32876745,9.199040412902832,-1.4977508783340454,0.2897401750087738,8.823232650756836,-49.5923957824707, -16.82686424255371
214,629082418,0.5927245,0.2581586,-0.689201,0.32716042,9.312212944030762,-1.4214320182800293,0.34711092710494995,15.27113151550293,-46.3190803527832, -17.028852462768555
215,629099085,0.5882829,0.264255,-0.69078034,0.32697916,9.234554290771484,-1.2496026754379272,0.9026561379432678,27.83182144165039,-41.283355712890625, -17.10829734802246
216,629115752,0.5836037,0.27085882,-0.69140863,0.32862818,8.861956596374512,-1.7220457792282104,1.2402119636535645,41.13628005981445,-36.4673957824707, -13.308712005615234
217,629132419,0.5787278,0.27807528,-0.6906706,0.33275002,8.578763008117676,-1.921549916267395,1.088951826095581,58.79005432128906,-28.803956985473633, -8.424068450927734
218,629149086,0.5745694,0.2858018,-0.68812233,0.33863726,8.608474731445312,-0.6538827419281006,1.878291368484497,71.95867919921875,-16.081974029541016, -8.960328102111816
219,629165753,0.5735759,0.28920117,-0.68674684,0.34022433,8.615456581115723,0.025320593267679214,2.498884439468384,25.55531120300293,-4.252833366394043, -10.510531425476074
220,629182420,0.57429206,0.29154873,-0.68482214,0.3408911,8.451371192932129,0.07363380491733551,1.4840552806854248,14.9351167678833,6.448884963989258, -14.2044038772583
221,629199087,0.57301366,0.29297045,-0.6850554,0.34135464,10.90497875213623,-4.620422840118408,-6.618851184844971,9.255022048950195,-9.812820434570312, -1.5891921520233154
222,629215754,0.56974405,0.297782,-0.68456763,0.34363455,10.96609115600586,-1.0086870193481445,-1.633186936378479,36.88579559326172,-20.378759384155273, -7.334345817565918
223,629232421,0.5674291,0.29971135,-0.68602115,0.34288839,10.051563262939453,-1.8233604431152344,1.501949429512024,4.8162665367126465,-22.85361671447754, -3.88202166557312
224,629249088,0.56524694,0.30023813,-0.68841046,0.34123906,9.766244888305664,-1.7203490734100342,1.185915231704712,-7.40924596786499,-24.559959411621094, 0.799918532371521
225,629265755,0.56190306,0.30202985,-0.6903656,0.3412304,10.02437686920166,-1.7520710229873657,-0.24960753321647644,8.673006057739258,-28.065074920654297, 2.9971628189086914
226,629282422,0.55849534,0.3037329,-0.69257116,0.34084418,10.928799629211426,-0.606450617313385,-0.11129474639892578,6.078419208526611,-29.957517623901367, 2.608898878097534
227,629299089,0.5558311,0.30366597,-0.6962293,0.3377928,11.819546699523926,-1.3456504344940186,0.7740504741668701,-18.367280960083008,-33.47663497924805, 2.1332733631134033
228,629315756,0.5531125,0.30363682,-0.7005566,0.33330482,10.478240013122559,-2.5988144874572754,-0.6357775926589966,-26.551563262939453,-39.4965934753418, -2.007884979248047
229,629332423,0.5499015,0.3043289,-0.70484287,0.32892078,8.798454284667969,-2.5197594165802,-2.0919604301452637,-22.193817138671875,-43.1901969909668, -4.105967998504639
230,629349090,0.54631644,0.30593103,-0.7085331,0.32546216,6.983933925628662,-1.464380145072937,-3.345724582672119,-12.14359188079834,-42.83751678466797, -5.483103275299072
231,629365757,0.5422632,0.30844778,-0.7113784,0.32365307,6.341252326965332,-1.8355484008789062,-3.3192577362060547,2.212841272354126,-40.41953659057617, -4.498589515686035
232,629382424,0.5372262,0.31242925,-0.71333295,0.32393247,8.868917465209961,-1.7967106103897095,-1.9693951606750488,21.95818519592285,-40.64048385620117, -3.6186540126800537
233,629399091,0.5325561,0.31648248,-0.71581626,0.32222703,13.743704795837402,-0.5423363447189331,0.45900866389274597,10.521018981933594,-45.2097053527832, -11.009194374084473
234,629415758,0.5286128,0.32128417,-0.7185442,0.31786692,14.663180351257324,0.18809188902378082,0.1961064487695694,-1.9300153255462646,-50.12024688720703, -25.433401107788086
235,629432425,0.5248484,0.3259095,-0.72156405,0.31251013,11.209052085876465,-0.1562565714120865,-1.6805846691131592,-8.523296356201172,-52.27400588989258, -27.840526580810547
236,629449092,0.52078766,0.33010802,-0.7246642,0.30768642,8.91461181640625,-1.0185197591781616,-2.510481357574463,-6.911012649536133,-51.96785354614258, -22.93425750732422
237,629465759,0.51621556,0.33378538,-0.7277403,0.3041435,8.97956371307373,-2.206164836883545,-2.6516621112823486,-1.1790536642074585,-50.4061393737793, -14.728672981262207
238,629482426,0.5105798,0.3377428,-0.7302712,0.3032195,10.462196350097656,-2.487257242202759,-2.669672966003418,16.49002456665039,-48.35578155517578, -5.915436744689941
239,629499093,0.50454116,0.34231025,-0.7314566,0.30534127,11.305960655212402,-2.273221492767334,-3.450455665588379,37.6500358581543,-39.866695404052734, -0.6270695924758911
240,629515760,0.497553,0.34844312,-0.7306849,0.31165385,10.817920684814453,-2.128697395324707,-4.328598976135254,70.48822784423828,-31.271892547607422, 3.3904306888580322
241,629532427,0.4902942,0.35532305,-0.7288128,0.31967047,11.06071949005127,0.5017311573028564,-4.661386013031006,84.60359954833984,-26.342941284179688, 3.3886728286743164
242,629549094,0.48327738,0.36261773,-0.7264658,0.32741252,11.369580268859863,-0.4080657958984375,-4.338996887207031,85.10235595703125,-25.06114387512207, -1.2126412391662598
243,629565761,0.47684222,0.37149653,-0.7219693,0.33670816,12.187726974487305,-1.2316358089447021,-3.820361614227295,101.5340805053711,-14.674603462219238, -10.571295738220215
244,629582428,0.47598064,0.37599075,-0.7165779,0.34436843,14.314163208007812,0.8153508901596069,-3.598104953765869,66.87998962402344,21.896461486816406, -9.325404167175293
245,629599095,0.48148698,0.37515804,-0.7115859,0.34795496,16.920238494873047,2.4888052940368652,-2.0534961223602295,11.992645263671875,54.0032958984375, -10.333698272705078
246,629615762,0.49196345,0.3704937,-0.70631903,0.3490274,18.39604377746582,1.867641568183899,-1.2693969011306763,-25.123043060302734,81.77488708496094, -12.313756942749023
247,629632429,0.50675744,0.36408713,-0.6984788,0.3503784,18.8787784576416,1.0036553144454956,2.447110176086426,-34.47941970825195,116.16490936279297, -19.659971237182617
248,629649096,0.53498936,0.35002333,-0.6851388,0.3490774,13.001508712768555,1.2163236141204834,0.9910737872123718,-94.32563781738281,211.3827362060547, -38.165958404541016
249,629665763,0.5509276,0.3376179,-0.68339413,0.3398022,5.12929105758667,-6.581235408782959,-5.061566352844238,-124.04972076416016,87.44292449951172, -17.837678909301758
250,629682430,0.559013,0.33447438,-0.67848015,0.33955282,3.1621155738830566,-3.6924824714660645,-3.5713391304016113,-20.935684204101562,62.04698181152344, -16.467771530151367
251,629699097,0.5673752,0.33098945,-0.6737303,0.33855456,1.4872180223464966,-2.682513475418091,0.547280490398407,-26.764921188354492,61.929046630859375, -18.17851448059082
252,629715764,0.58451205,0.3201095,-0.668291,0.33054948,-0.09796712547540665,3.9233999252319336,8.69589900970459,-106.44641876220703,106.52010345458984, -33.38691329956055
253,629732431,0.60180223,0.30667078,-0.6596492,0.32962105,3.663728713989258,-4.942160129547119,4.270721912384033,-77.28813934326172,141.12161254882812, -0.47091972827911377
254,629749098,0.6123785,0.29884404,-0.6462042,0.3436644,5.100599765777588,-6.6934638023376465,1.1693646907806396,38.86235046386719,149.22401428222656, 40.90325927734375
255,629765765,0.6177112,0.29414454,-0.63263124,0.36289078,6.4830193519592285,-2.5507586002349854,-2.5915517807006836,86.12561798095703,129.6931610107422, 60.723854064941406
256,629782432,0.6198062,0.29109222,-0.6238059,0.3767921,5.377285003662109,2.264453887939453,-6.0331010818481445,64.64391326904297,80.6910400390625, 48.570098876953125
257,629799099,0.618591,0.29138547,-0.62169015,0.38202226,5.1683573722839355,0.246179461479187,-12.444097518920898,30.955520629882812,12.154422760009766, 19.405439376831055
258,629815766,0.61412257,0.2936336,-0.6262097,0.38012403,2.8364057540893555,1.7587497234344482,-8.785460472106934,-2.06162166595459,-48.84320068359375, 2.61122989654541
259,629832433,0.6078774,0.2932101,-0.64012945,0.36707953,6.106617450714111,1.9092864990234375,-11.049986839294434,-82.29032897949219,-111.33448028564453, -9.244941711425781
260,629849100,0.59789646,0.29493123,-0.65723324,0.3515392,4.170053005218506,1.3175138235092163,-2.5636954307556152,-84.785888671875,-151.07577514648438, -13.156338691711426
261,629865767,0.58727753,0.29970595,-0.66956323,0.34200388,3.2185540199279785,0.7079408764839172,12.413385391235352,-32.22993469238281,-129.43624877929688, -10.332841873168945
262,629882434,0.5764513,0.29996398,-0.6830788,0.33335996,8.144394874572754,-1.034032940864563,-12.359694480895996,-48.76626968383789,-123.24124145507812, 17.02021598815918
263,629899101,0.5627311,0.30593503,-0.69399536,0.328798,13.989608764648438,5.343481540679932,-0.3590557277202606,5.035294055938721,-130.73683166503906, 7.636523723602295
264,629915768,0.5494652,0.30882847,-0.70498616,0.32512698,10.03648853302002,-4.4962992668151855,0.20573271811008453,-3.714154005050659,-120.09281158447266, 25.162900924682617
265,629932435,0.5320788,0.31702223,-0.7126191,0.32948926,18.293397903442383,-5.634702682495117,2.4536755084991455,71.49296569824219,-122.24534606933594, 31.76361083984375
266,629949102,0.5169287,0.3241908,-0.7194777,0.33171856,21.294057846069336,-2.3164594173431396,0.5434247851371765,54.12976837158203,-111.01799774169922, 22.096513748168945
267,629965769,0.5054219,0.32856926,-0.7264482,0.3299456,17.221168518066406,-1.697145700454712,-1.06431245803833,16.017759323120117,-96.16229248046875, 13.637709617614746
268,629982436,0.49772555,0.329651,-0.7333922,0.32517,16.414018630981445,-4.371304512023926,-1.6802778244018555,-18.990854263305664,-76.47477722167969, 10.993515968322754
269,629999103,0.49328592,0.33164355,-0.736249,0.3234487,13.67733097076416,-3.59796404838562,-5.392241954803467,1.2518346309661865,-41.292301177978516, 0.2334035485982895
270,630015770,0.4932231,0.33275685,-0.7355069,0.32408923,12.544157981872559,-2.41719651222229,-7.640879154205322,8.242329597473145,0.4585123062133789, -5.299243927001953
271,630032437,0.49420285,0.33639625,-0.7303026,0.33054414,13.184417724609375,-1.8350675106048584,-6.446350574493408,53.78534698486328,28.678936004638672, -10.90047836303711
272,630049104,0.49716094,0.3416274,-0.72205114,0.33876836,16.219789505004883,1.0940687656402588,-3.40256929397583,70.4453353881836,49.533302307128906, -24.41092300415039
273,630065771,0.5072328,0.3414072,-0.71319264,0.3428011,20.50548553466797,3.2369253635406494,-0.011278867721557617,15.728556632995605,89.72749328613281, -29.53582763671875
274,630082438,0.5245717,0.3330225,-0.7049151,0.3420751,19.116981506347656,3.889295816421509,1.4208990335464478,-54.49964904785156,131.2014923095703, -21.640066146850586
275,630099105,0.5459216,0.31964728,-0.69682276,0.33798438,13.866601943969727,2.111504316329956,2.7861487865448,-98.43577575683594,153.77279663085938, -18.38582420349121
276,630115772,0.57159126,0.30615935,-0.6819805,0.3383086,9.585148811340332,-1.711720585823059,5.506255626678467,-71.55726623535156,209.5644073486328, -26.045251846313477
277,630132439,0.5914986,0.2888118,-0.6779267,0.327311,1.653980016708374,-5.677734375,-5.352198123931885,-152.85006713867188,125.0009765625, -16.409330368041992
278,630149106,0.60123694,0.2849565,-0.67288923,0.3233173,5.833649635314941,-4.712936878204346,-6.746735572814941,-42.90398406982422,65.33415222167969, -30.12249755859375
279,630165773,0.6059479,0.2876561,-0.66688913,0.3245612,3.8756747245788574,-5.700248718261719,-3.6513049602508545,20.42603302001953,41.99918746948242, -29.663949966430664
280,630182440,0.6134402,0.28789926,-0.66092306,0.32246864,3.464015245437622,2.363243818283081,1.7321404218673706,-10.672250747680664,53.63719940185547, -38.63764953613281
281,630199107,0.6253424,0.27918997,-0.655792,0.31770542,0.8887755274772644,-0.7367603778839111,5.145366191864014,-71.15097045898438,84.6514892578125, -17.26210594177246
282,630215774,0.63421994,0.27273414,-0.646434,0.32481423,0.7230267524719238,-2.3353874683380127,2.3948307037353516,7.093267917633057,106.87055969238281, 22.073780059814453
283,630232441,0.6397049,0.26838502,-0.63776714,0.33466434,1.1270873546600342,-2.1621296405792236,-2.170178174972534,33.267738342285156,89.13924407958984, 33.454524993896484
284,630249108,0.64077866,0.26895577,-0.6323207,0.34239733,2.753903865814209,0.5579313039779663,-8.676427841186523,46.347206115722656,40.501583099365234, 18.59605598449707
285,630265775,0.6372086,0.2748995,-0.6312812,0.34623662,1.949159026145935,3.5456924438476562,-10.292501449584961,51.32811737060547,-18.616300582885742, -2.7934017181396484
286,630282442,0.63019407,0.27998245,-0.63797134,0.34272143,2.90397572517395,2.2374188899993896,-9.57349681854248,3.776477813720703,-78.89689636230469, -8.328217506408691
287,630299109,0.61695254,0.2851228,-0.6499427,0.3400721,6.823941230773926,-7.101016044616699,-1.0561931133270264,7.3968634605407715,-127.21327209472656, 20.102418899536133
288,630315776,0.6019462,0.29212826,-0.6612355,0.3392486,6.1286211013793945,-4.05020809173584,2.0785915851593018,28.53685760498047,-132.95948791503906, 22.076021194458008
289,630332443,0.5826323,0.30692756,-0.6682752,0.3460395,11.461191177368164,-2.9931764602661133,-7.172403335571289,113.97504425048828,-137.91297912597656, 19.534557342529297
290,630349110,0.56590116,0.31792355,-0.67514896,0.35050622,6.293007850646973,-4.0592498779296875,-4.275058269500732,83.01439666748047,-121.00397491455078, 21.133771896362305
291,630365777,0.5483425,0.3286439,-0.6801932,0.35867947,12.102445602416992,-1.604475498199463,-0.15270981192588806,105.36674499511719,-108.83873748779297, 34.704715728759766
292,630382444,0.5297054,0.342088,-0.6837424,0.36726648,17.258686065673828,-0.013013303279876709,5.4861602783203125,123.6826400756836,-114.0938491821289, 22.792463302612305
293,630399111,0.5123703,0.35705855,-0.68477666,0.37558874,18.607473373413086,-1.3356595039367676,-1.3769334554672241,131.25445556640625,-103.5894546508789, 5.523789405822754
294,630415778,0.5014934,0.36796397,-0.6840091,0.3811018,17.8682804107666,3.0597164630889893,-2.6767749786376953,92.49333190917969,-63.305328369140625, -6.286377906799316
295,630432445,0.49734277,0.37241292,-0.6834856,0.38315317,22.24005889892578,2.322068214416504,-0.5305507779121399,36.330474853515625,-24.393497467041016, -4.669419288635254
296,630449112,0.49787012,0.3733456,-0.6822589,0.38374633,17.7435302734375,1.538895845413208,-3.1849353313446045,7.3505730628967285,5.3746161460876465, -7.065202713012695
297,630465779,0.5027313,0.3704597,-0.679796,0.38457534,15.801108360290527,1.9162182807922363,-5.461310386657715,-12.449234962463379,40.58797073364258, -2.8145973682403564
298,630482446,0.51137406,0.3662019,-0.6745898,0.38642132,16.798416137695312,-0.1787365972995758,-3.661325693130493,-14.78149127960205,74.02863311767578, -9.73299789428711
299,630499113,0.5240963,0.36003196,-0.6670259,0.38829988,17.802722930908203,-1.204977035522461,-0.8398789167404175,-25.355823516845703,106.41192626953125, -17.450366973876953
300,630515780,0.5415474,0.34925807,-0.6592984,0.3873899,17.279956817626953,-0.40321364998817444,1.4335510730743408,-66.03112030029297,134.00254821777344, -19.377840042114258
301,630532447,0.5622468,0.33421633,-0.6523991,0.38282305,14.685538291931152,0.8896840214729309,2.9485762119293213,-108.54374694824219,148.09222412109375, -20.26297950744629
302,630549114,0.5859507,0.3161759,-0.6439682,0.3768283,11.649889945983887,-0.04537389427423477,4.833179473876953,-129.4646453857422,171.94131469726562, -23.698375701904297
303,630565781,0.6148468,0.29141384,-0.6346009,0.3665016,5.7235636711120605,-0.8473025560379028,2.839251756668091,-184.66815185546875,206.51535034179688, -26.88469123840332
304,630582448,0.633249,0.27492443,-0.6304062,0.35496587,5.184770584106445,-3.0718941688537598,-7.693369388580322,-146.98780822753906,115.43223571777344, -31.342313766479492
305,630599115,0.642403,0.2684993,-0.6271677,0.34912357,4.47819709777832,-3.2050397396087646,-9.865046501159668,-63.29924392700195,57.62961196899414, -25.896015167236328
306,630615782,0.64566207,0.26434872,-0.6306005,0.33997586,6.081250190734863,1.6559460163116455,-16.516870498657227,-72.60763549804688,-8.480183601379395, -23.930944442749023
307,630632449,0.6440513,0.2601312,-0.6419418,0.324716,5.553473472595215,-0.770433783531189,-13.233728408813477,-108.98609161376953,-75.11288452148438, -24.927654266357422
308,630649116,0.63495415,0.26156533,-0.6557026,0.31380123,4.097011566162109,-2.545789957046509,-10.273746490478516,-56.7385368347168,-123.28948211669922, -9.577224731445312
309,630665783,0.6193611,0.27211553,-0.6671364,0.31188822,2.049208164215088,-1.1615082025527954,-4.863415718078613,40.40189743041992,-145.5672149658203, -1.6168676614761353
310,630682450,0.6016919,0.2864155,-0.6770177,0.31237823,0.587399423122406,-0.8787635564804077,-0.6973081231117249,74.63561248779297,-151.87428283691406, -7.096996784210205
311,630699117,0.5839631,0.30277127,-0.6846039,0.31406063,0.8581236600875854,2.323385238647461,1.5514932870864868,93.74441528320312,-144.70611572265625, -16.194366455078125
312,630715784,0.57064277,0.31452155,-0.69268465,0.30924246,0.6036186814308167,6.633060455322266,3.236370086669922,34.423439025878906,-129.58319091796875, -29.065013885498047
313,630732451,0.5622619,0.3206897,-0.7013481,0.29854748,0.7477952837944031,2.670820474624634,5.416537284851074,-27.33998680114746,-109.30693054199219, -34.587554931640625
314,630749118,0.55593604,0.3225467,-0.70999414,0.28776237,2.3494253158569336,-5.203640937805176,6.881012916564941,-48.9188346862793,-90.87416076660156, -18.328275680541992
315,630765785,0.54617804,0.32912865,-0.71272063,0.29222125,3.9722049236297607,-4.296281814575195,-3.244846820831299,62.828853607177734,-60.77584457397461, 10.363239288330078
316,630782452,0.5361353,0.33374304,-0.7181904,0.29219383,19.58205795288086,-1.8750544786453247,-6.818675994873047,28.558725357055664,-78.59854125976562, 9.799758911132812
317,630799119,0.5275787,0.33478275,-0.72651213,0.2859396,12.255426406860352,-2.2785909175872803,5.00391960144043,-24.498708724975586,-88.83065032958984, 8.029292106628418
318,630815786,0.5178208,0.33741146,-0.7335297,0.28275353,18.962406158447266,-2.6381309032440186,2.791297674179077,1.8880971670150757,-86.42437744140625, 10.525160789489746
319,630832453,0.5034924,0.34541494,-0.73786116,0.28765446,17.193960189819336,2.161503791809082,-1.141139268875122,77.60171508789062,-91.86097717285156, 14.811387062072754
320,630849120,0.4896611,0.3576791,-0.7370983,0.2983019,17.39455795288086,3.994175434112549,-3.0488080978393555,130.43914794921875,-66.6173324584961, 0.09579233080148697
321,630865787,0.4792469,0.36449957,-0.7374161,0.30607224,17.532255172729492,1.3120969533920288,-1.627238392829895,86.97308349609375,-48.93031692504883, 13.794461250305176
322,630882454,0.47423092,0.36656958,-0.7381427,0.30964062,16.446731567382812,-3.2857825756073,-3.220470905303955,35.648521423339844,-23.577014923095703, 13.777597427368164
323,630899121,0.4745401,0.36613712,-0.73714525,0.31204543,15.065062522888184,-3.574718475341797,-4.64652156829834,11.798930168151855,11.383363723754883, 6.956409931182861
324,630915788,0.48042217,0.36383098,-0.73372287,0.3138032,15.557148933410645,-3.6089606285095215,-5.331213474273682,-6.455982208251953,49.90285110473633, -3.7716829776763916
325,630932455,0.48986575,0.36194444,-0.72673184,0.31763014,16.170055389404297,-2.4337892532348633,-3.873271942138672,4.125280857086182,83.92079162597656, -15.715600967407227
326,630949122,0.5000925,0.35963002,-0.71978575,0.3201287,17.61237144470215,-1.4466272592544556,-1.2197152376174927,-6.024129390716553,85.264892578125, -19.66819190979004
327,630965789,0.5134145,0.3539756,-0.71301645,0.32049108,20.07811737060547,1.9218957424163818,1.0514510869979858,-36.145084381103516,101.91974639892578, -16.85326385498047
328,630982456,0.5353942,0.34023172,-0.7051537,0.31678674,16.731828689575195,2.3520238399505615,1.9496990442276,-103.3038101196289,155.95765686035156, -13.199592590332031
329,630999123,0.5627807,0.31398293,-0.7017314,0.3037532,8.907574653625488,-1.9376580715179443,3.5113086700439453,-216.93824768066406,171.0651092529297, 11.765913009643555
330,631015790,0.5841676,0.29341835,-0.6995111,0.28868344,2.6046948432922363,-3.2475709915161133,-8.35047435760498,-194.35101318359375,121.00804138183594, -8.521397590637207
331,631032457,0.59624463,0.28852117,-0.69246465,0.2859035,7.1213765144348145,-3.18778133392334,-9.127385139465332,-43.93889617919922,89.52974700927734, -25.88006591796875
332,631049124,0.60391575,0.28735438,-0.6866096,0.28509715,4.835538387298584,-4.839469909667969,-5.30376672744751,-12.856313705444336,60.497398376464844, -24.60531234741211
333,631065791,0.6100752,0.2863858,-0.6832271,0.28105578,5.635403633117676,1.322295904159546,-4.693588733673096,-29.183998107910156,36.4622917175293, -31.257930755615234
334,631082458,0.6136377,0.28326842,-0.6829129,0.27719647,2.064847707748413,-2.53543758392334,-0.7450814247131348,-38.139583587646484,16.026330947875977, -9.296072006225586
335,631099125,0.6123556,0.28525808,-0.6806003,0.2836052,-1.2520860433578491,-2.2722628116607666,1.9311001300811768,44.84473419189453,11.996199607849121, 15.315659523010254
336,631115792,0.61052793,0.2876643,-0.6776241,0.2921136,-0.9145132899284363,-1.4865198135375977,1.2141776084899902,58.76779556274414,15.495189666748047, 21.905054092407227
337,631132459,0.60887223,0.29056576,-0.6738955,0.301183,0.0844099372625351,-0.2400340437889099,0.7066603302955627,64.61698913574219,19.541582107543945, 20.080392837524414
338,631149126,0.6072214,0.29348385,-0.6705775,0.30899078,1.390360951423645,1.8023147583007812,-0.9746518731117249,57.97481155395508,15.273144721984863, 15.531052589416504
339,631165793,0.60643035,0.29456407,-0.66938996,0.31207597,1.2991232872009277,3.760089159011841,-2.917360544204712,22.283803939819336,4.744819641113281, 6.819106578826904
340,631182460,0.60319674,0.29305744,-0.6737686,0.31033388,3.9401214122772217,-0.004353012889623642,-15.504688262939453,-17.682344436645508,-33.85031509399414, 15.221942901611328
341,631199127,0.5880379,0.30384427,-0.67942303,0.31666148,8.454148292541504,-0.6853088736534119,-15.234794616699219,92.04132080078125,-103.92998504638672, 19.77092170715332
342,631215794,0.57203,0.31649438,-0.6841963,0.3232469,6.993372440338135,-3.780930757522583,4.692995548248291,104.5194320678711,-107.4492416381836, 12.102214813232422
343,631232461,0.55214775,0.33389676,-0.6871567,0.33385864,10.943585395812988,-2.3056514263153076,0.4042491912841797,154.57858276367188,-120.51050567626953, 10.135405540466309
344,631249128,0.5303511,0.3483969,-0.6929711,0.34225503,13.943794250488281,-4.8013386726379395,2.3100202083587646,130.91397094726562,-138.87974548339844, 26.329898834228516
345,631265795,0.5079355,0.3616814,-0.6973477,0.35340387,20.882905960083008,-2.2739439010620117,3.0273594856262207,144.40353393554688,-127.27287292480469, 40.07046127319336
346,631282462,0.48868573,0.37543482,-0.69864035,0.36350608,22.104244232177734,-2.08219575881958,2.495924472808838,140.59515380859375,-105.27493286132812, 18.807043075561523
347,631299129,0.4778784,0.3843114,-0.69924605,0.3674129,20.1748104095459,0.19776275753974915,-3.306731700897217,74.32048797607422,-66.42781829833984, -1.4256142377853394
348,631315796,0.4749925,0.39046606,-0.6970011,0.36892816,19.221975326538086,0.14758342504501343,-6.188755512237549,40.177764892578125,-18.482463836669922, -23.65413475036621
349,631332463,0.4805565,0.39095,-0.69321156,0.36834964,17.694303512573242,1.9287739992141724,-4.7351298332214355,-7.097256660461426,35.83279037475586, -28.81827163696289
350,631349130,0.49176887,0.38636988,-0.68841547,0.36737713,17.96085548400879,4.070245265960693,-4.0778703689575195,-38.285438537597656,77.83553314208984, -22.88608169555664
351,631365797,0.50705665,0.3779721,-0.68317056,0.3651149,18.978742599487305,3.242253303527832,-0.24965974688529968,-66.9248275756836,104.8343505859375, -20.504573822021484
352,631382464,0.5246482,0.36602074,-0.6776543,0.3627089,18.136884689331055,1.6743338108062744,3.4058520793914795,-85.26817321777344,125.02788543701172, -10.672333717346191
353,631399131,0.54415166,0.3522427,-0.6712616,0.3594884,13.594317436218262,0.47900390625,3.7863998413085938,-98.29596710205078,139.40760803222656, -11.999222755432129
354,631415798,0.56266654,0.34608802,-0.6567847,0.3636805,10.14865779876709,-0.46373450756073,3.0019330978393555,-13.210575103759766,164.0399627685547, -36.55747985839844
355,631432465,0.5794216,0.33688498,-0.64793086,0.3618907,4.5580902099609375,-2.869540214538574,-3.5606131553649902,-61.91131591796875,127.61148834228516, -28.15602684020996
356,631449132,0.58688384,0.33302018,-0.64367294,0.3610404,4.221699237823486,-3.8814923763275146,-6.912360191345215,-26.392053604125977,56.88019561767578, -14.503399848937988
357,631465799,0.5907362,0.33140177,-0.6419713,0.3592724,2.93786358833313,-1.9643160104751587,-7.349430084228516,-19.47224235534668,23.096317291259766, -13.430645942687988
358,631482466,0.59493566,0.32877505,-0.64256954,0.35364237,3.7174274921417236,2.6637728214263916,-4.181548595428467,-47.07052230834961,9.171476364135742, -20.329669952392578
359,631499133,0.5996734,0.32315838,-0.6456245,0.34515154,2.239384412765503,0.9750726222991943,-2.4290685653686523,-79.08998107910156,2.401533365249634, -14.505173683166504
360,631515800,0.59907454,0.32193905,-0.6464431,0.34579828,1.0200515985488892,-2.185514450073242,-2.105928897857666,-3.2233726978302,-2.140928268432617, 11.369272232055664
361,631532467,0.59582067,0.32230955,-0.6472381,0.34956723,0.8618362545967102,-1.1242926120758057,-2.675809621810913,23.130340576171875,-10.65449047088623, 23.365236282348633
362,631549134,0.5914213,0.32479253,-0.64792657,0.35344297,0.2845182716846466,-0.26566174626350403,-2.976090908050537,35.05374526977539,-20.08397674560547, 16.89113426208496
363,631565801,0.58675504,0.3276722,-0.6501092,0.35455295,-0.39865511655807495,0.1870260238647461,-2.587005376815796,21.32395362854004,-34.409889221191406, 7.855162620544434
364,631582468,0.5810419,0.33170408,-0.65405947,0.35294336,1.3768259286880493,1.8453394174575806,-5.093329906463623,11.88162612915039,-55.08954620361328, -1.7299776077270508
365,631599135,0.5768545,0.33040917,-0.6629812,0.34427404,1.1119089126586914,1.1175583600997925,-1.9251420497894287,-56.64537048339844,-71.14323425292969, 1.7066686153411865
366,631615802,0.56482095,0.33391166,-0.6724506,0.34247723,9.243033409118652,-2.842139959335327,-13.285337448120117,10.266783714294434,-104.78736877441406, 26.938528060913086
367,631632469,0.5503847,0.3411812,-0.68162125,0.3406827,10.779562950134277,-1.0523638725280762,1.1211276054382324,31.17047691345215,-123.3001708984375, 14.44627571105957
368,631649136,0.5325751,0.35093546,-0.6906072,0.34098372,10.030572891235352,-4.965598106384277,1.2241809368133545,58.74127197265625,-139.38775634765625, 18.17828369140625
369,631665803,0.51075315,0.3648615,-0.69841087,0.34384543,17.437545776367188,-3.8992486000061035,5.785325527191162,98.57780456542969,-157.79147338867188, 14.183409690856934
370,631682470,0.49049288,0.3771367,-0.70385057,0.34896842,19.370769500732422,-0.6115919351577759,-3.0495526790618896,105.24433898925781,-132.64259338378906, 20.364137649536133
371,631699137,0.47583863,0.38589346,-0.7084909,0.35029215,18.19005012512207,2.2453930377960205,-1.5967857837677002,62.378963470458984,-104.27023315429688, 9.084755897521973
372,631715804,0.469161,0.388607,-0.7120001,0.3491828,18.40610122680664,0.4223214089870453,-3.286790132522583,12.362750053405762,-53.70652389526367, 8.445950508117676
373,631732471,0.47022104,0.38733092,-0.71257,0.3480104,16.988515853881836,1.4187901020050049,-4.739573001861572,-14.4026460647583,2.995234251022339, 1.402187466621399
374,631749138,0.47867167,0.38189504,-0.7107215,0.3462727,15.951128959655762,1.4428030252456665,-5.145949840545654,-44.4698486328125,55.44105529785156, -4.089960098266602
375,631765805,0.49140346,0.37359238,-0.7072524,0.34459502,16.06792640686035,1.3216725587844849,-4.883538246154785,-60.950626373291016,88.66646575927734, -4.254365921020508
376,631782472,0.5060569,0.36387682,-0.70317143,0.3421261,16.79874038696289,-0.24815405905246735,-3.1984777450561523,-73.02577209472656,101.38066864013672, -6.1059441566467285
377,631799139,0.5185188,0.35674804,-0.69742996,0.34272563,16.96232795715332,-0.5560921430587769,-1.1347744464874268,-39.80006408691406,98.10966491699219, -6.895891189575195
378,631815806,0.532439,0.34890637,-0.6910787,0.34232062,17.249496459960938,0.37543582916259766,1.7843126058578491,-49.31412124633789,106.4157943725586, -11.96226692199707
379,631832473,0.55214506,0.3385232,-0.6809044,0.34191725,14.261494636535645,-0.8266748189926147,3.4548263549804688,-63.5136833190918,153.76028442382812, -22.62619972229004
380,631849140,0.5768133,0.32230392,-0.66979134,0.33880112,5.764136791229248,-4.219496726989746,2.809098243713379,-107.77597045898438,187.8256072998047, -19.45294952392578
381,631865807,0.592046,0.31172287,-0.66336316,0.33505186,6.586654186248779,-2.8984880447387695,-7.4646430015563965,-78.39920806884766,111.14997863769531, -15.672368049621582
382,631882474,0.6001545,0.3076896,-0.658266,0.3344065,6.108697891235352,-1.186397671699524,-9.46723747253418,-25.3963623046875,64.96514129638672, -13.695455551147461
383,631899141,0.6046556,0.30450192,-0.65684986,0.33199197,4.554952144622803,-0.5575767159461975,-8.330739974975586,-30.72397804260254,27.97425079345703, -8.753889083862305
384,631915808,0.6064664,0.302291,-0.6582129,0.32798567,4.268486976623535,0.5553409457206726,-5.539886951446533,-34.54179382324219,-1.105026364326477, -7.825097560882568
385,631932475,0.60462654,0.30327168,-0.6594957,0.3279005,1.5868711471557617,-0.8933010101318359,-1.6779223680496216,4.304481029510498,-16.218795776367188, 2.1676242351531982
386,631949142,0.60100895,0.30573058,-0.6606376,0.32996252,-0.1341455578804016,-0.15342597663402557,-0.6904588341712952,24.21031951904297,-22.51032829284668, 8.080924034118652
387,631965809,0.59684783,0.30890673,-0.66190106,0.332019,0.3784659504890442,0.11492444574832916,-1.2686669826507568,28.018518447875977,-27.103059768676758, 6.279300689697266
388,631982476,0.59275675,0.3116836,-0.6640637,0.33243394,0.25441455841064453,1.1381797790527344,-1.0895087718963623,16.721351623535156,-33.02067947387695, 3.107661724090576
389,631999143,0.5890266,0.31274477,-0.66826665,0.32963336,0.17492783069610596,0.9820197820663452,-1.307006597518921,-10.370997428894043,-42.635528564453125, 1.4047316312789917
390,632015810,0.58483195,0.31346717,-0.6739989,0.32470837,1.853864312171936,2.073688507080078,-0.6579341888427734,-23.947608947753906,-54.73963165283203, -1.2845442295074463
391,632032477,0.5796005,0.31181097,-0.68219966,0.31849778,1.905026912689209,-2.9460058212280273,-4.337095260620117,-42.713958740234375,-66.93038940429688, 12.247430801391602
392,632049144,0.56599826,0.32207686,-0.68645716,0.32355708,9.481136322021484,0.07886147499084473,-15.702638626098633,84.23588562011719,-92.33549499511719, 11.041497230529785
393,632065811,0.5540856,0.32998616,-0.6920035,0.3243909,12.410548210144043,-0.3423508405685425,3.7236993312835693,48.5819206237793,-93.17032623291016, 4.820427894592285
394,632082478,0.54288554,0.3355435,-0.698401,0.323917,12.510708808898926,-2.6821110248565674,4.786970615386963,29.881759643554688,-90.87201690673828, 11.361532211303711
395,632099145,0.5291238,0.34181195,-0.7049942,0.32584646,17.372751235961914,-6.739077091217041,4.454185485839844,49.51057434082031,-100.09979248046875, 23.019269943237305
396,632115812,0.51521206,0.34742224,-0.7104809,0.3302597,20.953903198242188,-1.1497892141342163,-0.4576284885406494,61.88186264038086,-89.66010284423828, 32.85760498046875
397,632132479,0.5061076,0.35447603,-0.71174246,0.3341028,20.733510971069336,1.043009877204895,0.13104520738124847,62.316551208496094,-55.94685363769531, 2.790041208267212
398,632149146,0.5025794,0.35604867,-0.71361095,0.3337709,19.613128662109375,-0.4235045611858368,-0.9313158988952637,7.856648921966553,-28.47599220275879, 3.8169121742248535
399,632165813,0.5047244,0.3540197,-0.7143173,0.33117092,17.8726863861084,-0.11022788286209106,-4.608457088470459,-26.93055534362793,5.990140438079834, -2.1804146766662598
400,632182480,0.51105505,0.35250232,-0.71036404,0.33158392,17.331937789916992,0.15022076666355133,-4.477127552032471,-9.90953254699707,48.873355865478516, -15.071514129638672
401,632199147,0.52133465,0.34987438,-0.70276713,0.33453944,16.877540588378906,-0.3651529550552368,-3.035708427429199,-2.632781505584717,89.65188598632812, -18.503068923950195
402,632215814,0.531038,0.3460951,-0.6962499,0.33682778,16.603164672851562,-2.644087076187134,-0.15993039309978485,-11.075714111328125,84.01405334472656, -11.37562084197998
403,632232481,0.5418394,0.33930096,-0.69127125,0.3367924,16.631221771240234,-0.9724220037460327,2.2655694484710693,-39.4246711730957,85.03287506103516, -4.330626964569092
404,632249148,0.5565172,0.33000332,-0.684784,0.33534667,14.239384651184082,0.9355401992797852,2.5240366458892822,-61.03623580932617,111.46672058105469, -10.174177169799805
405,632265815,0.5751385,0.3226189,-0.671335,0.33829355,8.16708755493164,-0.9879541397094727,1.515588641166687,-25.934120178222656,162.1297607421875, -27.222795486450195
406,632282482,0.5904298,0.31105214,-0.6647318,0.3358138,4.818795680999756,-3.8916139602661133,-6.020598888397217,-76.08797454833984,117.31743621826172, -6.457868576049805
407,632299149,0.5994168,0.3054074,-0.6596819,0.33503088,5.715007305145264,-0.15744741261005402,-7.158156871795654,-34.42924880981445,72.26932525634766, -8.835482597351074
408,632315816,0.60443795,0.30284905,-0.6571005,0.33340108,4.1057939529418945,-1.5197187662124634,-7.1517744064331055,-22.882450103759766,35.361328125, -11.99559497833252
409,632332483,0.60781735,0.300986,-0.657996,0.32711896,5.429494857788086,4.8868865966796875,-7.606478691101074,-45.56083297729492,2.359201192855835, -23.49262237548828
410,632349150,0.6078877,0.30022308,-0.66158724,0.32037663,2.75895094871521,1.6054538488388062,-5.380576133728027,-42.16923904418945,-27.160497665405273, -17.253448486328125
411,632365817,0.6031366,0.3046863,-0.6641442,0.31985176,1.2446362972259521,-0.14684060215950012,-3.3004608154296875,20.22760772705078,-43.34267807006836, -6.517524719238281
412,632382484,0.59595984,0.31343764,-0.6649686,0.32311875,-0.9096034169197083,0.1324911266565323,0.20611025393009186,64.22881317138672,-48.6486701965332, -8.67992115020752
413,632399151,0.5894376,0.32046235,-0.66709113,0.3238164,-0.6165144443511963,-1.0256649255752563,0.7659926414489746,41.118961334228516,-52.67222213745117, -9.9806489944458
414,632415818,0.5825629,0.32688522,-0.6704451,0.32290873,1.2146719694137573,-0.027356309816241264,-2.4833984375,29.34272575378418,-61.48664855957031, -10.262898445129395
415,632432485,0.57545507,0.33423558,-0.6729414,0.3229364,0.9974926114082336,0.9410154223442078,1.6912280321121216,39.81227493286133,-59.03157043457031, -12.212128639221191
416,632449152,0.5682658,0.33829063,-0.677531,0.32184663,0.31574809551239014,-2.958357572555542,-2.5585227012634277,17.158967971801758,-62.975887298583984, 3.611861228942871
417,632465819,0.55272573,0.34898192,-0.682207,0.32756618,9.477770805358887,-3.438558578491211,-17.51599884033203,94.01573944091797,-101.01165771484375, 17.909908294677734
418,632482486,0.5362504,0.3605833,-0.6874751,0.3313508,11.061283111572266,-6.65650749206543,3.0229315757751465,89.33702850341797,-114.0217056274414, 9.739229202270508
419,632499153,0.51559085,0.37526348,-0.6911563,0.34006858,12.245417594909668,-8.11231517791748,3.3540639877319336,137.89524841308594,-122.83501434326172, 18.830997467041016
420,632515820,0.4946539,0.38835114,-0.6955366,0.34746182,20.64545440673828,-4.262474060058594,2.861905574798584,124.88792419433594,-126.44184112548828, 24.001495361328125
421,632532487,0.4771507,0.39974913,-0.6973892,0.35521287,18.47895622253418,5.085344314575195,-2.3348312377929688,117.63203430175781,-96.58567810058594, 18.294214248657227
422,632549154,0.46637604,0.40767315,-0.6983868,0.35854155,19.983470916748047,1.7392960786819458,-1.3575549125671387,68.72209167480469,-65.24967193603516, 1.7794792652130127
423,632565821,0.4620217,0.41334057,-0.6952472,0.36375415,20.815858840942383,2.412742853164673,-4.569960117340088,62.774478912353516,-10.404940605163574, -8.698007583618164
424,632582488,0.4639847,0.41617107,-0.6903671,0.36730516,19.010873794555664,2.183608055114746,-5.099492073059082,32.2919807434082,27.650720596313477, -21.07616424560547
425,632599155,0.4721801,0.4148008,-0.68386483,0.3705608,19.574621200561523,1.376152515411377,-3.478985071182251,3.8208706378936768,72.15165710449219, -22.37984275817871
426,632615822,0.48662433,0.40785778,-0.6770196,0.372147,20.47748374938965,1.8775687217712402,-0.315244197845459,-39.02939987182617,112.03741455078125, -18.42767333984375
427,632632489,0.5049826,0.39701772,-0.6697617,0.3725439,18.962669372558594,1.9771006107330322,1.030843734741211,-67.5177001953125,138.1720428466797, -15.360241889953613
428,632649156,0.52519053,0.3863774,-0.6596122,0.37389725,14.079279899597168,0.58934086561203,1.7817094326019287,-60.05303955078125,158.72158813476562, -25.518781661987305
429,632665823,0.5446998,0.3823289,-0.6411713,0.38213384,8.291728019714355,-1.5824105739593506,0.92166668176651,18.121383666992188,186.75697326660156, -50.751625061035156
430,632682490,0.56144977,0.3709662,-0.6335246,0.38184443,6.3264665603637695,-5.6013898849487305,-0.7726001739501953,-68.0068359375,130.9223175048828, -14.824061393737793
431,632699157,0.5735135,0.36027315,-0.6309683,0.37837103,3.8099305629730225,-3.755162477493286,-4.262923717498779,-80.80372619628906,80.97883605957031, -4.856417655944824
432,632715824,0.581876,0.35164502,-0.6307207,0.37410918,3.2257304191589355,-2.5794758796691895,-7.2171101570129395,-72.94354248046875,48.56504821777344, -1.6507190465927124
433,632732491,0.58994675,0.34306595,-0.6321161,0.3670121,3.7964887619018555,2.6764731407165527,-4.112244606018066,-88.5647201538086,33.877132415771484, -8.530414581298828
434,632749158,0.5989963,0.33207548,-0.6350413,0.35728422,2.0538828372955322,0.9558317065238953,-1.385738492012024,-115.89895629882812,31.868074417114258, -7.524256706237793
435,632765825,0.6022843,0.32692537,-0.6343132,0.3577992,1.9023903608322144,-0.7550408840179443,-1.5958421230316162,-24.97342300415039,30.8134708404541, 14.991125106811523
436,632782492,0.6003206,0.32751295,-0.6305461,0.36709955,1.4504139423370361,-2.04075288772583,-1.4588769674301147,56.37644958496094,26.157747268676758, 32.42393493652344
437,632799159,0.595957,0.33169162,-0.62559295,0.37874737,-0.3696717619895935,-0.826519787311554,-0.7131059765815735,89.75902557373047,16.9058837890625, 29.89337921142578
438,632815826,0.5914757,0.33566695,-0.6233644,0.38587683,-0.010890169069170952,1.2017772197723389,-3.869659900665283,62.63920211791992,-4.517892837524414, 18.754026412963867
439,632832493,0.587958,0.33842623,-0.62538165,0.38557908,1.2449796199798584,4.810786724090576,-4.220449447631836,12.41622257232666,-31.498292922973633, 1.030806541442871
440,632849160,0.58430815,0.3383675,-0.63348264,0.37787738,2.8307530879974365,2.4588139057159424,-5.725217342376709,-46.54051971435547,-66.34981536865234, -2.1771044731140137
441,632865827,0.57653487,0.33770376,-0.6458035,0.36946157,4.475503921508789,-2.3167688846588135,-6.375685214996338,-53.37168884277344,-101.2647476196289, 18.17201042175293
442,632882494,0.5640669,0.34176502,-0.65805155,0.36330912,9.93858528137207,-0.5237771272659302,-5.587493896484375,-13.483716011047363,-128.46702575683594, 17.874181747436523
443,632899161,0.5473514,0.35252073,-0.66690165,0.36246064,12.396880149841309,3.5197536945343018,-1.2669804096221924,54.99470138549805,-138.6868896484375, 10.769996643066406
444,632915828,0.5338227,0.35631403,-0.67962486,0.35522357,11.954516410827637,2.1603875160217285,2.9914815425872803,-17.793550491333008,-136.7962188720703, 20.158937454223633
445,632932495,0.518669,0.36243758,-0.68993074,0.35159212,17.369606018066406,-2.7837748527526855,4.259145259857178,17.541711807250977,-132.4707489013672, 20.579933166503906
446,632949162,0.5009886,0.3699622,-0.6990913,0.35129735,18.43797492980957,-9.816580772399902,0.35326769948005676,47.39234924316406,-135.580810546875, 29.039716720581055
447,632965829,0.48589408,0.376524,-0.70432055,0.35506278,16.46706199645996,-3.5784554481506348,-5.117443084716797,66.34770965576172,-97.01964569091797, 31.261642456054688
448,632982496,0.47978103,0.37827963,-0.707946,0.3542984,18.83494758605957,-1.4181710481643677,-3.659024238586426,8.998956680297852,-48.14649963378906, 13.291632652282715
449,632999163,0.48055875,0.37766692,-0.70823646,0.35331613,22.09131622314453,1.719090223312378,-2.962979555130005,-9.66023063659668,1.5614210367202759, -1.345461130142212
450,633015830,0.48708266,0.37734807,-0.70442075,0.3523502,20.20231056213379,3.2079050540924072,-3.7865264415740967,-13.494627952575684,42.3674430847168, -27.269283294677734
451,633032497,0.49970943,0.373548,-0.6979379,0.351618,20.139780044555664,2.676114797592163,-3.2912018299102783,-33.30897903442383,89.85395050048828, -31.235055923461914
452,633049164,0.515016,0.36734954,-0.6899638,0.35179943,17.988815307617188,2.1292431354522705,-1.8895864486694336,-40.38018035888672,115.93828582763672, -26.803606033325195
453,633065831,0.5309458,0.35896918,-0.6824307,0.3514633,16.704294204711914,1.593922734260559,0.9100822806358337,-53.165748596191406,121.2529067993164, -18.599525451660156
454,633082498,0.55012053,0.346823,-0.67366093,0.35108715,14.637125015258789,-1.3635469675064087,2.358717679977417,-72.11644744873047,149.91458129882812, -11.903644561767578
455,633099165,0.5717057,0.33351594,-0.66284114,0.3500881,7.997124671936035,-3.720576286315918,2.4307925701141357,-80.25039672851562,170.06451416015625, -19.581764221191406
456,633115832,0.5967105,0.31429994,-0.6527749,0.3450176,3.2420332431793213,-9.021894454956055,0.10844522714614868,-131.80453491210938,187.5209197998047, -15.21198558807373
457,633132499,0.60974544,0.30537587,-0.6466656,0.3417305,7.541144847869873,-6.291118144989014,-9.16894245147705,-65.23336791992188,96.97246551513672, -17.308210372924805
458,633149166,0.6148828,0.3034902,-0.6435894,0.34000805,5.490932464599609,-3.074575662612915,-8.840725898742676,-19.37237548828125,36.04542922973633, -17.22067642211914
459,633165833,0.6164137,0.30169427,-0.64652103,0.33320487,5.633759498596191,0.2532556653022766,-10.760091781616211,-48.00613021850586,-15.97298526763916, -18.177276611328125
460,633182500,0.61356413,0.3029873,-0.6505358,0.32945576,2.020028829574585,0.1593964695930481,-3.506054162979126,-14.69386100769043,-40.59885787963867, -6.6649169921875
461,633199167,0.60669756,0.30825832,-0.65294003,0.33251247,1.0764868259429932,-0.7306952476501465,-1.7064971923828125,44.56223678588867,-46.54755401611328, 9.998714447021484
462,633215834,0.5988957,0.3152499,-0.6531524,0.3396077,-0.42028847336769104,1.507449746131897,0.8101677894592285,76.85958862304688,-36.94586944580078, 16.59321403503418
463,633232501,0.59546095,0.31601864,-0.65597653,0.3394898,-2.033479928970337,1.421552062034607,1.7044262886047363,3.304644823074341,-29.20635986328125, 10.320243835449219
464,633249168,0.59287727,0.31573147,-0.65941906,0.33760458,0.9203507900238037,0.895703136920929,-1.6181020736694336,-12.265801429748535,-29.304431915283203, 7.220829963684082
465,633265835,0.58973837,0.31615442,-0.6633503,0.33499458,1.0111521482467651,0.06582863628864288,-1.471789836883545,-12.563339233398438,-37.01449203491211, 3.409151792526245
466,633282502,0.585775,0.31754327,-0.6678465,0.33168504,1.569132685661316,2.17688250541687,-1.7616515159606934,-11.33530044555664,-46.790992736816406, -0.7095800042152405
467,633299169,0.5773357,0.31647688,-0.67759746,0.32770047,4.736657619476318,-4.4526262283325195,-12.236080169677734,-26.48431396484375,-84.3648452758789, 29.55764389038086
468,633315836,0.5620297,0.32675114,-0.6833143,0.332322,10.241204261779785,-1.43319833278656,-7.182714462280273,82.63916778564453,-106.97993469238281, 17.501068115234375
469,633332503,0.542825,0.34363645,-0.6869979,0.33954224,7.951659679412842,-1.8141837120056152,-0.7695939540863037,133.83493041992188,-126.61687469482422, 0.7871404886245728
470,633349170,0.5207016,0.36366922,-0.69068056,0.3457963,13.194208145141602,-3.7947676181793213,5.250743865966797,147.90318298339844,-150.03932189941406, -10.929283142089844
471,633365837,0.50034034,0.37816358,-0.6941077,0.35336444,22.675304412841797,-2.123459815979004,5.700464248657227,130.43234252929688,-124.41297912597656, 15.180160522460938
472,633382504,0.48398945,0.38937238,-0.6973057,0.35764283,23.62603759765625,2.7238688468933105,1.7689807415008545,93.4888687133789,-105.22050476074219, 9.189730644226074
473,633399171,0.4745618,0.39392206,-0.7017874,0.35652623,21.805564880371094,2.633275270462036,-1.8158750534057617,23.823293685913086,-74.4945297241211, 9.64333438873291
474,633415838,0.47126868,0.39603135,-0.70441335,0.3533654,20.387483596801758,2.300757646560669,-2.62463116645813,-5.9943132400512695,-38.4721565246582, -5.249760627746582
475,633432505,0.47387713,0.39445496,-0.70579046,0.3488633,17.03108024597168,0.6020698547363281,-3.6798229217529297,-37.39542770385742,-0.6067167520523071, -9.42458724975586
476,633449172,0.4809036,0.38947478,-0.70544434,0.34552786,14.608450889587402,2.4863545894622803,-6.654062747955322,-50.63855743408203,37.741207122802734, -4.342284679412842
477,633465839,0.49126542,0.38317144,-0.7024226,0.34415194,14.340455055236816,2.2530081272125244,-5.395879745483398,-47.99525451660156,71.17485809326172, -6.4756364822387695
478,633482506,0.5053673,0.3746837,-0.69715035,0.34379905,16.260271072387695,1.5360629558563232,-1.6649202108383179,-54.893341064453125,104.70956420898438, -7.1868181228637695
479,633499173,0.52404857,0.3621065,-0.69055605,0.34261405,17.030014038085938,0.5951805710792542,1.41858971118927,-81.74349975585938,138.72886657714844, -4.647375583648682
480,633515840,0.545563,0.34703422,-0.6821721,0.34142327,12.914590835571289,0.3075358271598816,1.766037940979004,-93.61861419677734,164.4019775390625, -3.9049181938171387
481,633532507,0.56784797,0.33245528,-0.6706822,0.34235612,7.6175713539123535,-2.4242029190063477,2.6409151554107666,-76.38087463378906,183.50180053710938, -7.435468673706055
482,633549174,0.5881596,0.31927398,-0.65876234,0.343751,5.003108978271484,-4.273458957672119,-2.539674758911133,-63.34670639038086,173.7816925048828, -8.43128490447998
483,633565841,0.598484,0.3134715,-0.6521632,0.3438545,8.709623336791992,-2.6995415687561035,-10.835948944091797,-30.077219009399414,86.77259063720703, -11.845333099365234
484,633582508,0.6017692,0.3140982,-0.64749485,0.346362,5.5404229164123535,-2.9959867000579834,-9.060352325439453,17.748159408569336,37.40800476074219, -10.001080513000488
485,633599175,0.6017729,0.31833377,-0.644252,0.34852895,4.126840114593506,3.3571994304656982,-6.971697807312012,34.84331512451172,7.715503692626953, -16.621017456054688
486,633615842,0.6023877,0.31919822,-0.645137,0.34502128,1.902777075767517,2.244804859161377,-3.1611695289611816,-15.38879680633545,-10.895577430725098, -17.530460357666016
487,633632509,0.6014923,0.31990308,-0.6472414,0.34197614,0.9400985836982727,1.1713405847549438,-1.5887941122055054,-13.525550842285156,-21.20802116394043, -8.611101150512695
488,633649176,0.5994164,0.3217332,-0.6494691,0.33967337,1.356306791305542,-0.047722719609737396,-2.1488070487976074,-3.231627941131592,-27.96227264404297, -7.4879841804504395
489,633665843,0.5961016,0.32453158,-0.65182275,0.33833295,0.8124049305915833,0.26080504059791565,-1.1693549156188965,7.515944480895996,-34.115074157714844, -4.681676864624023
490,633682510,0.5921451,0.32665056,-0.65546,0.3362082,0.727067232131958,0.03848942369222641,-1.7040408849716187,-0.32762694358825684,-42.405155181884766, -0.501102864742279
491,633699177,0.58766305,0.32781678,-0.6610708,0.33192453,1.1609711647033691,0.4142530858516693,-2.1907434463500977,-17.310867309570312,-55.43287658691406, 0.6391916275024414
492,633715844,0.5835576,0.3274313,-0.6684149,0.32476246,0.12558087706565857,-0.10982362180948257,2.570772171020508,-41.43595504760742,-63.6475830078125, -0.8958735466003418
493,633732511,0.57288694,0.33054918,-0.6762925,0.32429382,4.0262932777404785,-8.561722755432129,-11.794856071472168,16.961299896240234,-88.7581558227539, 25.698383331298828
494,633749178,0.55164504,0.34948236,-0.6789231,0.33557904,12.124730110168457,-0.8571298122406006,-9.756948471069336,169.5561065673828,-125.633056640625, 9.951913833618164
495,633765845,0.53000975,0.36559665,-0.6863168,0.33822784,9.074045181274414,-7.6257147789001465,3.9569239616394043,108.53569030761719,-159.65980529785156, 2.6653196811676025
496,633782512,0.5064829,0.37828198,-0.6966048,0.33929318,16.520824432373047,-7.153277397155762,8.097943305969238,86.44290161132812,-175.2145233154297, 24.616703033447266
497,633799179,0.48627028,0.38804138,-0.70350194,0.3435845,23.143871307373047,1.3906104564666748,0.9279868602752686,90.81549835205078,-132.47096252441406, 33.21577072143555
498,633815846,0.4736008,0.3938695,-0.7081971,0.3450016,16.95245361328125,5.978813171386719,-4.07413911819458,48.87333679199219,-87.10494232177734, 18.95989227294922
499,633832513,0.46453527,0.39950252,-0.71030027,0.34652337,19.098628997802734,0.9256280064582825,-2.28303861618042,45.290767669677734,-60.39895248413086, 4.763949394226074
500,633849180,0.46134236,0.40270764,-0.7096149,0.3484774,18.708955764770508,0.8360710740089417,-5.203819274902344,30.197328567504883,-15.899227142333984, -3.618602991104126
501,633865847,0.4650831,0.40211663,-0.70759386,0.34829697,16.609315872192383,0.9902820587158203,-5.838247299194336,-8.20071029663086,25.32918357849121, -12.143054962158203
502,633882514,0.47462744,0.39759648,-0.7042665,0.3473537,17.151731491088867,2.206423282623291,-5.294981479644775,-37.33528137207031,65.03694915771484, -12.938685417175293
503,633899181,0.48819736,0.3900887,-0.6995877,0.34651315,18.39826774597168,2.009960651397705,-2.608433961868286,-54.29326629638672,96.34239959716797, -11.385340690612793
504,633915848,0.50448424,0.380405,-0.6930425,0.3471023,19.599576950073242,0.2310677319765091,1.0515378713607788,-57.51763916015625,124.64601135253906, -7.534145355224609
505,633932515,0.52388006,0.36753616,-0.68513066,0.3479412,19.15940284729004,-0.750472903251648,3.743069648742676,-72.26276397705078,152.363525390625, -2.437523126602173
506,633949182,0.54668766,0.35178134,-0.6764317,0.3461541,12.278874397277832,0.35312533378601074,3.6165542602539062,-101.82441711425781,171.4239959716797, -8.424406051635742
507,633965849,0.56949145,0.3362724,-0.6670387,0.3430161,4.741724014282227,-4.388859272003174,2.541165590286255,-105.55615997314453,170.06968688964844, -16.286447525024414
508,633982516,0.5899522,0.32393074,-0.65525573,0.34302396,6.610194683074951,-3.1769096851348877,-4.264081001281738,-67.78445434570312,168.43682861328125, -18.54707908630371
509,633999183,0.59941167,0.31933537,-0.64914685,0.3425478,6.282571315765381,-3.294982433319092,-8.320465087890625,-27.463523864746094,76.54822540283203, -16.857135772705078
510,634015850,0.60237145,0.32103688,-0.6443773,0.34476376,3.687443494796753,-4.138724327087402,-7.923531532287598,21.587486267089844,33.21726608276367, -15.655158996582031
511,634032517,0.60162413,0.32648566,-0.64061934,0.34794056,4.043937683105469,0.9343085289001465,-6.367987632751465,47.09865951538086,5.959878444671631, -17.313879013061523
512,634049184,0.60192883,0.3275278,-0.64114994,0.34544772,3.222200870513916,1.2206642627716064,-2.632725715637207,-8.676260948181152,-9.241137504577637, -14.224300384521484
513,634065851,0.6014995,0.3270768,-0.64281106,0.34353036,1.1239113807678223,0.07445161789655685,-1.337361216545105,-13.317593574523926,-12.280304908752441, -0.9513335227966309
514,634082518,0.5992029,0.32864732,-0.6424894,0.34663296,0.271138072013855,-0.18987007439136505,-0.9640827775001526,26.118085861206055,-5.801486492156982, 10.824850082397461
515,634099185,0.5976831,0.3289733,-0.64229447,0.3492984,-0.9288620948791504,2.2213032245635986,2.5684428215026855,17.000165939331055,-0.8997756242752075, 12.950769424438477
516,634115852,0.59820545,0.32362142,-0.6470298,0.344633,-1.1375017166137695,-0.30911991000175476,-1.0865095853805542,-55.13671875,-15.126765251159668, 14.174198150634766
517,634132519,0.5963855,0.32140848,-0.6517643,0.34091705,1.2937203645706177,-0.6432178020477295,-5.312121868133545,-32.79256057739258,-30.859275817871094, 9.651467323303223
518,634149186,0.59201765,0.3230127,-0.657071,0.3368024,1.4965888261795044,2.5237133502960205,-4.612138748168945,-14.62465763092041,-54.383792877197266, -1.8656628131866455
519,634165853,0.5800881,0.32790676,-0.66591454,0.3354594,5.367654800415039,-3.0728163719177246,-16.88611602783203,19.96299934387207,-104.35142517089844, 19.947872161865234
520,634182520,0.5609457,0.34402362,-0.67149,0.34071863,10.858412742614746,1.0711817741394043,-3.7375621795654297,118.77741241455078,-135.12786865234375, 4.108201503753662
521,634199187,0.5362809,0.36538905,-0.67696667,0.34728947,9.378776550292969,-4.720559597015381,0.912803590297699,158.44471740722656,-169.41070556640625, -2.378295660018921
522,634215854,0.51278883,0.3821469,-0.68389136,0.35114703,18.44327163696289,-2.4780664443969727,5.820720672607422,122.33428955078125,-165.11923217773438, 9.806061744689941
523,634232521,0.49341965,0.39312658,-0.690926,0.35300142,21.72722816467285,1.26955246925354,3.530313491821289,81.36648559570312,-137.54315185546875, 20.205480575561523
524,634249188,0.47880977,0.40098655,-0.69758767,0.35117313,19.775388717651367,1.348690390586853,0.11410290002822876,41.34077072143555,-116.16283416748047, 9.988947868347168
525,634265855,0.46903214,0.40595654,-0.70182425,0.35021606,18.528207778930664,1.441420316696167,-3.7713253498077393,28.571435928344727,-75.69599914550781, 8.386324882507324
526,634282522,0.46542117,0.40635592,-0.7057271,0.34670964,17.492942810058594,0.6961696743965149,-5.232579231262207,-14.816997528076172,-41.005496978759766, 6.465182781219482
527,634299189,0.46850485,0.40292603,-0.70696807,0.34402037,14.568026542663574,1.5893259048461914,-7.351431369781494,-35.416778564453125,11.390953063964844, 4.286863803863525
528,634315856,0.47644994,0.39895752,-0.7037869,0.34425643,14.925193786621094,0.4766373932361603,-5.94300651550293,-25.86031723022461,58.66360092163086, -7.386989593505859
529,634332523,0.48718742,0.39460656,-0.697069,0.34789255,18.056224822998047,-2.01153826713562,-2.4684059619903564,-9.91048526763916,94.00210571289062, -10.674728393554688
530,634349190,0.5019198,0.38766682,-0.6877934,0.35317302,21.238801956176758,-2.2465920448303223,0.282796710729599,-15.459375381469727,132.3368682861328, -9.235726356506348
531,634365857,0.52119935,0.3750348,-0.6813165,0.3514373,18.406850814819336,1.1562871932983398,1.685586929321289,-87.26023864746094,139.22915649414062, -10.092891693115234
532,634382524,0.54426676,0.35721043,-0.67614543,0.34496656,13.061832427978516,-1.2857933044433594,2.501006841659546,-140.9833984375,152.55215454101562, -8.47500991821289
533,634399191,0.5663963,0.3421099,-0.6672048,0.3420437,7.606330394744873,-2.426771402359009,2.121403694152832,-103.10116577148438,164.47703552246094, -14.88625717163086
534,634415858,0.5891299,0.3285501,-0.6540881,0.34227145,7.7370686531066895,-2.931640386581421,-1.1471843719482422,-74.31880950927734,187.25950622558594, -20.942806243896484
535,634432525,0.60262376,0.31827793,-0.6482593,0.33956406,6.606068134307861,-1.6211791038513184,-8.18620777130127,-70.5257797241211,101.80255126953125, -9.432388305664062
536,634449192,0.6092792,0.3137494,-0.6451695,0.337782,4.395013332366943,-1.8965394496917725,-7.2611260414123535,-34.04520034790039,48.683414459228516, -9.248799324035645
537,634465859,0.6110105,0.31222215,-0.64492285,0.33653855,5.367978096008301,0.04620087146759033,-9.352752685546875,-15.080737113952637,9.213301658630371, -2.7571845054626465
538,634482526,0.6101799,0.31211385,-0.64679646,0.33454427,3.497509717941284,2.5283806324005127,-5.126683712005615,-11.820432662963867,-15.834009170532227, -1.714285969734192
539,634499193,0.6065849,0.3135014,-0.64977646,0.33400965,1.6137847900390625,0.2355957180261612,-3.698505163192749,4.398301124572754,-33.01953887939453, 6.528441429138184
540,634515860,0.60032666,0.31941783,-0.6506535,0.33797976,0.01573646068572998,1.9785780906677246,-0.7275079488754272,53.996826171875,-36.79132843017578, 6.664352893829346
541,634532527,0.5959483,0.3217828,-0.65407634,0.3368765,-1.4090317487716675,1.1735199689865112,0.9738708734512329,6.639832973480225,-41.768890380859375, 2.8529205322265625
542,634549194,0.59202707,0.32167768,-0.6598494,0.33260506,1.2693229913711548,-0.12340395897626877,-2.6442277431488037,-24.162612915039062,-50.64585494995117, 5.12414026260376
543,634565861,0.5865903,0.32383254,-0.6647091,0.3304637,1.067952036857605,1.1133933067321777,-1.7375720739364624,0.15160955488681793,-54.2326545715332, 4.975978374481201
544,634582528,0.5794763,0.32689378,-0.6701876,0.32893205,0.8760004639625549,-1.5181200504302979,-2.1034820079803467,8.953970909118652,-65.07907104492188, 8.484023094177246
545,634599195,0.5718772,0.33309364,-0.6738018,0.3286281,-0.2082260102033615,2.978503465652466,0.7203882932662964,32.40398025512695,-64.19869232177734, -4.21426248550415
546,634615862,0.5554455,0.34230226,-0.68097186,0.3325461,6.839833736419678,-4.703977108001709,-18.8911075592041,76.0535659790039,-116.24317169189453, 26.56498908996582
547,634632529,0.5351902,0.36063603,-0.6848393,0.33839086,13.080886840820312,-0.779282808303833,0.12287625670433044,136.4771728515625,-137.64744567871094, -7.915130615234375
548,634649196,0.51171756,0.3794615,-0.68933976,0.34491277,9.742204666137695,-7.15513801574707,2.7583749294281006,147.9864959716797,-154.61752319335938, 1.2736881971359253
549,634665863,0.49076912,0.39329678,-0.694225,0.3500216,22.848276138305664,-5.986955165863037,7.8557658195495605,116.07228088378906,-135.89845275878906, 14.867520332336426
550,634682530,0.4792904,0.39996335,-0.69375026,0.35919467,24.592628479003906,3.525048017501831,1.0869114398956299,98.40235900878906,-44.51207733154297, 25.461069107055664
551,634699197,0.47198075,0.40381032,-0.6959108,0.36038804,17.46412467956543,2.610731840133667,-2.270956516265869,33.14456558227539,-48.38990020751953, 9.61937141418457
552,634715864,0.4650909,0.40880314,-0.6959745,0.36357954,19.7900447845459,2.018531560897827,-2.6874496936798096,50.53468322753906,-36.90921401977539, 3.796027183532715
553,634732531,0.46462157,0.41092193,-0.6944725,0.36466137,17.879533767700195,0.4496554434299469,-5.545598030090332,17.1839599609375,0.03183022886514664, -9.610140800476074
554,634749198,0.47025698,0.40927657,-0.6917301,0.36450055,15.15629768371582,-0.1798689067363739,-6.486939907073975,-14.859527587890625,39.064849853515625, -14.390503883361816
555,634765865,0.48013723,0.40452984,-0.6880201,0.36394,15.421491622924805,-0.30241161584854126,-4.805508613586426,-36.26678466796875,69.0457534790039, -14.270816802978516
556,634782532,0.4898838,0.39852893,-0.6858709,0.3616211,16.214582443237305,-0.23410049080848694,-1.7953999042510986,-52.23314666748047,61.50779342651367, -9.44326400756836
557,634799199,0.501947,0.3883434,-0.6858243,0.3562078,19.537935256958008,1.56234872341156,2.4006385803222656,-92.49380493164062,67.23886108398438, -0.1065153107047081
558,634815866,0.5193637,0.37340266,-0.6851774,0.34837347,17.85928726196289,5.097646713256836,3.4864938259124756,-133.141357421875,99.6434326171875, -0.7089133858680725
559,634832533,0.53930986,0.35752016,-0.68168855,0.34150457,10.936137199401855,2.110245943069458,1.9844777584075928,-131.5703125,126.33685302734375, -6.100099086761475
560,634849200,0.55713975,0.3504411,-0.6685044,0.34624904,8.155738830566406,-0.7498839497566223,1.201558232307434,-16.49928092956543,160.18809509277344, -23.110240936279297
561,634865867,0.5725572,0.34018442,-0.66138595,0.344995,6.499867916107178,-3.845996856689453,-3.849332332611084,-64.90655517578125,118.94206237792969, -11.10445785522461
562,634882534,0.5813256,0.33487457,-0.6574598,0.3430252,5.039343357086182,-4.51959228515625,-6.454608917236328,-40.77412033081055,62.76121520996094, -13.210042953491211
563,634899201,0.58463216,0.33510056,-0.6540134,0.34377262,3.7203431129455566,-4.7733154296875,-8.466729164123535,5.006731986999512,29.42977523803711, -13.434513092041016
564,634915868,0.591274,0.33198822,-0.6530767,0.3371495,3.33984112739563,4.083372116088867,-2.9314332008361816,-55.228492736816406,25.34767723083496, -30.204776763916016
565,634932535,0.6002555,0.3236627,-0.65455705,0.3263297,0.22264355421066284,0.8337587118148804,-1.0260063409805298,-106.13128662109375,28.554121017456055, -23.707643508911133
566,634949202,0.6039212,0.31893417,-0.6531636,0.32701293,0.6380429267883301,-3.0167646408081055,-1.823142409324646,-21.210914611816406,34.02286911010742, 13.122177124023438
567,634965869,0.6034414,0.3174933,-0.64957756,0.3363115,1.7577697038650513,-2.5927934646606445,-2.994020938873291,45.0771369934082,36.03142547607422, 38.60694122314453
568,634982536,0.6021084,0.3169789,-0.64591783,0.3460926,-1.0179165601730347,-1.7649734020233154,-1.1291624307632446,53.0669059753418,31.47334861755371, 38.253639221191406
569,634999203,0.6003865,0.31503582,-0.6459733,0.35072348,-1.0309083461761475,-1.9225350618362427,-4.654097557067871,16.241941452026367,6.555133819580078, 32.274715423583984
570,635015870,0.5960976,0.31648964,-0.6471877,0.35447162,1.3749048709869385,0.10674138367176056,-5.845912933349609,29.093299865722656,-19.678997039794922, 22.216968536376953
571,635032537,0.59088355,0.3201797,-0.6510427,0.35282472,1.1333465576171875,4.635970592498779,-5.5170087814331055,9.852988243103027,-51.74405288696289, -1.845003366470337
572,635049204,0.58477026,0.31799734,-0.6632634,0.34205765,4.287551403045654,-0.16299968957901,-6.48568058013916,-73.03269958496094,-95.54208374023438, 8.040794372558594
573,635065871,0.56814677,0.32601395,-0.6731841,0.34314337,9.20858097076416,-6.406582832336426,-10.467459678649902,50.46904754638672,-132.2388916015625, 28.860340118408203
574,635082538,0.54801524,0.3409047,-0.67990655,0.34812415,10.956596374511719,-0.3788887560367584,-2.1534857749938965,110.68380737304688,-143.36155700683594, 13.269990921020508
575,635099205,0.523995,0.36043665,-0.68571824,0.3539848,13.944189071655273,-0.4320136606693268,4.742130756378174,143.62033081054688,-167.1560516357422, 2.029994010925293
576,635115872,0.49824283,0.37787375,-0.6933782,0.35803974,22.02930450439453,-2.5967774391174316,8.01124095916748,127.34168243408203,-181.4324951171875, 14.166343688964844
577,635132539,0.47564,0.39150757,-0.69919044,0.36279652,25.468486785888672,-1.2188977003097534,1.2299256324768066,113.95111083984375,-149.024169921875, 22.117212295532227
578,635149206,0.45960268,0.39992753,-0.7037424,0.36547238,18.919824600219727,-3.812469720840454,-2.2196991443634033,72.34601593017578,-106.01089477539062, 20.605716705322266
579,635165873,0.45132774,0.40367594,-0.706998,0.3653804,19.726194381713867,-1.9035977125167847,-4.392281532287598,26.054227828979492,-60.25826644897461, 11.374579429626465
580,635182540,0.45102993,0.40470684,-0.70796156,0.36273256,16.81498908996582,1.3009382486343384,-6.99066686630249,-11.179051399230957,-14.659951210021973, -9.743393898010254
581,635199207,0.4562684,0.4057049,-0.70415,0.36248532,14.767363548278809,2.8509583473205566,-8.43832015991211,-3.0007283687591553,33.86131286621094, -29.205217361450195
582,635215874,0.46626288,0.40525645,-0.69682515,0.36441863,15.352665901184082,2.7584314346313477,-6.153178691864014,-1.3663450479507446,77.62403869628906, -36.971744537353516
583,635232541,0.4810219,0.4006245,-0.68794733,0.36721492,18.113609313964844,1.08528733253479,-1.7011501789093018,-19.927270889282227,118.32689666748047, -30.3714542388916
584,635249208,0.5002224,0.38997182,-0.6786746,0.3702708,19.330081939697266,1.0931931734085083,1.0262202024459839,-49.82221603393555,156.52438354492188, -13.27858829498291
585,635265875,0.52320886,0.3738286,-0.67072916,0.36963126,14.836713790893555,3.092977523803711,2.17935848236084,-99.48075103759766,173.63294982910156, -6.382908344268799
586,635282542,0.54773045,0.3562484,-0.66229874,0.36665928,9.134297370910645,1.0449256896972656,2.2019290924072266,-118.07789611816406,180.0464630126953, -13.217552185058594
587,635299209,0.5746723,0.33607617,-0.65162235,0.36358348,8.656135559082031,-3.5647451877593994,1.9244624376296997,-128.61399841308594,205.76547241210938, -13.354499816894531
588,635315876,0.59228367,0.32380396,-0.6443183,0.359451,4.828250408172607,-3.1486167907714844,-8.586585998535156,-89.07308959960938,128.3822479248047, -21.81718635559082
589,635332543,0.60111165,0.31898418,-0.6398859,0.3570155,4.504661560058594,-5.629629135131836,-8.215258598327637,-38.780086517333984,63.21568298339844, -19.83570671081543
590,635349210,0.60534316,0.3171209,-0.63862383,0.35377076,4.962104797363281,-0.8201373219490051,-9.148311614990234,-27.909006118774414,20.95038604736328, -18.01234245300293
591,635365877,0.61079097,0.31015098,-0.643237,0.34203354,3.4339072704315186,1.4388047456741333,-4.039157390594482,-103.37619018554688,-4.167222023010254, -21.086162567138672
592,635382544,0.61332965,0.30484143,-0.6475617,0.33400974,0.7046682834625244,-1.1416707038879395,-1.8774871826171875,-73.06452178955078,-11.777603149414062, -6.588316917419434
593,635399211,0.612391,0.30405557,-0.64897585,0.3337036,0.3818094730377197,-0.7941566705703735,-1.2143064737319946,-5.662293434143066,-9.183608055114746, 7.6831817626953125
594,635415878,0.6100932,0.30538562,-0.648842,0.3369426,-1.5595173835754395,0.9175246953964233,2.138005495071411,25.441320419311523,-6.161576271057129, 13.035937309265137
595,635432545,0.6089301,0.30325258,-0.6514209,0.3359955,-1.1669776439666748,-0.5519527196884155,-0.3255775570869446,-16.415637969970703,-13.270135879516602, 13.996955871582031
596,635449212,0.6053639,0.30404603,-0.6537436,0.33720887,1.1859132051467896,-1.9424251317977905,-4.6535563468933105,11.101754188537598,-25.21439552307129, 14.936578750610352
597,635465879,0.5989575,0.30949855,-0.6554447,0.3403719,1.4565067291259766,2.2039568424224854,-3.866149425506592,46.610755920410156,-42.06950378417969, 7.365450859069824
598,635482546,0.593842,0.31111744,-0.66164994,0.33582342,1.4353275299072266,4.004688262939453,-2.7854461669921875,-17.159555435180664,-62.20263671875, -0.534493625164032
599,635499213,0.5780877,0.31984425,-0.66909724,0.34032866,8.223939895629883,-5.465250492095947,-16.93109893798828,73.03870391845703,-112.70294189453125, 31.34872055053711
600,635515880,0.5601895,0.33538893,-0.67516595,0.3432973,12.819002151489258,-2.153247117996216,2.203382968902588,100.98184967041016,-136.2493133544922, -4.2251410484313965
601,635532547,0.53857905,0.35226923,-0.68180656,0.34782028,11.875945091247559,-4.8605499267578125,4.0755085945129395,120.52568054199219,-155.28848266601562, 5.59049654006958
602,635549214,0.5167532,0.36675298,-0.69012624,0.3495488,18.34688377380371,-2.9331202507019043,7.484968185424805,94.96392822265625,-163.60104370117188, 10.981842041015625
603,635565881,0.4973116,0.37800783,-0.6967096,0.35268563,18.1886043548584,1.173077940940857,0.38900089263916016,88.25616455078125,-134.9059600830078, 21.1591854095459
604,635582548,0.4836508,0.38638273,-0.70067704,0.3547424,18.23827362060547,0.48073023557662964,-3.0176596641540527,64.58893585205078,-94.13751220703125, 10.45072078704834
605,635599215,0.47381443,0.392023,-0.70260245,0.35800517,19.81719207763672,-2.098607301712036,-2.543114423751831,56.16932678222656,-59.07137680053711, 12.888382911682129
606,635615882,0.470933,0.39292994,-0.7038162,0.35842866,17.648061752319336,-0.3157742917537689,-4.988205432891846,10.02774715423584,-19.1898250579834, 7.463271617889404
607,635632549,0.475397,0.39030045,-0.70269555,0.35760653,15.18756103515625,1.5223497152328491,-7.182201385498047,-21.504100799560547,29.252649307250977, -3.8502085208892822
608,635649216,0.48480847,0.38569304,-0.6986889,0.3578204,17.303085327148438,3.2537946701049805,-5.658082008361816,-29.057096481323242,70.24697875976562, -10.784272193908691
609,635665883,0.49870515,0.3789163,-0.692005,0.3589496,19.57131576538086,3.5059163570404053,-3.4704196453094482,-37.08556365966797,108.47798919677734, -15.386541366577148
610,635682550,0.516927,0.3690076,-0.6827901,0.36113408,20.4454288482666,2.547954559326172,-0.04754897952079773,-47.72886657714844,148.19122314453125, -14.057024002075195
611,635699217,0.5371765,0.3556884,-0.67345625,0.36246926,18.259164810180664,1.8183703422546387,2.9911699295043945,-68.6302719116211,164.39463806152344, -6.319322109222412
612,635715884,0.55952644,0.3389068,-0.6643827,0.36148068,12.327302932739258,0.9427844285964966,4.1613359451293945,-97.95394134521484,176.03428649902344, -3.3908259868621826
613,635732551,0.5854032,0.3206862,-0.6519467,0.35976243,7.427855491638184,-2.734294891357422,6.355003833770752,-106.71153259277344,206.89797973632812, -16.163829803466797
614,635749218,0.6080632,0.30137545,-0.6444706,0.3522639,3.373136043548584,-2.4782280921936035,-6.896422386169434,-142.29322814941406,162.37718200683594, -15.645490646362305
615,635765885,0.6201229,0.29112363,-0.64082825,0.34645885,6.776900291442871,-4.9022908210754395,-11.733606338500977,-84.2649917602539,80.98258209228516, -15.092289924621582
616,635782552,0.6248434,0.29003158,-0.6381221,0.34387848,3.5339393615722656,-1.6867024898529053,-9.785284042358398,-18.604652404785156,29.407636642456055, -22.387861251831055
617,635799219,0.6270666,0.2888752,-0.64072555,0.3358712,4.705774307250977,0.599674642086029,-8.44216251373291,-50.271453857421875,-14.928743362426758, -28.943819046020508
618,635815886,0.6248816,0.29090825,-0.6446648,0.33061007,2.157773017883301,-1.1861096620559692,-4.534884452819824,-18.726593017578125,-41.93492126464844, -18.314775466918945
619,635832553,0.6175453,0.29836848,-0.6468949,0.33337852,1.8098851442337036,-1.5108174085617065,-2.170520544052124,54.36810302734375,-53.65117645263672, 0.3927595913410187
620,635849220,0.6079697,0.30873,-0.6475032,0.34029177,0.10981512069702148,0.024346129968762398,0.4253543019294739,93.41106414794922,-54.84267807006836, 6.857488632202148
621,635865887,0.599479,0.31660002,-0.6497957,0.34373713,-0.45359453558921814,0.5143895149230957,-0.3332004249095917,61.313865661621094,-58.57968521118164, 4.471136569976807
622,635882554,0.59160066,0.32217127,-0.65437365,0.34352517,0.8096116185188293,0.6606072783470154,-2.9812443256378174,28.785362243652344,-67.78536224365234, 3.1819069385528564
623,635899221,0.5844304,0.32729107,-0.65973824,0.3406864,0.3025358021259308,2.3650379180908203,0.06207963824272156,11.729732513427734,-72.52273559570312, -5.411746501922607
624,635915888,0.57793856,0.33229262,-0.6656443,0.33539003,0.25027570128440857,2.0116829872131348,2.493912935256958,-2.6281630992889404,-76.8764419555664, -15.115521430969238
625,635932555,0.5650464,0.34052265,-0.6710881,0.33824247,4.472957134246826,-6.480842113494873,-9.947808265686035,63.21429443359375,-93.18563842773438, 16.187097549438477
626,635949222,0.5434579,0.35809118,-0.6742821,0.34895286,11.902776718139648,-4.012485980987549,-9.527154922485352,161.27676391601562,-127.80218505859375, 18.48871421813965
627,635965889,0.51838994,0.379951,-0.67611474,0.36024734,9.447793960571289,-2.796430826187134,5.905539512634277,191.83555603027344,-147.6282501220703, 5.6950788497924805
628,635982556,0.49643987,0.39270145,-0.68290764,0.364651,17.624340057373047,-6.881183624267578,4.8718414306640625,106.80305480957031,-146.30642700195312, 28.65721321105957
629,635999223,0.47632945,0.40061605,-0.69074804,0.36808208,23.027463912963867,-0.27344781160354614,4.986645698547363,77.96588134765625,-131.8192138671875, 46.1931266784668
630,636015890,0.4617255,0.40660647,-0.6973941,0.36759007,21.865659713745117,0.6366089582443237,-1.2518479824066162,40.86069107055664,-107.79556274414062, 25.25895118713379
631,636032557,0.45030463,0.4138031,-0.6998272,0.36909977,20.497121810913086,1.0804492235183716,-4.608396053314209,56.07575225830078,-76.66484069824219, 6.018298625946045
632,636049224,0.44665855,0.41814122,-0.7006336,0.36710578,19.27099609375,1.4612786769866943,-4.482710838317871,12.449250221252441,-36.95762252807617, -15.417811393737793
633,636065891,0.45058876,0.41827875,-0.6993544,0.36457658,15.78498649597168,0.9891290068626404,-7.280023097991943,-19.473461151123047,14.981724739074707, -21.920751571655273
634,636082558,0.460318,0.4148847,-0.69555926,0.36355948,14.665609359741211,2.4343976974487305,-7.252667427062988,-33.42752456665039,63.87250900268555, -22.0040283203125
635,636099225,0.4740368,0.40834925,-0.6896418,0.36460155,16.617969512939453,2.4230589866638184,-4.307847023010254,-39.495018005371094,103.41130828857422, -16.4476375579834
636,636115892,0.49210882,0.39781684,-0.6823874,0.36594874,19.636945724487305,0.45378682017326355,-0.2208532691001892,-59.865474700927734,139.2750244140625, -11.108234405517578
637,636132559,0.5137215,0.38320136,-0.6740413,0.36730808,18.650970458984375,1.4706850051879883,1.5023398399353027,-80.5656509399414,169.84193420410156, -3.7452735900878906
638,636149226,0.5394813,0.364212,-0.6658297,0.36466482,12.907001495361328,1.741777777671814,2.9226632118225098,-125.82308197021484,189.03016662597656, -7.661459922790527
639,636165893,0.56674206,0.34597078,-0.653464,0.36344546,7.277655124664307,-3.2602951526641846,4.731232166290283,-109.87151336669922,212.94558715820312, -19.901973724365234
640,636182560,0.59015423,0.32903275,-0.6430214,0.3605261,3.5718421936035156,-2.6249566078186035,-4.24709415435791,-108.20174407958984,180.7894744873047, -18.182695388793945
641,636199227,0.60325557,0.31720293,-0.63968915,0.35533503,7.139646053314209,-4.060000896453857,-11.030353546142578,-91.85536193847656,88.56157684326172, -8.341742515563965
642,636215894,0.60943216,0.31271017,-0.63812554,0.35156894,3.9150712490081787,-2.576087474822998,-9.785992622375488,-44.41127014160156,36.05126953125, -13.95400619506836
643,636232561,0.61285937,0.30967927,-0.6404881,0.34391484,4.7622904777526855,1.5993903875350952,-8.124130249023438,-58.956398010253906,-4.2618842124938965, -21.59544563293457
644,636249228,0.6135202,0.3075571,-0.6451132,0.3359025,2.0140867233276367,0.7637283205986023,-4.074464797973633,-56.09821319580078,-28.818927764892578, -15.724189758300781
645,636265895,0.60980445,0.30982044,-0.648493,0.33407578,1.673008918762207,-0.44893449544906616,-3.1224451065063477,1.9947091341018677,-39.99054718017578, -1.6068856716156006
646,636282562,0.60240346,0.3171165,-0.6492987,0.33905548,0.8308879137039185,-0.6034836173057556,-1.5002542734146118,67.20882415771484,-42.658966064453125, 7.456043720245361
647,636299229,0.5957899,0.32273266,-0.65070486,0.34272623,-1.4516236782073975,1.437542200088501,2.1215012073516846,51.289405822753906,-40.547794342041016, 8.986424446105957
648,636315896,0.59129953,0.3233722,-0.656027,0.3397409,-0.45347860455513,-0.320437490940094,-1.509844422340393,-12.792643547058105,-50.15395736694336, 7.672607898712158
649,636332563,0.5851958,0.32584035,-0.6615425,0.337247,1.5016666650772095,0.17498037219047546,-3.1973767280578613,-0.011180092580616474,-61.38411331176758, 5.601309299468994
650,636349230,0.57896936,0.3297545,-0.66675866,0.33390036,0.326900839805603,0.9737183451652527,1.7407763004302979,2.919745683670044,-65.97412109375, -4.805810928344727
651,636365897,0.5677746,0.33712295,-0.6719643,0.33532697,2.425734043121338,-3.8182625770568848,-9.605433464050293,49.86094665527344,-85.83473205566406, 9.728857040405273
652,636382564,0.5476828,0.3527816,-0.6757222,0.3449468,9.076312065124512,-2.2349462509155273,-12.318767547607422,144.00770568847656,-121.3265380859375, 20.504737854003906
653,636399231,0.5209594,0.375944,-0.6795867,0.3541603,10.235288619995117,-8.124279975891113,3.819718837738037,186.2384033203125,-171.231689453125, 0.035654518753290176
654,636415898,0.4958331,0.3928739,-0.6860328,0.3593866,17.581645965576172,-4.737161636352539,7.95075798034668,134.6714630126953,-168.17381286621094, 17.551786422729492
655,636432565,0.474969,0.40240785,-0.69394994,0.36180958,25.767507553100586,0.2738810181617737,4.690570831298828,80.92204284667969,-142.4736328125, 36.27570724487305
656,636449232,0.46104738,0.40711603,-0.7015141,0.35995844,20.36156463623047,5.597545146942139,-1.644369125366211,26.42588996887207,-108.12248229980469, 27.10194206237793
657,636465899,0.4500557,0.4124558,-0.7060663,0.35888806,18.718210220336914,1.7020941972732544,-3.5647754669189453,31.606571197509766,-83.87885284423828, 10.879209518432617
658,636482566,0.4440733,0.4160694,-0.7080393,0.35828167,17.030200958251953,1.505596399307251,-6.243074893951416,20.747529983520508,-46.037803649902344, 1.0327837467193604
659,636499233,0.4450238,0.41590166,-0.7081609,0.35705492,13.441919326782227,0.5376871228218079,-8.117796897888184,-8.99634838104248,0.8958749175071716, -4.8163161277771
660,636515900,0.4524248,0.41262513,-0.70566136,0.3565032,13.930671691894531,1.4091259241104126,-7.593368053436279,-27.156246185302734,49.905250549316406, -10.931999206542969
661,636532567,0.46424457,0.40771273,-0.70056474,0.35701075,16.579280853271484,0.723028302192688,-4.799928188323975,-33.18772506713867,86.45413208007812, -17.867799758911133
662,636549234,0.4793536,0.40099052,-0.69358426,0.35828438,19.73980712890625,-1.9117306470870972,-0.7732999920845032,-39.820186614990234,114.89202117919922, -20.017690658569336
663,636565901,0.4979239,0.39010644,-0.68582886,0.3598995,21.1782169342041,-1.3928933143615723,1.722234845161438,-59.584503173828125,145.10519409179688, -9.668828964233398
664,636582568,0.5205668,0.37398267,-0.6792387,0.35746625,17.359664916992188,0.8813886046409607,3.996690273284912,-110.47389221191406,162.36474609375, -5.728753089904785
665,636599235,0.54597855,0.3549954,-0.6718805,0.3527927,8.947559356689453,-0.12385838478803635,3.223283052444458,-136.4364013671875,179.24688720703125, -9.099658012390137
666,636615902,0.5704908,0.343328,-0.65556884,0.35622442,6.3472394943237305,-3.140068531036377,4.027657985687256,-47.629913330078125,210.68496704101562, -32.11876678466797
667,636632569,0.59109354,0.3245607,-0.651117,0.34830394,5.369265556335449,-2.5267410278320312,-9.243191719055176,-146.5763702392578,137.0771942138672, -7.072068214416504
668,636649236,0.60222167,0.31482124,-0.64846,0.34309816,6.28713846206665,-3.5198490619659424,-10.59632682800293,-80.89883422851562,71.86537170410156, -9.765799522399902
669,636665903,0.6074183,0.3107104,-0.6475715,0.33934256,4.3676958084106445,-1.107964038848877,-9.092382431030273,-42.50636291503906,28.052518844604492, -11.061039924621582
670,636682570,0.611895,0.3053784,-0.6502213,0.33096978,3.610914945602417,1.0922962427139282,-4.642818450927734,-74.88774871826172,3.136935234069824, -15.674362182617188
671,636699237,0.61434245,0.30043572,-0.6540799,0.3232669,1.2733397483825684,0.47792887687683105,-2.2908542156219482,-68.69998168945312,-10.465837478637695, -7.425646781921387
672,636715904,0.61360675,0.29931316,-0.6562167,0.3213693,0.5455330014228821,0.45433321595191956,-1.1552642583847046,-16.047557830810547,-13.990318298339844, 3.4355456829071045
673,636732571,0.6117892,0.29990837,-0.6574442,0.32177055,-0.6497067213058472,0.8773441910743713,1.0436482429504395,5.825876712799072,-14.092171669006348, 5.903700828552246
674,636749238,0.60977536,0.2997748,-0.65985626,0.32077834,-0.6215512752532959,-0.08739449083805084,-1.1059483289718628,-5.7431840896606445,-21.234655380249023, 6.215144157409668
675,636765905,0.6040409,0.3037791,-0.6620753,0.3232792,1.2203510999679565,-2.365095853805542,-4.961164951324463,35.544742584228516,-39.2205924987793, 9.884881019592285
676,636782572,0.5952783,0.31195137,-0.66347826,0.32882646,0.27449095249176025,0.06537056714296341,-3.498136281967163,74.81888580322266,-52.466331481933594, 8.553059577941895
677,636799239,0.58899224,0.31699032,-0.6682724,0.32560337,1.0355815887451172,5.490683078765869,0.2885320782661438,9.018705368041992,-66.73977661132812, -11.38774585723877
678,636815906,0.5739371,0.32654414,-0.6747027,0.3297599,5.742847919464111,-4.637578964233398,-18.822799682617188,76.79468536376953,-107.6946029663086, 20.984432220458984
679,636832573,0.55324614,0.3432435,-0.6816226,0.3339065,11.19693660736084,-2.388761281967163,-2.4314682483673096,116.45561218261719,-151.8301544189453, 1.5990089178085327
680,636849240,0.5266755,0.36411884,-0.6884164,0.34075433,10.718765258789062,-8.52660846710205,5.874256134033203,159.1502685546875,-182.1184844970703, 5.441471099853516
681,636865907,0.501432,0.3810981,-0.6959542,0.34493214,20.449968338012695,-4.961523532867432,8.736101150512695,127.11466979980469,-176.1356964111328, 12.866591453552246
682,636882574,0.481781,0.39181784,-0.70159024,0.34948123,20.238325119018555,2.0516304969787598,-0.6331061124801636,96.99974822998047,-127.09904479980469, 25.813644409179688
683,636899241,0.46901032,0.39791286,-0.70746607,0.34811863,16.76058578491211,3.8868746757507324,-3.1065118312835693,34.12029266357422,-99.5634536743164, 12.661864280700684
684,636915908,0.45926693,0.40408394,-0.7102264,0.34838018,18.537748336791992,1.431052803993225,-4.27951192855835,41.572662353515625,-70.56136322021484, 1.7758408784866333
685,636932575,0.45425537,0.40852883,-0.7110352,0.34811664,17.24992561340332,0.6345552802085876,-6.54538106918335,25.15861701965332,-38.6400146484375, -8.201172828674316
686,636949242,0.4561846,0.40915465,-0.709722,0.34753838,15.118576049804688,0.18877877295017242,-7.591089725494385,-2.654669761657715,10.173203468322754, -13.077986717224121
687,636965909,0.46375713,0.40602693,-0.7063867,0.34797877,16.249977111816406,2.3373024463653564,-6.545604228973389,-20.43770980834961,55.90144729614258, -10.727311134338379
688,636982576,0.47509006,0.40041545,-0.70141387,0.34924996,19.0222110748291,2.832430601119995,-4.300490379333496,-30.79768180847168,87.64750671386719, -9.547298431396484
689,636999243,0.4904108,0.3918891,-0.69510144,0.35036305,21.584932327270508,2.5034053325653076,-0.8701502084732056,-48.741451263427734,117.79532623291016, -9.2173490524292
690,637015910,0.5100694,0.37857285,-0.6890244,0.34893754,20.599464416503906,2.3436150550842285,2.301436185836792,-89.22357177734375,142.3794708251953, -4.633811950683594
691,637032577,0.53298473,0.36122698,-0.68323195,0.34443656,14.519187927246094,1.4274585247039795,4.100595951080322,-127.0517807006836,158.39987182617188, -3.331172466278076
692,637049244,0.55702674,0.34554237,-0.67295295,0.34271902,7.9998369216918945,-3.3969931602478027,3.104097604751587,-100.05420684814453,183.04104614257812, -14.683295249938965
693,637065911,0.5828958,0.33022493,-0.6591023,0.3417137,4.760188102722168,-3.003594398498535,-0.6109856367111206,-91.39601135253906,205.97152709960938, -26.425865173339844
694,637082578,0.5996692,0.31483045,-0.6551202,0.3348077,5.961688995361328,-4.513541221618652,-8.637990951538086,-121.05994415283203,111.95921325683594, -5.941206455230713
695,637099245,0.60762507,0.3086902,-0.65205675,0.33215126,4.05137825012207,-3.506416082382202,-8.048145294189453,-46.87158203125,56.415016174316406, -7.8455891609191895
696,637115912,0.61086684,0.30744338,-0.6507785,0.32986015,4.519993305206299,-0.713916540145874,-8.770187377929688,-18.928611755371094,17.49750328063965, -13.732830047607422
697,637132579,0.6123547,0.3071956,-0.6519899,0.3249029,3.86531925201416,1.1590754985809326,-4.9649858474731445,-28.595352172851562,-8.62895679473877, -20.16305923461914
698,637149246,0.6097747,0.30984142,-0.65344024,0.32432878,2.4897947311401367,1.0641255378723145,-3.0368289947509766,11.332002639770508,-25.032339096069336, -5.0781660079956055
