PacketCounter,SampleTimeFine,Quat_W,Quat_X,Quat_Y,Quat_Z,Acc_X,Acc_Y,Acc_Z,Gyr_X,Gyr_Y,Gyr_Z 
1,3719379601,0.4448626,0.5148233,-0.23683022,0.69351685,0.05082289129495621,-0.011674651876091957,-0.02195504680275917,-0.0039806361310184,0.1871608942747116, -0.006827850826084614
2,3719396268,0.4451152,0.5158256,-0.23610142,0.6928583,15.655695915222168,1.8619699478149414,5.986885070800781,0.6054906845092773,3.4649055004119873, 0.31181544065475464
3,3719412935,0.4439939,0.5146053,-0.23872164,0.69358706,15.548125267028809,2.312328338623047,5.960525989532471,0.20723874866962433,3.488110303878784, -0.2710079550743103
4,3719429602,0.44429183,0.51449496,-0.23880136,0.6934506,15.652263641357422,2.140073537826538,5.990490436553955,0.614314079284668,3.266188859939575, 0.10573562234640121
5,3719446269,0.44431552,0.51444685,-0.23866628,0.6935177,15.516643524169922,2.1842896938323975,6.051751136779785,0.2831035852432251,3.0013537406921387, 0.2425074428319931
6,3719462936,0.44434944,0.51420975,-0.23807678,0.6938743,15.413224220275879,2.181770086288452,5.845139503479004,0.2556467652320862,3.27005672454834, 0.32556939125061035
7,3719479603,0.44514897,0.5139309,-0.23821606,0.6935206,15.757034301757812,2.0840179920196533,6.040181636810303,0.12139780819416046,3.1039202213287354, 0.4610350430011749
8,3719496270,0.4451508,0.5138111,-0.2380584,0.69366235,15.575751304626465,2.2326269149780273,6.099468231201172,0.49937722086906433,2.975651502609253, 0.3323824107646942
9,3719512937,0.44560987,0.5134763,-0.23798908,0.69363916,15.683672904968262,2.204341411590576,5.843349933624268,0.6643485426902771,3.1995575428009033, 0.3180648982524872
10,3719529604,0.44616163,0.5132545,-0.23818839,0.69338024,15.458395004272461,2.049870252609253,5.991430759429932,-0.01969616673886776,2.9923510551452637, 0.33927223086357117
11,3719546271,0.44642064,0.51298875,-0.2381806,0.6934128,15.714519500732422,2.2463135719299316,5.910215854644775,0.029627490788698196,3.4700403213500977, 0.12961946427822113
12,3719562938,0.44633237,0.5129402,-0.23790905,0.6935987,15.77601432800293,2.2083747386932373,6.110860824584961,0.2203780561685562,3.356243133544922, 0.11409815400838852
13,3719579605,0.44741622,0.51245433,-0.23847225,0.69306594,15.46049690246582,2.0367372035980225,5.969101428985596,0.8584544062614441,3.415908098220825, 0.33496925234794617
14,3719596272,0.4481048,0.5120364,-0.2388102,0.6928136,15.48160457611084,2.2476539611816406,5.787496089935303,0.15286299586296082,3.3786163330078125, 0.14726662635803223
15,3719612939,0.44795665,0.5119494,-0.23860702,0.69304353,15.851396560668945,2.1287014484405518,6.213904857635498,-0.24697045981884003,3.163546323776245, 0.5110950469970703
16,3719629606,0.44820923,0.5117233,-0.23863213,0.6930388,15.568619728088379,2.3174681663513184,6.100793838500977,0.7450413703918457,3.104393720626831, 0.31476083397865295
17,3719646273,0.44850767,0.5114158,-0.23866186,0.6930623,15.503140449523926,2.0080442428588867,5.773900985717773,0.6000990867614746,3.415178060531616, 0.7976883053779602
18,3719662940,0.44852468,0.5112098,-0.23855452,0.6932402,15.64423942565918,2.2203145027160645,6.009059906005859,-0.22357326745986938,3.3732247352600098, 0.40687698125839233
19,3719679607,0.44883633,0.510921,-0.2386102,0.6932323,15.479825019836426,2.2408995628356934,6.068716526031494,0.12398466467857361,3.438549518585205, 0.30168554186820984
20,3719696274,0.44939756,0.51053685,-0.23881707,0.6930805,15.640624046325684,2.1667351722717285,5.918939113616943,0.27634182572364807,3.441162586212158, 0.38701432943344116
21,3719712941,0.4498337,0.5102355,-0.2389439,0.69297564,15.41280746459961,2.274998188018799,5.918776988983154,0.2650594115257263,3.2224552631378174, 0.21499939262866974
22,3719729608,0.450139,0.5099411,-0.23896234,0.6929877,15.555564880371094,2.1798415184020996,5.9781718254089355,0.05996573343873024,3.5241732597351074, 0.4090540409088135
23,3719746275,0.45073205,0.50952244,-0.23922159,0.69282067,15.536317825317383,2.222259044647217,6.024889945983887,-0.20984484255313873,3.560952663421631, 0.5220316052436829
24,3719762942,0.45100975,0.50926644,-0.23920237,0.69283485,15.52733325958252,2.307007312774658,5.968080043792725,0.9976337552070618,3.426588773727417, 0.5611422657966614
25,3719779609,0.45131359,0.50899655,-0.23917401,0.6928453,15.487690925598145,2.175321578979492,5.901732444763184,0.7646992206573486,3.540527105331421, 0.4663368761539459
26,3719796276,0.45177186,0.50863105,-0.23931192,0.69276726,15.569639205932617,2.218482255935669,6.0042405128479,0.4142918586730957,3.6663362979888916, 0.7271125316619873
27,3719812943,0.45222607,0.5082574,-0.2394697,0.69269073,15.532845497131348,2.2745306491851807,6.054731845855713,0.11794008314609528,3.600332260131836, 0.7509579062461853
28,3719829610,0.4524343,0.5079693,-0.23939866,0.69279057,15.7174711227417,2.233649730682373,5.965156078338623,0.6046455502510071,3.781466007232666, 0.7598456740379333
29,3719846277,0.45274717,0.5076833,-0.23939592,0.6927968,15.49647331237793,2.239650249481201,6.038676738739014,0.37292733788490295,3.5514636039733887, 0.4346795678138733
30,3719862944,0.45310584,0.50736356,-0.23938216,0.6928013,15.273429870605469,2.2581446170806885,5.838590145111084,0.7613952159881592,3.8564858436584473, 0.47719666361808777
31,3719879611,0.4535036,0.5069067,-0.2394126,0.69286484,15.636458396911621,2.1762285232543945,6.011751174926758,-0.5281594395637512,4.089176177978516, 0.43726640939712524
32,3719896278,0.45380098,0.5065201,-0.2393421,0.69297737,15.527305603027344,2.3105902671813965,6.15720796585083,0.5362467169761658,3.5537302494049072, 0.34293487668037415
33,3719912945,0.45422733,0.5060695,-0.23936637,0.69301885,15.433871269226074,2.230194568634033,5.9908270835876465,0.44880494475364685,3.4853055477142334, 0.34311410784721375
34,3719929612,0.45446345,0.50567496,-0.2392217,0.6932019,15.482855796813965,2.3359789848327637,5.799623966217041,1.5559778213500977,3.7706568241119385, 0.6786404252052307
35,3719946279,0.4547293,0.5052091,-0.23927502,0.6933488,15.815275192260742,2.2904205322265625,6.295279502868652,-0.04388735443353653,3.3687806129455566, 1.118525743484497
36,3719962946,0.45502132,0.50473166,-0.23926374,0.69350886,15.337308883666992,2.221297025680542,5.89276647567749,0.5068049430847168,3.7480032444000244, 0.968525230884552
37,3719979613,0.45524505,0.5042774,-0.23923564,0.6937021,15.686450958251953,2.197744369506836,5.834725379943848,0.1894763559103012,3.585899829864502, 0.9902063608169556
38,3719996280,0.45546043,0.50382936,-0.23921576,0.69389313,15.617019653320312,2.1000571250915527,6.087636947631836,0.14483343064785004,3.5059754848480225, 1.0211336612701416
39,3720012947,0.4558146,0.50331414,-0.23924725,0.69402367,15.587854385375977,2.2631819248199463,5.972705841064453,-0.43752896785736084,3.7438790798187256, 0.6443322896957397
40,3720029614,0.4560039,0.5028577,-0.23914897,0.69426394,15.612565994262695,2.183389902114868,6.023979663848877,0.18741455674171448,3.850517988204956, 0.8493492007255554
41,3720046281,0.45624274,0.5023988,-0.23907426,0.6944651,15.566650390625,2.2208616733551025,5.987419128417969,0.006102226208895445,3.758542060852051, 0.6493908762931824
42,3720062948,0.45650607,0.5019433,-0.2390056,0.69464505,15.523652076721191,2.215017318725586,5.9835662841796875,0.7089788317680359,3.8074116706848145, 0.8342377543449402
43,3720079615,0.45680088,0.5014404,-0.23902483,0.69480777,15.563677787780762,2.156141996383667,6.05673885345459,-0.3695400655269623,3.6991724967956543, 0.8586595058441162
44,3720096282,0.45696408,0.5010263,-0.23891081,0.6950384,15.703424453735352,2.2743191719055176,6.064558029174805,0.8195104002952576,3.6708314418792725, 0.9743391871452332
45,3720112949,0.4571814,0.5005685,-0.23885965,0.69524276,15.407979011535645,2.1999406814575195,6.038167476654053,0.3041188418865204,3.7031428813934326, 0.989297091960907
46,3720129616,0.45722726,0.50014085,-0.23865885,0.6955892,15.626520156860352,2.325467586517334,5.945048809051514,0.109603151679039,3.984919786453247, 0.9222043752670288
47,3720146283,0.45725217,0.4997332,-0.23858543,0.69589096,15.648961067199707,2.194011688232422,6.201879978179932,-0.4456609785556793,3.3037374019622803, 1.2864938974380493
48,3720162950,0.4572575,0.49934223,-0.2384438,0.69621664,15.642624855041504,2.2109615802764893,5.9868621826171875,0.03886086493730545,3.486983299255371, 1.1922646760940552
49,3720179617,0.45748213,0.49887523,-0.23847204,0.69639415,15.56119441986084,2.073190212249756,5.9491143226623535,0.01210840418934822,3.4460034370422363, 1.2442585229873657
50,3720196284,0.45755723,0.49846298,-0.23834722,0.6966827,15.439128875732422,2.235152006149292,6.059318542480469,-0.4012613892555237,3.5298593044281006, 0.8358896970748901
51,3720212951,0.45757154,0.4980477,-0.23810513,0.69705296,15.63394546508789,2.228173017501831,5.910379886627197,0.4876337945461273,4.09231424331665, 0.9863386750221252
52,3720229618,0.4575989,0.49762678,-0.23797934,0.6973786,15.666986465454102,2.1338069438934326,6.136001110076904,-0.20426131784915924,3.626970052719116, 1.1925978660583496
53,3720246285,0.45760822,0.49723497,-0.23777223,0.69772255,15.450606346130371,2.330599069595337,6.059248924255371,0.3736957013607025,3.7770471572875977, 1.011836051940918
54,3720262952,0.45758092,0.4968033,-0.23763031,0.69809604,15.764250755310059,2.075011730194092,6.0342326164245605,0.10991048812866211,3.804567813873291, 1.5722930431365967
55,3720279619,0.4575121,0.49640694,-0.23746024,0.69848084,15.48780632019043,2.2453784942626953,6.111914157867432,0.512465238571167,3.6976733207702637, 1.6487854719161987
56,3720296286,0.45748731,0.49596754,-0.23730354,0.6988624,15.565436363220215,2.1872899532318115,6.002630710601807,0.1553858369588852,3.922757863998413, 1.5442216396331787
57,3720312953,0.4575029,0.49553606,-0.23712508,0.6992189,15.48559284210205,2.0293173789978027,6.088633060455322,0.10892440378665924,3.9370625019073486, 1.1858359575271606
58,3720329620,0.45754054,0.49506688,-0.23694125,0.6995887,15.576772689819336,2.066002368927002,6.047260284423828,-0.03779154270887375,4.2171759605407715, 1.1620675325393677
59,3720346287,0.45757294,0.4946183,-0.23676401,0.69994473,15.578068733215332,2.0608551502227783,5.944064140319824,-0.00919495988637209,4.0445332527160645, 1.131421685218811
60,3720362954,0.45758212,0.49421373,-0.23659328,0.7002823,15.581853866577148,2.1827445030212402,6.214358329772949,0.14564023911952972,3.716204881668091, 1.1343803405761719
61,3720379621,0.4575789,0.49379876,-0.236408,0.7006395,15.489879608154297,2.141896963119507,6.023370265960693,0.25778546929359436,3.8556149005889893, 1.2253566980361938
62,3720396288,0.45753717,0.49339274,-0.23623554,0.7010108,15.870219230651855,2.151074171066284,6.193516254425049,0.37698695063591003,3.7561988830566406, 1.4846466779708862
63,3720412955,0.45750874,0.49300057,-0.23600443,0.7013832,15.251030921936035,2.1389105319976807,5.940000057220459,0.6603017449378967,3.8977086544036865, 1.2016772031784058
64,3720429622,0.4575199,0.4925368,-0.2358844,0.7017419,15.659148216247559,1.9327740669250488,5.909742832183838,-0.25710028409957886,3.909938335418701, 1.4614286422729492
65,3720446289,0.4575672,0.492076,-0.2357886,0.70206636,16.087663650512695,2.1565945148468018,6.306276798248291,-0.5416318774223328,3.765483856201172, 1.2537994384765625
66,3720462956,0.45761275,0.49166492,-0.23567717,0.7023621,15.44700813293457,2.18739914894104,6.1255364418029785,-0.35072752833366394,3.474433422088623, 1.0385502576828003
67,3720479623,0.45753315,0.49128777,-0.23540395,0.70276946,15.90726089477539,1.9770829677581787,5.873197555541992,1.1404502391815186,3.992205858230591, 1.3939135074615479
68,3720496290,0.45753095,0.4908614,-0.23521984,0.7031303,15.58194351196289,2.0399625301361084,6.084065914154053,0.21887971460819244,3.924255847930908, 1.2523905038833618
69,3720512957,0.45749035,0.49046695,-0.23496784,0.7035162,15.656943321228027,2.238062858581543,6.123620986938477,0.8176405429840088,4.005794048309326, 1.2356654405593872
70,3720529624,0.45753843,0.49000597,-0.23492312,0.70382106,15.562458038330078,1.8224172592163086,5.919159889221191,-0.8249083161354065,3.546635866165161, 1.3612959384918213
71,3720546291,0.45751497,0.4896008,-0.23478308,0.7041648,15.63200855255127,2.136477470397949,5.970738410949707,0.1162368506193161,3.5947751998901367, 1.4143143892288208
72,3720562958,0.45749387,0.48916095,-0.23460893,0.7045421,15.634750366210938,2.127526044845581,6.098537921905518,0.21763752400875092,3.9901320934295654, 1.4516959190368652
73,3720579625,0.45740467,0.48874736,-0.234407,0.70495427,15.787019729614258,1.9809550046920776,6.102414608001709,0.7194542288780212,3.9587435722351074, 1.7566789388656616
74,3720596292,0.457409,0.48829892,-0.23430762,0.7052952,15.917945861816406,2.0346567630767822,6.147817611694336,-0.3162144422531128,3.7188045978546143, 1.478410005569458
75,3720612959,0.45737064,0.48791865,-0.23401669,0.70567954,15.273804664611816,2.048586368560791,5.818178653717041,1.040022850036621,4.070569038391113, 1.0686194896697998
76,3720629626,0.45738736,0.4874563,-0.2338501,0.7060435,16.059354782104492,1.9588314294815063,5.915891170501709,-0.039622850716114044,4.101483345031738, 1.2878258228302002
77,3720646293,0.457452,0.48703516,-0.23377344,0.70631766,15.65160846710205,2.1089248657226562,6.349000453948975,-0.6514590382575989,3.4016549587249756, 1.0061886310577393
78,3720662960,0.4574256,0.4866713,-0.23352972,0.70666605,15.568708419799805,2.0310940742492676,5.757043361663818,0.7636619806289673,3.7482972145080566, 1.031724452972412
79,3720679627,0.45748463,0.48623717,-0.23345356,0.70695186,16.18250846862793,1.8677314519882202,6.152920722961426,-0.6588610410690308,3.4973690509796143, 1.093758225440979
80,3720696294,0.45750856,0.48589867,-0.23327418,0.7072281,15.200602531433105,2.1647098064422607,6.011364459991455,0.24646461009979248,3.273463010787964, 0.7324655652046204
81,3720712961,0.45751843,0.4854445,-0.23315126,0.70757407,15.460677146911621,1.9103225469589233,5.673166275024414,-0.2348044067621231,3.8683691024780273, 1.3979346752166748
82,3720729628,0.4575556,0.4849888,-0.23313372,0.70786834,15.869095802307129,1.9898937940597534,6.052127361297607,-0.9263731241226196,3.4230031967163086, 1.4557299613952637
83,3720746295,0.45753783,0.4845841,-0.2330596,0.7081814,15.82938003540039,2.2353925704956055,6.34719181060791,-0.277731329202652,3.3312840461730957, 1.5109508037567139
84,3720762962,0.45750412,0.4841827,-0.23288418,0.7085352,15.426514625549316,1.9245719909667969,5.842372417449951,0.3424994945526123,3.743380069732666, 1.3772399425506592
85,3720779629,0.45748955,0.48377466,-0.2326774,0.70889133,15.784729957580566,2.0649311542510986,5.907163143157959,0.414983332157135,3.917891263961792, 1.196734070777893
86,3720796296,0.45749405,0.4833768,-0.23254219,0.709204,15.559344291687012,2.063485860824585,6.09963321685791,-0.03675422444939613,3.5355963706970215, 1.1890504360198975
87,3720812963,0.4575051,0.4829795,-0.23241788,0.70950824,15.50349235534668,1.9547401666641235,5.780152797698975,-0.1239270493388176,3.4826550483703613, 1.1673566102981567
88,3720829630,0.457567,0.4825711,-0.23236044,0.70976496,15.873841285705566,1.9551992416381836,5.987894535064697,-0.7303460836410522,3.2572500705718994, 1.0094283819198608
89,3720846297,0.45756096,0.48222303,-0.23216762,0.7100685,15.445158958435059,2.0723884105682373,5.978549957275391,0.4203748106956482,3.4418022632598877, 0.9414267539978027
90,3720862964,0.45756915,0.48183194,-0.23201603,0.71037817,15.56324577331543,2.0799427032470703,5.785139083862305,0.04457250237464905,3.5676379203796387, 1.0982789993286133
91,3720879631,0.45758596,0.48144794,-0.23193136,0.7106553,15.505722999572754,1.9694032669067383,5.9866042137146,-0.3415069282054901,3.2336738109588623, 1.1659092903137207
92,3720896298,0.4575158,0.4811273,-0.23166451,0.71100473,15.405147552490234,2.0567615032196045,5.673571586608887,1.1518865823745728,3.5949671268463135, 1.113582730293274
93,3720912965,0.45758545,0.4807072,-0.23159452,0.7112667,15.661949157714844,1.9719001054763794,6.017672538757324,-0.725492537021637,3.3952388763427734, 0.9656692147254944
94,3720929632,0.4575919,0.48032042,-0.23138338,0.7115925,15.730602264404297,2.077820062637329,5.843624591827393,0.38111063838005066,3.7830541133880615, 0.9548863768577576
95,3720946299,0.45764557,0.47993687,-0.23124616,0.71186125,15.598084449768066,2.029153347015381,5.916268348693848,-0.2176567018032074,3.4221701622009277, 0.7838830351829529
96,3720962966,0.4575946,0.4795986,-0.2310399,0.71218896,15.646807670593262,1.941523551940918,5.940462589263916,0.7020120024681091,3.4450552463531494, 1.1821476221084595
97,3720979633,0.45760113,0.47923806,-0.2309606,0.71245325,15.525660514831543,2.0306472778320312,5.74472188949585,-0.279396116733551,3.037506103515625, 1.154511570930481
98,3720996300,0.45760137,0.4789043,-0.23084506,0.71271497,15.52655029296875,2.048039197921753,5.9185791015625,-0.00227953027933836,3.0039660930633545, 1.015114426612854
99,3721012967,0.45762044,0.4785255,-0.23073119,0.71299386,15.341629981994629,1.8454900979995728,5.69877815246582,-0.18724161386489868,3.307130813598633, 1.055083155632019
100,3721029634,0.45770538,0.47812134,-0.23057191,0.7132619,15.478638648986816,2.175299882888794,5.805001735687256,-0.2778337597846985,3.6457180976867676, 0.586883008480072
101,3721046301,0.45774227,0.47774744,-0.23040092,0.7135439,15.718382835388184,1.8771791458129883,5.796614646911621,0.05306311324238777,3.5071792602539062, 0.7830250859260559
102,3721062968,0.457763,0.47737926,-0.23023821,0.71382946,15.597784996032715,2.0461127758026123,5.898658752441406,0.08983013778924942,3.444312572479248, 0.8903422355651855
103,3721079635,0.45774686,0.4770537,-0.22994263,0.71415275,15.392902374267578,2.094761848449707,5.679691314697266,1.0560564994812012,3.722262382507324, 0.6876819133758545
104,3721096302,0.45782575,0.4766233,-0.22973333,0.71445686,15.57941722869873,1.8695907592773438,5.637193202972412,-0.04137731343507767,4.057339668273926, 0.6107667684555054
105,3721112969,0.45796475,0.4761813,-0.22950748,0.7147349,15.19327449798584,1.923736810684204,5.738534450531006,-0.2349068522453308,4.182841777801514, 0.1951751708984375
106,3721129636,0.45804915,0.47579718,-0.22914618,0.71505266,15.36347484588623,2.160680055618286,5.5482497215271,0.8541514277458191,4.371338844299316, 0.05379306897521019
107,3721146303,0.45820025,0.4753599,-0.22911955,0.7152551,15.766414642333984,1.8473737239837646,6.005771160125732,-1.3611228466033936,3.3145718574523926, 0.5444427728652954
108,3721162970,0.45821828,0.47508842,-0.22894989,0.7154782,15.492332458496094,2.2709145545959473,5.836430549621582,0.33335569500923157,2.8113458156585693, 0.5331091284751892
109,3721179637,0.45823714,0.4747947,-0.2287624,0.7157212,14.990092277526855,2.129239797592163,5.538954257965088,0.3763081729412079,3.0478920936584473, 0.573052167892456
110,3721196304,0.4582655,0.4744253,-0.22863616,0.71598816,15.349061965942383,1.920351266860962,5.585393905639648,-0.15886275470256805,3.32600736618042, 0.9233569502830505
111,3721212971,0.45826334,0.47408772,-0.22841208,0.7162846,14.902409553527832,2.2462143898010254,5.708125591278076,0.5685698986053467,3.5334322452545166, 0.7958442568778992
112,3721229638,0.45820892,0.47373047,-0.22818276,0.71662885,15.296985626220703,2.1242682933807373,5.557485103607178,0.7756359577178955,3.7231714725494385, 1.2229106426239014
113,3721246305,0.4581687,0.47338706,-0.22807959,0.71691424,15.69098949432373,2.200030565261841,5.809582710266113,0.057071492075920105,3.0968117713928223, 1.3578124046325684
114,3721262972,0.45805326,0.47307378,-0.22802596,0.7172118,15.362866401672363,2.133631944656372,5.802155017852783,0.1696777194738388,2.7215347290039062, 1.882488489151001
115,3721279639,0.4579279,0.47274685,-0.22796546,0.71752656,15.37859058380127,2.0627806186676025,5.5070295333862305,0.2186235934495926,2.856590747833252, 1.9865912199020386
116,3721296306,0.45784634,0.47236216,-0.22794417,0.7178387,15.139785766601562,1.9226157665252686,5.463654041290283,-0.3042788505554199,3.0882959365844727, 1.9805212020874023
117,3721312973,0.4577704,0.47198334,-0.22791298,0.7181461,15.305889129638672,1.9910647869110107,5.537676811218262,-0.2634650468826294,3.0927019119262695, 1.8949490785598755
118,3721329640,0.45776653,0.47157177,-0.22788276,0.71842843,15.280635833740234,1.94650399684906,5.5880656242370605,-0.6450942158699036,3.292480230331421, 1.5150487422943115
119,3721346307,0.45777294,0.4711903,-0.22784998,0.718685,15.336592674255371,2.0044150352478027,5.601596355438232,-0.6122459769248962,3.092726945877075, 1.3273077011108398
120,3721362974,0.45777303,0.47081965,-0.22779758,0.71894443,15.431119918823242,2.0039565563201904,5.64121675491333,-0.4575836658477783,3.1094777584075928, 1.2875438928604126
121,3721379641,0.4577033,0.470476,-0.22763231,0.7192661,14.942965507507324,1.8118163347244263,5.439053535461426,0.5080087184906006,3.4290733337402344, 1.421203851699829
122,3721396308,0.45772687,0.47010952,-0.22749442,0.7195342,15.560957908630371,1.9756395816802979,5.628516674041748,-0.08352301269769669,3.4292263984680176, 0.9136625528335571
123,3721412975,0.45771077,0.46984446,-0.22716329,0.7198222,15.145896911621094,1.918628454208374,5.3912553787231445,1.3511018753051758,3.5377352237701416, 0.3882821500301361
124,3721429642,0.45776874,0.4695415,-0.22688545,0.7200707,15.128960609436035,1.8299518823623657,5.47776985168457,0.6675501465797424,3.544701337814331, 0.12796743214130402
125,3721446309,0.4578586,0.46926466,-0.22648986,0.7203185,15.34884262084961,1.964964509010315,5.49566125869751,1.229774832725525,3.83156418800354, -0.45502251386642456
126,3721462976,0.45792696,0.46896172,-0.22604264,0.7206127,15.138233184814453,1.844732642173767,5.538642406463623,1.5446829795837402,4.239703178405762, -0.3287902772426605
127,3721479643,0.45790672,0.4687127,-0.22549765,0.72095823,15.624926567077637,2.0867183208465576,5.757103443145752,2.565553665161133,4.306884288787842, -0.1282043755054474
128,3721496310,0.4578369,0.4684256,-0.22534698,0.7212362,15.417352676391602,2.0727956295013428,5.610318660736084,0.5448652505874634,2.9600913524627686, 1.235883116722107
129,3721512977,0.45773482,0.46813247,-0.22523506,0.72152615,15.077775001525879,2.0477311611175537,5.351235866546631,0.45533621311187744,2.858704090118408, 1.5689891576766968
130,3721529644,0.4577139,0.46773225,-0.22520871,0.72180724,15.539082527160645,1.974571704864502,5.56238317489624,-0.5822919011116028,3.2218663692474365, 1.5812960863113403
131,3721546311,0.45766005,0.46735102,-0.22510119,0.72212183,15.293481826782227,2.021174192428589,5.434807300567627,0.03784916549921036,3.444953203201294, 1.5593972206115723
132,3721562978,0.45754606,0.46700707,-0.2250328,0.7224378,15.358262062072754,1.9450823068618774,5.572376251220703,0.15502725541591644,3.053539514541626, 1.931613564491272
133,3721579645,0.45741147,0.4666705,-0.22493233,0.72277176,15.798822402954102,1.8372431993484497,5.621992111206055,0.4314395487308502,3.148216962814331, 1.9757444858551025
134,3721596312,0.45735452,0.46634725,-0.2246503,0.7231041,15.501770973205566,2.215942621231079,5.637582302093506,1.1239688396453857,3.775907516479492, 0.9790904521942139
135,3721612979,0.4571582,0.46611252,-0.22412604,0.7235423,15.266509056091309,1.8204818964004517,5.463777542114258,3.213721752166748,4.226832389831543, 1.0949366092681885
136,3721629646,0.45713437,0.46575248,-0.22381362,0.7238855,15.104886054992676,1.7730838060379028,5.209000587463379,1.0675437450408936,4.153131484985352, 0.8091244697570801
137,3721646313,0.45712864,0.46537772,-0.22366337,0.7241767,15.865392684936523,1.9336960315704346,5.691432476043701,0.07594805955886841,3.5885634422302246, 1.0955768823623657
138,3721662980,0.45711473,0.46503085,-0.22357605,0.7244353,16.03852653503418,2.046915292739868,5.86580753326416,-0.17412792146205902,3.1438369750976562, 1.192175030708313
139,3721679647,0.45706475,0.46474215,-0.22358137,0.72465026,15.31045150756836,2.1915605068206787,5.593179702758789,-0.40639668703079224,2.376173257827759, 1.4423854351043701
140,3721696314,0.45708758,0.4643398,-0.22353992,0.72490656,15.286540031433105,1.7709226608276367,5.102142810821533,-0.7027484774589539,3.339672088623047, 1.2395074367523193
141,3721712981,0.45695534,0.46403953,-0.22322449,0.72527933,15.55198860168457,1.891289472579956,5.415707588195801,1.6571224927902222,3.840310573577881, 1.3448524475097656
142,3721729648,0.4568885,0.4637125,-0.22316109,0.72555006,15.503691673278809,1.9468086957931519,5.699100971221924,-0.05000879615545273,2.969068765640259, 1.5429409742355347
143,3721746315,0.4568155,0.46343568,-0.2231644,0.72577184,15.422739028930664,1.8889391422271729,5.447906970977783,-0.2817396819591522,2.350611925125122, 1.556310772895813
144,3721762982,0.45674378,0.46316484,-0.22323851,0.725967,15.64210033416748,1.9033608436584473,5.450225830078125,-0.6623700261116028,2.0268287658691406, 1.682927131652832
145,3721779649,0.4565973,0.46294272,-0.22329414,0.72618365,15.029349327087402,1.9043530225753784,5.394374370574951,-0.14755477011203766,1.8089163303375244, 1.9901388883590698
146,3721796316,0.4565986,0.4626291,-0.22348665,0.7263236,15.209942817687988,1.83316969871521,5.32541036605835,-1.7079955339431763,1.8271138668060303, 1.589146375656128
147,3721812983,0.45662037,0.4623287,-0.22364332,0.7264529,15.496475219726562,1.7870930433273315,5.476212978363037,-1.5700457096099854,1.8833980560302734, 1.31966233253479
148,3721829650,0.45654076,0.46215513,-0.22375306,0.72657955,15.476248741149902,1.9937083721160889,5.4731221199035645,-0.6202242374420166,1.2453726530075073, 1.4721858501434326
149,3721846317,0.45664698,0.46190348,-0.22405505,0.7265798,15.144930839538574,1.960950493812561,5.418982028961182,-2.613187074661255,0.9287099838256836, 0.8814547061920166
150,3721862984,0.45663932,0.461672,-0.22416072,0.7266992,15.697627067565918,1.6077815294265747,5.571542263031006,-1.0270053148269653,1.657865285873413, 1.1725174188613892
151,3721879651,0.45653284,0.46155044,-0.22399646,0.72689396,15.489418983459473,2.1109797954559326,5.418612957000732,1.0980998277664185,2.052762031555176, 0.8720548748970032
152,3721896318,0.4564287,0.46132025,-0.22403198,0.72709435,15.42173957824707,1.6779818534851074,5.560275077819824,-0.2429492473602295,1.9944798946380615, 1.6843743324279785
153,3721912985,0.45631698,0.4611369,-0.22408886,0.72726315,15.314977645874023,1.9693669080734253,5.318552017211914,-0.22509723901748657,1.579516053199768, 1.615092158317566
154,3721929652,0.45621502,0.4609128,-0.22411823,0.7274602,15.05965805053711,1.802266240119934,5.313042640686035,-0.20394110679626465,1.9739001989364624, 1.6333280801773071
155,3721946319,0.45601764,0.4607612,-0.22400637,0.7277145,14.98709774017334,1.7408101558685303,5.084177494049072,1.1204211711883545,2.084752082824707, 1.7301827669143677
156,3721962986,0.4558206,0.46057585,-0.22398832,0.72796077,15.315668106079102,1.7857880592346191,5.556596279144287,0.5328530669212341,1.9357887506484985, 2.0516605377197266
157,3721979653,0.45551357,0.46047026,-0.22379471,0.72827923,15.084182739257812,1.7329586744308472,5.211466312408447,2.12176251411438,2.1417148113250732, 2.1486175060272217
158,3721996320,0.45531982,0.46031526,-0.22395566,0.72844887,15.40452766418457,1.9711484909057617,5.364649772644043,-0.39529356360435486,0.9828551411628723, 2.3129868507385254
159,3722012987,0.45512006,0.46019685,-0.22407866,0.7286106,15.1828031539917,1.7811598777770996,5.326390266418457,-0.08563606441020966,0.8856936097145081, 2.1445064544677734
160,3722029654,0.45501465,0.4600386,-0.2242428,0.7287259,14.760766983032227,1.5540380477905273,4.986184120178223,-0.7863611578941345,0.9570249915122986, 1.7184009552001953
161,3722046321,0.45506352,0.45982328,-0.22442302,0.7287758,15.307394981384277,1.5599526166915894,5.227808952331543,-1.6332066059112549,1.2280457019805908, 0.876895546913147
162,3722062988,0.4550093,0.4597636,-0.22428106,0.728891,15.15086841583252,1.5468614101409912,5.349761009216309,0.8959770798683167,1.5099775791168213, 0.33619868755340576
163,3722079655,0.45480645,0.45989662,-0.22375084,0.7290967,14.845232963562012,1.7106462717056274,5.0411376953125,4.054957866668701,1.8192510604858398, -0.1632937788963318
164,3722096322,0.45456484,0.4601164,-0.22299269,0.729341,15.361335754394531,1.802671194076538,5.406591892242432,5.6492838859558105,2.165534257888794, -0.7026459574699402
165,3722112989,0.45439133,0.46035632,-0.22241755,0.7294733,14.446539878845215,1.6669727563858032,5.2590413093566895,4.405903339385986,1.249214768409729, -0.8446940779685974
166,3722129656,0.4543429,0.46045694,-0.22243166,0.72943544,14.772221565246582,1.9509462118148804,5.135176181793213,0.35890433192253113,-0.23946590721607208, 0.07456497102975845
167,3722146323,0.45422748,0.4604578,-0.22247276,0.72949433,14.695960998535156,1.8079382181167603,5.301573753356934,0.26855555176734924,0.38768017292022705, 0.9554239511489868
168,3722162990,0.4540327,0.46047392,-0.22223045,0.7296793,14.414885520935059,2.0470633506774902,4.937328815460205,2.180492401123047,1.4777952432632446, 0.8280907273292542
169,3722179657,0.45390883,0.4604085,-0.22213942,0.7298254,14.79440689086914,1.7757495641708374,5.201101779937744,0.8787268400192261,1.409037709236145, 0.9611997008323669
170,3722196324,0.45357525,0.46054417,-0.22188093,0.7300256,14.331245422363281,1.870283603668213,5.098393440246582,3.0918946266174316,0.7820645570755005, 1.3453134298324585
171,3722212991,0.45330694,0.4605985,-0.22184657,0.73016846,14.388216972351074,1.9426674842834473,5.075068950653076,1.4174388647079468,0.41628962755203247, 1.675947904586792
172,3722229658,0.45303673,0.4606539,-0.22188231,0.7302905,14.103202819824219,1.6405892372131348,4.955694198608398,1.0395746231079102,0.13105379045009613, 1.8443641662597656
173,3722246325,0.45276666,0.46078488,-0.22182544,0.73039234,14.157816886901855,1.8308793306350708,4.741440296173096,1.7091035842895508,-0.01516271848231554, 1.3715792894363403
174,3722262992,0.45255113,0.4609604,-0.2217542,0.730437,14.032748222351074,1.6131207942962646,4.9282026290893555,1.6566482782363892,-0.27871736884117126, 0.8084967732429504
175,3722279659,0.4523293,0.46123052,-0.2215469,0.7304667,13.820311546325684,1.5726799964904785,4.882293701171875,2.6311862468719482,-0.37918320298194885, 0.21643373370170593
176,3722296326,0.4521851,0.46149737,-0.22122872,0.73048407,13.655208587646484,1.859501838684082,4.818543910980225,2.91275954246521,0.06895579397678375, -0.5599832534790039
177,3722312993,0.45199284,0.46181682,-0.221071,0.7304487,13.820344924926758,1.6751850843429565,4.884924411773682,2.339662551879883,-0.9264242649078369, -0.04872816056013107
178,3722329660,0.45164552,0.4621842,-0.22088239,0.7304883,13.746718406677246,1.8436564207077026,4.918924808502197,3.2486698627471924,-1.0598664283752441, 0.7916949391365051
179,3722346327,0.45138368,0.46251318,-0.2207196,0.7304912,13.198671340942383,1.950013279914856,4.484606742858887,2.6694517135620117,-0.9256558418273926, 0.39249542355537415
180,3722362994,0.4511228,0.4627802,-0.22066078,0.73050106,13.428118705749512,1.5464377403259277,4.7195234298706055,1.9580461978912354,-0.9021817445755005, 0.8401670455932617
181,3722379661,0.45079914,0.46313477,-0.22069699,0.7304651,12.980202674865723,1.9008586406707764,4.590391159057617,1.882936954498291,-1.8716481924057007, 1.1802908182144165
182,3722396328,0.45049646,0.46339428,-0.22089873,0.7304263,13.056671142578125,1.7810218334197998,4.645992279052734,0.6833020448684692,-1.8858633041381836, 1.7426562309265137
183,3722412995,0.45018113,0.4636116,-0.22118734,0.7303955,13.255877494812012,1.6789411306381226,4.4497551918029785,0.16869163513183594,-1.9418010711669922, 2.1736154556274414
184,3722429662,0.4497981,0.46386275,-0.22142173,0.7304009,12.807979583740234,1.8515148162841797,4.491386890411377,0.8169105648994446,-1.9313894510269165, 2.40059494972229
185,3722446329,0.44943896,0.4640771,-0.22170232,0.73040086,12.418841361999512,1.6477278470993042,4.2279953956604,0.3857976496219635,-1.8770651817321777, 2.471388578414917
186,3722462996,0.4490676,0.46431044,-0.22183892,0.7304394,12.760581970214844,1.6489131450653076,4.459466457366943,1.2666568756103516,-1.4292271137237549, 2.163985252380371
187,3722479663,0.4486762,0.46459842,-0.22211604,0.73041266,12.39190673828125,1.6238824129104614,4.588926792144775,0.694469153881073,-2.3824164867401123, 2.427398920059204
188,3722496330,0.44827694,0.46489134,-0.22258177,0.7303296,12.434538841247559,1.6921714544296265,4.174090385437012,-0.29705607891082764,-3.1922519207000732, 2.8884401321411133
189,3722512997,0.4480454,0.4651145,-0.22327992,0.7301166,12.374749183654785,1.6438488960266113,4.366425037384033,-2.414381504058838,-3.7178375720977783, 2.497628927230835
190,3722529664,0.4476906,0.46543965,-0.2238139,0.72996354,11.864623069763184,1.518019676208496,3.9522037506103516,-0.7892169952392578,-3.7263283729553223, 2.6210310459136963
191,3722546331,0.44733617,0.46579373,-0.2241979,0.72983694,12.047952651977539,1.804081678390503,4.083512783050537,0.09212248772382736,-3.325899124145508, 2.175690174102783
192,3722562998,0.44707415,0.46607482,-0.22479074,0.72963566,12.039056777954102,1.4805395603179932,4.128721237182617,-1.5934301614761353,-3.699780225753784, 2.2690229415893555
193,3722579665,0.44671527,0.46646342,-0.22532894,0.72944117,11.613306999206543,1.6619559526443481,3.856010913848877,-0.666813850402832,-4.199714660644531, 2.4340450763702393
194,3722596332,0.4464366,0.46683836,-0.22598068,0.7291701,11.64486312866211,1.508620262145996,3.8931846618652344,-1.6551824808120728,-4.6000285148620605, 2.1861913204193115
195,3722612999,0.44618073,0.46727479,-0.22662443,0.72884744,11.495748519897461,1.421757698059082,3.904625177383423,-1.5800219774246216,-5.012994766235352, 1.7932027578353882
196,3722629666,0.44599223,0.46772456,-0.22730888,0.7284611,11.403684616088867,1.5800179243087769,3.7278053760528564,-2.0593504905700684,-5.3046722412109375, 1.3692229986190796
197,3722646333,0.4458293,0.46816152,-0.22812276,0.7280255,11.446956634521484,1.5043390989303589,3.912431240081787,-2.9073362350463867,-5.752267360687256, 1.5300452709197998
198,3722663000,0.4455693,0.46869385,-0.22883093,0.7276199,10.932849884033203,1.5308068990707397,3.630295515060425,-1.7278330326080322,-5.96099853515625, 1.6197282075881958
199,3722679667,0.4453605,0.46916518,-0.2297458,0.7271555,10.989527702331543,1.6083736419677734,3.640207529067993,-3.2080554962158203,-6.396453380584717, 1.9488773345947266
200,3722696334,0.4452457,0.46959403,-0.23075025,0.7266306,10.848609924316406,1.4198622703552246,3.624842643737793,-4.189457416534424,-6.502695083618164, 1.654305338859558
201,3722713001,0.44498676,0.4701538,-0.23167868,0.72613186,10.61220932006836,1.4456855058670044,3.460779905319214,-2.9017271995544434,-7.066468238830566, 2.003432035446167
202,3722729668,0.4447724,0.47071025,-0.23268126,0.72558177,10.714266777038574,1.4348527193069458,3.5149247646331787,-3.5047268867492676,-7.368313312530518, 1.8742800951004028
203,3722746335,0.44454765,0.47129446,-0.23397307,0.7249248,10.410696029663086,1.3258978128433228,3.547975778579712,-5.002917766571045,-8.750542640686035, 2.4935059547424316
204,3722763002,0.44432873,0.47193488,-0.23544215,0.72416615,10.379796028137207,1.4682029485702515,3.4116363525390625,-5.895367622375488,-9.892794609069824, 2.639972686767578
205,3722779669,0.44413516,0.47252843,-0.23690811,0.7234195,10.148781776428223,1.498551607131958,3.2460551261901855,-6.092239856719971,-9.567986488342285, 2.619328737258911
206,3722796336,0.44387197,0.4731109,-0.23821376,0.72277105,10.338672637939453,1.265210747718811,3.3398892879486084,-4.9460577964782715,-8.814115524291992, 2.7684967517852783
207,3722813003,0.44354784,0.47377843,-0.23967806,0.7220483,9.783125877380371,1.3084862232208252,3.146170139312744,-5.396713733673096,-10.058073043823242, 3.2239038944244385
208,3722829670,0.44338512,0.4743502,-0.24153206,0.72115445,9.883509635925293,1.2414884567260742,3.1740050315856934,-8.431732177734375,-11.060110092163086, 3.3322978019714355
209,3722846337,0.44324958,0.47492066,-0.24325967,0.72028106,9.856826782226562,1.2235664129257202,3.0088400840759277,-7.862452983856201,-10.55379867553711, 2.8535449504852295
210,3722863004,0.44313514,0.47546765,-0.24489038,0.7194377,9.597716331481934,1.2098456621170044,2.7959227561950684,-7.476159572601318,-10.002482414245605, 2.5653631687164307
211,3722879671,0.4429328,0.4760514,-0.24639878,0.71866083,9.242988586425781,1.1823023557662964,2.9881560802459717,-6.36013650894165,-9.734560012817383, 2.7449848651885986
212,3722896338,0.442868,0.47654092,-0.24787328,0.71786886,9.494673728942871,1.1991825103759766,2.870711088180542,-6.953902721405029,-8.981675148010254, 2.073457956314087
213,3722913005,0.44283503,0.47701827,-0.24908158,0.7171534,9.004487991333008,1.2092537879943848,2.9371941089630127,-5.654505252838135,-7.801337242126465, 1.3007094860076904
214,3722929672,0.44285628,0.47748578,-0.25010708,0.7164722,9.040046691894531,1.1569299697875977,2.9139771461486816,-4.90292501449585,-6.992217063903809, 0.5610014796257019
215,3722946339,0.44289526,0.47803554,-0.2511631,0.7157117,8.851778030395508,1.2291043996810913,2.7046048641204834,-4.998268127441406,-7.720398426055908, 0.1954057216644287
216,3722963006,0.4430946,0.47847062,-0.25238726,0.71486634,8.63837718963623,0.9238373041152954,2.665283441543579,-6.852731704711914,-7.666894912719727, -0.09566345810890198
217,3722979673,0.44321504,0.4789371,-0.25339603,0.71412206,8.748515129089355,1.0097328424453735,2.5535850524902344,-5.262131690979004,-6.9670023918151855, -0.16296085715293884
218,3722996340,0.4430727,0.47959954,-0.25414854,0.71349794,8.580220222473145,1.1715389490127563,2.7165393829345703,-2.332958698272705,-7.204238414764404, 0.30986887216567993
219,3723013007,0.44293058,0.48023725,-0.25502318,0.712845,8.296476364135742,1.1693907976150513,2.537989616394043,-3.0602827072143555,-7.548768043518066, 0.6736332774162292
220,3723029674,0.44286,0.4808068,-0.2560478,0.7121374,8.040178298950195,1.0499454736709595,2.235952138900757,-4.338101387023926,-7.724113941192627, 0.7776210308074951
221,3723046341,0.44279262,0.481362,-0.25726762,0.71136403,8.215278625488281,1.0349723100662231,2.4989020824432373,-5.466226100921631,-8.452296257019043, 1.2368184328079224
222,3723063008,0.44278878,0.48189622,-0.2586563,0.7105005,7.838082313537598,1.1074637174606323,2.426602602005005,-6.726499557495117,-9.047728538513184, 1.2519044876098633
223,3723079675,0.44282886,0.48242307,-0.2600719,0.7096008,7.899025917053223,0.9617656469345093,2.158956527709961,-7.0925822257995605,-9.135540962219238, 1.0370010137557983
224,3723096342,0.44273132,0.4830075,-0.2613042,0.7088108,7.519623279571533,1.0534580945968628,2.312307357788086,-5.37214994430542,-8.732538223266602, 1.3342620134353638
225,3723113009,0.44280198,0.48329934,-0.26278055,0.7080217,7.707638740539551,1.039687156677246,2.1275100708007812,-8.01041316986084,-7.745156288146973, 1.8602960109710693
226,3723129676,0.4427647,0.48356035,-0.26415488,0.707355,7.399136066436768,0.8901676535606384,2.154905080795288,-7.030317783355713,-7.065253257751465, 2.481839656829834
227,3723146343,0.44274956,0.48374796,-0.26532376,0.70679843,7.280141353607178,0.7964597940444946,2.040637731552124,-6.129056453704834,-5.674315452575684, 2.1625640392303467
228,3723163010,0.44277126,0.48388645,-0.26627287,0.706333,7.219779968261719,0.49876660108566284,1.8044713735580444,-5.166889667510986,-4.39179801940918, 1.6212010383605957
229,3723179677,0.44271004,0.4841048,-0.2667576,0.70603883,7.090339183807373,0.37558409571647644,1.8208158016204834,-2.0763957500457764,-2.9368412494659424, 0.8475306034088135
230,3723196344,0.4427486,0.4841587,-0.26689148,0.705927,7.23262882232666,0.5583851933479309,1.5621578693389893,-0.8681679964065552,-0.2717251479625702, 0.04277960956096649
231,3723213011,0.44279584,0.48419636,-0.26665854,0.7059596,6.69372034072876,0.5462132692337036,1.6832937002182007,1.0990726947784424,1.438825249671936, -0.7551519870758057
232,3723229678,0.4428531,0.4842174,-0.26619646,0.7060836,6.49031400680542,0.5892651081085205,1.7677499055862427,2.295646905899048,2.5480728149414062, -1.2616046667099
233,3723246345,0.44295436,0.48416078,-0.2655974,0.7062845,6.462863445281982,0.7278497815132141,1.709726095199585,2.7181153297424316,3.6829843521118164, -1.5564452409744263
234,3723263012,0.44301733,0.48411113,-0.26504236,0.7064877,6.313888072967529,1.0463674068450928,2.033115863800049,2.6546990871429443,3.459667682647705, -1.227373480796814
235,3723279679,0.44309536,0.48403358,-0.2648256,0.7065732,5.743710517883301,1.02466881275177,2.1035258769989014,0.6562294363975525,2.1955015659332275, -0.4701339304447174
236,3723296346,0.4430859,0.48401886,-0.26491043,0.7065572,5.581648826599121,1.299592137336731,2.265531063079834,-0.5151482224464417,0.4629047214984894, 0.5477468371391296
237,3723313013,0.44310492,0.4838766,-0.2655802,0.7063913,5.930837154388428,1.2471343278884888,2.234874963760376,-4.1210198402404785,-1.1648145914077759, 2.1534199714660645
238,3723329680,0.44307277,0.48380804,-0.26667646,0.7060453,5.187044620513916,1.0992909669876099,1.9957188367843628,-6.1330132484436035,-3.526113748550415, 3.1567978858947754
239,3723346347,0.44288388,0.48398966,-0.26780602,0.7056118,5.039096832275391,0.7418673634529114,2.1681599617004395,-5.177032470703125,-5.433633327484131, 3.3193233013153076
240,3723363014,0.44274995,0.4843235,-0.2690742,0.70498407,5.335123538970947,0.9763532280921936,2.416128635406494,-5.926575183868408,-7.158866882324219, 2.6476173400878906
241,3723379681,0.44269073,0.48481047,-0.2704233,0.7041697,5.206446647644043,1.1507375240325928,2.0634989738464355,-6.449676990509033,-8.653048515319824, 1.7164804935455322
242,3723396348,0.4430793,0.485302,-0.27227196,0.70287323,4.267932891845703,1.1007015705108643,2.3272433280944824,-11.249222755432129,-10.982734680175781, -0.24270616471767426
243,3723413015,0.4441601,0.48551077,-0.27471074,0.70109576,4.62490177154541,0.9395884871482849,1.7751914262771606,-18.17733383178711,-11.757092475891113, -2.535315752029419
244,3723429682,0.44555753,0.48507932,-0.2775292,0.69939584,6.051864147186279,0.1860838532447815,0.642723023891449,-22.87752914428711,-8.984210968017578, -1.3340147733688354
245,3723446349,0.44656008,0.48425433,-0.27964628,0.6984839,5.795215129852295,0.35182327032089233,0.7150231003761292,-17.884458541870117,-3.0218021869659424, 1.3779711723327637
246,3723463016,0.4473742,0.48304102,-0.2813365,0.69812447,4.968398094177246,0.7810782194137573,0.971127450466156,-15.3367338180542,1.6711982488632202, 3.298297643661499
247,3723479683,0.44856036,0.48139676,-0.28334916,0.6976849,4.828965663909912,0.5698615908622742,1.3991119861602783,-19.605382919311523,3.2211921215057373, 3.1812362670898438
248,3723496350,0.4497168,0.4798764,-0.28516006,0.6972497,4.5322346687316895,-0.33353176712989807,1.1177010536193848,-18.149885177612305,3.208731174468994, 2.432626724243164
249,3723513017,0.45027053,0.47905472,-0.2858773,0.6971639,4.428904056549072,0.0428118035197258,1.2174524068832397,-8.062251091003418,3.2217772006988525, 1.3975507020950317
250,3723529684,0.45052138,0.478333,-0.28604427,0.69742894,4.843096733093262,0.18842542171478271,1.1636854410171509,-3.4236373901367188,5.011810779571533, 1.9138901233673096
251,3723546351,0.4503352,0.47764367,-0.28578636,0.69812685,4.492171764373779,0.5748795866966248,1.1262462139129639,1.0052666664123535,6.751439094543457, 3.8811635971069336
252,3723563018,0.45003667,0.47672307,-0.28566417,0.69899803,4.263517379760742,0.9271461367607117,1.3959722518920898,0.3438698947429657,7.801510334014893, 5.864343643188477
253,3723579685,0.44975314,0.47565532,-0.2858122,0.69984686,3.5203256607055664,0.6311923265457153,1.8102936744689941,-1.5115212202072144,7.628124237060547, 6.9183197021484375
254,3723596352,0.44930607,0.4750307,-0.28584665,0.70054394,3.543236255645752,0.016627995297312737,1.8793381452560425,0.6384029984474182,5.002397537231445, 6.0042643547058105
255,3723613019,0.44850004,0.4753716,-0.2859102,0.70080316,3.250788450241089,0.23241694271564484,2.0474629402160645,3.7988696098327637,-1.900961995124817, 4.565586090087891
256,3723629686,0.44747305,0.4766983,-0.28639472,0.70036054,2.581252098083496,0.5323032736778259,2.0266895294189453,4.1555280685424805,-10.714412689208984, 2.901465892791748
257,3723646353,0.44626266,0.47902888,-0.28733012,0.6991584,2.4628188610076904,0.11320557445287704,2.26379132270813,4.177277088165283,-19.83214569091797, 0.9599846005439758
258,3723663020,0.4447755,0.48234287,-0.28840342,0.69738376,3.196861743927002,-0.015795495361089706,1.8096611499786377,6.318253993988037,-27.471412658691406, -0.9601458311080933
259,3723679687,0.44285598,0.48631194,-0.28945425,0.6954105,3.147922992706299,0.5170624852180481,1.416094422340393,9.476164817810059,-32.086509704589844, -0.879108190536499
260,3723696354,0.4408253,0.49041075,-0.29107293,0.69314283,2.6413071155548096,1.1793776750564575,1.6192352771759033,6.941220283508301,-35.65484619140625, 0.4066738784313202
261,3723713021,0.4389998,0.4942436,-0.29344508,0.690574,3.0406124591827393,1.1648483276367188,1.7086364030838013,1.2395133972167969,-37.30561447143555, 1.6282646656036377
262,3723729688,0.43739045,0.4974829,-0.29615432,0.6881085,3.68153977394104,0.5912522673606873,0.7251150608062744,-2.687654972076416,-34.74666213989258, 3.2942237854003906
263,3723746355,0.43556127,0.50024384,-0.29863253,0.6861933,3.3434858322143555,0.6389167308807373,0.454736590385437,-1.1621674299240112,-30.332969665527344, 6.185981750488281
264,3723763022,0.43351826,0.5024718,-0.3007527,0.6849322,3.274933338165283,0.2061377316713333,0.6192338466644287,1.0054609775543213,-24.90974235534668, 9.031847953796387
265,3723779689,0.43184617,0.50380725,-0.30300674,0.68401337,3.750408887863159,0.04207443445920944,0.14228662848472595,-2.8531312942504883,-19.14032554626465, 10.611327171325684
266,3723796356,0.43026862,0.50441235,-0.30491757,0.68371254,3.3713276386260986,0.01551414467394352,-0.05849197879433632,-2.444593906402588,-12.306171417236328, 12.324042320251465
267,3723813023,0.4281721,0.50478464,-0.30576992,0.6843728,3.279322624206543,-0.1544598489999771,0.15192562341690063,5.660956859588623,-5.789730548858643, 14.413350105285645
268,3723829690,0.4254668,0.5049315,-0.3056596,0.685999,3.2908501625061035,-0.04617966711521149,0.19033725559711456,13.677376747131348,0.21229760348796844, 17.237226486206055
269,3723846357,0.42207214,0.5049986,-0.30439425,0.68860424,3.262589931488037,-0.7153728604316711,-0.16088134050369263,23.345693588256836,5.95189905166626, 19.497207641601562
270,3723863024,0.41733763,0.5056715,-0.29952326,0.6931173,2.933549642562866,-0.3858638107776642,0.02776276133954525,50.83303451538086,17.41741371154785, 17.545093536376953
271,3723879691,0.41261703,0.50614905,-0.29352987,0.69814086,3.0042343139648438,-0.11475782096385956,1.0365010499954224,56.63068771362305,23.40720558166504, 15.409489631652832
272,3723896358,0.40753016,0.5074201,-0.28847566,0.7023004,2.7297401428222656,0.7290987372398376,2.033149480819702,53.913551330566406,13.170608520507812, 16.36203956604004
273,3723913025,0.40046656,0.51143914,-0.28407395,0.7052366,2.670696973800659,2.445305347442627,4.352602958679199,62.92648696899414,-10.182770729064941, 19.32062339782715
274,3723929692,0.39482158,0.5163003,-0.28896478,0.70288646,5.470691680908203,4.07027530670166,8.883060455322266,4.847687721252441,-55.84269332885742, 29.012226104736328
275,3723946359,0.38921845,0.52377594,-0.2921456,0.699156,7.827060699462891,6.658271789550781,11.664851188659668,17.277511596679688,-68.97454071044922, 13.958877563476562
276,3723963026,0.3776487,0.5373497,-0.28971392,0.69620603,9.760900497436523,4.048364639282227,12.98299789428711,83.57487487792969,-92.82748413085938, 12.53562068939209
277,3723979693,0.35629854,0.5567502,-0.2776064,0.6971481,10.738465309143066,4.989948272705078,9.97775936126709,188.91880798339844,-101.07085418701172, 22.26309585571289
278,3723996360,0.33644,0.57495344,-0.2667755,0.6964682,5.215610980987549,15.822196006774902,3.2061076164245605,171.0501251220703,-101.99848175048828, 18.507522583007812
279,3724013027,0.33496532,0.5874021,-0.260965,0.68895173,-1.9436746835708618,26.035625457763672,10.105413436889648,48.3917121887207,-79.29692077636719, -54.34305953979492
280,3724029694,0.3626944,0.5864008,-0.2701751,0.67200637,-7.322580814361572,15.408344268798828,12.994498252868652,-188.71739196777344,-36.269447326660156, -128.7274627685547
281,3724046361,0.39312744,0.5767634,-0.2715178,0.66262597,-7.552570343017578,-0.0016037225723266602,12.92879867553711,-170.72988891601562,58.17751693725586, -137.73753356933594
282,3724063028,0.4143435,0.5635421,-0.255632,0.6673773,-8.259305000305176,-7.804083824157715,10.551495552062988,-38.893829345703125,159.45254516601562, -119.48633575439453
283,3724079695,0.43077427,0.54463285,-0.23105969,0.6814839,-5.746859073638916,-9.481417655944824,6.891725063323975,19.857479095458984,237.9127655029297, -95.04088592529297
284,3724096362,0.4478856,0.5200581,-0.20604318,0.69748443,-1.835540771484375,-8.966411590576172,1.1838510036468506,28.96021842956543,278.0720520019531, -77.16642761230469
285,3724113029,0.46751392,0.4901666,-0.18801795,0.71120805,2.7935640811920166,-3.571021795272827,-2.8809654712677,-56.23980712890625,273.48016357421875, -72.72466278076172
286,3724129696,0.4931365,0.4526677,-0.18835281,0.71863204,6.981436252593994,-4.881062030792236,-8.391399383544922,-198.86106872558594,238.5150146484375, -50.87888717651367
287,3724146363,0.51436615,0.4162191,-0.19496779,0.7240009,9.85318660736084,-5.099882125854492,-12.974884986877441,-215.30484008789062,200.467529296875, -18.30370330810547
288,3724163030,0.52657425,0.388568,-0.19595036,0.73030007,10.071599006652832,-4.188622951507568,-14.915081024169922,-129.0335693359375,167.8287353515625, 1.7059919834136963
289,3724179697,0.5315912,0.37125903,-0.19072261,0.7370227,7.514504432678223,-2.1931276321411133,-13.888860702514648,-40.59663772583008,130.5095672607422, 8.647310256958008
290,3724196364,0.5356341,0.35931578,-0.18700567,0.7409571,5.843337059020996,0.5627573132514954,-11.875760078430176,-29.82138442993164,89.94847869873047, 0.13265876471996307
291,3724213031,0.54184264,0.3489,-0.19062644,0.740498,5.979520320892334,1.4917980432510376,-10.431572914123535,-72.63892364501953,47.48249053955078, -10.90500259399414
292,3724229698,0.5491306,0.3409912,-0.20058887,0.7361689,6.130289077758789,0.6282875537872314,-9.271583557128906,-103.32402801513672,3.563601016998291, -18.843124389648438
293,3724246365,0.5546636,0.33881187,-0.21144563,0.72996277,7.060348033905029,-0.22553250193595886,-8.025510787963867,-84.73622131347656,-35.349544525146484, -22.815690994262695
294,3724263032,0.55765474,0.34317657,-0.21968292,0.723181,6.435906887054443,-0.3904186487197876,-6.206049919128418,-41.56559371948242,-62.986087799072266, -27.86147689819336
295,3724279699,0.55895877,0.35107815,-0.22692457,0.7161108,5.909826755523682,-0.39638084173202515,-3.8584296703338623,-19.51909637451172,-79.8063735961914, -28.276424407958984
296,3724296366,0.55893755,0.3615492,-0.23337658,0.7088066,5.094751834869385,0.3009602129459381,-2.326796054840088,-2.928741455078125,-91.95924377441406, -28.58031463623047
297,3724313033,0.558674,0.37273642,-0.23956299,0.70111394,4.061342239379883,0.26176923513412476,-0.8071635365486145,1.0791078805923462,-95.7470703125, -30.700864791870117
298,3724329700,0.55837566,0.38279852,-0.24444324,0.6942115,2.119452953338623,-1.7807400226593018,0.3284989595413208,4.43250846862793,-83.36231994628906, -28.991437911987305
299,3724346367,0.55730164,0.39102855,-0.24697423,0.6895763,0.0995965376496315,-3.318364143371582,0.8161860704421997,14.496207237243652,-61.02309036254883, -19.741518020629883
300,3724363034,0.5549905,0.39759907,-0.24678561,0.68774825,-0.6834841966629028,-4.121707439422607,-0.2882274091243744,29.187320709228516,-37.419944763183594, -7.705387592315674
301,3724379701,0.5512484,0.40298587,-0.24429126,0.6885127,-0.5067891478538513,-3.391434669494629,-1.158980131149292,43.95828628540039,-18.4780216217041, 4.548410415649414
302,3724396368,0.54677325,0.4071157,-0.24169667,0.69056416,-0.1526283472776413,-1.661055088043213,-1.9036304950714111,43.91947555541992,-9.897797584533691, 14.643927574157715
303,3724413035,0.54236287,0.4110322,-0.23983824,0.6923678,-0.17758771777153015,0.2768278121948242,-3.576685667037964,39.052249908447266,-12.295215606689453, 15.787115097045898
304,3724429702,0.53889817,0.41525167,-0.23992598,0.69252485,-0.5660945177078247,1.5159246921539307,-4.519647598266602,25.510353088378906,-24.098859786987305, 10.169116020202637
305,3724446369,0.5370592,0.41970962,-0.2435496,0.68999636,-1.0188322067260742,1.814918875694275,-5.173248291015625,0.4406118094921112,-43.31129837036133, 2.2418370246887207
306,3724463036,0.5365847,0.42492494,-0.250065,0.68482375,-1.6184875965118408,1.7586177587509155,-4.338315486907959,-18.898605346679688,-62.90851593017578, -6.8420891761779785
307,3724479703,0.5371924,0.430858,-0.25926152,0.6771775,-1.3611918687820435,1.475465178489685,-3.667860507965088,-36.33623504638672,-81.55814361572266, -14.385622024536133
308,3724496370,0.5333738,0.44378203,-0.26459393,0.6697462,10.563995361328125,2.96059250831604,10.355108261108398,20.936933517456055,-107.11339569091797, -16.83281135559082
309,3724513037,0.53257346,0.45614263,-0.27777117,0.65661466,11.384422302246094,-3.0639002323150635,5.9891815185546875,-36.84154510498047,-145.4104461669922, -26.620664596557617
310,3724529704,0.5285817,0.47416273,-0.2867532,0.6430739,3.8603732585906982,3.282320499420166,-3.8536264896392822,12.109368324279785,-163.06654357910156, -37.78976821899414
311,3724546371,0.5300669,0.48444968,-0.30175862,0.6271199,0.21136192977428436,2.908350944519043,-0.3392277956008911,-65.3092269897461,-147.75436401367188, -35.79726791381836
312,3724563038,0.52542025,0.4952517,-0.3064335,0.6202886,-1.0866035223007202,4.920331001281738,-7.215775966644287,-12.843366622924805,-99.50373077392578, -23.614500045776367
313,3724579705,0.52289015,0.5008356,-0.31119442,0.6155549,2.3307433128356934,2.7766947746276855,-3.2323412895202637,-26.187149047851562,-64.62794494628906, -9.834179878234863
314,3724596372,0.5207116,0.50416666,-0.31425256,0.6131239,3.7094786167144775,-2.355142116546631,-1.4442477226257324,0.9977025985717773,-36.69776916503906, 4.200099468231201
315,3724613039,0.51653737,0.5084673,-0.31466037,0.6128942,2.640615463256836,-1.0855969190597534,-0.14067599177360535,27.350107192993164,-27.9830322265625, 9.11160945892334
316,3724629706,0.51222223,0.51309395,-0.314503,0.6127408,1.4649462699890137,-1.2948747873306274,-0.6506541967391968,31.574352264404297,-27.436767578125, 7.237497329711914
317,3724646373,0.5096297,0.5167647,-0.31637067,0.6108532,0.1708899438381195,0.18907275795936584,-0.06115488335490227,9.87144947052002,-32.9753303527832, 3.030590295791626
318,3724663040,0.5092334,0.518363,-0.32096314,0.607424,0.5858524441719055,-0.16904419660568237,0.3192901611328125,-19.980003356933594,-34.58274459838867, 2.600158214569092
319,3724679707,0.5061011,0.5223906,-0.32262874,0.6057068,0.6082770228385925,1.7663217782974243,0.35031259059906006,14.291386604309082,-34.482940673828125, 4.220231533050537
320,3724696374,0.50229675,0.52726644,-0.32404846,0.60388815,0.8104667067527771,2.3997151851654053,1.2630170583724976,20.45427131652832,-39.07461929321289, 3.9435949325561523
321,3724713041,0.49814495,0.53324723,-0.3253314,0.60138065,0.27755218744277954,1.5180606842041016,2.022202491760254,24.563095092773438,-46.54108810424805, 0.10540369153022766
322,3724729708,0.4930018,0.541495,-0.32521206,0.5983057,0.6369655728340149,1.3651460409164429,2.3909497261047363,40.498775482177734,-55.508705139160156, -7.921143054962158
323,3724746375,0.48677573,0.55116457,-0.32465145,0.59486854,0.173325315117836,0.20053665339946747,1.7437771558761597,50.367008209228516,-63.73091125488281, -9.494211196899414
324,3724763042,0.4792731,0.56179404,-0.3243343,0.5911787,0.8209762573242188,-1.5298199653625488,1.276016354560852,56.87297821044922,-72.35649871826172, -6.348874568939209
325,3724779709,0.47197077,0.5723353,-0.32509792,0.58650446,2.2013072967529297,-2.8680241107940674,0.7731578946113586,49.24116134643555,-78.97325897216797, -6.096316814422607
326,3724796376,0.46606475,0.58187854,-0.32861364,0.57983994,2.886277437210083,-3.0157630443573,1.4147827625274658,24.98216438293457,-88.62701416015625, -5.2254157066345215
327,3724813043,0.46111056,0.5907723,-0.33432114,0.57148457,2.142977237701416,-2.4458999633789062,2.14666748046875,6.551405906677246,-97.72673797607422, -4.303028583526611
328,3724829710,0.4555712,0.60060716,-0.34092197,0.56169236,2.2643368244171143,-1.4779093265533447,2.390099287033081,5.114076137542725,-111.51395416259766, -5.1686015129089355
329,3724846377,0.4471342,0.61264503,-0.3459438,0.5523226,1.9284682273864746,-1.2599709033966064,2.010745048522949,31.079362869262695,-120.20449829101562, -4.38340425491333
330,3724863044,0.43630108,0.62629026,-0.34943035,0.5434157,2.840698480606079,-0.7636076807975769,3.4215104579925537,53.05060577392578,-125.40937805175781, -4.186489582061768
331,3724879711,0.42314187,0.6415123,-0.35077456,0.5351358,2.203056573867798,-0.1053105965256691,3.9975836277008057,77.31685638427734,-127.87635040283203, -6.649555206298828
332,3724896378,0.40757445,0.6579723,-0.35079837,0.5271585,1.8467693328857422,-0.13251017034053802,5.3423027992248535,97.13994598388672,-133.19332885742188, -5.712038516998291
333,3724913045,0.39179912,0.673936,-0.35200638,0.5180689,2.368417501449585,0.39171481132507324,5.14432430267334,89.73233795166016,-140.4065399169922, -1.5096321105957031
334,3724929712,0.37539014,0.6894256,-0.35341373,0.50879616,2.3985557556152344,0.047123514115810394,5.9952392578125,90.25729370117188,-141.78390502929688, 2.352280616760254
335,3724946379,0.35659167,0.70521027,-0.35344514,0.5005971,1.910080075263977,-0.29837942123413086,5.8133039474487305,109.78515625,-140.14833068847656, 6.2655863761901855
336,3724963046,0.3355688,0.72187376,-0.3534322,0.49130192,2.1313230991363525,0.9374110698699951,0.6045745611190796,120.2288589477539,-153.93634033203125, 8.903668403625488
337,3724979713,0.3160731,0.7383596,-0.35549733,0.47806376,5.308846473693848,3.1299726963043213,8.614540100097656,95.63504791259766,-173.9820098876953, 5.442462921142578
338,3724996380,0.29863352,0.75200224,-0.35872895,0.4654296,2.6134541034698486,0.15730172395706177,10.140222549438477,76.71341705322266,-159.31686401367188, 12.962145805358887
339,3725013047,0.27963766,0.7638766,-0.3592236,0.45744288,3.935436487197876,0.8388253450393677,11.431343078613281,101.37066650390625,-128.0881805419922, 17.721534729003906
340,3725029714,0.2599134,0.7760869,-0.3601706,0.44767347,1.617141842842102,3.2250242233276367,6.148931980133057,100.04935455322266,-141.45448303222656, 18.180742263793945
341,3725046381,0.24525343,0.7863711,-0.36554164,0.43341744,5.978790283203125,8.757596969604492,6.52386999130249,44.895172119140625,-154.91571044921875, 23.05307960510254
342,3725063048,0.23434664,0.7923755,-0.37134895,0.4234652,8.927995681762695,3.074190855026245,13.792062759399414,27.020246505737305,-110.34051513671875, 32.448204040527344
343,3725079715,0.22663286,0.7973066,-0.37369457,0.41628397,1.3263624906539917,6.316086292266846,14.591949462890625,25.094343185424805,-78.76182556152344, 11.542767524719238
344,3725096382,0.22422992,0.80061084,-0.37363562,0.4112662,3.849000930786133,8.597485542297363,12.65343189239502,5.9930524826049805,-45.10314178466797, -9.158287048339844
345,3725113049,0.22782366,0.80167603,-0.37246135,0.40827033,2.224273204803467,7.287846565246582,12.665725708007812,-21.980281829833984,-10.747118949890137, -23.22477912902832
346,3725129716,0.23348023,0.8004871,-0.3694106,0.41017506,1.7539921998977661,4.726531028747559,13.048458099365234,-18.951196670532227,30.62211799621582, -25.792613983154297
347,3725146383,0.24055941,0.7969517,-0.36436278,0.4174195,0.8372563123703003,1.060076355934143,12.262526512145996,-11.290054321289062,73.26559448242188, -26.203689575195312
348,3725163050,0.24805163,0.7915679,-0.35666466,0.42974576,0.02906675636768341,-0.37692177295684814,11.920047760009766,3.7223856449127197,111.69729614257812, -28.886478424072266
349,3725179717,0.26014435,0.78307444,-0.34887856,0.44430104,-0.5490343570709229,-0.9022637009620667,11.257627487182617,-20.919700622558594,144.33517456054688, -31.572126388549805
350,3725196384,0.27710435,0.77111965,-0.34078318,0.46092847,-0.5838857293128967,-0.7570608854293823,10.05872631072998,-47.43544387817383,178.20265197753906, -36.16496276855469
351,3725213051,0.29786858,0.7554427,-0.33215714,0.47984654,-0.338287353515625,-1.004701852798462,8.605559349060059,-67.67396545410156,212.00457763671875, -38.02836227416992
352,3725229718,0.32068598,0.7359624,-0.32259485,0.5014504,0.337859183549881,-1.2964870929718018,7.715717792510986,-76.92936706542969,245.078369140625, -35.569854736328125
353,3725246385,0.3436961,0.7131593,-0.31151032,0.52558357,1.5069177150726318,-1.6724687814712524,6.251574516296387,-74.39891815185547,273.096923828125, -31.083337783813477
354,3725263052,0.3668151,0.68688107,-0.2991412,0.5515032,2.7528185844421387,-1.990530252456665,4.764499664306641,-74.70697021484375,297.69329833984375, -26.20932960510254
355,3725279719,0.39013678,0.65693367,-0.28581893,0.57839346,4.583921909332275,-2.527723550796509,3.081866979598999,-79.31238555908203,319.06195068359375, -21.59544563293457
356,3725296386,0.41361716,0.62368065,-0.27236965,0.60477954,6.173171043395996,-2.239015579223633,0.6655599474906921,-89.4178695678711,330.6686706542969, -17.788175582885742
357,3725313053,0.43759823,0.5867043,-0.2605574,0.62959987,8.107272148132324,-1.3435049057006836,-2.0732216835021973,-111.9119644165039,335.8855895996094, -10.465852737426758
358,3725329720,0.4602009,0.5459851,-0.2506308,0.6536818,9.254287719726562,-1.7738430500030518,-3.8081068992614746,-127.13046264648438,341.2326965332031, 7.474893569946289
359,3725346387,0.47530723,0.50676376,-0.23680216,0.67911583,10.768108367919922,-0.5500150322914124,-6.319133281707764,-88.13971710205078,336.8636474609375, 23.25653648376465
360,3725363054,0.48743513,0.47019598,-0.22340865,0.7010076,11.362885475158691,1.0586990118026733,-9.970638275146484,-63.20078659057617,308.6827697753906, 27.5727481842041
361,3725379721,0.4973356,0.43848154,-0.21256825,0.7177787,9.805051803588867,4.1566386222839355,-13.726112365722656,-59.980674743652344,257.24249267578125, 21.936555862426758
362,3725396388,0.5070164,0.41156423,-0.20719755,0.7284357,7.515171527862549,3.784914016723633,-18.747018814086914,-78.98219299316406,196.68014526367188, 11.667201042175293
363,3725413055,0.5138899,0.3940408,-0.20332602,0.7343757,5.678577423095703,3.5941712856292725,-24.28272247314453,-52.655555725097656,127.70299530029297, 0.22212187945842743
364,3725429722,0.5175376,0.38747597,-0.20320857,0.73533934,4.40472936630249,3.5869829654693604,-26.023473739624023,-31.2625789642334,41.833316802978516, -6.142356872558594
365,3725446389,0.51843125,0.39213043,-0.20810503,0.73085934,3.8368916511535645,5.323348045349121,-22.89817237854004,-17.11385726928711,-50.386253356933594, -13.824626922607422
366,3725463056,0.51899165,0.40350205,-0.21781498,0.72138107,3.931878089904785,5.356477737426758,-17.687484741210938,-23.780410766601562,-114.69025421142578, -26.471467971801758
367,3725479723,0.51945275,0.41849002,-0.23021539,0.70854497,4.3166069984436035,4.171504020690918,-12.863327026367188,-29.114715576171875,-151.2903289794922, -35.77267074584961
368,3725496390,0.52047956,0.43363127,-0.24472244,0.69366854,3.956028938293457,2.305281639099121,-9.04472827911377,-43.7820930480957,-164.27099609375, -39.877071380615234
369,3725513057,0.52113706,0.4477337,-0.257854,0.67931,1.9307997226715088,0.3756098449230194,-5.5875773429870605,-39.006595611572266,-153.31683349609375, -38.536685943603516
370,3725529724,0.5208988,0.45967972,-0.2667187,0.66799724,-0.6442082524299622,-0.9607510566711426,-2.388286590576172,-18.6401309967041,-120.13884735107422, -32.73196029663086
371,3725546391,0.52071136,0.46739095,-0.27244672,0.66043794,-2.2454652786254883,-1.7247754335403442,-1.0737682580947876,-12.642865180969238,-77.59190368652344, -21.696117401123047
372,3725563058,0.51904166,0.47530794,-0.2768202,0.6542544,0.8064062595367432,0.07218668609857559,-9.287529945373535,1.633077621459961,-72.17420196533203, -14.830432891845703
373,3725579725,0.5195499,0.48650628,-0.2868394,0.6411732,26.667051315307617,-0.15714280307292938,3.8561336994171143,-32.31357192993164,-125.35103607177734, -37.04082489013672
374,3725596392,0.5180242,0.49719086,-0.29674312,0.6295998,-1.953446626663208,-10.476181030273438,1.9372183084487915,-23.82440948486328,-121.58253479003906, -22.15831184387207
375,3725613059,0.51051265,0.5122189,-0.29738945,0.62335247,6.340974807739258,-0.28297677636146545,-4.676325798034668,29.817058563232422,-106.76898193359375, -29.392118453979492
376,3725629726,0.5024846,0.52574706,-0.29519424,0.6196451,-2.643573045730591,2.8433942794799805,-3.2828540802001953,47.55995178222656,-82.11322784423828, -23.0274715423584
377,3725646393,0.50002545,0.5325664,-0.2965728,0.615136,2.0728766918182373,6.723048210144043,-3.4418933391571045,-6.766989707946777,-56.734840393066406, -20.575000762939453
378,3725663060,0.49704403,0.53673106,-0.2969083,0.6137693,1.227097511291504,3.8937082290649414,-1.4595059156417847,2.9298787117004395,-30.479127883911133, -3.820927858352661
379,3725679727,0.49407065,0.53960466,-0.2968894,0.6136593,2.030276298522949,-0.2925526797771454,-1.6018991470336914,19.794700622558594,-16.21014976501465, 6.4740800857543945
380,3725696394,0.48930857,0.5436976,-0.29458153,0.6149732,0.7462198734283447,-0.08373964577913284,-0.15500116348266602,43.16057586669922,-11.99557876586914, 7.824961185455322
381,3725713061,0.48697641,0.54612213,-0.29453295,0.61469924,-0.045247700065374374,-0.6795476078987122,1.508075475692749,15.72249984741211,-13.652203559875488, 3.9988718032836914
382,3725729728,0.4873125,0.546845,-0.29794884,0.6121387,-0.467366486787796,-0.8211597800254822,0.6040003299713135,-19.229686737060547,-21.389699935913086, 1.4933592081069946
383,3725746395,0.4867284,0.548271,-0.30207512,0.60929906,-0.5584861636161804,-1.6257246732711792,0.37450164556503296,-16.944957733154297,-29.777729034423828, 5.642276763916016
384,3725763062,0.4831845,0.5520333,-0.30472183,0.6074018,-0.9160797595977783,1.7183641195297241,1.1752060651779175,10.220939636230469,-37.30915451049805, 10.718148231506348
385,3725779729,0.47928196,0.5565396,-0.30796665,0.604739,-1.1113406419754028,2.6258957386016846,1.8733974695205688,9.968167304992676,-46.177467346191406, 10.431159973144531
386,3725796396,0.47425896,0.5628739,-0.31076896,0.6013937,-0.8021052479743958,2.3196945190429688,1.0700225830078125,20.68822479248047,-57.436981201171875, 7.3488874435424805
387,3725813063,0.46788976,0.57111686,-0.31176865,0.5980845,-0.21935445070266724,1.724208116531372,1.4356554746627808,39.6644287109375,-62.285491943359375, 2.0329253673553467
388,3725829730,0.46064916,0.5805209,-0.31176555,0.594643,-0.12435847520828247,1.2566590309143066,1.781126618385315,50.67841339111328,-66.32072448730469, -1.208206295967102
389,3725846397,0.4535753,0.5903437,-0.3119698,0.590287,0.6705906391143799,1.2621489763259888,1.4963051080703735,48.550785064697266,-72.08558654785156, -4.843618392944336
390,3725863064,0.44654322,0.599924,-0.31279564,0.5855334,0.997748613357544,0.16816045343875885,1.7710485458374023,44.26814270019531,-74.65083312988281, -3.1982526779174805
391,3725879731,0.43880516,0.6096022,-0.31370524,0.58088255,1.9261574745178223,-0.2823079526424408,1.450671672821045,47.38811492919922,-76.48816680908203, 0.07131419330835342
392,3725896398,0.43156582,0.61875206,-0.31563443,0.57556236,2.018604278564453,-1.1428269147872925,1.247592806816101,38.21100997924805,-79.26316833496094, 1.4338699579238892
393,3725913065,0.42467982,0.62770474,-0.3188214,0.5691984,2.491217613220215,-1.0264341831207275,1.965874195098877,28.901180267333984,-85.96206665039062, 2.6548399925231934
394,3725929732,0.4175279,0.6369025,-0.32280138,0.5619833,2.5758800506591797,-0.7837672829627991,1.494199514389038,25.816991806030273,-93.58956909179688, 4.038994312286377
395,3725946399,0.40943548,0.64701736,-0.32645687,0.5542179,2.2838687896728516,-0.8857161998748779,1.4249242544174194,32.61875915527344,-100.77644348144531, 2.590538740158081
396,3725963066,0.4002894,0.65805584,-0.33063754,0.5453531,2.453218698501587,-1.4281599521636963,1.3114204406738281,35.45144271850586,-113.1070327758789, 3.7277867794036865
397,3725979733,0.38920665,0.6704395,-0.33487225,0.5356209,2.267303466796875,-1.3896217346191406,2.9531776905059814,45.75164031982422,-126.69898986816406, 5.728231906890869
398,3725996400,0.37611634,0.68431914,-0.3380085,0.52535176,2.1797635555267334,-0.9347623586654663,4.551975250244141,61.83207702636719,-136.49053955078125, 3.122889995574951
399,3726013067,0.36134195,0.6997493,-0.34011763,0.51390964,2.367680072784424,-0.261961966753006,5.252892971038818,74.76914978027344,-149.03843688964844, -2.29982328414917
400,3726029734,0.34523213,0.71589166,-0.34198132,0.5013612,3.4397411346435547,-0.255484938621521,6.618857383728027,81.269287109375,-159.57667541503906, -3.1868746280670166
401,3726046401,0.32739994,0.7323239,-0.34336928,0.48847595,3.995837926864624,-0.3698367476463318,8.390981674194336,91.30962371826172,-165.38157653808594, -1.081491470336914
402,3726063068,0.3073913,0.7485602,-0.34368914,0.4764936,4.3508219718933105,-0.1758923977613449,9.780381202697754,107.57748413085938,-163.18836975097656, 3.3389947414398193
403,3726079735,0.28628385,0.7642631,-0.3442191,0.46417323,3.7274248600006104,0.6021527647972107,5.092886447906494,110.65241241455078,-166.52955627441406, 8.575170516967773
404,3726096402,0.26629263,0.77989304,-0.34702215,0.4476948,7.1120991706848145,4.7477569580078125,5.432538032531738,87.56231689453125,-190.1313934326172, 8.980683326721191
405,3726113069,0.25020382,0.78987306,-0.35156196,0.43577877,5.384687423706055,2.3401691913604736,12.651959419250488,61.89542770385742,-142.32447814941406, 28.245271682739258
406,3726129736,0.22979508,0.8010791,-0.35249278,0.42569435,3.7244479656219482,7.2916646003723145,10.283957481384277,102.76251220703125,-140.65414428710938, 21.853368759155273
407,3726146403,0.2176571,0.8103841,-0.35649085,0.41087416,6.038522720336914,8.267314910888672,6.003795623779297,33.87728500366211,-146.2236328125, 11.858799934387207
408,3726163070,0.21238497,0.8161616,-0.35938507,0.39951915,6.156405925750732,6.4778265953063965,14.980001449584961,2.089395761489868,-98.63346862792969, 0.3239029049873352
409,3726179737,0.21357997,0.8188562,-0.36152092,0.39135778,0.4534631371498108,3.21695613861084,15.174406051635742,-28.592329025268555,-55.55561447143555, -9.314969062805176
410,3726196404,0.21529438,0.820435,-0.35860586,0.38979074,0.42193448543548584,5.717379570007324,14.667277336120605,-3.0995419025421143,-6.9936299324035645, -26.661148071289062
411,3726213071,0.22378016,0.81849843,-0.35616636,0.3913165,-1.0977818965911865,2.793752670288086,12.794451713562012,-40.02842712402344,35.617523193359375, -28.788883209228516
412,3726229738,0.23433629,0.81410474,-0.3516813,0.3982969,-1.7411504983901978,1.0780518054962158,11.738176345825195,-36.545711517333984,80.9791259765625, -31.444761276245117
413,3726246405,0.24602488,0.80720335,-0.34546825,0.41054404,-1.5907249450683594,-0.7614439725875854,10.130126953125,-29.44103240966797,122.72982788085938, -29.679180145263672
414,3726263072,0.25639796,0.7985335,-0.33660296,0.42813885,-1.1377780437469482,-0.7354136109352112,8.81695556640625,-4.963478088378906,158.6849822998047, -27.471017837524414
415,3726279739,0.2691096,0.78695714,-0.32753244,0.44833148,-0.9551510810852051,-1.3911539316177368,6.762567043304443,-16.346071243286133,187.2216796875, -24.188671112060547
416,3726296406,0.28429517,0.7726072,-0.31825066,0.4700755,-0.673754096031189,-1.4290406703948975,5.671329021453857,-30.76052474975586,210.11700439453125, -23.887983322143555
417,3726313073,0.30285195,0.7551601,-0.30954272,0.49213535,0.19242216646671295,-1.5218937397003174,4.499502658843994,-55.92922592163086,228.0665740966797, -24.404388427734375
418,3726329740,0.32243928,0.7350752,-0.30016848,0.5153604,1.1760817766189575,-1.8449112176895142,4.136043548583984,-62.08687973022461,246.6422119140625, -23.38772201538086
419,3726346407,0.34166902,0.71293133,-0.28944898,0.53963923,2.1258208751678467,-1.8655893802642822,3.1299519538879395,-57.93214797973633,261.5239562988281, -22.42534065246582
420,3726363074,0.36140162,0.6881563,-0.27846077,0.56417155,3.376052141189575,-2.1729612350463867,1.7658352851867676,-65.11031341552734,274.1994934082031, -19.868032455444336
421,3726379741,0.38157046,0.66056097,-0.26775277,0.5885338,4.538386344909668,-2.9438259601593018,0.9159623384475708,-75.6132583618164,284.5563049316406, -15.371176719665527
422,3726396408,0.40120497,0.6302282,-0.25763202,0.61275846,6.027787208557129,-3.5242960453033447,-0.4668836295604706,-83.03434753417969,292.6005859375, -6.005191326141357
423,3726413075,0.41781703,0.5987067,-0.24670511,0.6372723,7.034674644470215,-3.3357386589050293,-1.919550895690918,-69.31025695800781,295.9034729003906, 5.983506202697754
424,3726429742,0.42841497,0.5682033,-0.23122382,0.66343164,8.043206214904785,-3.14168119430542,-3.8152902126312256,-18.88140296936035,301.3310546875, 16.470619201660156
425,3726446409,0.43542984,0.5384997,-0.21395335,0.68894356,8.33137321472168,-1.278841495513916,-5.014748573303223,4.5963568687438965,295.0237731933594, 22.563207626342773
426,3726463076,0.44326967,0.5079667,-0.19976088,0.7110397,9.501338005065918,1.313228726387024,-6.647404193878174,-20.577587127685547,278.6407165527344, 21.017393112182617
427,3726479743,0.45178473,0.47801337,-0.18909714,0.72913384,9.295133590698242,1.2837576866149902,-7.986753463745117,-43.98741149902344,252.3988037109375, 17.068511962890625
428,3726496410,0.4602425,0.45138294,-0.18224123,0.7424409,8.264076232910156,2.766474485397339,-10.636201858520508,-58.85944366455078,208.52906799316406, 10.6898193359375
429,3726513077,0.47060758,0.4272425,-0.18222755,0.75019056,7.027618885040283,2.934063196182251,-15.230340003967285,-98.8986587524414,159.78895568847656, 1.5282630920410156
430,3726529744,0.47933772,0.4095891,-0.18473636,0.7538865,5.261031627655029,1.8713051080703735,-19.857624053955078,-91.31598663330078,104.77196502685547, -3.813849925994873
431,3726546411,0.48308414,0.40406471,-0.18642616,0.75406045,3.698162794113159,1.9211626052856445,-22.914806365966797,-37.65264129638672,28.97378921508789, -7.254959583282471
432,3726563078,0.4834943,0.40998372,-0.19138043,0.7493467,3.4188995361328125,3.3550024032592773,-20.360445022583008,-13.691793441772461,-58.417213439941406, -11.740361213684082
433,3726579745,0.48230654,0.42346415,-0.19886623,0.74061525,3.9046318531036377,4.541078090667725,-16.174585342407227,-2.5216729640960693,-118.69178771972656, -19.594160079956055
434,3726596412,0.4809561,0.4404948,-0.20833836,0.7288628,4.225460529327393,4.729603290557861,-11.952628135681152,-4.660059452056885,-151.9716796875, -27.74049186706543
435,3726613079,0.48140073,0.45709622,-0.22094505,0.7144928,3.7203609943389893,4.562528133392334,-8.268668174743652,-31.09593963623047,-165.26112365722656, -35.15183639526367
436,3726629746,0.48512015,0.47007182,-0.23769058,0.6979931,2.1582162380218506,1.388627529144287,-6.37854528427124,-77.05274200439453,-162.70884704589844, -39.61368179321289
437,3726646413,0.48941943,0.47985914,-0.25451133,0.6822229,5.242079257965088,-4.794633388519287,10.699065208435059,-88.75746154785156,-144.27818298339844, -34.40941619873047
438,3726663080,0.49093875,0.49153745,-0.26459065,0.6688513,7.462215900421143,-6.0800461769104,2.880073308944702,-37.2662467956543,-127.78511047363281, -38.962074279785156
439,3726679747,0.49160847,0.503022,-0.27527314,0.6553739,8.215804100036621,-4.9508233070373535,-9.040763854980469,-37.92144775390625,-130.93853759765625, -33.198585510253906
440,3726696414,0.489552,0.5171074,-0.28191522,0.6430107,2.767916679382324,-2.4049720764160156,-0.39319851994514465,27.764108657836914,-125.86251831054688, -27.92892837524414
441,3726713081,0.48557717,0.52988815,-0.28593752,0.63377696,-0.3998119533061981,1.5853255987167358,-2.165074348449707,15.99206829071045,-108.89518737792969, -25.301328659057617
442,3726729748,0.48524317,0.5396679,-0.29054165,0.6236052,1.5949950218200684,5.260408401489258,-2.1721572875976562,-19.547773361206055,-95.44571685791016, -37.9136962890625
443,3726746415,0.48471743,0.54705524,-0.2955703,0.6151568,0.13471448421478271,4.589785575866699,0.7183100581169128,-12.644280433654785,-78.46143341064453, -21.87448501586914
444,3726763082,0.48478195,0.55230004,-0.3010881,0.60769826,0.08946473151445389,3.1977949142456055,0.3903237581253052,-22.076980590820312,-66.22929382324219, -14.73449420928955
445,3726779749,0.48191082,0.5584819,-0.303821,0.60295355,0.26752564311027527,0.9925016760826111,0.41105028986930847,9.44969367980957,-56.7394905090332, -5.849229335784912
446,3726796416,0.47892278,0.56444347,-0.3064067,0.5984578,1.0373077392578125,-0.7356888055801392,-1.5603551864624023,10.31755542755127,-54.723079681396484, -4.634988784790039
447,3726813083,0.47603193,0.5700958,-0.3094419,0.59382683,1.8485640287399292,-2.7968194484710693,-1.2358770370483398,6.806310653686523,-55.27546310424805, -3.1290228366851807
448,3726829750,0.47279805,0.5758664,-0.31295723,0.5889806,2.2410378456115723,-2.5655386447906494,-0.2227393388748169,6.149460792541504,-58.933406829833984, -0.9098638892173767
449,3726846417,0.46901104,0.5820828,-0.31590602,0.58430463,1.394364595413208,0.06562143564224243,1.234123706817627,12.478944778442383,-59.471214294433594, -1.4200762510299683
450,3726863084,0.46414715,0.589184,-0.31611997,0.58094573,0.9583269953727722,2.2732603549957275,1.864783525466919,33.51287841796875,-51.380271911621094, -5.733978748321533
451,3726879751,0.46016505,0.59568053,-0.31732237,0.57681865,0.562658965587616,1.5847878456115723,1.4466018676757812,22.408451080322266,-53.43893051147461, -6.34085750579834
452,3726896418,0.4552216,0.60316974,-0.3174967,0.5728487,-0.3365723490715027,2.3202292919158936,2.4393110275268555,33.92434310913086,-55.6866340637207, -8.379858016967773
453,3726913085,0.44865623,0.6122241,-0.3175375,0.56838316,0.05401398241519928,1.6019902229309082,1.3948129415512085,45.0162353515625,-67.16932678222656, -7.462035655975342
454,3726929752,0.44051725,0.6228969,-0.31758478,0.5631023,-0.13457360863685608,2.3900256156921387,2.1663570404052734,54.848426818847656,-80.48148345947266, -7.31062126159668
455,3726946419,0.43115625,0.63479745,-0.31752184,0.5570606,0.4715685248374939,1.1190861463546753,2.141529083251953,62.59341812133789,-90.94781494140625, -7.990764141082764
456,3726963086,0.42117918,0.64724714,-0.3180093,0.5500451,1.288333535194397,-0.17248791456222534,1.8269702196121216,62.70716094970703,-100.39165496826172, -7.312634468078613
457,3726979753,0.41061917,0.66013783,-0.3186019,0.54231256,1.8809014558792114,-1.5311706066131592,1.5273550748825073,64.6416015625,-106.9298095703125, -7.721887588500977
458,3726996420,0.399718,0.6732897,-0.32001027,0.5333856,2.227458953857422,-2.212862014770508,0.954716682434082,61.28985595703125,-116.4664306640625, -6.774205684661865
459,3727013087,0.388109,0.686543,-0.32209697,0.5237212,2.577849864959717,-3.023047924041748,1.8604731559753418,60.7498664855957,-123.7455062866211, -3.3875317573547363
460,3727029754,0.37499103,0.700391,-0.32341596,0.5140396,2.7616007328033447,-2.440281867980957,2.6875343322753906,72.1922378540039,-127.36614227294922, -3.0603981018066406
461,3727046421,0.36113957,0.7143627,-0.32458958,0.50389093,3.1880042552948,-2.3820652961730957,3.554436445236206,75.52886199951172,-131.440185546875, -2.7438931465148926
462,3727063088,0.34637597,0.7286987,-0.32556856,0.49297792,3.0952417850494385,-1.835137128829956,3.777667284011841,79.8879165649414,-138.17007446289062, -3.3377878665924072
463,3727079755,0.33122513,0.7432963,-0.3269165,0.48054788,3.0835764408111572,-1.6567550897598267,5.802224159240723,77.81301879882812,-148.56689453125, -4.438967227935791
464,3727096422,0.3156921,0.75761765,-0.32906437,0.46698064,3.387028694152832,-1.2957712411880493,7.3312153816223145,73.95059204101562,-156.36891174316406, -1.1044719219207764
465,3727113089,0.2989578,0.7715903,-0.33164322,0.453085,4.018210411071777,-1.0510809421539307,7.64494514465332,77.34386444091797,-160.8769989013672, 5.042727947235107
466,3727129756,0.28122634,0.78562164,-0.33525982,0.43739164,4.246959209442139,0.8997323513031006,2.6604435443878174,75.4411392211914,-175.27647399902344, 9.80627155303955
467,3727146423,0.26470494,0.7997778,-0.3390799,0.4187026,6.593223571777344,3.479264497756958,8.994831085205078,61.63714599609375,-189.5559844970703, 1.2227997779846191
468,3727163090,0.24642676,0.8118376,-0.34275964,0.4033727,5.43238639831543,0.48984000086784363,10.373252868652344,75.79812622070312,-169.21473693847656, 16.60828399658203
469,3727179757,0.22698125,0.8217656,-0.34450766,0.39305937,8.091056823730469,5.301623821258545,15.398652076721191,95.92269134521484,-135.10763549804688, 22.61488151550293
470,3727196424,0.21118069,0.83073336,-0.34713992,0.38049814,6.265774250030518,10.066056251525879,8.205805778503418,66.24309539794922,-138.46231079101562, 16.680307388305664
471,3727213091,0.20292597,0.83760685,-0.35362592,0.3635722,7.120164394378662,5.430277347564697,4.046058654785156,-0.2031881958246231,-145.75437927246094, 17.84576988220215
472,3727229758,0.1895828,0.8436551,-0.35422972,0.35612658,7.181219100952148,6.152449607849121,14.674809455871582,65.79936218261719,-93.41275024414062, 12.033552169799805
473,3727246425,0.18654406,0.84661734,-0.35647592,0.34837538,0.15379148721694946,3.5869412422180176,13.457599639892578,-2.617490291595459,-65.08737182617188, 3.568164825439453
474,3727263092,0.1869075,0.84832925,-0.3556481,0.34484467,3.3096046447753906,6.734387397766113,12.191922187805176,-6.232677459716797,-25.45625877380371, -13.945505142211914
475,3727279759,0.1933295,0.84722096,-0.3545465,0.34516263,0.3428550362586975,2.6778805255889893,11.621600151062012,-34.984012603759766,18.59847068786621, -17.959447860717773
476,3727296426,0.19709341,0.8448391,-0.349758,0.35365322,-0.7134642004966736,0.7978996634483337,11.104609489440918,7.534601211547852,67.49579620361328, -19.1270694732666
477,3727313093,0.2006677,0.8405767,-0.3428618,0.3682517,-1.015734314918518,-1.0069478750228882,9.92211627960205,25.91004180908203,109.84182739257812, -18.074981689453125
478,3727329760,0.20437314,0.834432,-0.33401,0.38780463,-1.4233019351959229,-1.6889445781707764,9.391457557678223,39.151649475097656,146.1804656982422, -18.41969108581543
479,3727346427,0.21097107,0.82596546,-0.32487258,0.4095492,-2.017547369003296,-1.7204701900482178,8.407214164733887,25.03289031982422,171.9341278076172, -19.34945297241211
480,3727363094,0.2236858,0.8147361,-0.3168742,0.4309996,-1.4568917751312256,-0.7011775374412537,6.714066028594971,-17.629268646240234,190.02099609375, -24.385282516479492
481,3727379761,0.2428559,0.8003271,-0.31038976,0.45183623,-1.25155508518219,-0.1800769716501236,5.595727443695068,-64.5460433959961,207.7332763671875, -29.092180252075195
482,3727396428,0.26592812,0.7825949,-0.3046826,0.4732823,-0.9990149736404419,-0.4178343415260315,4.496490955352783,-92.7144775390625,228.45425415039062, -28.890378952026367
483,3727413095,0.28949115,0.7620255,-0.2983428,0.49649164,-0.4852665066719055,-0.885199785232544,3.791346549987793,-94.817138671875,249.39768981933594, -24.8071346282959
484,3727429762,0.31241238,0.73880464,-0.2906863,0.5216015,0.5898093581199646,-1.0671031475067139,2.3844833374023438,-88.37639617919922,269.7602233886719, -20.377595901489258
485,3727446429,0.3337178,0.7129118,-0.2808776,0.5490874,2.0950307846069336,-1.3210114240646362,0.9905348420143127,-73.470703125,292.8935241699219, -15.152029037475586
486,3727463096,0.35307792,0.68454796,-0.26851594,0.5784716,3.5625600814819336,-1.1327846050262451,0.07143929600715637,-56.339752197265625,313.7495422363281, -11.26641845703125
487,3727479763,0.37073818,0.65437764,-0.25390142,0.6081753,5.2330121994018555,-0.14639021456241608,-1.5730743408203125,-43.20384979248047,324.9114685058594, -11.056379318237305
488,3727496430,0.3878136,0.6219814,-0.23823042,0.6371705,7.413629055023193,1.0159891843795776,-4.4199442863464355,-43.10721969604492,332.9034118652344, -11.312544822692871
489,3727513097,0.40503937,0.5866996,-0.2242084,0.6644228,8.979512214660645,0.8571071624755859,-6.063227653503418,-61.59353256225586,334.2385559082031, -4.850959300994873
490,3727529764,0.4180286,0.55276537,-0.20893902,0.68996185,10.100049018859863,1.4607621431350708,-8.049259185791016,-37.75370788574219,318.4583740234375, 2.59883189201355
491,3727546431,0.43070424,0.5208888,-0.19680391,0.7102375,11.202022552490234,2.9115240573883057,-11.076851844787598,-53.16694259643555,279.6429748535156, -2.1034419536590576
492,3727563098,0.44354722,0.49294683,-0.19075875,0.72379583,9.59332275390625,3.0422191619873047,-13.937941551208496,-81.06867980957031,219.0740509033203, -6.3253254890441895
493,3727579765,0.45736834,0.46895993,-0.19275755,0.73057216,7.837075710296631,2.8642184734344482,-17.964513778686523,-121.3766860961914,153.7373504638672, -9.789591789245605
494,3727596432,0.46694344,0.45461518,-0.19384633,0.7332892,5.392831325531006,2.3037171363830566,-22.952831268310547,-78.30915832519531,90.10037994384766, -16.913646697998047
495,3727613099,0.47150844,0.45194665,-0.1949812,0.73171484,3.8288729190826416,0.9930400848388672,-23.698787689208984,-31.262605667114258,11.72546100616455, -20.811443328857422
496,3727629766,0.47241575,0.45990747,-0.19965045,0.7248783,4.062829971313477,2.4192512035369873,-19.92824363708496,-10.397493362426758,-73.76861572265625, -22.72248649597168
497,3727646433,0.47240016,0.47407845,-0.20812081,0.7132838,4.291815757751465,3.0175328254699707,-14.909626960754395,-12.910869598388672,-132.8218231201172, -30.026334762573242
498,3727663100,0.47261718,0.49133316,-0.21915445,0.69799453,4.996413707733154,3.7861673831939697,-10.469636917114258,-21.61971664428711,-167.5876007080078, -39.14076232910156
499,3727679767,0.47581908,0.5070313,-0.23532018,0.6790729,4.751378536224365,2.1919474601745605,-8.024332046508789,-66.96270751953125,-184.3120880126953, -45.45698165893555
500,3727696434,0.48228377,0.5184492,-0.25582805,0.65815276,4.588705062866211,-2.850902795791626,1.2920962572097778,-115.9044189453125,-180.05828857421875, -45.037506103515625
501,3727713101,0.48569977,0.5303259,-0.27091148,0.6398888,6.164122104644775,-5.56263542175293,8.647446632385254,-74.21954345703125,-160.15431213378906, -42.593605041503906
502,3727729768,0.48916298,0.5400931,-0.28513026,0.62267154,6.779700756072998,-3.3336946964263916,-7.220545768737793,-68.47637939453125,-142.99594116210938, -37.49344253540039
503,3727746435,0.48669064,0.55248976,-0.29307446,0.60991377,4.875343322753906,-2.2365732192993164,-7.220847129821777,-27.97650909423828,-133.36094665527344, -29.218746185302734
504,3727763102,0.4858597,0.56192565,-0.29986256,0.59855044,1.7333983182907104,3.132702350616455,-1.3827110528945923,-17.582569122314453,-104.40291595458984, -27.52585220336914
505,3727779769,0.48800045,0.56756043,-0.30873734,0.5868664,2.3055734634399414,-0.649831235408783,-2.4249956607818604,-51.024227142333984,-90.89779663085938, -24.816802978515625
506,3727796436,0.4850815,0.57518417,-0.31166953,0.5802769,0.7056505084037781,1.9623140096664429,0.38550329208374023,10.193304061889648,-69.85853576660156, -14.736883163452148
507,3727813103,0.483219,0.58059525,-0.31495765,0.57463956,-0.04742097109556198,2.772993564605713,0.9079752564430237,-0.7300471067428589,-56.29662322998047, -9.583741188049316
508,3727829770,0.4806074,0.58581036,-0.3171787,0.57029873,0.8659798502922058,1.8249982595443726,-0.21899019181728363,8.64713191986084,-48.54637908935547, -6.082876205444336
509,3727846437,0.47934097,0.5894531,-0.32095772,0.56547636,1.4151126146316528,-0.31027522683143616,-1.166731357574463,-9.111252784729004,-46.61060333251953, -3.207772970199585
510,3727863104,0.47765732,0.5928792,-0.32460597,0.5612209,1.4393446445465088,-1.8209195137023926,-0.8734676837921143,-6.355617523193359,-44.003623962402344, 0.20387208461761475
511,3727879771,0.474438,0.5972397,-0.32681248,0.5580387,1.1290528774261475,-2.405106544494629,0.04087214916944504,10.958741188049316,-41.976070404052734, 1.6138603687286377
512,3727896438,0.46978047,0.6031379,-0.32737857,0.5552968,0.9524248242378235,0.21975010633468628,0.5917496085166931,29.196285247802734,-44.02978515625, -1.7263256311416626
513,3727913105,0.46531418,0.60931593,-0.3287054,0.5515159,0.5902931690216064,0.4346529245376587,1.402632236480713,24.087154388427734,-51.53062057495117, -3.310159206390381
514,3727929772,0.45997646,0.6164512,-0.32994366,0.5473088,0.414463073015213,0.9268014430999756,1.3061590194702148,30.201444625854492,-58.753684997558594, -3.9154863357543945
515,3727946439,0.45420253,0.62390345,-0.33145624,0.5427537,0.2976304590702057,1.8969502449035645,2.686765432357788,31.257183074951172,-63.395057678222656, -2.9284281730651855
516,3727963106,0.44793653,0.631616,-0.33084497,0.53940326,0.2692869305610657,2.3675765991210938,1.7252631187438965,44.885005950927734,-53.84263229370117, -7.004464626312256
517,3727979773,0.43985465,0.6404876,-0.32893577,0.53675395,-0.21127359569072723,1.675364375114441,1.383176565170288,62.77522277832031,-55.34619140625, -6.346651077270508
518,3727996440,0.4295796,0.65102667,-0.32670096,0.5337531,0.13978338241577148,1.203395128250122,1.1615076065063477,77.91009521484375,-67.1220474243164, -4.507119655609131
519,3728013107,0.41887826,0.66195774,-0.32533997,0.529629,0.3691505491733551,0.8575834035873413,2.2518348693847656,75.2719497680664,-77.21305084228516, -3.2326087951660156
520,3728029774,0.40853897,0.67283994,-0.32578638,0.5236848,0.8940666317939758,-0.28233277797698975,1.249401569366455,62.864261627197266,-89.83534240722656, -1.4679515361785889
521,3728046441,0.3984384,0.68379754,-0.32728046,0.51629007,1.6860191822052002,-1.0895544290542603,1.6916887760162354,54.97593307495117,-99.31169891357422, -1.7660630941390991
522,3728063108,0.38834888,0.69509494,-0.3292828,0.50754446,2.0224251747131348,-1.438546895980835,1.7733614444732666,51.03437042236328,-108.3388442993164, -3.9461302757263184
523,3728079775,0.37820327,0.7066387,-0.33181828,0.49751464,2.409109115600586,-2.0367512702941895,1.8149352073669434,47.209075927734375,-116.9930648803711, -5.261630535125732
524,3728096442,0.36758316,0.71815234,-0.33491594,0.48679683,2.800485610961914,-2.60475492477417,2.289381504058838,45.95473098754883,-122.88446044921875, -2.714444875717163
525,3728113109,0.3553743,0.730067,-0.33760655,0.47616526,3.528221845626831,-2.5351436138153076,2.5349812507629395,56.37929153442383,-126.5553207397461, -0.21244609355926514
526,3728129776,0.34150046,0.74265605,-0.33919424,0.4656037,2.749032974243164,-1.3680610656738281,4.364577770233154,70.1607666015625,-129.7196502685547, -1.7895044088363647
527,3728146443,0.3267473,0.75575304,-0.3415086,0.45326117,2.7207205295562744,-0.5180574059486389,5.888818264007568,69.37886810302734,-144.38320922851562, -0.6814747452735901
528,3728163110,0.31096938,0.7691732,-0.34385753,0.43981007,2.739027261734009,-0.11521259695291519,7.678213119506836,72.74799346923828,-153.86029052734375, -0.5785858631134033
529,3728179777,0.29404914,0.7827867,-0.3460521,0.42547438,3.3892977237701416,0.03164656460285187,8.2217378616333,77.61841583251953,-161.76524353027344, -0.29162082076072693
530,3728196444,0.27552474,0.796653,-0.34798494,0.41028875,3.672614336013794,0.33865445852279663,3.7020511627197266,85.54570007324219,-170.65245056152344, 0.6764861941337585
531,3728213111,0.25728276,0.811117,-0.35021612,0.39146358,5.553326606750488,3.2089967727661133,7.4553446769714355,75.59877014160156,-192.31646728515625, -6.798941135406494
532,3728229778,0.24256492,0.82174563,-0.35417485,0.3747757,5.496971607208252,0.252858430147171,10.058089256286621,49.730960845947266,-164.9114227294922, 6.445219993591309
533,3728246445,0.22793964,0.82931244,-0.35868,0.3628131,8.064937591552734,3.22680401802063,13.540573120117188,54.23784637451172,-131.33843994140625, 24.63096809387207
534,3728263112,0.21161272,0.8374256,-0.36139673,0.3511856,5.084115028381348,5.8773088455200195,7.271873950958252,70.18428802490234,-132.64901733398438, 17.929161071777344
535,3728279779,0.2010229,0.8440685,-0.3652431,0.33724737,6.750123500823975,4.652263641357422,6.242131233215332,26.660982131958008,-130.01358032226562, 11.011529922485352
536,3728296446,0.18042687,0.8497857,-0.36238912,0.33761612,6.647886276245117,2.297787666320801,14.577812194824219,135.017578125,-60.929100036621094, 17.5488338470459
537,3728313113,0.1666518,0.85303473,-0.3594384,0.33965203,-0.8614755868911743,4.98984432220459,15.183764457702637,96.5401840209961,-28.74742317199707, 9.474292755126953
538,3728329780,0.16031325,0.8547994,-0.35495344,0.3429664,1.556618332862854,6.553279399871826,12.236720085144043,58.07619857788086,2.125194787979126, -11.595510482788086
539,3728346447,0.16613379,0.8536253,-0.3519667,0.3461835,0.3578593134880066,4.40351676940918,10.326672554016113,-20.254253387451172,36.29143524169922, -24.249982833862305
540,3728363114,0.17382783,0.85095626,-0.3469219,0.3539815,-0.9775765538215637,2.007387161254883,10.643933296203613,-16.884723663330078,73.47998046875, -31.866518020629883
541,3728379781,0.17866074,0.84726536,-0.3393415,0.36751804,-0.8520233631134033,-0.11645688116550446,8.58513355255127,18.528850555419922,105.6412124633789, -30.39836883544922
542,3728396448,0.1826954,0.84205073,-0.3302929,0.38533074,-0.13657797873020172,0.47311294078826904,7.351591110229492,34.97661590576172,134.29254150390625, -28.100996017456055
543,3728413115,0.19040518,0.8347197,-0.321413,0.40457726,-0.7213773131370544,-0.1619993895292282,6.3514404296875,13.835952758789062,156.2967987060547, -30.217628479003906
544,3728429782,0.20241694,0.8254033,-0.31284645,0.42410406,-1.0850239992141724,-0.18185114860534668,5.306581020355225,-13.740509033203125,172.5189971923828, -35.62657165527344
545,3728446449,0.21930744,0.8139171,-0.30522186,0.44303817,-1.1727910041809082,-0.3926037847995758,4.408835411071777,-48.5033073425293,184.68310546875, -40.691139221191406
546,3728463116,0.23996522,0.8000069,-0.2983355,0.46195433,-0.9751151204109192,-0.6913780570030212,3.9610538482666016,-75.55673217773438,198.79603576660156, -43.03850173950195
547,3728479783,0.26217097,0.78368145,-0.29192886,0.48154688,-0.7485013604164124,-1.1888537406921387,3.0996522903442383,-88.22300720214844,212.6084747314453, -39.32958221435547
548,3728496450,0.2846156,0.7648749,-0.28493816,0.50276315,-0.21336416900157928,-1.4081112146377563,2.52213716506958,-88.8326644897461,231.158935546875, -35.4520378112793
549,3728513117,0.30590186,0.7437288,-0.2767749,0.5260108,0.8477116823196411,-2.2086029052734375,1.4110794067382812,-79.31475830078125,250.01795959472656, -29.152515411376953
550,3728529784,0.32532415,0.72026587,-0.26712108,0.55138725,2.3689069747924805,-2.6916768550872803,0.6622766852378845,-65.25238037109375,268.959716796875, -21.251096725463867
551,3728546451,0.34142402,0.6953309,-0.25518617,0.5786404,3.6701183319091797,-2.5658750534057617,-0.381489634513855,-40.03289031982422,282.932373046875, -13.151728630065918
552,3728563118,0.35511112,0.6690813,-0.24095869,0.60676634,5.224123001098633,-1.348557710647583,-1.9993653297424316,-20.9555721282959,293.61322021484375, -10.24442195892334
553,3728579785,0.3686888,0.64063025,-0.22650914,0.63431484,6.956263542175293,-0.6995169520378113,-2.828357219696045,-25.8989315032959,300.681884765625, -8.62002182006836
554,3728596452,0.38282076,0.61013997,-0.2141912,0.6597725,8.039786338806152,0.10841890424489975,-3.8904356956481934,-46.10240173339844,296.0317687988281, -3.821035861968994
555,3728613119,0.3973296,0.5786296,-0.20458184,0.6822487,9.203947067260742,1.0312349796295166,-5.601075649261475,-67.09521484375,281.8232116699219, -0.5579456686973572
556,3728629786,0.41275012,0.547456,-0.19858725,0.7003517,9.68835735321045,2.0449554920196533,-7.493913173675537,-92.9716567993164,254.56199645996094, -2.9135334491729736
557,3728646453,0.42854926,0.5187426,-0.19687223,0.71308714,8.922179222106934,2.450753688812256,-9.954693794250488,-115.42753601074219,211.25575256347656, -7.242613315582275
558,3728663120,0.44454253,0.49341854,-0.19985554,0.72040135,7.624884128570557,2.56162691116333,-13.579877853393555,-136.59979248046875,162.16619873046875, -12.005823135375977
559,3728679787,0.45656118,0.47542956,-0.20228277,0.7242932,5.561877727508545,1.6946537494659424,-19.11448097229004,-102.74256134033203,110.9850082397461, -14.726017951965332
560,3728696454,0.46330833,0.46768945,-0.20342669,0.72472763,3.5670435428619385,0.9326266050338745,-22.421117782592773,-51.87203598022461,45.98261642456055, -17.752262115478516
561,3728713121,0.46428904,0.47221836,-0.20496593,0.7207182,3.3035151958465576,2.0948069095611572,-20.565027236938477,-2.5528724193573,-38.08316421508789, -19.045480728149414
562,3728729788,0.46368867,0.4838675,-0.21056837,0.7117067,3.874751567840576,3.2012171745300293,-16.408353805541992,-2.0027759075164795,-104.2101058959961, -23.97464370727539
563,3728746455,0.4628962,0.4994283,-0.21854009,0.6989557,4.028196334838867,4.63821268081665,-12.089088439941406,-6.027792453765869,-143.16171264648438, -32.659393310546875
564,3728763122,0.4649524,0.5144936,-0.2307309,0.6825534,3.6927175521850586,4.502126693725586,-8.836105346679688,-43.27470397949219,-162.14439392089844, -42.60332107543945
565,3728779789,0.47025678,0.52667224,-0.24651776,0.6638556,2.492150068283081,1.5487234592437744,-6.890026092529297,-84.6121826171875,-162.8551483154297, -47.71984100341797
566,3728796456,0.47670084,0.5357075,-0.2640767,0.64500976,3.2350969314575195,-4.4552321434021,2.8934850692749023,-107.28462982177734,-152.71751403808594, -41.537086486816406
567,3728813123,0.47984764,0.54604477,-0.2762693,0.62869453,8.001986503601074,-7.574271202087402,7.31564474105835,-48.232154846191406,-134.74461364746094, -39.5752067565918
568,3728829790,0.4777746,0.5575367,-0.28281996,0.6171689,8.284225463867188,-5.845463275909424,-7.544116020202637,-20.51626968383789,-119.62035369873047, -26.860740661621094
569,3728846457,0.4695907,0.5732956,-0.28427452,0.60828036,4.5439839363098145,-2.946723222732544,-4.864277362823486,58.83061981201172,-119.20830535888672, -19.513675689697266
570,3728863124,0.46370515,0.58619577,-0.2866548,0.5993172,0.6738597750663757,2.2562642097473145,0.11432011425495148,36.51758575439453,-105.9446792602539, -20.256921768188477
571,3728879791,0.46571553,0.5936383,-0.29369625,0.58689463,0.9038716554641724,3.819504499435425,-2.463406562805176,-38.74786376953125,-96.78580474853516, -34.20326614379883
572,3728896458,0.46308926,0.6015617,-0.2971462,0.5791169,0.8457832336425781,0.7212781310081482,-0.9450109601020813,5.5563578605651855,-77.63497161865234, -16.123016357421875
573,3728913125,0.4615217,0.6076508,-0.30033708,0.57232535,-0.16140435636043549,4.855993747711182,-0.35491588711738586,-1.6146485805511475,-63.3192138671875, -14.503495216369629
574,3728929792,0.45866686,0.61300904,-0.30254275,0.56772584,0.22762329876422882,0.5873727202415466,-0.47810670733451843,9.84313678741455,-50.892364501953125, -4.95063591003418
575,3728946459,0.4549779,0.61821514,-0.30344388,0.5645592,0.8777145743370056,0.27402225136756897,-0.8845235705375671,20.96873664855957,-41.9476432800293, -2.3568477630615234
576,3728963126,0.45178542,0.6227862,-0.304584,0.5614769,0.663855254650116,-0.9986274242401123,-0.9872733950614929,16.134315490722656,-38.88829040527344, -1.6945596933364868
577,3728979793,0.44913867,0.62698895,-0.30574206,0.55828416,0.43697282671928406,-1.4297246932983398,-0.489978551864624,12.370070457458496,-36.90028381347656, -3.3443706035614014
578,3728996460,0.44664788,0.63105625,-0.30716956,0.55490625,0.46432480216026306,-1.477538824081421,0.007174916565418243,9.87448501586914,-37.74666213989258, -3.1228835582733154
579,3729013127,0.44296914,0.6359216,-0.30797136,0.55184793,0.10547636449337006,0.32285940647125244,0.5897727608680725,20.562461853027344,-40.069454193115234, -2.066037178039551
580,3729029794,0.43851653,0.64147097,-0.3086958,0.5485667,-0.43320992588996887,1.448935866355896,0.9251291751861572,25.87228012084961,-45.13494873046875, -1.5993361473083496
581,3729046461,0.43376726,0.6473441,-0.3102695,0.5445408,-0.338412880897522,2.0114457607269287,1.215427041053772,23.395998001098633,-52.92890167236328, 0.3645818829536438
582,3729063128,0.4291709,0.6533074,-0.31311706,0.5394069,-0.15937958657741547,1.189103364944458,1.4426038265228271,15.876739501953125,-61.77423858642578, 2.014256477355957
583,3729079795,0.42365307,0.66025174,-0.31561264,0.5338301,0.14988583326339722,0.6298820972442627,1.7733510732650757,23.28999900817871,-68.45276641845703, 0.45606178045272827
584,3729096462,0.41642743,0.66889036,-0.31706056,0.52786964,0.7678200602531433,0.897113561630249,1.1217440366744995,39.02259826660156,-77.17955780029297, -2.825039863586426
585,3729113129,0.40821564,0.67881507,-0.31781977,0.5211151,0.8083698153495789,1.4593642950057983,2.9810197353363037,48.03147888183594,-85.76624298095703, -7.489357948303223
586,3729129796,0.39799282,0.68977606,-0.31813264,0.5143953,1.0550252199172974,-0.5359771847724915,1.810211420059204,62.03937911987305,-92.60164642333984, -4.519968509674072
587,3729146463,0.38652286,0.70171887,-0.31804702,0.50698847,1.4228792190551758,-0.5286226868629456,1.819453477859497,70.57283782958984,-101.07122039794922, -6.072340965270996
588,3729163130,0.3748802,0.7138009,-0.31852946,0.49848983,2.4846065044403076,-1.3657855987548828,2.060823440551758,67.42987823486328,-108.81293487548828, -5.980181694030762
589,3729179797,0.36357152,0.7257621,-0.32016423,0.48844653,3.1662092208862305,-2.388838529586792,1.910159945487976,58.16535949707031,-118.33256530761719, -5.256495952606201
590,3729196464,0.35168523,0.73787946,-0.32226256,0.47749174,3.0985143184661865,-2.6088080406188965,2.3172242641448975,57.87966537475586,-125.94916534423828, -3.72029185295105
591,3729213131,0.33974704,0.75010216,-0.32510403,0.46500152,3.6458358764648438,-2.182177782058716,3.2994980812072754,52.55808639526367,-136.12266540527344, -3.8206515312194824
592,3729229798,0.32669723,0.7625049,-0.32748163,0.4523397,3.4103190898895264,-2.33587908744812,3.670501232147217,59.815879821777344,-139.1436004638672, -3.54148530960083
593,3729246465,0.31079692,0.7758522,-0.3287121,0.43978125,3.4970078468322754,-2.269670248031616,4.820993423461914,80.6834487915039,-145.54954528808594, -2.6606504917144775
594,3729263132,0.29230168,0.79006994,-0.32862246,0.42703265,3.0225894451141357,-0.2338765561580658,7.383573532104492,99.95042419433594,-152.44314575195312, -4.2950358390808105
595,3729279799,0.27342066,0.80425894,-0.32882887,0.41265094,3.592203378677368,0.04556708782911301,9.002836227416992,97.46296691894531,-162.96205139160156, -4.7717790603637695
596,3729296466,0.25268868,0.81816065,-0.32907712,0.39808282,4.450561046600342,-0.658968448638916,9.509553909301758,106.66179656982422,-167.7489013671875, 1.0236709117889404
597,3729313133,0.23032746,0.83186495,-0.32979977,0.38233823,4.074572563171387,0.29666802287101746,3.136312484741211,111.55451202392578,-178.6621856689453, 6.556077480316162
598,3729329800,0.20970365,0.84586906,-0.33129558,0.3616262,6.989170551300049,5.329593181610107,8.593567848205566,88.79840850830078,-205.29074096679688, -2.102123498916626
599,3729346467,0.1907138,0.8558463,-0.3346702,0.34518358,5.341390609741211,0.611494243144989,12.0470609664917,78.6549072265625,-169.7479248046875, 20.230300903320312
600,3729363134,0.17179054,0.8642105,-0.33530325,0.33346686,4.5458478927612305,6.4365034103393555,16.575382232666016,93.57168579101562,-134.714599609375, 13.882621765136719
601,3729379801,0.15298896,0.87245595,-0.33500198,0.32123077,3.601012706756592,8.299103736877441,6.1807942390441895,93.81906127929688,-136.57192993164062, 7.892057418823242
602,3729396468,0.14645877,0.87755173,-0.3385086,0.3063742,8.801931381225586,5.398532867431641,4.713211536407471,2.6191179752349854,-121.22010803222656, 8.30955696105957
603,3729413135,0.14201522,0.8804945,-0.33825237,0.3002447,5.391942024230957,5.269383907318115,16.411788940429688,16.216981887817383,-55.61820983886719, -4.911472320556641
604,3729429802,0.14114167,0.881365,-0.33946332,0.29671478,-2.6939685344696045,0.4079560935497284,14.635894775390625,-4.270034313201904,-29.116390228271484, 4.039884567260742
605,3729446469,0.13627404,0.88220334,-0.33523557,0.3012706,2.542281150817871,5.335723400115967,11.092734336853027,49.880393981933594,15.783108711242676, -12.832221984863281
606,3729463136,0.14117575,0.88020194,-0.33219364,0.30815825,0.4076213836669922,3.500343084335327,9.954365730285645,-9.001172065734863,57.039127349853516, -17.033618927001953
607,3729479803,0.14822505,0.87629545,-0.32840326,0.31982383,-1.4075442552566528,0.9643574953079224,9.606871604919434,-11.28628158569336,95.52740478515625, -17.065868377685547
608,3729496470,0.15480584,0.87092596,-0.32297456,0.33646828,-1.946578025817871,0.42123064398765564,8.889784812927246,4.890315055847168,129.31507873535156, -17.505590438842773
609,3729513137,0.16307345,0.8639928,-0.31694657,0.35562447,-2.1584789752960205,-0.34785687923431396,8.119830131530762,0.0692945122718811,152.34063720703125, -18.822708129882812
610,3729529804,0.17470692,0.85541326,-0.3108715,0.37563905,-1.8985170125961304,0.2457749843597412,5.593208312988281,-19.81934356689453,168.84934997558594, -22.784975051879883
611,3729546471,0.19355617,0.84437424,-0.30578643,0.39504796,-1.4347939491271973,1.0628308057785034,4.183943271636963,-69.09554290771484,185.91165161132812, -31.085786819458008
612,3729563138,0.21725783,0.8306491,-0.3016026,0.41455674,-1.5728541612625122,-0.0674126148223877,3.828035831451416,-103.09420776367188,202.83995056152344, -33.28765869140625
613,3729579805,0.24141265,0.8148881,-0.29678604,0.4354258,-1.140076994895935,0.03875676915049553,2.647129535675049,-104.12701416015625,218.34442138671875, -32.00586700439453
614,3729596472,0.26610053,0.796769,-0.29140627,0.4576378,-0.2951756417751312,-0.8197058439254761,1.6275510787963867,-106.6286849975586,235.0184783935547, -29.77692985534668
615,3729613139,0.28945306,0.7765772,-0.28483516,0.48167858,0.3284546136856079,-1.891189694404602,0.7303745746612549,-95.72843170166016,251.13990783691406, -24.678857803344727
616,3729629806,0.3111411,0.7542718,-0.27705193,0.50745237,1.3737664222717285,-2.4824604988098145,-0.538820743560791,-83.68246459960938,266.6388854980469, -18.14419937133789
617,3729646473,0.33123004,0.7297032,-0.26834777,0.53461164,2.6757829189300537,-2.6748952865600586,-1.3319664001464844,-74.42813110351562,280.7645568847656, -10.16655445098877
618,3729663140,0.34943387,0.7030526,-0.2589537,0.56263345,4.007122039794922,-2.3414227962493896,-1.972115159034729,-65.62628173828125,290.9708557128906, -0.9976330399513245
619,3729679807,0.36576575,0.6749711,-0.24904919,0.5904271,5.356352806091309,-0.8526944518089294,-2.924561023712158,-58.488494873046875,293.43804931640625, 5.6858229637146
620,3729696474,0.3809587,0.6460651,-0.23872265,0.6168322,6.758396625518799,1.3199429512023926,-4.396910190582275,-55.97522735595703,289.6222229003906, 6.2178215980529785
621,3729713141,0.39718387,0.61606854,-0.2296819,0.6402744,8.149476051330566,2.593022108078003,-6.268522262573242,-73.77918243408203,279.6340026855469, 1.5749218463897705
622,3729729808,0.41395187,0.58649683,-0.22239926,0.65970004,9.271068572998047,2.6508371829986572,-8.023563385009766,-89.06591033935547,257.0930480957031, -4.993987083435059
623,3729746475,0.43270937,0.55782634,-0.22112969,0.6728255,9.148945808410645,2.5018393993377686,-10.343493461608887,-108.31017303466797,218.31134033203125, -9.486923217773438
624,3729763142,0.45148742,0.5319873,-0.22431019,0.68031895,7.8963704109191895,3.1756887435913086,-12.203204154968262,-135.55313110351562,169.67819213867188, -12.377646446228027
625,3729779809,0.46605018,0.5117313,-0.22773565,0.6848832,6.399392127990723,2.0194766521453857,-17.698793411254883,-125.3621826171875,122.80059051513672, -10.22552490234375
626,3729796476,0.4725986,0.5025725,-0.22605917,0.68772745,4.292720317840576,2.6064343452453613,-21.776933670043945,-40.39207077026367,68.9121322631836, -13.294181823730469
627,3729813143,0.47219515,0.5051948,-0.22387043,0.6867987,3.2317306995391846,2.566802501678467,-21.924116134643555,18.312829971313477,-8.268871307373047, -12.70816421508789
628,3729829810,0.46886605,0.51604915,-0.2264113,0.68014413,3.3256676197052,3.530972480773926,-18.887880325317383,23.90217399597168,-86.21501922607422, -13.67363166809082
629,3729846477,0.46464413,0.5316258,-0.23181735,0.66913426,3.661707639694214,4.436838626861572,-14.079826354980469,21.9705753326416,-133.82130432128906, -20.645280838012695
630,3729863144,0.46101087,0.54936874,-0.23940764,0.65448236,3.9175920486450195,4.879824638366699,-10.917505264282227,10.758561134338379,-162.7412872314453, -30.348108291625977
631,3729879811,0.4632718,0.56246,-0.25601706,0.6351956,7.838061332702637,-1.1958160400390625,9.279664993286133,-51.58570861816406,-172.6721649169922, -29.501728057861328
632,3729896478,0.46117944,0.5772938,-0.26516777,0.6194607,6.115629196166992,-6.472829818725586,5.45612907409668,-13.762443542480469,-156.14576721191406, -31.265676498413086
633,3729913145,0.4625827,0.58943653,-0.27627832,0.60187393,6.2934465408325195,-2.0600943565368652,-9.266048431396484,-47.254520416259766,-151.97061157226562, -39.555294036865234
634,3729929812,0.45891094,0.6041558,-0.28258172,0.58697903,3.4916024208068848,-0.7528252601623535,-3.324244976043701,6.47553825378418,-145.82110595703125, -34.431114196777344
635,3729946479,0.4549811,0.61602736,-0.28748688,0.5751991,-0.7751461267471313,1.7698081731796265,-2.5579426288604736,10.24632740020752,-117.44230651855469, -23.86882209777832
636,3729963146,0.4571983,0.6231911,-0.29436475,0.5620964,3.291290044784546,2.8790674209594727,-2.741393566131592,-40.954322814941406,-98.46166229248047, -34.57706832885742
637,3729979813,0.45637143,0.6301683,-0.29864138,0.552654,1.5373072624206543,1.0664653778076172,-0.9758738279342651,-11.053792953491211,-80.03974914550781, -21.988203048706055
638,3729996480,0.45470664,0.63603073,-0.30160856,0.5456549,1.2118674516677856,1.9021438360214233,-1.162246584892273,-0.9207517504692078,-62.88926696777344, -14.49925708770752
639,3730013147,0.4514022,0.6418211,-0.30257952,0.5410615,0.5783119797706604,0.5471830368041992,-0.11430007964372635,18.511247634887695,-49.308013916015625, -9.370205879211426
640,3730029814,0.4474267,0.6474563,-0.30257544,0.53764105,0.41624751687049866,0.20410309731960297,-0.22664222121238708,27.078109741210938,-42.007408142089844, -7.22554874420166
641,3730046481,0.44418773,0.6522543,-0.3034453,0.53402495,0.7654843330383301,0.35400956869125366,-0.7590246200561523,17.60914421081543,-41.014991760253906, -4.937561511993408
642,3730063148,0.44235215,0.6560079,-0.3055803,0.5297162,0.9410639405250549,-1.1671197414398193,0.0599973201751709,2.052069902420044,-41.27876663208008, -4.362804412841797
643,3730079815,0.43925318,0.66034967,-0.30671665,0.52623224,1.2929331064224243,-1.0984349250793457,0.013109985738992691,14.932636260986328,-39.40027618408203, -3.0471107959747314
644,3730096482,0.43460634,0.6654032,-0.307104,0.5234913,0.9297665953636169,0.8143965005874634,0.9452230334281921,28.40911865234375,-39.68086624145508, -0.16483189165592194
645,3730113149,0.42932746,0.6709381,-0.30728537,0.52066875,-0.09840905666351318,1.3130351305007935,1.1590319871902466,33.338409423828125,-42.60908126831055, -0.09755976498126984
646,3730129816,0.422444,0.6777626,-0.30702233,0.5176064,-0.1765948385000229,1.4003841876983643,0.9840518832206726,45.663238525390625,-50.512901306152344, 0.17856824398040771
647,3730146483,0.41509452,0.68530524,-0.30743286,0.51335996,-0.09304217249155045,1.3675410747528076,1.7674366235733032,45.05402374267578,-61.6175537109375, 0.03764503821730614
648,3730163150,0.40799984,0.6931617,-0.30821303,0.50800383,0.09925827383995056,1.4888192415237427,1.845129132270813,41.13645553588867,-68.58367919921875, -2.9335014820098877
649,3730179817,0.4004278,0.701549,-0.30849677,0.5023112,0.37087658047676086,0.8604745864868164,2.774203062057495,45.9573974609375,-71.77246856689453, -5.681734561920166
650,3730196484,0.3930574,0.71005094,-0.309274,0.4956648,0.09594360738992691,0.1100267767906189,0.8173817992210388,41.61368942260742,-77.8386459350586, -6.86668586730957
651,3730213151,0.38603887,0.71879154,-0.3115748,0.48706713,0.34066280722618103,-0.4050945043563843,1.2055068016052246,31.222484588623047,-91.61734771728516, -6.423941135406494
652,3730229818,0.37820804,0.7284292,-0.31434977,0.47700545,0.609344482421875,-0.3997676372528076,1.396112084388733,32.91743850708008,-104.93797302246094, -7.197080612182617
653,3730246485,0.37019807,0.7383075,-0.31767473,0.46576676,1.85942804813385,-1.0256261825561523,1.6891051530838013,30.114225387573242,-113.52703094482422, -7.463008880615234
654,3730263152,0.36111727,0.7485649,-0.32098505,0.4541078,2.352982997894287,-0.9904699921607971,0.8391330242156982,35.66521453857422,-119.28063201904297, -6.061219215393066
655,3730279819,0.35077494,0.759318,-0.3241408,0.44195703,2.840616464614868,-1.2598004341125488,1.6549460887908936,42.79857635498047,-125.84176635742188, -5.290081977844238
656,3730296486,0.33901337,0.77067554,-0.32723022,0.42901012,2.6575405597686768,-0.9923686385154724,2.517063856124878,50.10246658325195,-134.95199584960938, -4.653412342071533
657,3730313153,0.3255522,0.7828947,-0.33028468,0.41473362,3.2232775688171387,-0.7937284111976624,4.208911895751953,58.24900817871094,-148.41885375976562, -4.917759418487549
658,3730329820,0.30966786,0.7961436,-0.33189029,0.400138,3.2219109535217285,-0.8401595950126648,5.039248943328857,77.03487396240234,-155.52757263183594, -8.909698486328125
659,3730346487,0.2912369,0.8103057,-0.33188304,0.38527855,4.6560468673706055,-0.9817363023757935,6.227591037750244,96.7846908569336,-162.078857421875, -13.421623229980469
660,3730363154,0.2697512,0.824704,-0.33048657,0.37131715,5.713791370391846,-1.5887463092803955,8.617792129516602,120.04324340820312,-162.16107177734375, -11.862422943115234
661,3730379821,0.24512228,0.83876103,-0.3285514,0.35839796,6.4519758224487305,-2.0944457054138184,10.898168563842773,141.01341247558594,-161.8769989013672, -4.238245964050293
662,3730396488,0.21758927,0.8521942,-0.3269776,0.3456963,5.7440900802612305,-1.8382389545440674,6.628148078918457,156.34274291992188,-166.6759796142578, 6.732354640960693
663,3730413155,0.1890225,0.86636066,-0.32590398,0.32783642,7.344142436981201,6.562394618988037,7.075495719909668,150.70872497558594,-202.00486755371094, 2.7383737564086914
664,3730429822,0.16445453,0.8761404,-0.32771617,0.31294543,8.732026100158691,1.9744763374328613,12.484739303588867,121.47674560546875,-169.5206298828125, 24.78767967224121
665,3730446489,0.14278635,0.8842121,-0.3280233,0.3003032,6.950197219848633,9.671844482421875,17.302581787109375,110.4527359008789,-144.51248168945312, 15.945876121520996
666,3730463156,0.120682605,0.89096856,-0.32639936,0.29167542,2.064603328704834,5.8309855461120605,7.370939254760742,125.10577392578125,-116.96865844726562, 12.26790714263916
667,3730479823,0.10511021,0.8968851,-0.32489365,0.28105778,6.889416217803955,9.46872329711914,3.61954927444458,79.82733917236328,-113.025390625, 0.2888219356536865
668,3730496490,0.11226102,0.89898115,-0.3255698,0.2706196,4.869573593139648,8.27458667755127,15.075041770935059,-66.64598846435547,-55.52277755737305, -21.35062599182129
669,3730513157,0.124736145,0.8989664,-0.32703,0.26334733,-4.582195281982422,-0.9989425539970398,14.197798728942871,-95.34764099121094,-21.058626174926758, -19.190357208251953
670,3730529824,0.12899375,0.8991255,-0.3229189,0.2658147,-0.3677319884300232,4.158391952514648,10.13174057006836,-12.44196891784668,25.100627899169922, -30.86924171447754
671,3730546491,0.14110747,0.8963636,-0.32002816,0.2724026,-1.0094153881072998,1.927431583404541,8.32518196105957,-56.58232879638672,72.2056655883789, -27.500656127929688
672,3730563158,0.1509642,0.8920845,-0.31536898,0.28624767,-2.5690577030181885,0.7794433832168579,8.689484596252441,-24.834991455078125,116.50959014892578, -23.782268524169922
673,3730579825,0.16100916,0.8857015,-0.31005716,0.30573475,-3.3348305225372314,-0.9906458854675293,7.766979217529297,-14.663996696472168,156.36404418945312, -17.70992088317871
674,3730596492,0.16848472,0.87781125,-0.3036289,0.3299547,-3.5841355323791504,-3.2383921146392822,7.472142219543457,11.691293716430664,184.1665802001953, -10.635954856872559
675,3730613159,0.1729071,0.86889213,-0.2955574,0.35745707,-2.8442318439483643,-1.6558396816253662,5.739036560058594,39.3986701965332,201.8969268798828, -7.684240341186523
676,3730629826,0.1841296,0.85762185,-0.28812486,0.3841423,-1.5744788646697998,0.35033899545669556,3.6358766555786133,-7.338920593261719,215.9107208251953, -16.758779525756836
677,3730646493,0.20296164,0.84344304,-0.2821456,0.40963945,-1.4431153535842896,-0.20882101356983185,3.5877788066864014,-62.13479232788086,229.88462829589844, -24.01826286315918
678,3730663160,0.22638974,0.82656944,-0.27759522,0.43413344,-0.864984929561615,-0.36427682638168335,2.2127315998077393,-98.57465362548828,238.6221923828125, -24.887489318847656
679,3730679827,0.25230902,0.8069252,-0.2739031,0.45846394,0.2281961292028427,-0.878822922706604,1.589660406112671,-119.97588348388672,249.44053649902344, -22.47710609436035
680,3730696494,0.27807137,0.7849111,-0.26983407,0.48350894,1.2780201435089111,-1.2682483196258545,0.6904878616333008,-120.734619140625,261.28363037109375, -18.461910247802734
681,3730713161,0.30284807,0.7604246,-0.2651698,0.50963,2.7656641006469727,-1.6262874603271484,-0.2679795026779175,-116.223388671875,274.68231201171875, -11.84969711303711
682,3730729828,0.32527587,0.7339731,-0.25942117,0.53682417,4.152065277099609,-1.5050755739212036,-1.1053111553192139,-102.31883239746094,285.2306213378906, -3.5867722034454346
683,3730746495,0.34536687,0.70589185,-0.25238374,0.5645717,5.9874749183654785,-0.6864456534385681,-1.9353272914886475,-88.47665405273438,292.84881591796875, 2.583169460296631
684,3730763162,0.36372805,0.67632645,-0.2445023,0.59203327,7.734727382659912,0.201227605342865,-2.5736336708068848,-80.86402130126953,296.34649658203125, 7.021055698394775
685,3730779829,0.37870485,0.6472099,-0.23479164,0.6185264,8.864747047424316,0.8894689679145813,-4.2926025390625,-58.21424865722656,289.0420837402344, 9.064443588256836
686,3730796496,0.3899759,0.62052876,-0.22305164,0.6427372,9.366744995117188,2.628915786743164,-6.687851428985596,-30.477432250976562,268.03778076171875, 5.896974086761475
687,3730813163,0.40210408,0.59542984,-0.21395446,0.66181505,9.230551719665527,3.525892496109009,-9.254201889038086,-49.51689147949219,233.67807006835938, -2.7814066410064697
688,3730829830,0.41753533,0.5715449,-0.21278954,0.6735884,7.447927474975586,3.5074124336242676,-10.942662239074707,-86.3455810546875,185.42002868652344, -9.409944534301758
689,3730846497,0.43434966,0.55029744,-0.21735199,0.6791697,6.520019054412842,2.72084379196167,-15.561111450195312,-124.18331909179688,134.1837158203125, -13.589107513427734
690,3730863164,0.44613016,0.5369711,-0.2203507,0.68123114,5.2693705558776855,2.497495412826538,-20.280961990356445,-95.53143310546875,78.49853515625, -17.506717681884766
691,3730879831,0.45065126,0.5357036,-0.22191669,0.6787402,3.768217086791992,2.8334527015686035,-22.425146102905273,-32.0851936340332,-0.6761659383773804, -20.978919982910156
692,3730896498,0.45170107,0.5437907,-0.22682534,0.66993153,4.214294910430908,3.7203922271728516,-19.703168869018555,-15.727639198303223,-82.50704956054688, -26.245487213134766
693,3730913165,0.45062903,0.55783683,-0.23433328,0.6563839,5.160304546356201,4.42699670791626,-16.09433364868164,-8.812355995178223,-138.42462158203125, -30.665769577026367
694,3730929832,0.4496122,0.57464886,-0.2463949,0.6379006,5.478659629821777,3.5642311573028564,-8.84066104888916,-8.023448944091797,-178.42056274414062, -34.73942565917969
