Acc_X,Acc_Y,Acc_Z
6.79549503326416,-5.8562541007995605,3.1027867794036865
5.694394588470459,-5.939861297607422,2.5640177726745605
4.807492256164551,-4.11424446105957,1.5355658531188965
4.274837970733643,-0.8344036340713501,0.5201817750930786
3.984296560287476,2.9556474685668945,-1.0360039472579956
3.459082126617432,4.668374061584473,-3.743436813354492
4.133177757263184,3.310037851333618,-5.593632698059082
5.084493637084961,1.118823766708374,-9.685188293457031
4.325127601623535,-0.8852802515029907,-16.22895622253418
2.0998857021331787,-4.631606578826904,-22.05257225036621
1.0540508031845093,-5.302261352539063,-23.63374137878418
-0.6703341007232666,-2.2272868156433105,-26.431568145751957
-3.352952718734741,-1.024203896522522,-25.814550399780277
-2.322632074356079,-2.05995512008667,-26.341827392578125
-0.999853253364563,-0.2760287523269653,-23.73371696472168
1.0795295238494873,-0.4655070006847381,-20.957839965820312
1.995388150215149,-11.38797092437744,-48.29184722900391
25.9163875579834,8.121309280395508,2.0279765129089355
14.729170799255373,7.171024322509766,17.183120727539062
5.490192890167236,-2.730652332305908,-10.42210578918457
2.546352863311768,6.7703962326049805,-3.076377868652344
1.6826937198638916,0.8049144148826599,-1.883816123008728
4.500987529754639,-4.0685248374938965,-1.7484971284866333
7.074761867523193,-3.1713430881500244,-1.6549575328826904
7.643960952758789,-2.4096572399139404,-2.0974130630493164
8.82251262664795,-0.5830783247947693,-1.786757469177246
8.666900634765625,1.1484909057617188,0.3603212237358093
9.309404373168944,1.6873818635940552,1.0861114263534546
10.888818740844728,1.963084101676941,6.003507137298584
7.948669910430908,2.2152538299560547,7.5970940589904785
6.287266254425049,-2.022832155227661,2.435692548751831
6.5400824546813965,-9.516938209533691,16.787273406982422
-4.297916889190674,-6.268531799316406,15.32411289215088
-2.49452543258667,-6.125510215759277,13.579228401184082
0.1881371438503265,-8.295089721679688,8.528162002563477
4.335048198699951,-8.631681442260742,13.90829849243164
3.363313674926758,-2.5067059993743896,20.970104217529297
3.429781913757324,-0.520268440246582,21.257299423217773
4.5864458084106445,0.0002092123031616,21.25540542602539
4.032774925231934,1.483342170715332,20.052005767822266
3.364122152328491,2.3494985103607178,18.495485305786133
3.227060079574585,0.4458729028701782,15.233475685119627
4.423640727996826,0.5580491423606873,12.828017234802246
3.943683385848999,2.0403940677642822,9.669843673706056
4.575573921203613,-0.3235959708690643,5.222019672393799
5.007487773895264,-1.166126370429993,2.4854612350463867
5.688914775848389,0.9499820470809937,0.2316492348909378
6.171370983123779,2.166088104248047,-1.4852126836776731
6.26377534866333,3.435163736343384,-2.890746831893921
6.001620292663574,3.171294689178467,-4.646829605102539
6.076481342315674,0.913320243358612,-7.6021199226379395
5.552273273468018,-1.727972149848938,-11.721209526062012
4.247945308685303,-2.2112746238708496,-15.88556957244873
3.3536059856414795,-0.2396181374788284,-19.00558090209961
1.628895282745361,0.9009903073310852,-21.18508529663086
-0.705125093460083,0.1829399466514587,-21.505599975585938
-1.6600189208984375,0.3616880476474762,-20.947702407836918
-2.2079458236694336,-1.5729897022247314,-21.706209182739254
-3.132389545440674,-2.680101156234741,-21.111129760742188
-3.200185060501098,-3.199740171432495,-20.233470916748047
-2.725802183151245,-1.6403398513793943,-18.802335739135746
-2.2348079681396484,-0.4755491018295288,-16.29201316833496
-2.321816682815552,-0.6029722690582275,-12.993342399597168
-1.7033019065856934,0.6322689056396484,-10.200000762939451
-1.7463066577911377,3.5493927001953125,-7.113994598388672
-2.1186270713806152,5.224063873291016,-11.662415504455566
1.1631340980529783,-4.0527024269104,-10.642363548278809
11.364081382751465,-2.0772721767425537,2.3346991539001465
3.698984384536743,4.842015266418457,1.200390338897705
8.02144718170166,1.5701870918273926,-1.6700276136398315
6.3151140213012695,2.1861634254455566,2.8860788345336914
10.214082717895508,-1.379718542098999,0.7933879494667053
6.299329280853272,0.3780766129493713,0.4172833263874054
7.0137200355529785,0.8711972832679749,0.5597614049911499
6.672206878662109,0.2097167670726776,0.4120861291885376
6.025542259216309,1.6656033992767334,1.789846420288086
6.701922416687012,1.3443597555160522,4.256837368011475
6.9614458084106445,0.0875274688005447,6.988486289978027
6.133171558380127,-2.156953811645508,6.158529758453369
5.911459922790527,-5.289053440093994,5.832247257232666
2.130561351776123,-3.937938451766968,15.263957023620604
-1.5140328407287598,-2.8075947761535645,11.64415168762207
-1.6550908088684082,-1.3140143156051636,9.029623985290527
-0.1450681537389755,-2.80564022064209,9.436357498168944
3.594808578491211,-2.692396640777588,10.146809577941896
4.497371196746826,-1.3029723167419434,17.601043701171875
4.321932315826416,-3.4312219619750977,15.753292083740234
5.292232036590576,-3.6040773391723633,15.90483283996582
4.429264068603516,-1.3293943405151367,15.911120414733888
4.450079441070557,-2.283348798751831,13.574621200561523
4.96640682220459,-2.8559763431549072,12.494731903076172
5.568558216094971,-0.7701212763786316,10.030753135681152
6.17832612991333,-0.1341282874345779,9.361614227294922
5.6929426193237305,0.2732663452625274,9.131399154663086
5.8657989501953125,0.3432126045227051,7.292006492614746
6.473601818084717,-0.2784952521324157,5.875510692596436
5.920405864715576,-0.5571375489234924,4.68729829788208
5.318219184875488,-1.3680652379989624,2.6497647762298584
4.679212093353272,-0.1553163379430771,1.215733528137207
4.128946304321289,1.171294927597046,-0.8644285202026367
2.280409336090088,1.7149497270584106,-3.824646234512329
0.463058590888977,2.7920241355896,-5.8741326332092285
-0.0658315122127533,2.9787752628326416,-8.164118766784668
-0.4384395480155945,1.5697758197784424,-10.105185508728027
-1.006422996520996,-1.327634334564209,-14.40017032623291
-1.6977829933166504,-4.335150718688965,-18.81431579589844
-2.656909227371216,-4.189532279968262,-22.908056259155277
-2.1984734535217285,-1.2556321620941162,-21.273048400878903
-2.0522053241729736,-1.7212347984313965,-23.14609909057617
-3.173958301544189,-2.3205337524414062,-21.85386657714844
-2.8801615238189697,-3.2464699745178223,-20.568906784057617
-2.069502115249634,-0.9910517334938048,-17.395639419555664
-1.397385597229004,0.6309934854507446,-14.52412223815918
-1.2226691246032717,1.949384689331055,-10.470901489257812
-2.193662166595459,1.5923964977264404,-10.869622230529783
2.410955905914306,-15.075115203857422,-38.19114685058594
21.848268508911133,1.055707573890686,7.356630325317383
-2.710423707962036,1.4160737991333008,4.795888423919678
10.543631553649902,-4.535360336303711,-2.467229127883911
0.2035427540540695,1.953696370124817,0.559980034828186
8.700577735900879,1.1877951622009275,-2.873511552810669
7.454578399658203,0.1550768166780471,0.6984941363334656
9.320718765258787,-0.313997209072113,-2.6437368392944336
8.62668514251709,0.5783838033676147,0.5033056139945984
9.992424011230469,0.7576799988746643,3.518916606903076
7.951332092285156,0.22706139087677,5.22137975692749
5.873902320861816,-1.011142373085022,3.840972185134888
5.132172584533691,-6.639776706695557,8.156583786010742
2.3701722621917725,-4.276766777038574,11.239912033081056
-0.3510868549346924,-0.530987024307251,10.90570831298828
-3.129784345626831,0.4804585576057434,12.607495307922363
-4.759833812713623,-3.2284839153289795,12.067265510559082
-4.407937049865723,-10.62783908843994,7.798357963562012
-1.9745004177093504,-13.395959854125977,5.25369930267334
-0.0835354030132293,-3.3384346961975098,14.10153579711914
1.0532989501953125,-0.5621417164802551,13.971806526184082
2.8094656467437744,1.800349473953247,9.50186538696289
5.511829853057861,4.9947123527526855,9.58272933959961
5.325178623199463,0.4772704243659973,10.20109748840332
4.88977575302124,-3.523531913757324,8.941451072692871
6.796875476837158,-2.00525426864624,8.150151252746582
9.152909278869627,-3.201130151748657,7.453296184539795
10.18630027770996,-3.904672861099243,6.495855331420898
10.016246795654297,-1.1924666166305542,6.987929821014404
8.560619354248047,-1.4449644088745115,6.24009370803833
6.1151862144470215,-1.6304056644439695,5.267340660095215
3.823713779449463,-1.1104698181152344,4.595205307006836
1.703985333442688,-2.555262804031372,3.2898707389831543
0.9975142478942872,-1.3271658420562744,3.719571352005005
0.0442838221788406,-0.1317091882228851,3.3114173412323
0.0382590480148792,1.4281539916992188,1.2014175653457642
-0.5392392873764038,2.328542947769165,-1.0829086303710938
-0.7915725708007812,2.386447668075561,-5.596291542053223
-0.6768808960914612,0.3721238672733307,-8.638697624206543
0.0889765918254852,-0.5672913789749146,-10.930363655090332
1.2828912734985352,-0.4304730892181396,-14.091448783874512
2.110352039337158,-0.3234250843524933,-17.54656982421875
2.85814905166626,-0.7553445100784302,-22.961170196533203
1.4329566955566406,0.9357596039772034,-23.0603141784668
0.8071016073226929,-0.2431060373783111,-24.717748641967773
-1.8381378650665283,-2.768528461456299,-24.852373123168945
-2.8608222007751465,-3.5626204013824463,-25.10206794738769
-1.5515137910842896,-2.090827465057373,-20.760133743286133
-0.1895826458930969,-1.5294411182403564,-16.901569366455078
-0.2183263450860977,-1.408079981803894,-12.184703826904297
-0.6925406455993652,-2.5603156089782715,-14.280390739440918
5.00243616104126,-4.484950542449951,-13.368335723876951
8.573283195495605,-3.398202657699585,-1.2778934240341189
1.7497105598449707,1.1618388891220093,1.3380264043807983
20.3142147064209,2.012013912200928,4.735235691070557
4.891517639160156,3.9599356651306152,-5.617496490478516
0.0617851056158542,3.2749245166778564,-1.9893654584884644
5.539357662200928,-2.926212787628174,-3.67859959602356
7.723937511444092,-2.5524232387542725,0.0709189176559448
12.985270500183104,-1.009385347366333,-1.3360278606414795
12.154675483703612,1.110317349433899,0.5451890230178833
13.492929458618164,3.0844712257385254,2.1007015705108643
11.399792671203612,4.864537239074707,7.02750825881958
10.101584434509276,5.950042724609375,8.237156867980957
6.110596179962158,2.274329662322998,11.919294357299805
-0.3761338889598846,-10.91148567199707,-3.723360776901245
-1.0122222900390625,-15.593761444091797,0.6200739741325378
-2.3885257244110107,-5.8690924644470215,-1.046187400817871
5.197463512420654,-3.9607014656066895,5.274621963500977
5.415567874908447,-4.999625205993652,9.578386306762695
7.321576118469238,-5.150181770324707,11.456852912902832
6.955028533935547,-3.0797736644744877,16.237106323242188
6.443937301635742,-2.418346643447876,17.61724853515625
6.9159698486328125,-3.971397876739502,18.346668243408203
6.496845722198486,-6.680442810058594,17.7149600982666
6.401358127593994,-5.65330696105957,16.8891658782959
6.514252662658691,-3.8918662071228023,16.492450714111328
6.166386127471924,-2.202841520309448,15.777618408203123
6.130481243133545,-1.4947882890701294,13.39006519317627
7.459145545959473,-2.609035015106201,10.9299955368042
6.301218986511231,0.5128108859062195,10.340062141418455
5.116270065307617,2.674692153930664,10.013264656066896
5.02697229385376,-0.5925084948539734,5.797798156738281
3.750388383865357,-2.1939697265625,2.3989548683166504
3.226768732070923,0.5791280269622803,1.0704820156097412
2.246105194091797,0.805447518825531,-1.1733258962631226
1.693350315093994,0.020329013466835,-3.00771164894104
1.7298182249069214,0.6163049340248108,-5.146529674530029
2.778320550918579,2.048996686935425,-6.028005599975586
4.068351745605469,3.916374921798706,-7.518763542175293
3.855287313461304,2.996408700942993,-9.562288284301758
3.156814813613892,0.6423378586769104,-12.392390251159668
3.619550704956055,-0.3173664510250091,-15.0324068069458
5.101121425628662,0.3452516794204712,-17.513336181640625
5.009249687194824,-0.286960244178772,-20.199098587036133
2.263000965118408,-4.09285831451416,-22.761903762817383
0.6269204616546631,-5.824136734008789,-24.50219345092773
-0.8456137776374817,-3.6510491371154794,-23.582050323486328
-0.8621479272842407,-2.5484743118286133,-21.72197914123535
-0.2075331956148147,-1.6231783628463743,-17.593584060668945
0.0730456411838531,-1.58580482006073,-13.671502113342283
-0.4306038916110992,0.0446201227605342,-9.870869636535645
4.1235127449035645,-6.282169818878174,-15.459580421447754
28.530004501342773,0.8163871765136719,4.305183410644531
-7.005535125732422,-2.7661921977996826,-5.7030463218688965
0.3619810044765472,0.5846814513206482,-12.126983642578123
3.4809858798980717,2.353571891784668,-2.8777551651000977
6.837749481201172,0.1762002259492874,-1.6403464078903198
4.311402320861816,1.2758023738861084,-2.3657209873199463
5.31290864944458,2.69814682006836,-5.218096733093262
8.931705474853516,0.2003186047077179,-2.425363063812256
16.228694915771484,0.618715763092041,2.648792266845703
13.787925720214844,-0.6584937572479248,7.568610191345215
13.48127555847168,2.647290706634521,5.848756790161133
7.0605340003967285,3.562636375427246,8.388476371765137
3.5816304683685303,1.0474343299865725,11.487811088562012
1.4858224391937256,-9.9135103225708,5.916776180267334
-1.5055201053619385,-11.171780586242676,5.767735004425049
-4.331613540649414,-4.133599281311035,6.965307235717773
1.0796027183532717,-6.066596031188965,4.420644283294678
4.0256876945495605,-4.992399215698242,10.24402141571045
4.138372898101807,-5.425358772277832,14.73166847229004
5.884852409362793,-4.830431938171387,15.99046516418457
6.9123711585998535,-2.605610609054565,16.627330780029297
7.514362812042236,-3.3629274368286133,16.840152740478516
6.945385932922363,-4.3321213722229,16.507089614868164
6.0116167068481445,-3.626688003540039,15.799098014831545
5.936205863952637,-3.167685985565185,15.10843276977539
6.189520835876465,-2.8115580081939697,14.522418022155762
5.891525268554688,-1.9050410985946653,12.047103881835938
5.8514909744262695,-1.4241082668304443,10.70082664489746
4.485171318054199,0.1583959013223648,10.32048797607422
3.8009462356567374,1.4633021354675293,9.195802688598633
3.7769718170166016,-1.1498161554336548,5.152527809143066
3.312039613723755,-0.7837973833084106,1.98966121673584
4.083341121673584,0.8506361842155457,-1.3321720361709597
3.2392733097076416,2.045633554458618,-4.484149932861328
2.800480842590332,2.3083717823028564,-7.083850860595703
3.344959259033203,3.368025541305542,-9.66059112548828
4.636753082275391,2.3991219997406006,-12.454182624816896
5.553919315338135,-0.8726630806922913,-18.39256477355957
5.179565906524658,-1.7931797504425049,-21.752614974975582
4.262084484100342,1.470604419708252,-21.58710479736328
3.9801740646362314,-0.6629137992858887,-25.487831115722656
1.0196576118469238,-3.040703773498535,-26.006521224975582
-0.569154679775238,-2.988492965698242,-26.47333526611328
-1.4870710372924805,-1.5931873321533203,-24.104795455932617
-1.0851333141326904,0.9575314521789552,-20.125904083251957
-0.7110044956207275,2.469485282897949,-15.386466979980469
-1.1879632472991943,2.0714640617370605,-10.556857109069824
-2.85822868347168,1.1444889307022097,-6.762467861175537
-4.2283549308776855,-7.219372272491455,-26.780122756958008
16.061058044433594,-6.388734817504883,-7.500644683837891
3.63075590133667,6.1783552169799805,9.621560096740724
5.725967884063721,-6.6503005027771,-0.3652129769325256
5.4395432472229,-1.5013362169265747,1.921684980392456
7.328226566314697,-0.3401764333248138,-0.8284298777580261
4.065587520599365,0.6990288496017456,0.1863871365785598
4.072165012359619,-0.7457237243652344,-3.64910626411438
4.906686305999756,0.3812061548233032,-1.85627281665802
6.558523654937744,-0.1776971817016601,-0.723503828048706
10.13392734527588,0.1725353002548217,2.224233627319336
11.81617259979248,-0.0291950106620788,6.6822943687438965
10.941092491149902,-0.3273627161979675,5.95006799697876
8.442745208740234,-4.13250207901001,5.926746845245361
2.4319868087768555,-7.3586225509643555,11.333563804626465
-0.7390695810317993,-5.915843486785889,5.684320449829102
0.968296766281128,-2.5189123153686523,7.01846170425415
1.7031790018081665,-6.591122627258301,0.7247714400291443
4.87331485748291,-6.264187335968018,4.217510223388672
5.601185321807861,-2.880589485168457,10.758784294128418
5.399530410766602,-1.3065314292907717,12.507708549499512
5.608060359954834,0.847970724105835,13.39609146118164
6.614271640777588,-1.1229867935180664,13.571667671203612
7.242617607116699,-3.3215208053588867,13.987987518310549
7.7449951171875,-4.729475975036621,13.411895751953123
8.353601455688477,-4.01296329498291,13.052606582641602
9.315046310424805,-4.153700351715088,12.718713760375977
9.029037475585938,-4.31826639175415,11.470596313476562
6.186470985412598,-2.069511651992798,11.722641944885254
5.556813716888428,-3.021299123764038,11.111807823181152
6.772678852081299,-3.8764355182647705,11.37973690032959
5.420490741729736,-1.4002399444580078,12.27920150756836
3.74987530708313,1.5428614616394043,10.647628784179688
4.26770544052124,1.7548803091049194,6.577371120452881
4.159387111663818,0.6426470875740051,0.6583214998245239
2.574179172515869,1.156856894493103,-2.975470781326294
3.3391265869140625,0.1200779825448989,-6.517969131469727
4.771975517272949,-0.7554595470428467,-9.071684837341309
5.382269382476807,-1.7160296440124512,-11.408544540405272
5.351418972015381,-0.9057997465133668,-14.614575386047363
5.020993232727051,0.8474788665771484,-16.570642471313477
4.219097137451172,2.069710731506348,-17.587018966674805
3.055006980895996,-0.5958954095840454,-19.74565887451172
0.0013527870178222,-2.400917291641236,-21.05373954772949
-1.4113421440124512,-2.2038843631744385,-23.219219207763672
-2.043593168258667,0.137530580163002,-21.317121505737305
-1.936440348625183,-0.7400124669075012,-20.614187240600582
-1.8028944730758667,-1.3991398811340332,-18.6275634765625
-1.6801400184631348,-1.02897047996521,-15.54214572906494
-1.1243884563446045,0.2612462639808655,-12.051003456115724
-0.4888121485710144,1.9835443496704104,-8.48647689819336
-1.0866634845733645,0.6004142165184021,-8.674118041992188
25.34785270690918,-15.418951034545898,-30.66069602966309
6.575825214385986,9.511724472045898,18.37052154541016
2.10767674446106,-3.5447964668273926,-11.59213161468506
-4.744109153747559,2.7472331523895264,-10.452619552612305
3.661556005477905,0.2321194410324096,-3.0358455181121826
8.076526641845703,-0.0735768303275108,-1.0886151790618896
3.740352153778076,-1.4619457721710205,-2.4515202045440674
7.73829174041748,1.054040789604187,-5.145827770233154
12.566814422607422,-0.5545998811721802,0.2774620056152344
14.298542022705078,0.9847630858421326,3.902701616287232
15.970123291015623,2.0454134941101074,3.375507116317749
14.466578483581545,2.7647268772125244,9.35114288330078
6.461803913116455,3.177053928375244,12.042074203491213
1.175186276435852,-0.6411121487617493,7.529393196105957
2.303550720214844,-12.167572975158691,7.075371265411377
-2.969029664993286,-8.189738273620605,6.319298267364502
-2.0139315128326416,-4.905116558074951,6.094086647033691
3.0573322772979736,-4.3515143394470215,5.32777214050293
5.501964569091797,-5.227951049804688,10.404837608337402
4.937826633453369,-4.226659297943115,14.887231826782228
4.632863521575928,-5.890351295471191,14.378360748291016
4.572888374328613,-5.163938999176025,14.80937671661377
5.413811206817627,-4.305245876312256,15.46056842803955
5.874972343444824,-4.172679424285889,14.481405258178713
6.3832106590271,-2.8403303623199463,14.407325744628906
7.003580093383789,-2.775613307952881,14.05732536315918
6.6505961418151855,-1.750460863113403,12.866963386535645
6.259713649749756,-0.9221127033233644,10.21405029296875
6.1371378898620605,-2.377323627471924,7.52378511428833
4.293402671813965,-0.5062265396118164,6.688694477081299
2.9231324195861816,-0.3944268822669983,6.368687629699707
1.7809810638427734,-2.173605442047119,3.926034688949585
0.84128737449646,-1.6356512308120728,1.9789464473724363
-0.2433452159166336,-0.6134495735168457,0.3973223865032196
-1.2578465938568115,1.0330160856246948,-1.018344759941101
-0.6706622838973999,3.50791072845459,-1.6093471050262451
0.6447893381118774,4.798948764801025,-2.9940459728240967
1.8136894702911377,5.23781681060791,-4.47303581237793
2.998729944229126,4.227088451385498,-6.440169811248779
3.801501512527466,0.903850793838501,-10.0214262008667
5.21826171875,-2.1287357807159424,-15.157368659973145
6.935856819152832,-1.167084813117981,-19.81290054321289
6.3052754402160645,-1.0806145668029783,-23.550434112548828
2.873773097991944,-1.897719383239746,-25.0664119720459
0.5690658092498779,-2.9350385665893555,-25.12998962402344
-0.2897512316703796,-2.941259384155273,-25.227298736572266
-0.3191316425800323,-1.0237195491790771,-22.355363845825195
0.8264516592025757,-2.133084535598755,-17.865196228027344
16.290433883666992,-17.922988891601562,-34.14645004272461
32.04457092285156,16.042545318603516,20.222047805786133
-22.02854347229004,0.4660217761993408,0.3507822751998901
1.4738852977752686,-9.923420906066896,-21.404695510864254
-2.0926167964935303,0.0878833010792732,-9.541643142700195
8.300318717956543,2.727609634399414,-0.4378547668457031
7.825663089752197,3.843116998672485,-2.6856417655944824
3.6570115089416495,0.1466757208108902,-1.7836605310440063
7.199007987976074,2.303079843521118,-3.292015314102173
7.417294025421143,0.2643569707870483,-2.061014413833618
11.496963500976562,-0.6873262524604797,0.3159155547618866
11.589667320251465,-0.1636046171188354,2.6926980018615723
10.61764907836914,-0.0902404710650444,3.5340330600738525
9.177251815795898,0.0235853195190429,6.883668422698975
5.811250686645508,-0.4577065706253052,9.976906776428224
2.46908974647522,-2.944355010986328,6.6192169189453125
2.49790358543396,-6.248978137969971,10.522292137145996
-1.8188610076904297,-4.233456611633301,10.305330276489258
-2.340150117874145,-4.337183952331543,12.428459167480469
-1.8721284866333008,-9.002256393432617,8.783915519714355
0.7620901465415955,-9.2093505859375,0.0055043846368789
6.676512718200684,-5.008785247802734,5.462687969207764
7.757468700408935,-1.230975866317749,15.138402938842772
7.444411277770996,0.6325310468673706,15.064250946044922
9.04197120666504,0.0950337797403335,15.110589981079102
7.462444305419922,-0.0749890208244323,16.01171875
6.548092842102051,-2.119091510772705,15.222808837890623
6.941534042358398,-4.954994201660156,13.950345039367676
6.858940124511719,-5.298520088195801,12.378002166748049
5.879788398742676,-3.7657339572906494,10.308979034423828
4.89846134185791,-1.4098680019378662,9.925591468811035
4.154468059539795,-2.1721577644348145,8.347967147827148
2.8771541118621826,-0.3687959015369415,6.243536472320557
1.7922301292419434,-2.31376051902771,4.085595607757568
2.0090293884277344,-2.880203485488892,1.0323550701141355
1.9082218408584597,-1.0774084329605105,-0.3362293839454651
0.2892677783966064,-0.5634514093399048,-1.400123953819275
0.1072337925434112,0.7081089615821838,-3.421960592269897
0.247641772031784,1.9051389694213867,-5.0009965896606445
1.072615385055542,3.0076961517333984,-6.369930267333984
2.296963930130005,2.5035407543182373,-7.945693492889404
3.3144702911376958,0.069713681936264,-10.837778091430664
4.74290657043457,-0.8277983665466309,-13.740544319152832
6.344066143035889,-0.2950884699821472,-17.35285758972168
6.605438232421875,0.0058435797691345,-21.091079711914062
3.672178745269776,-1.604719638824463,-23.838136672973636
0.953469455242157,-2.242790699005127,-24.197784423828125
-0.3122198581695556,-2.1295382976531982,-24.340904235839844
-1.434134006500244,-2.3653595447540283,-23.07929992675781
-1.042447805404663,-1.7145239114761353,-19.335346221923828
0.3597948253154754,-0.6914440989494324,-15.240227699279783
1.1660115718841553,0.7596556544303894,-11.354626655578612
8.950090408325195,-3.5447051525115967,-0.6564832925796509
32.00895690917969,7.755452632904053,4.536895275115967
-6.912497520446777,-3.4169485569000244,-3.769976139068604
-6.408755779266357,-3.595367908477783,-15.717774391174316
0.2163663208484649,3.948141098022461,-7.723008632659912
10.11813735961914,-1.1945219039916992,1.7953556776046753
5.349274635314941,-0.3404208123683929,-1.976409077644348
1.4169509410858154,1.280510187149048,-4.892174243927002
6.636970520019531,1.8898324966430664,-4.275221347808838
8.338788986206055,-1.581687092781067,-1.272108793258667
14.303736686706545,-2.125375747680664,2.062779664993286
14.835650444030762,0.5866193771362305,5.580610275268555
15.023630142211914,1.2188977003097534,6.683165073394775
7.693918228149414,1.6468534469604492,11.195420265197754
3.2934353351593018,-0.3090698421001434,9.716504096984863
1.067249774932861,-5.291313171386719,3.498239040374756
0.2272843122482299,-11.172768592834473,11.235589027404783
-4.972527027130127,-5.5714850425720215,6.078005313873291
2.1881651878356934,-5.999205589294434,0.1815429180860519
7.816919326782227,-3.5268914699554443,6.223860263824463
7.926382541656494,-1.0156160593032837,14.98387336730957
6.951410293579102,-3.0748751163482666,15.791714668273926
7.910056591033935,-2.531270980834961,16.20723533630371
8.839781761169434,-1.2208694219589231,17.97881317138672
8.020853042602539,-2.936841487884521,16.934024810791016
7.715565204620361,-3.7458529472351074,16.774133682250977
8.029698371887207,-3.787301540374756,15.495372772216797
7.777882099151611,-3.349838972091675,13.256641387939451
6.446261405944824,-2.5201199054718018,11.480420112609863
4.808551788330078,-0.9322219491004944,9.79457187652588
3.4702258110046387,-0.3279201090335846,7.961301803588867
2.9493322372436523,-0.7851589322090149,5.559376239776611
2.481607437133789,-0.6575965285301208,3.739218235015869
1.82068145275116,-1.789018988609314,2.1761600971221924
1.445311188697815,-0.4700626134872436,0.3312160670757293
0.8713746666908264,1.0096930265426636,-1.2259396314620972
0.0389774739742279,1.6350419521331787,-3.200058460235596
-0.4779450893402099,3.6831343173980713,-3.7578606605529785
-0.3817338049411773,3.2300469875335693,-5.420537948608398
-0.0953886806964874,3.690615653991699,-6.591949462890625
1.2213314771652222,1.9519404172897337,-8.971778869628906
3.1421847343444824,-0.1444738209247589,-11.325691223144531
5.295737266540527,-3.1557531356811523,-16.16182518005371
6.55348539352417,-3.092718601226806,-19.451608657836918
6.382030010223389,-2.1187918186187744,-21.84999656677246
3.463047504425049,-3.347198247909546,-24.734378814697266
0.8456670641899109,-2.6757302284240723,-24.035608291625977
-0.0802670270204544,-2.4916768074035645,-23.23944664001465
-0.1399057805538177,-2.5055899620056152,-20.43735122680664
0.6597768068313599,-1.8392367362976076,-17.397916793823242
1.6408909559249878,-1.8638620376586916,-20.79352569580078
27.692928314208984,-3.576343059539795,-11.299047470092772
4.556795120239258,10.125606536865234,11.185672760009766
-4.531327247619629,-10.265459060668944,-15.152502059936523
-3.795422077178955,2.7243645191192627,-8.765836715698242
4.283388137817383,1.5060101747512815,-2.62742018699646
10.477828025817873,1.1866835355758667,0.2511222958564758
5.520857810974121,0.8157044649124146,-2.7042391300201416
6.507543087005615,3.241316080093384,-5.3550567626953125
10.062322616577148,2.094913482666016,-0.2279756516218185
11.136168479919434,-1.141350030899048,4.941293239593506
15.860548973083496,-0.5386934280395508,3.729873418807984
11.211641311645508,0.689921498298645,6.766329288482666
6.431196212768555,0.8172602653503418,8.16456127166748
3.940826416015625,0.1700550764799118,8.5521821975708
3.249120712280273,-7.325847148895264,2.5650813579559326
0.4423457384109497,-9.11121940612793,10.62967586517334
-4.928976058959961,-5.1195573806762695,10.811796188354492
-3.2008745670318604,-5.61327600479126,7.617392539978027
1.3338960409164429,-8.011794090270996,0.9404215216636658
6.271903038024902,-2.806315422058105,6.154445171356201
8.382671356201172,-1.1952005624771118,15.487412452697754
8.645743370056152,-1.5605921745300293,15.83239459991455
10.44561004638672,-2.0925309658050537,15.929957389831545
10.218173027038574,-1.8209385871887207,15.955561637878418
8.642376899719238,-3.552412748336792,15.704024314880373
8.010357856750488,-5.622565269470215,13.84389591217041
8.138848304748535,-5.428944110870361,11.98949909210205
7.626147747039795,-3.886326551437378,10.586071968078612
6.474207401275635,-2.452493906021118,9.50002670288086
4.575550079345703,-0.8304677605628967,8.091317176818848
2.499495029449463,0.2478352487087249,6.089023113250732
1.3393149375915527,-1.3020869493484497,3.597430229187012
0.865993082523346,-0.2151985317468643,2.133491277694702
0.4614719748497009,1.5214898586273191,0.8202763795852661
-1.1438899040222168,1.0143272876739502,-0.7875994443893433
-2.093425750732422,1.1443769931793213,-1.5509895086288452
-1.6577379703521729,2.2893683910369877,-2.939849853515625
-1.2649837732315063,3.6767947673797607,-3.4350478649139404
-0.82487553358078,3.9654712677001953,-4.695104122161865
-0.2702657282352447,3.628284454345703,-6.102324485778809
0.4318689405918121,1.8845678567886357,-8.48281478881836
1.8087961673736568,-0.2003594636917114,-11.792328834533691
3.761509895324707,-1.88836133480072,-16.73556900024414
5.039826393127441,-1.2261401414871216,-19.47520446777344
4.859151363372803,-2.314509391784668,-24.97585868835449
2.171417474746704,-1.6948093175888062,-25.00542259216309
0.3174388110637665,-0.947659194469452,-24.59407615661621
-0.3902328908443451,-2.290990114212036,-23.490575790405277
0.3245203793048858,-2.588934898376465,-20.5061092376709
1.6221044063568115,-1.3791574239730835,-17.759946823120117
12.107494354248049,-7.455434799194336,-18.804168701171875
37.29387664794922,8.45618724822998,11.78846549987793
-14.296945571899414,-4.33908224105835,-0.3306998610496521
-6.435690879821777,-5.240082263946533,-16.839271545410156
-7.089182376861572,3.862196922302246,-7.443993091583252
10.334927558898926,-0.4788722991943359,-0.5208351612091064
11.11750316619873,0.5698531866073608,0.5170415639877319
3.7618465423583984,3.722292900085449,-4.992466926574707
5.602500915527344,2.303755044937134,-3.0223143100738525
7.760082721710205,-0.2729138433933258,-3.3387842178344727
12.275691986083984,-1.9373116493225095,2.689012289047241
11.83209991455078,-0.46027472615242,3.1228814125061035
12.271429061889648,-0.5687598586082458,4.542971134185791
9.07912826538086,-0.2083968520164489,8.568807601928711
5.556848526000977,-0.1359074264764785,10.587862014770508
0.6726061105728149,-1.566051721572876,6.029970645904541
-2.553295373916626,-5.135746479034424,7.802795886993408
-3.863137722015381,-2.556878566741944,10.276251792907717
-0.4965594410896301,-8.874734878540039,9.052760124206545
1.2450368404388428,-12.68360710144043,5.384572505950928
4.317904472351074,-3.970372915267944,3.5960214138031006
9.070819854736328,-0.4827307164669037,14.801573753356934
8.300203323364258,-0.968624711036682,19.26586532592773
9.06882381439209,1.8184382915496824,17.749317169189453
8.592300415039062,1.329853892326355,17.28712272644043
6.533349514007568,-0.6662201881408691,17.477447509765625
6.677585124969482,-3.100372552871704,15.626904487609863
7.391892910003662,-4.138444423675537,12.55337905883789
8.139070510864258,-4.043771743774414,9.53398323059082
7.832911968231201,-1.4680590629577637,8.59298038482666
5.788955211639404,0.1480376422405243,8.42447280883789
3.7181692123413086,-0.7889554500579834,5.737199783325195
3.168364763259888,-1.4608818292617798,2.4205727577209477
2.49440336227417,-1.389070749282837,0.816190779209137
1.493630290031433,0.4642730951309204,-0.3626613318920135
-0.5976475477218628,1.369395136833191,-1.7344155311584473
-2.07523512840271,1.237743258476257,-4.0141448974609375
-2.9998607635498047,3.099323511123657,-5.107795238494873
-2.1439614295959477,4.622074127197266,-5.691929817199707
-0.6570479869842529,4.97227668762207,-6.450069427490234
0.6523078680038452,2.554183959960937,-8.78439998626709
1.8189680576324463,0.3159959614276886,-11.023574829101562
3.3114352226257324,-0.6204034686088562,-14.401470184326172
5.205016136169434,-0.604354977607727,-17.999013900756836
6.218264102935791,1.817781925201416,-18.908527374267575
4.540436267852783,-0.4602055847644806,-20.986270904541016
1.2885959148406982,-2.531280994415283,-23.2823486328125
0.1616545170545578,-1.607006311416626,-23.073894500732425
-0.5437633395195007,-1.572345495223999,-21.148326873779297
0.1005908250808715,-1.06636643409729,-18.132566452026367
1.1744059324264526,-1.7036675214767456,-14.19759750366211
1.715669870376587,-3.236456155776977,-11.38788604736328
18.75861167907715,-11.77248764038086,-10.512596130371094
23.36160087585449,11.63099765777588,13.374960899353027
-17.32546043395996,-9.75563907623291,-6.267420768737793
-3.796732902526856,0.1848998516798019,-13.098607063293455
3.2842321395874023,-0.8568142652511597,-5.95639181137085
9.516579627990724,3.60493540763855,1.8438003063201904
3.66118597984314,1.6841603517532349,-3.631269931793213
2.2765021324157715,2.110502004623413,-4.4637227058410645
5.343402862548828,2.1901743412017822,-4.235926628112793
7.628841400146484,1.991702914237976,-2.140976905822754
12.185696601867676,-0.5438794493675232,-1.8083600997924805
15.656807899475098,0.1723546385765075,6.04197359085083
12.519882202148438,1.410757541656494,7.835599899291992
11.336755752563477,0.0600945949554443,10.193970680236816
5.30092191696167,1.889522910118103,11.704297065734863
-2.598843097686768,2.041598320007324,8.792524337768555
-0.8654976487159729,-7.615585803985596,6.292558670043945
2.024113178253174,-8.103522300720215,13.27821445465088
0.3277998268604278,-11.6367826461792,12.963891983032228
0.4838258922100067,-9.268790245056152,7.565113544464111
5.461193561553955,-3.865140438079834,7.379872322082519
9.680627822875977,-2.4714527130126958,17.120853424072266
7.387126922607422,-0.1981146037578582,17.97598648071289
7.976463317871094,-1.1878602504730225,15.878093719482422
6.7336273193359375,-1.8671108484268188,16.151384353637695
5.972527503967285,-3.3432259559631348,14.955985069274902
5.960751533508301,-3.617220878601074,13.072576522827148
5.7282795906066895,-2.898663282394409,11.104783058166504
5.10457181930542,-1.4817014932632446,10.138888359069824
4.113661766052246,-0.8006848096847534,8.71519947052002
3.4820122718811035,-1.3459762334823608,6.14475154876709
3.081836700439453,0.1446077525615692,5.302209854125977
2.188227415084839,-0.2384869307279586,4.2399492263793945
1.525758147239685,-1.804490685462952,1.3604633808135986
1.364779353141785,-0.9309322237968444,0.154262825846672
1.050323724746704,0.2171448469161987,-0.5241832137107849
0.4149249792098999,0.6695592999458313,-2.3714194297790527
0.3926985561847687,1.2931923866271973,-4.110421657562256
0.4739885926246643,2.510626792907715,-5.088512897491455
0.7460306882858276,3.480799436569214,-6.724902153015137
0.7731603980064392,1.7796409130096436,-8.862594604492188
1.466097116470337,-0.716532289981842,-12.62729263305664
3.099133014678955,-1.9540371894836424,-15.911273002624512
4.743041515350342,-0.8491504192352295,-19.10218811035156
4.923545837402344,0.3375639915466308,-21.67214012145996
2.603276252746582,-1.3336633443832395,-23.644540786743164
0.9551414251327516,-1.84261417388916,-23.546215057373047
-0.0976777374744415,-1.7198504209518433,-23.066551208496094
-0.1569474935531616,-1.4343175888061523,-20.5293025970459
0.8172018527984619,-0.7424926161766052,-16.503416061401367
1.1831159591674805,-1.0022259950637815,-13.269817352294922
7.705776691436768,-9.5980806350708,-16.85223388671875
32.5396842956543,5.663670539855957,0.5235460996627808
-6.05879545211792,1.362125039100647,-1.8053518533706665
-4.312600612640381,-5.09498929977417,-11.839324951171877
-3.159353494644165,2.334627866744995,-6.089944839477539
6.246521472930908,-1.7838690280914309,-1.7388880252838137
9.743431091308594,1.289338231086731,-0.4842981100082397
3.628042221069336,0.5891834497451782,-2.7655787467956543
5.774651527404785,1.9572219848632808,-4.011906147003174
9.971708297729492,0.7459227442741394,-1.6507638692855835
12.64744758605957,0.8312515616416931,5.513199806213379
14.876017570495604,-0.2059413790702819,4.665574073791504
13.094380378723145,0.8983213305473328,6.041648864746094
8.073323249816895,1.5249420404434204,9.810246467590332
0.7011509537696838,0.1751763820648193,8.225808143615723
-1.0637156963348389,-5.734686851501465,5.131785869598389
-1.172307014465332,-10.588874816894531,10.682920455932615
-3.568596124649048,-7.111340999603272,9.37446403503418
-0.7965809106826782,-7.019259929656982,5.381571292877197
3.42560076713562,-4.965821743011475,7.798468112945557
5.832910537719727,-4.342783451080322,13.492599487304688
6.698888778686523,-3.4775054454803467,15.756040573120115
8.081586837768555,-0.8672873973846436,15.036953926086426
9.659191131591797,-0.2047590762376785,15.657981872558594
8.698823928833008,-1.7632477283477783,14.856303215026855
7.874321937561035,-2.489951133728028,13.775068283081056
7.714519023895264,-3.1625008583068848,11.9502592086792
7.3755388259887695,-3.011587142944336,10.46290397644043
6.481985092163086,-2.855530977249145,9.039590835571287
4.853495121002197,-3.018340349197388,6.084373950958252
3.0261096954345703,-0.505796492099762,5.9545440673828125
1.256574630737305,-0.4103026092052459,4.808785915374756
-0.3937989473342895,-1.500991940498352,2.665380954742432
-0.2949591279029846,-0.9564607739448548,1.0504471063613892
-0.898937463760376,0.2259191870689392,-0.0364907942712307
-3.100562572479248,0.6420519351959229,-1.0267244577407837
-3.716576814651489,1.2681827545166016,-2.3315439224243164
-3.1802847385406494,3.165623903274536,-2.961625576019287
-2.98335075378418,4.2827467918396,-3.4776933193206787
-2.382121562957764,4.57080602645874,-4.525273323059082
-1.5534799098968506,3.362978935241699,-5.74485969543457
-0.1528772115707397,1.1442686319351196,-8.238255500793457
1.707167625427246,-0.3319804966449737,-11.322368621826172
3.108065128326416,-2.327358722686768,-15.117810249328612
4.21443510055542,-2.214714288711548,-19.037296295166016
4.621277809143066,-0.8223669528961182,-20.80531883239746
2.8751049041748047,-1.568605661392212,-23.86424827575684
0.4038816392421722,-1.5950206518173218,-23.77857780456543
-0.1239722296595573,-2.8923416137695312,-22.54381561279297
0.4309416711330414,-2.170992612838745,-19.57696533203125
0.2400768995285034,-1.6240290403366089,-20.46996688842773
27.335765838623047,-8.875442504882812,-21.969409942626957
14.044379234313965,15.82111930847168,18.12791633605957
-13.530912399291992,-10.139381408691406,-12.509496688842772
-2.048689603805542,0.9508591890335084,-10.24927806854248
4.521381378173828,0.6123878359794617,-0.9230685234069824
10.027090072631836,1.723173975944519,-1.6059238910675049
3.093434333801269,1.6472575664520264,-2.106099367141724
4.117696285247803,1.3481775522232056,-4.2371087074279785
6.174685478210449,3.000769853591919,-3.9655823707580566
9.339786529541016,-0.4214582443237304,-1.7974258661270142
12.783787727355955,-1.2293756008148191,6.199249267578125
13.322053909301758,-2.312459945678711,4.936479091644287
12.69956874847412,-0.0241008326411247,7.093840599060059
7.345946311950684,1.368093490600586,9.988019943237305
1.4728236198425293,1.4805679321289062,9.44578742980957
-3.9115941524505615,-2.6315042972564697,3.040370464324951
-2.513166666030884,-10.48330307006836,9.45129680633545
-2.6892740726470947,-6.416128635406494,6.164258003234863
0.5190794467926025,-6.0020952224731445,2.710252523422241
4.832238674163818,-1.882161855697632,8.096502304077148
7.03875207901001,-0.9579297304153442,15.039213180541992
7.511465549468994,-2.44754409790039,14.961130142211914
8.926844596862793,-1.5019733905792236,16.297061920166016
8.854185104370117,-1.668223261833191,17.73664665222168
7.868731498718262,-3.8429183959960938,16.95195960998535
7.548396110534668,-3.9217097759246826,15.175411224365234
8.264616012573242,-3.511774063110352,14.367045402526855
8.170212745666504,-2.623509407043457,11.609936714172363
8.098273277282715,-1.798901915550232,9.26342487335205
6.449276447296143,-0.7814571857452393,7.713827610015869
4.454583644866943,0.527764081954956,6.57500696182251
3.0696516036987305,-0.2079423069953918,3.98703670501709
1.8554002046585083,-1.830420732498169,1.7180943489074707
0.8607281446456909,-0.6394686698913574,1.08474600315094
0.1480814814567566,1.3236541748046875,-0.1379340440034866
-1.6416698694229126,1.675015211105347,-1.6069082021713257
-3.233707427978516,2.555538415908813,-2.1426820755004883
-2.8468539714813232,3.855891942977905,-3.1245455741882324
-2.4446823596954346,5.058745861053467,-3.278332233428955
-1.8471496105194087,3.831623077392578,-4.886712551116943
-0.9976261854171752,3.0431103706359863,-6.498169422149658
-0.2111580073833465,0.9704707860946656,-8.90200138092041
0.9374840259552002,-2.357846975326538,-12.423487663269045
2.569099903106689,-4.189929962158203,-17.759414672851562
3.241806983947754,-2.626107215881348,-19.74244499206543
2.137120246887207,-2.1070497035980225,-21.08818817138672
0.3041001558303833,-1.027940034866333,-21.465103149414062
-0.907068371772766,-0.5947484374046326,-20.41988182067871
-1.7036194801330566,-1.1742860078811646,-19.16042709350586
-1.5828262567520142,-1.8470884561538696,-16.75632667541504
-1.071128249168396,-1.0020418167114258,-13.65412139892578
-1.2200212478637695,-0.1824571788311004,-10.895116806030272
21.676816940307617,-12.7803955078125,-34.872947692871094
19.076948165893555,11.887276649475098,24.59279441833496
-9.65353775024414,-4.298094749450684,-14.123430252075195
-3.3276848793029785,0.2219803631305694,-11.78097915649414
5.406844139099121,1.4492799043655396,-2.0774409770965576
7.557229518890381,-0.2409077286720276,-0.9253822565078736
3.2884817123413086,1.5022858381271362,-2.692021608352661
4.927290916442871,2.355480194091797,-5.976842403411865
8.500426292419434,1.5317014455795288,-2.756356239318848
14.57467269897461,0.0145555958151817,0.1640798151493072
13.028203964233398,0.4775865375995636,6.063207626342773
12.707534790039062,-0.0680876076221466,6.662902355194092
10.0612154006958,-0.4105290472507477,9.84193229675293
4.133611679077148,-1.456209421157837,9.97420597076416
0.2332887351512909,-5.340317249298096,5.118895053863525
-0.2989465892314911,-9.23295783996582,6.940457344055176
-3.433868169784546,-5.994393348693848,10.80520725250244
-2.978146314620972,-5.46979570388794,7.983567714691162
1.0830345153808594,-6.818319320678711,5.260252952575684
4.220327377319336,-3.11408805847168,10.463112831115724
6.369199752807617,-2.3061442375183105,17.18172836303711
7.0609002113342285,-1.6078308820724487,16.45545768737793
8.658053398132324,-0.0800726413726806,17.211978912353516
8.445887565612793,-1.0832250118255615,17.491029739379883
6.65214729309082,-2.565346002578736,15.14719009399414
6.454691886901856,-3.0292534828186035,14.36922550201416
7.032477855682373,-3.927777767181397,12.667140007019045
6.901521682739258,-2.697798490524292,10.033778190612791
6.058434963226318,-1.0642153024673462,8.459834098815918
5.20095682144165,-1.1556121110916138,6.269444942474365
4.321855068206787,-1.0998685359954834,5.46291971206665
2.6801021099090576,0.0325456261634826,4.716882705688477
1.9027466773986816,-1.5971168279647827,2.061354398727417
2.0127525329589844,-0.180843785405159,0.4334985315799713
0.920005738735199,0.7602325081825256,-1.223073959350586
-1.19080650806427,-0.0964414924383163,-3.4086029529571533
-2.405237913131714,1.5265239477157593,-4.485106468200684
-2.399966239929199,2.36037278175354,-5.815372943878174
-1.4205516576766968,4.347620010375977,-6.30479097366333
-0.4297293424606323,4.50485897064209,-7.222881317138672
0.8116090297698975,2.55084228515625,-9.187383651733398
1.948582649230957,-0.2630139887332916,-12.227784156799316
3.27502703666687,-0.6097586750984192,-15.426878929138184
4.247567176818848,1.025059461593628,-17.546550750732422
2.776884078979492,-0.9460868239402772,-20.477785110473636
0.6189332008361816,-1.5636500120162964,-21.48322296142578
0.6592943668365479,-0.5608319640159607,-21.672346115112305
-0.6338576078414917,-0.557772696018219,-20.73412322998047
-0.8778833150863647,-0.7452885508537292,-18.57021141052246
0.0443513095378875,-1.075854778289795,-15.69424057006836
0.8539141416549683,-1.032381296157837,-13.611435890197754
6.738302230834961,-9.970954895019531,-24.444433212280277
30.88524627685547,-0.2342713475227356,7.82381534576416
-8.89543628692627,1.4618991613388062,-1.2772502899169922
-0.5507522225379944,-4.879848957061768,-14.594797134399414
-5.439670085906982,6.353739738464356,-5.910708904266357
6.5282793045043945,-0.2669761478900909,-3.0738697052001958
10.708313941955566,0.3352882862091064,1.6070659160614014
5.024399757385254,1.4494760036468506,-3.897059679031372
8.245171546936035,3.394472122192383,-4.087125301361084
10.450231552124023,1.1619319915771484,1.8045635223388672
14.000235557556152,1.6107707023620603,4.41087532043457
15.014623641967772,1.239122748374939,4.674719333648682
11.127351760864258,1.7288252115249634,7.513850212097168
3.8667356967926025,1.1882184743881226,8.504261016845703
1.7737476825714111,-4.736865520477295,1.295593500137329
3.8651745319366455,-13.78721046447754,8.984796524047852
-6.687896251678467,-8.886094093322754,3.8964903354644775
-4.650211334228516,-6.270849704742432,5.612893104553223
-2.895383596420288,-5.258975982666016,1.2786561250686646
1.4280511140823364,-6.225883483886719,4.017818450927734
3.5955820083618164,-3.3259599208831787,12.92035675048828
6.046588897705078,-0.9859707355499268,14.9800386428833
10.07876968383789,2.437626838684082,16.647125244140625
10.62316608428955,2.9219353199005127,18.471296310424805
9.983318328857422,-1.5251368284225464,17.402565002441406
8.474123001098633,-3.295459747314453,15.607866287231444
8.39421272277832,-4.263439178466797,13.892597198486328
8.484015464782715,-4.615341663360596,13.387201309204102
7.204692840576172,-3.368011474609375,10.63643741607666
6.10968542098999,-1.8345972299575808,8.069863319396973
4.472959518432617,-1.5900535583496094,6.47769832611084
3.4564828872680664,-1.7679680585861206,5.411137580871582
2.059748411178589,-0.647390604019165,4.678928852081299
1.2391862869262695,-2.388263940811157,2.368748426437378
1.101870059967041,-1.265296220779419,1.0955312252044678
0.2591572999954223,-0.2606996297836303,0.3262290954589844
-1.8111017942428589,1.063504695892334,-0.8810079097747803
-2.577077865600586,0.947949469089508,-2.503941297531128
-2.578805685043335,1.0056337118148804,-4.069045543670654
-2.507256269454956,0.6000662446022034,-5.175921440124512
-2.1556997299194336,0.3597031533718109,-5.868477821350098
-1.5158404111862185,-0.4958348870277405,-7.199712753295898
-0.16531503200531,-1.0879043340682983,-10.96390438079834
1.3906461000442505,-0.5692264437675476,-13.950984001159668
2.579972743988037,1.295743703842163,-14.99575424194336
3.940927505493164,1.7011561393737793,-16.70966148376465
3.1458382606506348,0.8197524547576904,-18.72785377502441
1.324360489845276,-1.2887005805969238,-20.432979583740234
0.5039246678352356,-1.7992068529129028,-21.76817512512207
-0.3642454147338867,-0.820224404335022,-21.416994094848636
0.5450373888015747,0.0403984002768993,-18.956558227539062
1.4307339191436768,0.5066264867782593,-16.709430694580078
6.17682409286499,-12.691720962524414,-39.007469177246094
38.47713851928711,8.175535202026367,13.946694374084473
-14.337356567382812,3.789186000823975,3.0638914108276367
0.6083155870437622,-6.676985740661621,-12.385210990905762
-6.529845237731934,5.868940353393555,-9.014363288879396
1.5388507843017578,0.7060765027999878,-3.710901975631714
13.012660026550291,-1.217630386352539,0.7864745259284973
7.7838850021362305,1.4447141885757446,-1.8773998022079468
6.692727088928223,3.348907947540283,-5.097213268280029
10.947121620178224,1.6819827556610107,0.988223433494568
15.600958824157717,0.8799334168434143,2.650734663009644
13.252212524414062,1.3189553022384644,4.273138523101807
10.46584129333496,1.3856101036071775,7.593943119049072
6.046757698059082,0.8751006722450256,6.926126480102539
2.860318660736084,-6.030391693115234,4.970725536346436
4.056583881378174,-12.46992015838623,4.121197700500488
-4.261133193969727,-11.195791244506836,6.651835918426514
-5.295253276824951,-5.722748756408691,1.137714147567749
0.7075048685073853,-3.734255075454712,3.5782713890075684
3.4596972465515137,-1.6048650741577148,9.817517280578612
4.106860637664795,-2.5158276557922363,14.187810897827148
5.476670742034912,-3.236030101776123,14.304497718811035
7.593820571899414,-2.937905788421631,15.60271453857422
8.349081993103027,-2.666520595550537,16.08092498779297
8.104633331298828,-3.655919313430786,16.34235191345215
7.9016432762146,-4.788154602050781,16.662086486816406
8.15796947479248,-3.009175539016724,14.96730899810791
9.24740219116211,-2.017538785934448,13.139458656311035
9.375884056091309,-2.918761968612671,11.097410202026367
7.3664045333862305,-1.6245501041412354,9.026264190673828
4.722378253936768,0.5273712873458862,8.052650451660156
3.201618432998657,-0.3747684955596924,5.600441932678223
2.3836801052093506,-0.7882282733917236,3.99334716796875
1.671428680419922,-0.9567509293556212,2.0642645359039307
1.4393125772476196,-0.8411031365394592,0.6816126108169556
0.4041468203067779,-0.3352939486503601,-0.994705617427826
-0.7228384017944336,-0.2395539283752441,-3.2825746536254883
-0.8178613185882568,1.8749043941497805,-4.127011775970459
-0.3753707110881805,2.030057430267334,-5.04516077041626
-0.499266505241394,2.9412760734558105,-5.540853500366211
-0.6612421274185181,2.714291572570801,-6.5070390701293945
-0.6108094453811646,0.9606146216392516,-7.638971328735352
-0.1712311804294586,-0.038193292915821,-9.763080596923828
0.5136293768882751,0.1734858155250549,-12.184579849243164
1.5152063369750977,1.1997534036636353,-14.42967700958252
2.26345157623291,0.589915931224823,-16.978540420532227
2.4397549629211426,-1.211727261543274,-19.671232223510746
1.967148780822754,-2.002207040786743,-21.606491088867188
1.373137354850769,-0.6896612048149109,-22.213117599487305
0.4883507788181305,-0.5164842009544373,-21.46548843383789
0.0995683073997497,-0.341850608587265,-18.901592254638672
-0.1275613456964492,-0.5495891571044922,-16.349273681640625
11.772377967834473,-11.410261154174805,-38.6657829284668
23.91332626342773,7.178530216217041,15.809391021728516
-8.9590425491333,-3.693085432052612,-6.158512115478516
-0.1336502879858017,-2.226125955581665,-11.30746078491211
-2.124794006347656,2.8194918632507324,-4.774544715881348
8.455903053283691,0.3877474069595337,-2.42720103263855
7.231204509735107,1.142712116241455,0.7608758211135864
4.421560764312744,2.2303147315979004,-5.249846935272217
6.775235176086426,3.443689346313477,-3.772502899169922
11.113119125366213,0.8643473386764526,-0.2625971138477325
13.852925300598145,1.3717187643051147,3.341385126113892
11.628543853759766,-0.0518426969647407,3.987960338592529
11.608405113220217,1.3486902713775637,7.83837366104126
8.209577560424805,1.3307325839996338,8.398344039916992
3.093678474426269,0.326833963394165,8.58393669128418
-0.4249135255813598,-5.744810104370117,1.6492372751235962
-1.5978344678878784,-8.528209686279297,7.91532564163208
-4.417378902435303,-8.204139709472656,8.311784744262695
-3.797148942947388,-7.4790120124816895,3.8864285945892334
-0.7237381935119629,-3.094947099685669,4.973546028137207
