PacketCounter,SampleTimeFine,Quat_W,Quat_X,Quat_Y,Quat_Z,Acc_X,Acc_Y,Acc_Z,Gyr_X,Gyr_Y,Gyr_Z 
1,1998414896,0.5917311,0.3828539,-0.46348736,0.5370818,-0.10964193940162659,-0.0016113783931359649,-0.09875620156526566,-0.14287957549095154,0.5800763368606567, -0.07802651077508926
2,1998431563,0.5914328,0.3819806,-0.46304876,0.5384088,16.841501235961914,-0.6004213094711304,4.720004081726074,0.011647374369204044,3.0663843154907227, 1.5445802211761475
3,1998448230,0.5911495,0.38313538,-0.46235964,0.53849167,16.5407657623291,-0.9850193858146667,4.803069114685059,0.7303909659385681,4.355202674865723, 2.118817090988159
4,1998464897,0.59057194,0.38290536,-0.46242112,0.5392355,16.865036010742188,-0.6885179281234741,4.878108024597168,2.0686161518096924,3.382009506225586, 2.120699405670166
5,1998481564,0.5904042,0.3829106,-0.4620889,0.53970003,16.584945678710938,-0.7789777517318726,4.764420986175537,-0.09165505319833755,3.8573946952819824, 1.8969215154647827
6,1998498231,0.59015477,0.38299513,-0.46169004,0.54025394,16.55678367614746,-0.7725668549537659,4.7808027267456055,1.5181610584259033,4.01488733291626, 2.096560001373291
7,1998514898,0.58999044,0.38295397,-0.4613734,0.5407331,16.479877471923828,-0.7510477900505066,4.841907024383545,0.8744497299194336,3.9641356468200684, 2.238403081893921
8,1998531565,0.58981884,0.38295937,-0.46095827,0.54127043,16.664175033569336,-0.7786399126052856,4.793665409088135,-0.04368246719241142,3.5262482166290283, 1.756051778793335
9,1998548232,0.5896883,0.38287762,-0.46063182,0.5417481,16.60917854309082,-0.8512312769889832,4.854758262634277,0.8290383219718933,3.7909295558929443, 2.298630952835083
10,1998564899,0.58954686,0.3827711,-0.4603823,0.542189,16.62018585205078,-0.7616809606552124,4.798408031463623,0.9474459886550903,3.196779251098633, 2.088543176651001
11,1998581566,0.5894529,0.38262865,-0.4601411,0.5425963,16.473196029663086,-0.7646729350090027,4.773448944091797,0.5074836015701294,3.5607988834381104, 2.090911865234375
12,1998598233,0.5893243,0.38253257,-0.45980924,0.5430851,16.762683868408203,-0.8210929036140442,4.831125259399414,0.6254557371139526,3.9512388706207275, 2.0100526809692383
13,1998614900,0.5893367,0.38230705,-0.45965815,0.543358,16.703384399414062,-0.7947597503662109,4.874799728393555,0.4277000427246094,3.6209890842437744, 1.9918291568756104
14,1998631567,0.58927244,0.38218185,-0.45934874,0.5437772,16.761533737182617,-0.7129600048065186,4.825089454650879,1.1996924877166748,3.994204521179199, 1.8844481706619263
15,1998648234,0.58914137,0.3821104,-0.45900685,0.54425824,16.821855545043945,-0.8563402891159058,4.874817371368408,0.6852614283561707,4.0623602867126465, 2.001600742340088
16,1998664901,0.5892159,0.38186273,-0.45884424,0.54448843,16.54193687438965,-0.6656779646873474,4.799523830413818,1.11884605884552,3.847712516784668, 2.0090153217315674
17,1998681568,0.5892309,0.38164666,-0.45865712,0.5447814,16.848115921020508,-0.7750738263130188,4.880207538604736,0.30598852038383484,3.8776285648345947, 2.1529972553253174
18,1998698235,0.5891857,0.38145912,-0.45837265,0.5452007,16.42784309387207,-0.8322261571884155,4.75916862487793,1.28473961353302,4.335519790649414, 2.524548053741455
19,1998714902,0.58906746,0.38136727,-0.45813784,0.54558986,16.82069969177246,-0.6429834961891174,4.832005023956299,1.3838605880737305,3.4936940670013428, 2.3102848529815674
20,1998731569,0.5891603,0.38104588,-0.4580353,0.5458002,16.73729133605957,-0.9936437606811523,4.851069927215576,0.33895212411880493,4.007716178894043, 2.528595209121704
21,1998748236,0.5890256,0.3809089,-0.45776823,0.54626507,16.52671241760254,-0.7108028531074524,4.839216232299805,1.371515154838562,4.031099319458008, 2.5624287128448486
22,1998764903,0.58900034,0.38070825,-0.45760974,0.546565,16.779109954833984,-0.8372663855552673,4.8323750495910645,-0.49882012605667114,3.70963454246521, 1.9376585483551025
23,1998781570,0.58895075,0.38054886,-0.45737505,0.5469257,16.585224151611328,-0.9192339777946472,4.839972972869873,1.2292495965957642,3.9346556663513184, 2.2039027214050293
24,1998798237,0.58895063,0.3803069,-0.45720458,0.54723656,16.885129928588867,-0.773088276386261,4.927455425262451,0.6560885310173035,3.9698469638824463, 2.2007007598876953
25,1998814904,0.5889476,0.3801089,-0.45706362,0.5474952,16.51881980895996,-0.7378109693527222,4.729197025299072,0.30794790387153625,3.537325859069824, 1.9073587656021118
26,1998831571,0.5888378,0.3799682,-0.4567972,0.547933,17.01777458190918,-0.8391536474227905,4.95829963684082,1.3659828901290894,4.042778968811035, 2.426464080810547
27,1998848238,0.5888818,0.3796788,-0.45671758,0.5481527,16.592185974121094,-0.8343262076377869,4.830502986907959,0.16328734159469604,3.6839449405670166, 2.2704696655273438
28,1998864905,0.58881927,0.37948173,-0.45651215,0.5485275,16.819395065307617,-0.7779369354248047,4.858804225921631,0.8979878425598145,3.955568313598633, 2.386188268661499
29,1998881572,0.58875006,0.37929088,-0.4563622,0.5488582,17.02627944946289,-0.9465280771255493,4.9478068351745605,0.43145236372947693,3.599602699279785, 2.336319923400879
30,1998898239,0.58876663,0.3789664,-0.45614624,0.54924405,16.6385555267334,-0.759937584400177,4.874073028564453,0.9027515649795532,4.132013320922852, 2.4214181900024414
31,1998914906,0.58885324,0.3785303,-0.45595756,0.54960835,16.805513381958008,-0.8222758173942566,4.884683609008789,0.14651106297969818,3.965979814529419, 2.2680368423461914
32,1998931573,0.5889202,0.3781459,-0.45573005,0.54998976,17.115041732788086,-0.7440943121910095,5.018701553344727,0.3735547959804535,3.705779790878296, 1.9788947105407715
33,1998948240,0.5889584,0.37764987,-0.45550892,0.55047286,16.75408935546875,-1.1470357179641724,4.8775858879089355,-0.008349740877747536,4.225346088409424, 2.7476091384887695
34,1998964907,0.5889004,0.3773581,-0.4551781,0.5510083,16.76963233947754,-0.5850257873535156,4.861753463745117,2.101349115371704,3.681960344314575, 2.516223669052124
35,1998981574,0.588949,0.3768607,-0.45494443,0.55148965,16.807329177856445,-0.795039713382721,4.911671161651611,-0.2369430810213089,4.295447826385498, 2.5786545276641846
36,1998998241,0.5889435,0.3763557,-0.4547583,0.5519934,16.820186614990234,-0.7677408456802368,4.944920539855957,0.2306744009256363,3.988403558731079, 3.16829776763916
37,1999014908,0.5890352,0.37574118,-0.45468795,0.55237216,16.948421478271484,-0.7513006329536438,4.937755107879639,-1.1694120168685913,3.9059691429138184, 2.9754085540771484
38,1999031575,0.5888898,0.3754461,-0.45432368,0.55302715,16.92815589904785,-1.0050147771835327,4.929986000061035,2.360844135284424,3.878589153289795, 3.1232705116271973
39,1999048242,0.588433,0.37598515,-0.45298576,0.5542432,16.93585777282715,-0.957333505153656,4.905675888061523,11.907407760620117,5.1321916580200195, 1.4266088008880615
40,1999064909,0.5876092,0.37723398,-0.45062608,0.556189,17.134662628173828,-0.9389023184776306,5.035552978515625,22.12785530090332,7.290238380432129, 0.999159574508667
41,1999081576,0.5869778,0.37810904,-0.44870654,0.55781126,17.158727645874023,-0.7412429451942444,4.9597554206848145,17.199283599853516,6.713345050811768, 1.1788320541381836
42,1999098243,0.5866121,0.378566,-0.447117,0.55916053,16.54047203063965,-0.6854352951049805,4.875769138336182,13.433812141418457,7.054466247558594, 1.4458571672439575
43,1999114910,0.5863295,0.37879494,-0.445903,0.56027013,17.200843811035156,-0.6211426854133606,5.036930084228516,10.295330047607422,6.0391764640808105, 1.9000341892242432
44,1999131577,0.58611435,0.3788329,-0.44480017,0.5613453,17.070035934448242,-0.9481155872344971,5.029827117919922,8.577408790588379,6.459800720214844, 2.3015003204345703
45,1999148244,0.5857966,0.37902912,-0.44364372,0.5624585,16.977872848510742,-0.7205647230148315,5.0391693115234375,10.046285629272461,5.838757038116455, 2.3038699626922607
46,1999164911,0.58542967,0.3793613,-0.44233048,0.5636497,16.818910598754883,-0.837736189365387,5.047587871551514,11.22329330444336,6.018571853637695, 1.8714635372161865
47,1999181578,0.5850298,0.379796,-0.4408611,0.5649221,16.959354400634766,-0.7663964629173279,5.061107635498047,12.600760459899902,6.36088752746582, 1.6151446104049683
48,1999198245,0.5847978,0.3800352,-0.43971133,0.56589645,17.04360580444336,-0.530009388923645,5.261077880859375,9.331933975219727,5.56134557723999, 1.2271113395690918
49,1999214912,0.5848064,0.37997523,-0.43884954,0.5665965,16.852060317993164,-0.9527267217636108,5.060542106628418,5.579779148101807,5.575771331787109, 0.8605229258537292
50,1999231579,0.5845844,0.3803305,-0.43757606,0.5675712,16.87798309326172,-0.7695093154907227,5.108853816986084,10.287735939025879,5.638016700744629, 0.5314189195632935
51,1999248246,0.584307,0.38068762,-0.43634963,0.5685609,16.755809783935547,-0.5642983913421631,5.065049648284912,10.09676742553711,5.327770233154297, 0.8542029857635498
52,1999264913,0.5842676,0.38068226,-0.43552792,0.56923467,17.215425491333008,-0.54142165184021,5.21608829498291,5.88352632522583,4.98663330078125, 0.9446669220924377
53,1999281580,0.58421004,0.3805131,-0.43498087,0.5698247,16.693992614746094,-0.7194247841835022,5.088529109954834,3.622833490371704,4.271295547485352, 1.7781428098678589
54,1999298247,0.5841663,0.3802471,-0.4346355,0.57031053,16.686050415039062,-0.5369625687599182,5.029109477996826,2.243192434310913,3.6034059524536133, 2.1744863986968994
55,1999314914,0.5842118,0.379802,-0.43452445,0.5706448,17.115236282348633,-0.5926641821861267,5.211128234863281,-0.1333141326904297,3.2405898571014404, 2.348243236541748
56,1999331581,0.58428204,0.3792693,-0.4344391,0.5709923,16.685842514038086,-0.5145629048347473,5.148507118225098,-0.8058267831802368,3.6022276878356934, 2.5659635066986084
57,1999348248,0.58437794,0.37872407,-0.43435824,0.57131743,16.89166831970215,-0.605396032333374,5.112114429473877,-0.9451342821121216,3.648740530014038, 2.4498612880706787
58,1999364915,0.58452314,0.37809405,-0.43436518,0.57158077,16.71529197692871,-0.7096762657165527,5.082897186279297,-1.7130286693572998,3.605724334716797, 2.573711633682251
59,1999381582,0.5846084,0.37757674,-0.434318,0.5718713,16.734622955322266,-0.7210245132446289,5.111462593078613,-0.8971103429794312,3.2793664932250977, 2.4094314575195312
60,1999398249,0.58459425,0.37717763,-0.43429008,0.57217026,16.754499435424805,-0.6686197519302368,5.06283712387085,-0.5713168382644653,2.4827733039855957, 2.400172472000122
61,1999414916,0.5846887,0.3766804,-0.43429562,0.57239693,16.825281143188477,-0.683067262172699,5.075682640075684,-1.300894856452942,2.851801633834839, 2.1680705547332764
62,1999431583,0.5847014,0.3763085,-0.43418315,0.57271403,16.637027740478516,-0.6357144117355347,5.037120342254639,0.2725255489349365,2.8139970302581787, 2.217874050140381
63,1999448250,0.5848874,0.37576494,-0.43412164,0.5729276,16.750600814819336,-0.5652982592582703,5.014065742492676,-1.639648199081421,3.5483901500701904, 1.6679823398590088
64,1999464917,0.5850239,0.37522987,-0.43399426,0.57323545,16.689767837524414,-0.6937248706817627,5.067185878753662,-1.0437431335449219,3.882571220397949, 2.0089640617370605
65,1999481584,0.585187,0.37455672,-0.4338946,0.5735843,16.58603286743164,-0.585826575756073,5.079838275909424,-1.7147833108901978,4.504307270050049, 2.5292608737945557
66,1999498251,0.58532256,0.37392643,-0.43378982,0.5739365,17.122081756591797,-0.5421620607376099,5.089745998382568,-1.448948860168457,4.282423973083496, 2.5092952251434326
67,1999514918,0.5854776,0.3731482,-0.43367955,0.57436794,16.191207885742188,-0.7124181389808655,5.010223388671875,-2.0685458183288574,5.168278217315674, 3.0948147773742676
68,1999531585,0.58557093,0.37259635,-0.43341884,0.5748275,16.922008514404297,-0.4324643313884735,5.063676357269287,0.11493059247732162,4.739700794219971, 2.551377296447754
69,1999548252,0.5856239,0.37199196,-0.43318343,0.5753426,16.797630310058594,-1.0122871398925781,5.209183216094971,-0.2060413658618927,4.8891377449035645, 3.0569205284118652
70,1999564919,0.5856157,0.3715288,-0.43287477,0.57588196,16.121891021728516,-0.667363703250885,4.923800945281982,0.8332003951072693,4.508866786956787, 2.7647435665130615
71,1999581586,0.58565825,0.3710561,-0.432631,0.5763266,17.323375701904297,-0.7240667343139648,5.30458927154541,0.056495215743780136,4.201616287231445, 2.3507659435272217
72,1999598253,0.5856872,0.37063026,-0.43238163,0.57675815,15.93057632446289,-0.8533575534820557,4.8740410804748535,0.37192845344543457,3.959820032119751, 2.2409512996673584
73,1999614920,0.58569545,0.3703176,-0.4321021,0.5771601,17.193506240844727,-0.6687383055686951,5.257706165313721,0.7577453851699829,3.5085244178771973, 1.7291584014892578
74,1999631587,0.5858313,0.36981225,-0.4320159,0.5774106,16.29914093017578,-0.9411154389381409,5.040002822875977,-1.3057993650436401,3.4734339714050293, 1.778628945350647
75,1999648254,0.5858542,0.3694895,-0.43182838,0.5777342,16.668638229370117,-0.5797758102416992,4.983262538909912,0.21248935163021088,3.017848014831543, 1.671081304550171
76,1999664921,0.58594054,0.36903918,-0.43172172,0.57801414,16.65923500061035,-0.7788307666778564,5.125592231750488,-1.1721653938293457,3.3000621795654297, 1.7317579984664917
77,1999681588,0.5858607,0.36884975,-0.43150705,0.57837594,16.440670013427734,-0.7037588357925415,4.995276927947998,1.2359983921051025,2.3958563804626465, 1.7758114337921143
78,1999698255,0.58584994,0.36860555,-0.4312203,0.5787565,17.12970733642578,-0.6124675869941711,5.25862979888916,1.043519139289856,3.169616460800171, 1.5040611028671265
79,1999714922,0.5857017,0.36843732,-0.43089375,0.5792566,15.849390983581543,-0.8957250118255615,4.789166450500488,2.1817219257354736,2.9288573265075684, 2.1989336013793945
80,1999731589,0.5856115,0.3682454,-0.43057021,0.5797101,17.267044067382812,-0.48467937111854553,5.175821781158447,2.060509443283081,3.048839569091797, 1.9607865810394287
81,1999748256,0.5856346,0.36780933,-0.4304642,0.5800422,16.412796020507812,-0.889981746673584,5.024215221405029,-0.431932657957077,3.179234266281128, 2.3023452758789062
82,1999764923,0.58571017,0.36724734,-0.4304289,0.5803483,16.408401489257812,-0.565152108669281,5.019435405731201,-1.5831210613250732,3.50109601020813, 2.4777536392211914
83,1999781590,0.585779,0.3667241,-0.4303882,0.5806396,17.17089080810547,-0.7856496572494507,5.164255619049072,-1.772437334060669,3.340299606323242, 2.1863832473754883
84,1999798257,0.5858253,0.36621156,-0.430323,0.5809646,16.29490852355957,-0.8869638442993164,5.024011135101318,-1.0275431871414185,3.3858134746551514, 2.4972193241119385
85,1999814924,0.5858391,0.36585498,-0.43007022,0.58136255,16.94022560119629,-0.6888157725334167,5.156042575836182,0.3870142698287964,3.628633975982666, 1.8810925483703613
86,1999831591,0.58574706,0.3656468,-0.4297845,0.5817974,16.51717758178711,-0.8700403571128845,5.030389785766602,1.5430245399475098,2.9495718479156494, 1.9550944566726685
87,1999848258,0.58575475,0.36535704,-0.42948863,0.58219016,16.69362449645996,-0.6879474520683289,5.092678546905518,0.9564616084098816,3.50376033782959, 1.6321502923965454
88,1999864925,0.58583236,0.36503196,-0.4292723,0.58247536,16.02552032470703,-0.7335957884788513,4.893433570861816,-0.21036989986896515,3.2828242778778076, 1.140578269958496
89,1999881592,0.5859442,0.3646693,-0.4290795,0.58273196,16.9227352142334,-0.6301278471946716,5.147218704223633,-0.7467638254165649,3.381561279296875, 1.0110419988632202
90,1999898259,0.58606845,0.36419216,-0.42906785,0.58291405,16.10563087463379,-0.8253289461135864,5.008285999298096,-1.9439529180526733,2.9435720443725586, 1.5538779497146606
91,1999914926,0.5861382,0.36380324,-0.42903888,0.583108,16.576278686523438,-0.575894832611084,5.011103630065918,-1.3434499502182007,2.5250725746154785, 1.5149718523025513
92,1999931593,0.5861518,0.36342147,-0.42901194,0.58335227,16.562040328979492,-0.9268713593482971,5.103695392608643,-1.232060432434082,2.4631028175354004, 1.8474631309509277
93,1999948260,0.5860799,0.36319917,-0.42883477,0.5836932,15.99578857421875,-0.5921338796615601,4.908566951751709,0.49982544779777527,2.417192220687866, 1.7243428230285645
94,1999964927,0.58600855,0.36297688,-0.42868087,0.58401614,16.75088119506836,-0.7913318276405334,5.106389999389648,0.5040258765220642,2.2644505500793457, 1.7717136144638062
95,1999981594,0.5859806,0.36267483,-0.42857608,0.5843085,16.099645614624023,-0.7698019742965698,4.89306116104126,-0.2746065557003021,2.4436757564544678, 1.8053176403045654
96,1999998261,0.5859339,0.36238167,-0.4284621,0.58462083,16.168025970458984,-0.5515273809432983,4.854951858520508,-0.17306503653526306,2.447172164916992, 1.878890037536621
97,2000014928,0.5860686,0.36182007,-0.42852083,0.5847904,16.7752742767334,-0.8713933229446411,5.145328998565674,-2.2890071868896484,2.964574098587036, 2.0208098888397217
98,2000031595,0.58600897,0.36147547,-0.4284862,0.58508843,15.760225296020508,-0.7973260879516602,4.812998294830322,-0.39987826347351074,2.236865758895874, 2.3539798259735107
99,2000048262,0.5859839,0.3611349,-0.42838997,0.58539456,16.528301239013672,-0.7189236879348755,4.979697227478027,-0.37397104501724243,2.6071743965148926, 2.0074527263641357
100,2000064929,0.5858748,0.3608615,-0.42829648,0.5857405,15.743051528930664,-0.9435490965843201,4.743272304534912,0.1840592473745346,2.183117628097534, 2.305981397628784
101,2000081596,0.58580583,0.36058986,-0.4281539,0.5860811,16.461055755615234,-0.8214792013168335,4.985518455505371,0.18061436712741852,2.489893674850464, 1.953973650932312
102,2000098263,0.58579063,0.36025834,-0.4280708,0.5863607,15.8358736038208,-0.9562228322029114,4.913199424743652,-0.6479885578155518,2.5064141750335693, 1.8016549348831177
103,2000114930,0.58579105,0.35999104,-0.42793676,0.5866222,16.48421859741211,-0.9036139249801636,4.928609848022461,-0.2601097524166107,2.4535365104675293, 1.3551357984542847
104,2000131597,0.5858256,0.35966015,-0.42787048,0.5868391,15.790377616882324,-0.9346065521240234,4.803061485290527,-0.9974737763404846,2.4324445724487305, 1.3962187767028809
105,2000148264,0.5859225,0.35930404,-0.42776367,0.5870384,15.922277450561523,-0.7736369371414185,4.791286468505859,-1.1675549745559692,2.8432466983795166, 1.0357840061187744
106,2000164931,0.58593565,0.35917366,-0.42752656,0.58727735,16.370628356933594,-0.9977663159370422,4.856186389923096,0.7209270596504211,2.301192283630371, 0.6061949729919434
107,2000181598,0.5859178,0.35910836,-0.42702734,0.58769834,15.582356452941895,-0.9354311227798462,4.812305927276611,2.4895095825195312,3.474740743637085, 0.5546237826347351
108,2000198265,0.58582914,0.35926804,-0.42641672,0.5881323,16.10450553894043,-0.6672842502593994,4.8055243492126465,4.055085182189941,2.841543197631836, -0.04488625377416611
109,2000214932,0.5859677,0.35911846,-0.42599395,0.58839184,15.965069770812988,-0.8549186587333679,4.8261942863464355,1.1809439659118652,3.557687520980835, -0.20221227407455444
110,2000231599,0.58596987,0.35916626,-0.42547026,0.58873934,16.125383377075195,-0.86916184425354,4.916368007659912,3.136320114135742,2.973910093307495, -0.05401718243956566
111,2000248266,0.5860188,0.3590433,-0.42509696,0.5890352,15.590104103088379,-0.7282320261001587,4.793038368225098,1.2435797452926636,3.1040093898773193, 0.27702054381370544
112,2000264933,0.5861216,0.35890308,-0.42468423,0.5893161,15.930684089660645,-0.6611350774765015,4.7363104820251465,1.23142671585083,3.4502549171447754, -0.013062477111816406
113,2000281600,0.5861509,0.35887924,-0.4241744,0.5896685,16.483652114868164,-0.785514771938324,5.021345615386963,2.6491150856018066,3.323561668395996, 0.070121169090271
114,2000298267,0.5862374,0.35872144,-0.42371976,0.59000534,14.988832473754883,-0.7599940896034241,4.559359073638916,1.529404640197754,3.7949888706207275, 0.230162113904953
115,2000314934,0.58622235,0.35871089,-0.42302,0.5905286,16.36393165588379,-0.5030644536018372,4.906161308288574,4.002683162689209,4.3459320068359375, 0.40067872405052185
116,2000331601,0.5862144,0.35868075,-0.42243254,0.5909752,15.937106132507324,-0.6962408423423767,4.9155707359313965,3.1733558177948,3.8178863525390625, 0.38022691011428833
117,2000348268,0.5862342,0.35850364,-0.42198986,0.59137905,15.194836616516113,-0.7735114097595215,4.631875514984131,1.8231439590454102,3.8102288246154785, 0.892237663269043
118,2000364935,0.5862171,0.35837066,-0.4214959,0.591829,16.009437561035156,-0.40431106090545654,4.910892486572266,2.360511541366577,3.856088876724243, 0.9401718378067017
119,2000381602,0.58622754,0.35814106,-0.42117354,0.5921868,15.257099151611328,-0.7091535925865173,4.690299987792969,0.8028748631477356,3.4303150177001953, 1.106923222541809
120,2000398269,0.58620876,0.3579628,-0.42082456,0.59256107,16.033109664916992,-0.6181347966194153,4.892645835876465,1.507185697555542,3.2629234790802, 1.1992828845977783
121,2000414936,0.5862118,0.3576911,-0.42047587,0.5929696,15.247879981994629,-0.7842156887054443,4.752377510070801,0.8804301023483276,3.8186802864074707, 1.3862553834915161
122,2000431603,0.5861164,0.35767418,-0.4199719,0.5934312,15.76260757446289,-0.46472474932670593,4.805582523345947,3.2326624393463135,3.219625949859619, 1.0144615173339844
123,2000448270,0.5862005,0.3573905,-0.4196448,0.5937503,15.513582229614258,-0.7416219115257263,4.755776882171631,0.767196536064148,3.74509596824646, 1.0008869171142578
124,2000464937,0.5862101,0.35718605,-0.4191914,0.5941841,15.385952949523926,-0.5522282123565674,4.786794185638428,1.9149143695831299,4.0143232345581055, 1.1325231790542603
125,2000481604,0.58625543,0.35693118,-0.4188659,0.5945219,15.375925064086914,-0.648552656173706,4.750499248504639,0.5446860790252686,3.596554756164551, 0.9296834468841553
126,2000498271,0.58625364,0.356747,-0.41854396,0.5948607,15.515036582946777,-0.5842528939247131,4.773473739624023,1.214842438697815,3.132439374923706, 1.060845971107483
127,2000514938,0.58628666,0.3564199,-0.41828042,0.59520954,15.400121688842773,-0.5966975092887878,4.83892297744751,0.25674813985824585,3.615623950958252, 1.4732106924057007
128,2000531605,0.5862518,0.3562415,-0.4179883,0.5955559,15.047931671142578,-0.5742588639259338,4.591947555541992,1.1885637044906616,2.9149234294891357, 1.2703192234039307
129,2000548272,0.5862219,0.35607353,-0.41767806,0.5959033,15.601814270019531,-0.56876140832901,4.849077224731445,1.212485909461975,2.972308874130249, 1.1417051553726196
130,2000564939,0.58615303,0.35589758,-0.41733316,0.59631747,15.0502290725708,-0.6295925378799438,4.751396179199219,1.5084153413772583,3.209611177444458, 1.4622611999511719
131,2000581606,0.58611137,0.3557879,-0.41708684,0.59659624,15.162617683410645,-0.48966678977012634,4.62272834777832,0.9363810420036316,2.2867209911346436, 0.865203320980072
132,2000598273,0.5861951,0.35546103,-0.41693628,0.5968142,15.193395614624023,-0.5642842650413513,4.735522747039795,-0.6793000102043152,2.9938299655914307, 1.0297969579696655
133,2000614940,0.5861448,0.35537592,-0.4166427,0.597119,15.464801788330078,-0.516347348690033,4.773048400878906,1.1776143312454224,2.437413215637207, 0.7537881135940552
134,2000631607,0.5861893,0.35513225,-0.4164786,0.59733474,15.012667655944824,-0.6231019496917725,4.566248893737793,-0.36571094393730164,2.615114212036133, 0.8346090316772461
135,2000648274,0.58613884,0.35501006,-0.4161156,0.5977098,15.119644165039062,-0.5737659335136414,4.608989715576172,1.8029612302780151,3.02349591255188, 1.1173220872879028
136,2000664941,0.58611536,0.35494152,-0.41571385,0.5980531,15.171510696411133,-0.40448707342147827,4.635133743286133,2.0899643898010254,2.9586188793182373, 0.665449857711792
137,2000681608,0.5860839,0.35479632,-0.41538975,0.59839517,14.797636985778809,-0.5958900451660156,4.524369716644287,1.3001455068588257,2.959656238555908, 1.0211848020553589
138,2000698275,0.58604676,0.35467133,-0.4150693,0.5987277,15.447617530822754,-0.4493913948535919,4.755721569061279,1.37826406955719,2.8255865573883057, 0.9702282547950745
139,2000714942,0.58604807,0.35451692,-0.41486478,0.5989596,15.026750564575195,-0.6079696416854858,4.621038913726807,0.4730089604854584,2.344541549682617, 0.812274694442749
140,2000731609,0.58601415,0.35436046,-0.4146289,0.59924865,14.95679759979248,-0.5013865232467651,4.572502136230469,0.591185986995697,2.550762414932251, 0.9946884512901306
141,2000748276,0.58605754,0.35416168,-0.4144003,0.59948176,14.984027862548828,-0.451508492231369,4.579334259033203,0.3580591380596161,2.754972457885742, 0.747897207736969
142,2000764943,0.58598727,0.3541231,-0.4140937,0.5997851,15.250321388244629,-0.5160305500030518,4.68105411529541,1.5806301832199097,2.286503314971924, 0.7480893731117249
143,2000781610,0.5859551,0.35396552,-0.41378045,0.6001257,14.7607421875,-0.518795371055603,4.542430400848389,1.0803884267807007,3.0179378986358643, 1.0360015630722046
144,2000798277,0.58587766,0.35392815,-0.41340628,0.6004812,14.998213768005371,-0.5678395628929138,4.4887003898620605,2.2263779640197754,2.6566710472106934, 0.9239974021911621
145,2000814944,0.58583534,0.35386413,-0.41302013,0.6008258,14.970039367675781,-0.34052303433418274,4.597689628601074,1.7588688135147095,2.9277169704437256, 0.636891782283783
146,2000831611,0.5858036,0.35384363,-0.4126538,0.6011205,15.166000366210938,-0.5232505202293396,4.58205509185791,2.063800811767578,2.5470995903015137, 0.514488697052002
147,2000848278,0.5858118,0.3536796,-0.41235712,0.60141253,14.92976188659668,-0.4748553931713104,4.6135454177856445,1.2945621013641357,2.9569413661956787, 1.0205061435699463
148,2000864945,0.58570874,0.35357377,-0.4120578,0.6017802,14.486577033996582,-0.3986170291900635,4.317080497741699,1.5949347019195557,2.647437334060669, 1.4002141952514648
149,2000881612,0.58567154,0.35341945,-0.41175884,0.6021115,15.176941871643066,-0.23748257756233215,4.638839244842529,1.0467076301574707,2.965418815612793, 1.0797224044799805
150,2000898279,0.5856024,0.3532602,-0.41151193,0.602441,14.806815147399902,-0.5246320962905884,4.487826347351074,1.0853700637817383,2.667965888977051, 1.4559346437454224
151,2000914946,0.585558,0.35303658,-0.41124776,0.6027956,14.739873886108398,-0.32759958505630493,4.48274040222168,0.8374520540237427,3.1458353996276855, 1.5570281744003296
152,2000931613,0.5855466,0.3527808,-0.4110189,0.6031122,14.695794105529785,-0.4518333971500397,4.433998107910156,0.5311369299888611,3.1216437816619873, 1.5269970893859863
153,2000948280,0.5854791,0.35261273,-0.41074765,0.6034607,14.585201263427734,-0.32384127378463745,4.430266380310059,1.144036054611206,2.8617517948150635, 1.4617359638214111
154,2000964947,0.5854012,0.3524665,-0.4104307,0.60383743,14.775883674621582,-0.4682803750038147,4.526198863983154,1.5639433860778809,2.988227128982544, 1.4666153192520142
155,2000981614,0.58531225,0.35232002,-0.4101573,0.6041948,14.43812370300293,-0.38623493909835815,4.421544075012207,1.1911760568618774,2.751821994781494, 1.4536421298980713
156,2000998281,0.58525175,0.35210857,-0.4098823,0.6045631,14.351760864257812,-0.33810755610466003,4.331305027008057,1.0076996088027954,3.1213624477386475, 1.6162575483322144
157,2001014948,0.58522886,0.35190728,-0.40968302,0.60483754,14.583853721618652,-0.36233532428741455,4.438528060913086,0.45245474576950073,2.6458239555358887, 1.276248812675476
158,2001031615,0.58521485,0.35170424,-0.40951264,0.6050844,14.436541557312012,-0.5472853183746338,4.425710678100586,0.32067739963531494,2.486128807067871, 1.2540297508239746
159,2001048282,0.5851201,0.3515916,-0.4092476,0.60542077,14.214093208312988,-0.412108451128006,4.325906276702881,1.4576890468597412,2.48810076713562, 1.4276965856552124
160,2001064949,0.58510923,0.3514002,-0.40908557,0.6056518,14.468523025512695,-0.3295460045337677,4.330130100250244,0.26001372933387756,2.379746437072754, 1.1512333154678345
161,2001081616,0.5850575,0.35120633,-0.40885162,0.6059722,14.248006820678711,-0.3356814682483673,4.38853120803833,0.8298962116241455,2.7925970554351807, 1.480241060256958
162,2001098283,0.5850092,0.35103357,-0.40862396,0.6062726,13.902050018310547,-0.31515440344810486,4.1618852615356445,0.779695451259613,2.648474931716919, 1.3200979232788086
163,2001114950,0.5849604,0.35089976,-0.40841454,0.6065378,14.696322441101074,-0.43979060649871826,4.464668273925781,0.8039249777793884,2.3262667655944824, 1.1403478384017944
164,2001131617,0.58486766,0.35075408,-0.40817502,0.6068727,13.801908493041992,-0.4410158395767212,4.263810634613037,1.3706188201904297,2.5275700092315674, 1.6671497821807861
165,2001148284,0.58481884,0.35058478,-0.40798014,0.60714865,14.05444622039795,-0.24553534388542175,4.158273696899414,0.6496469974517822,2.449899673461914, 1.3296513557434082
166,2001164951,0.58477336,0.35040036,-0.40783802,0.6073944,14.225802421569824,-0.45086610317230225,4.334534645080566,0.2882900834083557,2.244536876678467, 1.376970648765564
167,2001181618,0.5846513,0.35025248,-0.40761128,0.60774916,13.867435455322266,-0.3419097065925598,4.2425665855407715,1.08693265914917,2.508040428161621, 1.7257133722305298
168,2001198285,0.5846017,0.3500248,-0.40753075,0.60798204,13.651510238647461,-0.40959659218788147,4.025814056396484,-0.1121964231133461,2.1417274475097656, 1.6487598419189453
169,2001214952,0.58448315,0.3499339,-0.4073343,0.6082799,14.347284317016602,-0.3033331334590912,4.266507148742676,1.0183417797088623,2.0363311767578125, 1.3984981775283813
170,2001231619,0.58441055,0.34977582,-0.4072171,0.60851896,13.620224952697754,-0.4607403874397278,4.129326820373535,0.43051743507385254,1.9642059803009033, 1.5150232315063477
171,2001248286,0.58438134,0.3495909,-0.40706512,0.608755,13.776040077209473,-0.22421935200691223,4.0838704109191895,0.26815855503082275,2.3477814197540283, 1.2657476663589478
172,2001264953,0.5843474,0.349431,-0.4069237,0.6089738,14.086749076843262,-0.413278192281723,4.1538801193237305,0.038438260555267334,2.1845009326934814, 1.0400357246398926
173,2001281620,0.58419913,0.34938172,-0.40663025,0.6093403,13.348820686340332,-0.35534223914146423,3.970301628112793,1.9686496257781982,2.360626220703125, 1.5312615633010864
174,2001298287,0.58411515,0.34933707,-0.4063319,0.6096456,14.06060791015625,-0.2901676595211029,4.124763488769531,1.5458992719650269,2.4183828830718994, 0.917632520198822
175,2001314954,0.58397794,0.34927568,-0.4060893,0.60997385,13.524847030639648,-0.458676278591156,4.025915145874023,1.507646918296814,2.1761510372161865, 1.4601352214813232
176,2001331621,0.5839065,0.34914228,-0.40591517,0.61023414,13.4794282913208,-0.3690122961997986,3.9641120433807373,0.7023065686225891,2.220127820968628, 1.346158504486084
177,2001348288,0.5838212,0.34907365,-0.40573144,0.6104775,13.57800006866455,-0.3022526800632477,3.992659091949463,0.9665016531944275,1.9219194650650024, 1.123725414276123
178,2001364955,0.5836951,0.34903705,-0.40554044,0.61074543,13.70738410949707,-0.4375113844871521,4.033769130706787,1.102351427078247,1.7966861724853516, 1.1848883628845215
179,2001381622,0.5836256,0.34889793,-0.40543327,0.61096257,13.412943840026855,-0.35884836316108704,4.025254726409912,0.11334259063005447,1.9344313144683838, 1.2632761001586914
180,2001398289,0.58357215,0.34876046,-0.4053551,0.6111438,13.320908546447754,-0.297738254070282,3.8704679012298584,-0.07417438179254532,1.7695367336273193, 1.1584304571151733
181,2001414956,0.5835585,0.3486022,-0.40519106,0.611356,13.658177375793457,-0.24083177745342255,3.9973502159118652,0.2555314600467682,2.3842155933380127, 1.0058298110961914
182,2001431623,0.58348304,0.3485165,-0.40495625,0.61163247,13.161154747009277,-0.34814587235450745,3.89909291267395,1.2597029209136963,2.337088108062744, 1.2065181732177734
183,2001448290,0.58339655,0.34850326,-0.40469328,0.61189646,13.66148567199707,-0.18823178112506866,4.021571636199951,1.5299043655395508,2.099351406097412, 0.8562518358230591
184,2001464957,0.58331877,0.34841198,-0.40454975,0.6121176,12.982942581176758,-0.27707377076148987,3.800396203994751,0.4873521029949188,1.8805677890777588, 1.103939414024353
185,2001481624,0.58313763,0.34850428,-0.404254,0.61243296,13.440492630004883,-0.215634286403656,3.904691696166992,2.2741963863372803,1.6667529344558716, 0.982189416885376
186,2001498291,0.58304924,0.34844777,-0.40406388,0.61267453,13.503090858459473,-0.3123563230037689,4.005245685577393,1.0811057090759277,1.917616605758667, 1.1262352466583252
187,2001514958,0.5829307,0.3483191,-0.40390074,0.612968,12.859435081481934,-0.3590947389602661,3.6569647789001465,0.8113526105880737,2.1640617847442627, 1.676383137702942
188,2001531625,0.5827753,0.34828055,-0.40358022,0.6133487,13.505755424499512,-0.23391413688659668,3.8938169479370117,2.249262571334839,2.5130350589752197, 1.6010819673538208
189,2001548292,0.5826444,0.3480986,-0.40330163,0.61375946,13.169597625732422,-0.3402896821498871,3.884929656982422,1.3858202695846558,3.1097216606140137, 2.0370230674743652
190,2001564959,0.5824676,0.3477746,-0.4029961,0.6143116,13.178112983703613,-0.3754022717475891,3.849956512451172,1.3027068376541138,4.046058177947998, 3.047943592071533
191,2001581626,0.58232737,0.34729764,-0.4028268,0.614825,13.136675834655762,-0.25184670090675354,3.776740312576294,0.030869707465171814,4.144820213317871, 3.5538454055786133
192,2001598293,0.5822202,0.34688878,-0.40274817,0.61520875,12.931174278259277,-0.0946364477276802,3.674022674560547,-0.6073282957077026,3.2928645610809326, 2.8711001873016357
193,2001614960,0.58210796,0.34663945,-0.40261894,0.6155401,13.252006530761719,-0.12349482625722885,3.803555488586426,0.05157757177948952,2.695448398590088, 2.0900540351867676
194,2001631627,0.5820239,0.34649175,-0.40257338,0.61573225,12.789406776428223,-0.24414163827896118,3.6734511852264404,0.05130864679813385,1.6330209970474243, 1.582435965538025
195,2001648294,0.58191705,0.34644523,-0.40249047,0.61591387,12.937828063964844,-0.2057097852230072,3.68959641456604,0.5199569463729858,1.287556767463684, 1.1972591876983643
196,2001664961,0.5817005,0.34656197,-0.40234247,0.61614925,12.909153938293457,-0.2722339332103729,3.652592658996582,1.6901373863220215,0.7115912437438965, 1.1708014011383057
197,2001681628,0.5814452,0.34689578,-0.40205744,0.6163883,12.944588661193848,-0.31830355525016785,3.663356065750122,3.1892101764678955,0.2577725946903229, 0.3937760591506958
198,2001698295,0.5811728,0.3473707,-0.40166906,0.616631,12.835237503051758,-0.1817156970500946,3.6666438579559326,4.401087760925293,0.02278890088200569, -0.055413078516721725
199,2001714962,0.5810064,0.34775686,-0.40145907,0.61670697,12.532759666442871,-0.3911258578300476,3.5302679538726807,2.6370387077331543,-0.4175126254558563, -0.4568536877632141
200,2001731629,0.5807655,0.34835786,-0.40095425,0.6169231,13.361371994018555,-0.21522696316242218,3.7704579830169678,5.3094563484191895,-0.011576943099498749, -0.879924476146698
201,2001748296,0.5807427,0.34871063,-0.4008079,0.61684024,12.266868591308594,-0.30840301513671875,3.496713161468506,1.6412553787231445,-0.5164929628372192, -1.33095121383667
202,2001764963,0.5805939,0.34931308,-0.40056506,0.6167973,12.738821983337402,-0.30537667870521545,3.510345935821533,3.34065842628479,-1.4183290004730225, -1.629787564277649
203,2001781630,0.5803246,0.35000575,-0.4005791,0.61664885,13.100296974182129,-0.45814910531044006,3.8920814990997314,2.406473159790039,-3.3724753856658936, -1.296501874923706
204,2001798297,0.5797453,0.35108644,-0.40039274,0.6167007,12.358556747436523,-0.41836899518966675,3.476583480834961,6.342223644256592,-4.611554145812988, -0.5827786326408386
205,2001814964,0.5791034,0.35226756,-0.4000771,0.61683476,12.593358039855957,-0.18701507151126862,3.3207759857177734,7.564602851867676,-4.472170352935791, -0.6447229385375977
206,2001831631,0.5785599,0.35341987,-0.39979917,0.6168658,12.767468452453613,-0.06011400371789932,3.377345085144043,6.849958419799805,-4.472388744354248, -1.2446622848510742
207,2001848298,0.5781982,0.3543815,-0.3994411,0.61688536,12.785633087158203,-0.15590302646160126,3.451152801513672,6.149373531341553,-2.8796489238739014, -1.6031759977340698
208,2001864965,0.5781969,0.3546621,-0.39939114,0.6167577,12.53033447265625,-0.22065234184265137,3.3401358127593994,0.7028957605361938,-0.5523635149002075, -1.1830636262893677
209,2001881632,0.57808834,0.3548426,-0.39869714,0.6172044,12.836721420288086,-0.1338205635547638,3.2961409091949463,4.973108768463135,3.541653633117676, 0.3260432481765747
210,2001898299,0.5779502,0.35489726,-0.39788234,0.61782783,12.665125846862793,0.18883566558361053,3.183821201324463,5.594807147979736,4.916262149810791, 1.2434518337249756
211,2001914966,0.5778733,0.3547725,-0.39722693,0.61839306,12.651923179626465,0.1756562441587448,3.2935543060302734,3.793503761291504,5.0940656661987305, 1.5783765316009521
212,2001931633,0.5777885,0.35455033,-0.39660236,0.619,12.705329895019531,0.27324357628822327,3.2793354988098145,3.7285759449005127,5.434024333953857, 2.333951473236084
213,2001948300,0.57773644,0.35421118,-0.39622068,0.61948735,12.556640625,0.1831163913011551,3.252584457397461,1.5792343616485596,4.79764986038208, 2.4835293292999268
214,2001964967,0.57770187,0.35381395,-0.39589456,0.61995465,12.675701141357422,0.012401847168803215,3.3871946334838867,1.0342729091644287,4.822929382324219, 2.6435961723327637
215,2001981634,0.57766277,0.35340053,-0.39559996,0.6204149,12.502899169921875,-0.16007402539253235,3.373809814453125,0.6426419019699097,4.759575843811035, 2.6369874477386475
216,2001998301,0.5776878,0.35291386,-0.3954285,0.62077785,12.812762260437012,-0.23131415247917175,3.434736728668213,-0.44521278142929077,4.502206802368164, 2.5691142082214355
217,2002014968,0.57773113,0.35237825,-0.39527953,0.6211364,12.479544639587402,-0.2146032154560089,3.4191477298736572,-0.7526292204856873,4.657535552978516, 2.6825144290924072
218,2002031635,0.5777893,0.35179886,-0.395235,0.6214389,12.369497299194336,-0.22076834738254547,3.281256914138794,-1.6156492233276367,4.339630126953125, 2.7291548252105713
219,2002048302,0.577881,0.35134423,-0.39515236,0.6216637,12.760139465332031,-0.15083448588848114,3.3739497661590576,-1.2412042617797852,3.862196683883667, 1.8495635986328125
220,2002064969,0.57795286,0.35096484,-0.39511302,0.621836,12.394943237304688,-0.22012729942798615,3.3675050735473633,-1.2187420129776,3.192680597305298, 1.6295759677886963
221,2002081636,0.5781035,0.35055628,-0.39516795,0.6218915,12.263798713684082,-0.27734875679016113,3.3091964721679688,-2.0579676628112793,2.8533637523651123, 1.2592036724090576
222,2002098303,0.578112,0.35026383,-0.39506325,0.62211484,12.709845542907715,-0.24171419441699982,3.4592134952545166,-0.23700711131095886,3.028784990310669, 1.7501349449157715
223,2002114970,0.57811326,0.3499242,-0.395022,0.62233084,12.268495559692383,-0.09095773845911026,3.3070449829101562,-0.7591220736503601,2.954495668411255, 1.9932891130447388
224,2002131637,0.5781744,0.34943703,-0.39510033,0.62249804,12.339041709899902,-0.2527334988117218,3.323105573654175,-2.01025128364563,3.1454639434814453, 2.3194544315338135
225,2002148304,0.5780616,0.34898925,-0.39499697,0.62291956,12.560264587402344,-0.3085436224937439,3.407414197921753,0.010558836162090302,3.8470473289489746, 3.5177061557769775
226,2002164971,0.5779243,0.34837338,-0.3950326,0.623369,12.013509750366211,-0.3154344856739044,3.0985360145568848,-1.3256365060806274,4.050271034240723, 4.382147312164307
227,2002181638,0.5777893,0.34783968,-0.39504647,0.62378323,12.330100059509277,-0.15396413207054138,3.305189609527588,-0.8585377931594849,3.697814464569092, 4.059120178222656
228,2002198305,0.57771856,0.34731224,-0.39517513,0.6240609,12.072525978088379,-0.26199105381965637,3.141103506088257,-1.89156174659729,3.078127861022949, 3.476289987564087
229,2002214972,0.57760525,0.34698027,-0.39520675,0.62433046,12.037712097167969,-0.13584361970424652,3.3247199058532715,-0.7575340270996094,2.520526885986328, 2.7706475257873535
230,2002231639,0.57761854,0.3465655,-0.39540166,0.62442523,11.968154907226562,-0.1575596034526825,3.134167432785034,-2.305424928665161,2.126436948776245, 2.3356542587280273
231,2002248306,0.5775066,0.34638515,-0.39555103,0.62453413,12.000656127929688,-0.3682851791381836,3.2002480030059814,-0.8926025629043579,1.0131551027297974, 2.155238151550293
232,2002264973,0.577344,0.34640893,-0.39566565,0.6245988,11.74916934967041,-0.23053613305091858,3.1940484046936035,-0.09151416271924973,0.06589507311582565, 1.4485453367233276
233,2002281640,0.577079,0.34669742,-0.39568123,0.6246737,11.887207984924316,-0.41822320222854614,3.189631700515747,1.505021333694458,-0.9004015326499939, 0.8716193437576294
234,2002298307,0.5768439,0.34710738,-0.3957869,0.62459624,11.719319343566895,-0.34426426887512207,3.207693338394165,1.3342103958129883,-2.0797641277313232, 0.17821958661079407
235,2002314974,0.5766703,0.34754044,-0.39598393,0.62439084,11.70995807647705,-0.22560235857963562,3.086369276046753,0.46797606348991394,-2.6584956645965576, -0.4859241545200348
236,2002331641,0.57656515,0.3479374,-0.39632323,0.62405133,11.650532722473145,-0.34358951449394226,3.035829782485962,-0.5976466536521912,-3.2188374996185303, -0.7120073437690735
237,2002348308,0.57633907,0.34854898,-0.39662024,0.6237303,11.531793594360352,-0.2504555583000183,3.014413833618164,0.5881636738777161,-4.216221809387207, -0.9370023012161255
238,2002364975,0.5760446,0.3493837,-0.39687455,0.6233736,11.7650146484375,-0.2598285377025604,3.0530526638031006,1.6170514822006226,-5.24668550491333, -1.5645263195037842
239,2002381642,0.5757074,0.35031876,-0.39720678,0.6229485,11.313440322875977,-0.2693970799446106,2.9083144664764404,1.6926087141036987,-6.264815330505371, -1.6643900871276855
240,2002398309,0.5753693,0.35142466,-0.3976287,0.6223684,11.273712158203125,-0.1908123940229416,2.744431734085083,1.7648497819900513,-7.741325378417969, -2.377819299697876
241,2002414976,0.5749912,0.35261315,-0.39804468,0.6217796,11.538335800170898,-0.29227086901664734,2.9769976139068604,2.0375354290008545,-8.162230491638184, -2.584385633468628
242,2002431643,0.57478154,0.35359588,-0.39876688,0.62095207,11.156304359436035,-0.2715640664100647,2.8444714546203613,-0.8848550319671631,-8.633325576782227, -2.7513041496276855
243,2002448310,0.574602,0.35439602,-0.39965215,0.62009215,11.426074028015137,-0.3343357443809509,2.8796310424804688,-2.4624950885772705,-8.480969429016113, -2.1087327003479004
244,2002464977,0.574364,0.35516688,-0.40058613,0.6192685,10.929215431213379,-0.3159860670566559,2.642871141433716,-2.7306342124938965,-8.57884693145752, -1.6472681760787964
245,2002481644,0.5738797,0.35622475,-0.40125543,0.61867607,11.09626579284668,-0.4052707552909851,2.5851798057556152,0.5211737751960754,-8.818108558654785, -1.2990764379501343
246,2002498311,0.5732712,0.35739785,-0.40187615,0.6181606,11.058968544006348,-0.4146070182323456,2.6670308113098145,2.012294292449951,-9.29719352722168, -0.6771101951599121
247,2002514978,0.5726275,0.35868034,-0.40239516,0.61767673,10.721205711364746,-0.3753849267959595,2.482933759689331,3.4379236698150635,-9.419150352478027, -0.6847941875457764
248,2002531645,0.5721116,0.35974178,-0.40293372,0.6171862,10.814457893371582,-0.09790323674678802,2.432565927505493,1.6147980690002441,-8.129487037658691, -0.9675969481468201
249,2002548312,0.57175976,0.36065114,-0.4035267,0.6165937,10.534008979797363,-0.20456437766551971,2.3635451793670654,0.456219881772995,-7.525588512420654, -1.253716230392456
250,2002564979,0.57125,0.36165455,-0.40398777,0.6161766,10.867341995239258,-0.6051642894744873,2.5807688236236572,2.217707872390747,-7.384334564208984, -0.5139061212539673
251,2002581646,0.5705237,0.3627356,-0.40413076,0.6161203,10.4011869430542,-0.5339527726173401,2.2612483501434326,5.366610527038574,-6.146344184875488, 0.7731642723083496
252,2002598313,0.5697276,0.36387885,-0.4041723,0.6161554,10.555742263793945,-0.32381460070610046,2.351294994354248,6.531182289123535,-5.966057300567627, 1.039190649986267
253,2002614980,0.5686532,0.36529875,-0.40415037,0.61632216,10.64826774597168,-0.6532177329063416,2.6053466796875,8.997150421142578,-7.321752071380615, 1.8399981260299683
254,2002631647,0.56719345,0.3671494,-0.40352198,0.6169789,10.884844779968262,-0.47071513533592224,2.620124101638794,15.651711463928223,-6.610746383666992, 2.7013676166534424
255,2002648314,0.56634736,0.36838114,-0.40335968,0.6171281,11.040749549865723,-0.011862690560519695,2.621551752090454,8.165977478027344,-5.347024440765381, 0.9179787039756775
256,2002664981,0.56604415,0.36911598,-0.40365404,0.61677486,10.732209205627441,-0.050642579793930054,2.505920648574829,1.6372472047805786,-4.78061056137085, -0.7161311507225037
257,2002681648,0.5659701,0.3697124,-0.40412286,0.6161781,10.588380813598633,0.08122629672288895,2.6169021129608154,-0.8555923104286194,-4.841927528381348, -1.7741022109985352
258,2002698315,0.56599236,0.37032256,-0.40464404,0.6154488,10.785046577453613,-0.2400083839893341,2.7022829055786133,-1.5789079666137695,-5.171268939971924, -2.542329788208008
259,2002714982,0.5663242,0.36958778,-0.40604064,0.6146651,10.880987167358398,-2.943326950073242,3.393038749694824,-11.39354419708252,-2.158728837966919, 1.9502347707748413
260,2002731649,0.56561667,0.369308,-0.40666232,0.6150733,10.581575393676758,-0.4787718653678894,1.6904655694961548,-0.634042501449585,-0.9073428511619568, 7.48499870300293
261,2002748316,0.5667428,0.36647654,-0.41010633,0.61344147,9.841301918029785,0.12176152318716049,2.4278156757354736,-32.641300201416016,-1.1337890625, 6.236428737640381
262,2002764983,0.5681235,0.3629129,-0.41406453,0.6116212,9.163505554199219,0.05436196178197861,2.1514339447021484,-39.5355224609375,0.29575788974761963, 7.377618789672852
263,2002781650,0.5687046,0.3602864,-0.4171493,0.61053705,8.37582778930664,-0.37907636165618896,1.6791821718215942,-28.33310317993164,-0.6292164325714111, 8.661596298217773
264,2002798317,0.56841767,0.35880336,-0.41926932,0.6102253,8.578590393066406,-0.09823622554540634,1.4574487209320068,-15.066878318786621,-2.277547597885132, 9.903794288635254
265,2002814984,0.56778055,0.3577742,-0.42084065,0.61034095,8.495133399963379,0.20616741478443146,1.3592329025268555,-8.893003463745117,-1.9677995443344116, 10.400510787963867
266,2002831651,0.56746477,0.35671365,-0.4220202,0.6104409,8.211453437805176,1.0543088912963867,1.2067722082138062,-8.261444091796875,0.6160048842430115, 8.112371444702148
267,2002848318,0.56784713,0.3553025,-0.42331657,0.6100107,8.097923278808594,0.6850749850273132,1.086464524269104,-13.574421882629395,2.4200243949890137, 4.3570380210876465
268,2002864985,0.5684813,0.35386932,-0.42473766,0.6092649,8.123936653137207,-0.04433778300881386,1.0096465349197388,-15.720829963684082,2.016662359237671, 2.484849691390991
269,2002881652,0.5689611,0.35230684,-0.4263406,0.6086026,8.349167823791504,-1.203028678894043,1.5139129161834717,-16.704954147338867,1.6951206922531128, 4.093585968017578
270,2002898319,0.5687981,0.35116792,-0.4273569,0.6087002,8.100540161132812,-1.1865684986114502,1.4277708530426025,-8.821441650390625,2.2038779258728027, 7.060598850250244
271,2002914986,0.5684053,0.35025406,-0.427846,0.6092499,8.30510425567627,-1.4913078546524048,1.6529349088668823,-3.5693485736846924,3.712824821472168, 8.001672744750977
272,2002931653,0.56788224,0.34881523,-0.4283164,0.6102319,8.728848457336426,-2.558093786239624,2.1629891395568848,-4.2029314041137695,6.716594696044922, 11.549022674560547
273,2002948320,0.56671214,0.34612772,-0.42857888,0.6126607,8.557927131652832,-3.976546049118042,1.9815961122512817,-2.477625608444214,14.369305610656738, 22.959739685058594
274,2002964987,0.56472963,0.34299508,-0.4304882,0.61491054,7.972143173217773,-4.380516529083252,1.8349111080169678,-9.609600067138672,7.0131096839904785, 30.85640525817871
275,2002981654,0.5623895,0.33978263,-0.43393916,0.61641127,7.739289283752441,-3.3918955326080322,0.8922370672225952,-18.064353942871094,-1.3646641969680786, 33.024662017822266
276,2002998321,0.5609233,0.33502126,-0.43974584,0.6162382,7.6667866706848145,-2.184864044189453,-0.09726882725954056,-41.076873779296875,-5.1388163566589355, 32.87383270263672
277,2003014988,0.55998516,0.3290283,-0.44789425,0.6144493,7.932315349578857,-1.5687378644943237,-1.7744981050491333,-61.854637145996094,-10.966963768005371, 33.49249267578125
278,2003031655,0.558124,0.32334542,-0.45704174,0.61242,8.324664115905762,-2.716811418533325,-1.4309616088867188,-63.52889633178711,-19.335447311401367, 37.78457260131836
279,2003048322,0.553555,0.32043508,-0.46447653,0.6125029,7.36448335647583,-3.5383872985839844,-0.5714284181594849,-32.912025451660156,-28.114152908325195, 44.796260833740234
280,2003064989,0.5465717,0.32045043,-0.4694048,0.6150043,7.2223992347717285,-2.656907796859741,-0.2306046336889267,2.8369498252868652,-33.51551818847656, 49.7820930480957
281,2003081656,0.5382752,0.32135674,-0.4738462,0.61843336,6.875173568725586,-2.192934513092041,1.3665201663970947,14.182756423950195,-37.59070587158203, 54.83060073852539
282,2003098323,0.52861226,0.32314762,-0.47777823,0.6227942,6.375840663909912,-2.1193289756774902,1.5180994272232056,25.70759391784668,-41.87024688720703, 60.051788330078125
283,2003114990,0.5183066,0.32518414,-0.48104033,0.6278646,6.342738628387451,-1.2473760843276978,1.2880131006240845,33.25495529174805,-41.04840087890625, 63.05510330200195
284,2003131657,0.5087724,0.32635483,-0.48450693,0.6323735,6.352755546569824,-0.14729109406471252,1.7198660373687744,25.7204532623291,-36.76133346557617, 61.0493049621582
285,2003148324,0.5008026,0.32615513,-0.48904565,0.63533765,6.1560540199279785,-0.16519363224506378,1.7389638423919678,7.601304054260254,-32.84081268310547, 55.872474670410156
286,2003164991,0.49394423,0.3256486,-0.49350902,0.6375117,6.171445846557617,-0.0328233577311039,1.7420510053634644,1.7143609523773193,-29.311763763427734, 49.224212646484375
287,2003181658,0.488258,0.32484174,-0.49806482,0.6387593,6.1350178718566895,0.10561763495206833,1.6050631999969482,-5.495458126068115,-26.440431594848633, 42.2420768737793
288,2003198325,0.4833668,0.32419586,-0.5022477,0.63953197,5.991329193115234,-0.06623195856809616,1.278087854385376,-6.738964557647705,-24.26225471496582, 35.85702896118164
289,2003214992,0.478628,0.32489738,-0.5047374,0.6407784,6.015484809875488,0.013792716898024082,1.102729320526123,6.463863849639893,-22.99308204650879, 28.410903930664062
290,2003231659,0.47404063,0.32719693,-0.5051194,0.6427148,6.120444297790527,0.12107697129249573,1.2118628025054932,23.04608917236328,-21.036846160888672, 19.835586547851562
291,2003248326,0.46997604,0.32994172,-0.5046407,0.64466965,6.320425987243652,-0.0003345147706568241,1.3557744026184082,27.165203094482422,-18.34849739074707, 14.180350303649902
292,2003264993,0.4666037,0.33251274,-0.50412744,0.64619803,6.369631290435791,-0.14507326483726501,1.1715518236160278,23.681385040283203,-16.04007339477539, 10.335444450378418
293,2003281660,0.46381107,0.33514956,-0.50339353,0.6474173,6.290485858917236,-0.3392541706562042,0.7851212620735168,22.453332901000977,-14.320966720581055, 6.107907772064209
294,2003298327,0.46152556,0.33802095,-0.5023919,0.64833504,6.266631603240967,-0.2741672694683075,0.7735832333564758,22.165468215942383,-13.433111190795898, 1.5230563879013062
295,2003314994,0.45997685,0.34072158,-0.5020791,0.6482642,6.040040493011475,-0.47600874304771423,0.18733254075050354,13.409310340881348,-14.591575622558594, -2.6400070190429688
296,2003331661,0.4588612,0.34397686,-0.50192493,0.6474548,6.03419303894043,-0.31388378143310547,-0.36230480670928955,10.884883880615234,-17.760284423828125, -8.393603324890137
297,2003348328,0.45807874,0.3477327,-0.5025208,0.64553756,5.954102516174316,-0.4930129051208496,-0.9342232346534729,4.5129499435424805,-23.76101303100586, -13.261443138122559
298,2003364995,0.45726573,0.35200894,-0.5039618,0.64266676,5.9067559242248535,-0.4682678282260895,-1.1944100856781006,-0.8111192584037781,-31.031055450439453, -15.851945877075195
299,2003381662,0.4561727,0.35687473,-0.505978,0.639166,5.824740409851074,-0.5323043465614319,-1.1428059339523315,-2.9918251037597656,-37.84465026855469, -17.19051742553711
300,2003398329,0.4545021,0.36254653,-0.5076994,0.63579035,5.671210765838623,-0.48099425435066223,-1.0555176734924316,2.6988751888275146,-42.07323455810547, -17.73906707763672
301,2003414996,0.4523469,0.3688004,-0.5089258,0.6327426,5.3811936378479,-0.40320825576782227,-0.6519142985343933,9.045600891113281,-43.86195373535156, -17.81886100769043
302,2003431663,0.44982055,0.3753925,-0.5096631,0.63006794,4.93144416809082,-0.5604154467582703,-0.3952444791793823,14.476903915405273,-44.10437774658203, -17.430707931518555
303,2003448330,0.44680262,0.38195425,-0.50996935,0.6280206,4.373096466064453,-1.08589768409729,-0.08300310373306274,19.721481323242188,-42.70064163208008, -14.349151611328125
304,2003464997,0.44339615,0.3880126,-0.51020616,0.62652683,3.7707479000091553,-1.0762743949890137,0.38046982884407043,21.441110610961914,-40.20175552368164, -9.40656566619873
305,2003481664,0.44008458,0.3931901,-0.51063544,0.6252829,3.2794852256774902,-0.8180394172668457,0.6645565032958984,18.549293518066406,-36.00557327270508, -5.4772443771362305
306,2003498331,0.43719575,0.3971941,-0.51139784,0.62415457,3.0206854343414307,-0.48633652925491333,0.7726020216941833,12.824166297912598,-30.20255470275879, -1.9423333406448364
307,2003514998,0.43550283,0.3997328,-0.5130345,0.62237173,2.87990403175354,-0.16331258416175842,0.21656541526317596,-0.9109687805175781,-24.167552947998047, -1.500907301902771
308,2003531665,0.43508902,0.40070835,-0.51574314,0.61978984,2.9018938541412354,0.245195209980011,-0.2532278597354889,-16.5187931060791,-18.39141845703125, -0.8828715682029724
309,2003548332,0.43597057,0.40057838,-0.51934373,0.6162377,2.8723599910736084,0.7660764455795288,0.03343140333890915,-30.641277313232422,-14.428139686584473, -2.8732190132141113
310,2003564999,0.43699378,0.40038374,-0.5228815,0.61263716,2.42345929145813,0.11976055800914764,-0.3503358066082001,-31.146028518676758,-13.610605239868164, -3.475644588470459
311,2003581666,0.43725365,0.40083963,-0.5255963,0.6098242,1.9791395664215088,-0.3635287284851074,-0.6152552366256714,-20.795303344726562,-14.45390510559082, -2.4572877883911133
312,2003598333,0.43669477,0.40188533,-0.52755946,0.6078378,1.6424864530563354,-0.38356903195381165,-0.4314262866973877,-10.621138572692871,-15.332406997680664, -0.7386839389801025
313,2003615000,0.43565494,0.40317154,-0.5291432,0.6063537,1.5921781063079834,-0.21791651844978333,-1.0088608264923096,-5.158171653747559,-15.549060821533203, 0.8513988852500916
314,2003631667,0.4340012,0.4052097,-0.53004533,0.6053925,2.4421753883361816,-0.3133380115032196,-2.0330560207366943,3.5523762702941895,-17.38666343688965, 0.34900546073913574
315,2003648334,0.43260503,0.40733728,-0.53382945,0.6016274,3.394263982772827,-1.1121128797531128,-8.892854690551758,-19.08139419555664,-33.13300323486328, -1.3766770362854004
316,2003665001,0.43041384,0.4101458,-0.5384432,0.59716284,7.060794353485107,-0.3914969265460968,-9.184629440307617,-20.687145233154297,-42.814300537109375, -0.35427772998809814
317,2003681668,0.42827767,0.41412228,-0.54897064,0.5862699,8.090889930725098,-0.338204562664032,-13.9667329788208,-65.31981658935547,-82.53248596191406, -7.143341541290283
318,2003698335,0.42344892,0.42155132,-0.5634456,0.57053894,8.296512603759766,-0.8772523403167725,-17.111217498779297,-81.4357681274414,-131.2620391845703, -12.172696113586426
319,2003715002,0.41454533,0.43201828,-0.58089155,0.55143243,10.507091522216797,-2.6426427364349365,-16.933326721191406,-85.22367858886719,-176.49732971191406, -9.038117408752441
320,2003731669,0.39869356,0.44857424,-0.59730333,0.53202754,6.576159477233887,-1.0155733823776245,-13.834933280944824,-44.195556640625,-224.40745544433594, -10.908748626708984
321,2003748336,0.3790101,0.46790057,-0.61351025,0.51090664,0.5071918964385986,0.8682783246040344,-5.827836513519287,-30.823253631591797,-254.335205078125, -13.623470306396484
322,2003765003,0.35908368,0.4850974,-0.62944555,0.4894259,-4.839531421661377,0.7900546193122864,1.1509991884231567,-36.00422286987305,-248.07498168945312, -5.631213665008545
323,2003781670,0.34122136,0.4983641,-0.643204,0.47062725,-8.017237663269043,0.10180072486400604,-1.3010883331298828,-33.610389709472656,-211.6616973876953, 3.6746277809143066
324,2003798337,0.32782254,0.5070693,-0.6560431,0.452792,-5.084432125091553,1.400862693786621,-6.963598728179932,-52.312442779541016,-171.55902099609375, 8.344252586364746
325,2003815004,0.32151213,0.5106198,-0.6718447,0.42956048,-1.3293157815933228,2.7516822814941406,-8.503623008728027,-122.05509948730469,-148.6348114013672, 7.752048015594482
326,2003831671,0.3208645,0.50958586,-0.6901809,0.4012713,-1.3188905715942383,4.022911548614502,-7.577298164367676,-182.7133026123047,-131.9431610107422, 10.264163970947266
327,2003848338,0.32378435,0.5052691,-0.7081051,0.37209457,-0.889672040939331,4.251438617706299,-5.589477062225342,-205.28280639648438,-107.89862060546875, 13.10935115814209
328,2003865005,0.33164477,0.49861005,-0.72332805,0.34379733,2.3945722579956055,5.217566967010498,-4.619625568389893,-216.2440643310547,-68.6844482421875, 5.023991107940674
329,2003881672,0.34180146,0.4926019,-0.7336717,0.31975144,11.646271705627441,4.664796829223633,-7.638997554779053,-189.74098205566406,-33.190521240234375, -10.016429901123047
330,2003898339,0.35473388,0.48761755,-0.7409775,0.2955431,15.977585792541504,5.846409797668457,-3.6683108806610107,-190.74636840820312,-15.164843559265137, -31.29670524597168
331,2003915006,0.3731782,0.48060226,-0.7476996,0.26590347,17.92158317565918,-1.7467151880264282,2.3938474655151367,-240.63778686523438,-0.5473440289497375, -46.68036651611328
332,2003931673,0.38770306,0.47720733,-0.7497461,0.24462251,21.675792694091797,-10.933959007263184,6.961655616760254,-167.12660217285156,11.090970039367676, -52.03292465209961
333,2003948340,0.39663312,0.47838163,-0.74790716,0.23338415,19.510332107543945,-12.197419166564941,8.092902183532715,-78.85171508789062,16.4263916015625, -52.78992462158203
334,2003965007,0.39947993,0.48597157,-0.7420221,0.23162611,18.666587829589844,-15.722973823547363,15.369453430175781,13.32990837097168,15.807912826538086, -64.31153869628906
335,2003981674,0.3988558,0.49533,-0.7333237,0.24041344,19.84683609008789,-26.319730758666992,28.032625198364258,87.4754867553711,36.786293029785156, -49.27201843261719
336,2003998341,0.39458302,0.5054572,-0.72561824,0.24959065,29.50102424621582,-25.505098342895508,12.408951759338379,101.55567932128906,13.693604469299316, -44.117759704589844
337,2004015008,0.38965005,0.51120913,-0.723689,0.25122178,19.670652389526367,-23.286088943481445,7.201532363891602,43.711612701416016,-25.455921173095703, -22.842639923095703
338,2004031675,0.38642913,0.508247,-0.7284431,0.24845204,12.909931182861328,-21.448898315429688,6.334715843200684,-19.72721290588379,-36.02467727661133, 28.191204071044922
339,2004048342,0.37948895,0.50207984,-0.73518264,0.25181457,12.307515144348145,-19.65735626220703,7.981212615966797,11.480216979980469,-33.43210983276367, 72.9654541015625
340,2004065009,0.36551696,0.49747664,-0.7389888,0.26983288,6.711516380310059,-12.834663391113281,13.734987258911133,118.46326446533203,-13.8851957321167, 104.76828002929688
341,2004081676,0.35157317,0.4934655,-0.736357,0.301109,-0.1253037005662918,-2.7417378425598145,19.66093635559082,198.8673858642578,46.16312026977539, 112.93275451660156
342,2004098343,0.34590608,0.4892516,-0.72683877,0.3356892,-5.458555221557617,2.357386589050293,23.67428970336914,201.26834106445312,115.82852172851562, 81.8384780883789
343,2004115010,0.34637198,0.48793313,-0.7063293,0.37821552,-10.891408920288086,2.76495099067688,26.775941848754883,252.77828979492188,192.20501708984375, 35.705780029296875
344,2004131677,0.35480332,0.48592576,-0.6746794,0.42754945,-10.824769973754883,3.505363941192627,27.0432071685791,286.65899658203125,281.6500244140625, -2.2910540103912354
345,2004148344,0.37287524,0.47787127,-0.6345142,0.479578,-7.023700714111328,2.29927134513855,22.151229858398438,277.4212646484375,373.5455322265625, -23.936412811279297
346,2004165011,0.3984695,0.46010682,-0.59211385,0.52813345,-2.847059488296509,2.6051836013793945,6.693964958190918,220.12081909179688,432.41815185546875, -22.219322204589844
347,2004181678,0.42115816,0.43823063,-0.5505024,0.57229966,3.2410764694213867,2.259126901626587,-14.31515884399414,197.46041870117188,419.70355224609375, -4.095478057861328
348,2004198345,0.43214965,0.42436486,-0.5093834,0.6113016,9.912748336791992,0.7511274814605713,-30.1467227935791,234.684326171875,327.91632080078125, -1.492282748222351
349,2004215012,0.43273348,0.42348236,-0.4767998,0.6372335,13.692953109741211,-0.5281821489334106,-38.268489837646484,219.76123046875,176.713134765625, -15.789368629455566
350,2004231679,0.4308898,0.43037808,-0.46176562,0.6448886,11.4806547164917,0.1585724949836731,-33.780792236328125,113.97894287109375,30.816133499145508, -34.135196685791016
351,2004248346,0.42503238,0.44381326,-0.46099535,0.6402035,11.943513870239258,-9.157444953918457,-41.3050537109375,43.29121780395508,-88.26494598388672, -31.482831954956055
352,2004265013,0.402947,0.4717342,-0.46325272,0.6328488,29.997631072998047,-13.450337409973145,-56.826904296875,114.07510375976562,-218.9810791015625, -4.9332594871521
353,2004281680,0.3748797,0.5043071,-0.48928496,0.6047645,23.675617218017578,-6.466350078582764,-43.1019401550293,-20.942188262939453,-390.53900146484375, 24.872554779052734
354,2004298347,0.33864713,0.53929406,-0.5168049,0.57218266,8.519695281982422,-3.9576995372772217,-19.308448791503906,-6.92602014541626,-446.60357666015625, 43.7537841796875
355,2004315014,0.29796726,0.57235247,-0.53401893,0.5463077,-6.5584282875061035,8.509749412536621,18.596418380737305,70.85366821289062,-406.7982177734375, 44.05014419555664
356,2004331681,0.27562788,0.589714,-0.5439638,0.5295,-20.817718505859375,16.58417320251465,37.732425689697266,24.884002685546875,-228.84584045410156, 24.64234161376953
357,2004348348,0.2666626,0.5959883,-0.5512278,0.5194583,-9.103543281555176,-1.7876086235046387,-26.08763885498047,-15.482579231262207,-107.29405975341797, 19.752492904663086
358,2004365015,0.23790595,0.6138014,-0.5535265,0.5101539,5.63728666305542,-4.17253303527832,-51.34080505371094,107.46366882324219,-210.64715576171875, 27.50012969970703
359,2004381682,0.2098318,0.6331029,-0.55740994,0.4944144,-16.84718132019043,12.48718547821045,-2.081831455230713,77.25405883789062,-241.69271850585938, 15.346389770507812
360,2004398349,0.1979924,0.64145976,-0.56315815,0.48185226,-1.9525631666183472,-7.940181255340576,-11.39344310760498,-3.295929193496704,-131.10910034179688, 14.952530860900879
361,2004415016,0.18274413,0.6476786,-0.5629174,0.4798342,15.930275917053223,-5.076786518096924,-2.6505720615386963,69.4093246459961,-82.5258560180664, 22.173097610473633
362,2004431683,0.18106426,0.6503991,-0.5691444,0.46933073,25.40898323059082,-1.776671051979065,3.793853282928467,-49.703182220458984,-64.89579772949219, 9.129461288452148
363,2004448350,0.17905457,0.65251195,-0.57716244,0.45722118,13.53908920288086,-13.383160591125488,-1.2178198099136353,-61.15907287597656,-74.45760345458984, 18.877910614013672
364,2004465017,0.16554604,0.65778935,-0.5743846,0.45824677,7.924704074859619,-6.5283637046813965,2.465513229370117,80.15249633789062,-58.253761291503906, 9.988515853881836
365,2004481684,0.17758784,0.6585739,-0.57508636,0.45168453,6.631344318389893,28.4970760345459,16.98213005065918,-81.61915588378906,18.119796752929688, -45.71965789794922
366,2004498351,0.2224599,0.64791775,-0.5968108,0.41776934,24.78809356689453,-11.359344482421875,-3.912393569946289,-417.7057189941406,33.19091033935547, -39.69192123413086
367,2004515018,0.20414783,0.6554586,-0.5879573,0.42778972,19.181833267211914,-15.774253845214844,-6.078298091888428,159.7891387939453,-36.33760070800781, -1.933109164237976
368,2004531685,0.18359572,0.6631891,-0.57872856,0.43765998,11.7617769241333,3.628218173980713,11.038158416748047,170.42697143554688,-46.374698638916016, 1.6484671831130981
369,2004548352,0.18459642,0.6643619,-0.57959646,0.43429902,6.8570756912231445,5.037569999694824,28.491315841674805,-19.194364547729492,-14.50948715209961, -7.612163066864014
370,2004565019,0.2056696,0.65607816,-0.5855318,0.42943466,-8.11837100982666,1.429044485092163,42.03069305419922,-144.13218688964844,79.56477355957031, -8.474491119384766
371,2004581686,0.22838354,0.6399861,-0.58346385,0.44477966,-11.239157676696777,0.5365725755691528,50.61699295043945,-57.813472747802734,210.86138916015625, 10.495558738708496
372,2004598353,0.2573694,0.6146183,-0.57412374,0.47580186,-9.286761283874512,8.321240425109863,49.39159393310547,-15.098408699035645,343.9026184082031, 21.00556755065918
373,2004615020,0.3012153,0.5769996,-0.56089556,0.5116024,-4.8055739402771,14.703660011291504,38.62318801879883,-68.1905517578125,468.9356689453125, 12.810330390930176
374,2004631687,0.35362014,0.5303968,-0.5429943,0.54661626,1.266252875328064,14.81078052520752,16.61281967163086,-107.49181365966797,539.5076293945312, -2.6773979663848877
375,2004648354,0.40052783,0.48402163,-0.5166301,0.5817163,7.98234748840332,6.009278774261475,-6.7425079345703125,-53.66047668457031,537.8219604492188, -14.423052787780762
376,2004665021,0.4289281,0.45244205,-0.48137516,0.6161129,12.832159042358398,-3.9004368782043457,-25.989763259887695,80.2469253540039,436.5604553222656, -22.900190353393555
377,2004681688,0.4430996,0.43811575,-0.4477726,0.641262,10.70223331451416,-0.3947319984436035,-34.42943572998047,137.7032012939453,283.6744689941406, -41.86715316772461
378,2004698355,0.4617318,0.42520908,-0.44099748,0.64150023,2.3446176052093506,-2.273322105407715,-34.66391372680664,-66.17530059814453,135.3819580078125, -61.09709548950195
379,2004715022,0.4709107,0.4209499,-0.44673705,0.63361704,-4.696658611297607,-11.626055717468262,-24.39399528503418,-91.48600769042969,6.598330020904541, -34.597408294677734
380,2004731689,0.4672194,0.42705876,-0.45855016,0.6237457,-0.1023905873298645,-18.22258949279785,-28.076383590698242,-51.9046630859375,-103.56364440917969, -0.07548418641090393
381,2004748356,0.44811174,0.44793436,-0.460633,0.62158513,10.310437202453613,-2.7353861331939697,5.50472354888916,107.09825134277344,-160.8474578857422, 15.20178508758545
382,2004765023,0.4348621,0.46396062,-0.46215713,0.61809915,10.607673645019531,-0.5920605659484863,9.604047775268555,73.62828826904297,-124.98664093017578, -1.0600090026855469
383,2004781690,0.41434962,0.48948038,-0.45649096,0.61671674,36.92628479003906,1.6930714845657349,-3.296077251434326,162.94174194335938,-160.92770385742188, -17.335552215576172
384,2004798357,0.39255506,0.5170043,-0.45433164,0.61007375,1.7374106645584106,6.782893180847168,20.457698822021484,139.9016876220703,-199.8330535888672, -20.218721389770508
385,2004815024,0.38912755,0.5226359,-0.46654946,0.59813315,-1.8611962795257568,-12.511663436889648,-15.03280258178711,-61.45819854736328,-108.83554077148438, 8.154157638549805
386,2004831691,0.38596186,0.5263225,-0.4723791,0.59234816,-2.3384644985198975,7.068447113037109,-0.4256112575531006,-21.515491485595703,-60.35085678100586, 6.49409818649292
387,2004848358,0.39316386,0.52144134,-0.48290998,0.58336896,6.334647178649902,4.378831386566162,-8.9574556350708,-111.31233978271484,-15.838433265686035, 0.8364519476890564
388,2004865025,0.39161688,0.52759844,-0.47576472,0.58474267,11.91828727722168,13.882270812988281,-3.8990139961242676,55.178260803222656,-4.043833255767822, -35.959434509277344
389,2004881692,0.39542308,0.5343083,-0.47116137,0.57979494,7.3526482582092285,10.69440746307373,-2.047639846801758,6.322327136993408,-18.475650787353516, -66.69081115722656
390,2004898359,0.4000288,0.54069686,-0.4649392,0.57572174,0.12210690975189209,-3.8530850410461426,-0.24798420071601868,11.76816463470459,-6.986957550048828, -72.12272644042969
391,2004915026,0.4048153,0.543269,-0.4579223,0.5755785,-1.7801556587219238,-11.108488082885742,3.4581081867218018,16.29823112487793,25.468952178955078, -52.91676330566406
392,2004931693,0.41112137,0.5406912,-0.45400426,0.576639,-4.140218257904053,-9.000862121582031,-1.211676001548767,-12.182673454284668,46.38567352294922, -28.105363845825195
393,2004948360,0.4204089,0.5330312,-0.45319176,0.5777123,-2.892249822616577,-5.188273906707764,-1.0528558492660522,-49.89002990722656,67.12696838378906, -12.725106239318848
394,2004965027,0.4327603,0.5213935,-0.45422828,0.578398,0.16525167226791382,0.7960814237594604,-0.8616675138473511,-81.1563949584961,85.71647644042969, -6.966460227966309
395,2004981694,0.44490466,0.51190096,-0.45175803,0.5795966,0.49049851298332214,5.232134819030762,-4.066582679748535,-58.4847526550293,88.802490234375, -23.842500686645508
396,2004998361,0.4551822,0.507712,-0.44471377,0.58074725,0.9722539782524109,1.8463504314422607,-2.4544451236724854,-17.633665084838867,75.76294708251953, -48.973236083984375
397,2005015028,0.46275297,0.50857645,-0.43484637,0.58147943,-0.14724405109882355,-0.9000929594039917,-5.174853801727295,17.604785919189453,54.71104049682617, -64.7335205078125
398,2005031695,0.47486565,0.50707674,-0.43222257,0.57494307,0.8349015712738037,0.5898600220680237,-9.835536003112793,-56.50230407714844,29.38148307800293, -73.6452407836914
399,2005048362,0.4828517,0.50670975,-0.43457255,0.5667859,-1.25210440158844,-5.151390552520752,-10.80959415435791,-62.917518615722656,-9.027629852294922, -48.62437438964844
400,2005065029,0.48274422,0.50980735,-0.43669212,0.56245416,-3.076021909713745,-4.591294765472412,-5.66581916809082,-10.884439468383789,-32.38010787963867, -15.66242504119873
401,2005081696,0.4791071,0.5144695,-0.43615386,0.561736,-3.7913079261779785,1.159911036491394,1.5848661661148071,27.81983757019043,-27.460189819335938, -4.148447513580322
402,2005098363,0.48082587,0.51452374,-0.43731406,0.55931056,-2.4621384143829346,4.770477294921875,8.013428688049316,-17.987354278564453,-5.365523338317871, -10.590509414672852
403,2005115030,0.48644078,0.511913,-0.43774706,0.55650526,-2.1923182010650635,2.5144426822662354,10.56669807434082,-38.938934326171875,17.36362075805664, -21.24612045288086
404,2005131697,0.49108988,0.5104432,-0.43275353,0.55767643,-1.502104640007019,-0.6265349984169006,11.857684135437012,1.0070295333862305,41.892372131347656, -26.709360122680664
405,2005148364,0.49471694,0.5088462,-0.42616093,0.5609972,-0.7569664716720581,-1.8420161008834839,3.8803915977478027,16.710430145263672,51.9288215637207, -20.775104522705078
406,2005165031,0.49611145,0.5087865,-0.42117378,0.56358033,3.105424642562866,-2.8369803428649902,-0.7628659605979919,21.41050148010254,31.301361083984375, -13.60344409942627
407,2005181698,0.4960305,0.5087,-0.42005396,0.5645643,1.471266508102417,-1.8064849376678467,2.4651150703430176,6.877914905548096,8.37568187713623, 0.19157662987709045
408,2005198365,0.4959481,0.507556,-0.42180824,0.5643584,-0.6728527545928955,1.2646287679672241,3.0826470851898193,-11.302725791931152,-1.5520154237747192, 9.20745849609375
409,2005215032,0.49720463,0.5059013,-0.4255265,0.561942,1.518976092338562,2.2875664234161377,2.2940738201141357,-31.750431060791016,-10.187798500061035, 4.848508834838867
410,2005231699,0.49621376,0.50711304,-0.4288481,0.55919373,2.0201189517974854,0.9427068829536438,1.8696528673171997,-13.582179069519043,-27.693387985229492, 2.691577196121216
411,2005248366,0.4919437,0.5122387,-0.43014106,0.5572987,0.40972307324409485,0.14173230528831482,1.5566548109054565,21.516359329223633,-42.55487060546875, -0.37923750281333923
412,2005265033,0.4862576,0.5187779,-0.43132302,0.55532306,-0.3164111375808716,-2.11073899269104,0.45266079902648926,31.47344398498535,-52.10260009765625, 0.20760005712509155
413,2005281700,0.47947574,0.525582,-0.43288413,0.5536049,-0.02565710060298443,-2.6266040802001953,-0.10624971985816956,35.592288970947266,-56.71658706665039, 5.768270492553711
414,2005298367,0.47463074,0.5288349,-0.4390128,0.5498431,-0.20244014263153076,-1.2732223272323608,0.9693363904953003,-6.575383186340332,-59.86308288574219, 18.671451568603516
415,2005315034,0.4705957,0.5303449,-0.44663876,0.5456996,-2.2109103202819824,-0.6362209320068359,3.446349620819092,-22.018524169921875,-57.12175369262695, 25.04138946533203
416,2005331701,0.46655378,0.53085417,-0.45165473,0.54454523,-6.524050712585449,0.24461150169372559,2.626007556915283,-6.257918357849121,-34.13216018676758, 28.28619384765625
417,2005348368,0.46500826,0.52857786,-0.45629,0.5442173,-7.098052978515625,0.5286704301834106,-10.591864585876465,-20.315208435058594,-11.780592918395996, 28.865428924560547
418,2005365035,0.46070483,0.5294275,-0.45939055,0.54444283,2.6346781253814697,-0.8220534920692444,-10.804191589355469,7.168047904968262,-24.911603927612305, 25.581090927124023
419,2005381702,0.45099407,0.53291875,-0.45770845,0.5505498,-0.5063769817352295,3.1137046813964844,1.625372290611267,71.69468688964844,-15.02159595489502, 38.67356491088867
420,2005398369,0.4432105,0.5351752,-0.4540768,0.5576436,5.98905086517334,1.9868630170822144,0.7147586345672607,71.28482818603516,5.31636905670166, 31.26247215270996
421,2005415036,0.43211344,0.54044694,-0.44654116,0.56727093,6.674102783203125,3.0861876010894775,1.674492597579956,115.54322052001953,4.59986686706543, 27.96247673034668
422,2005431703,0.4229963,0.5448292,-0.4397147,0.57522726,7.055778980255127,0.49601179361343384,2.2367541790008545,97.6378173828125,5.778038024902344, 20.723665237426758
423,2005448370,0.4184617,0.54654497,-0.4353198,0.5802372,5.768802165985107,0.3141465485095978,3.2125766277313232,54.18843460083008,12.00635051727295, 11.217611312866211
424,2005465037,0.42053849,0.5445483,-0.4355319,0.58045375,5.967616081237793,-2.32119083404541,5.0272088050842285,-14.064671516418457,15.249126434326172, -0.5122803449630737
425,2005481704,0.4278516,0.5381754,-0.43990016,0.5777527,6.863511085510254,-5.317436695098877,6.037703037261963,-71.64189147949219,25.322769165039062, -1.2356200218200684
426,2005498371,0.43764135,0.530223,-0.4459162,0.57314265,6.394704818725586,-6.036386966705322,7.4517951011657715,-97.75873565673828,27.033710479736328, -5.946435451507568
427,2005515038,0.44679406,0.52315545,-0.45059156,0.5689032,4.799567699432373,-8.343124389648438,8.17252254486084,-86.33573913574219,26.80908966064453, -10.069068908691406
428,2005531705,0.45478567,0.5138909,-0.45690164,0.56597465,-2.539602041244507,-8.523872375488281,2.5914270877838135,-91.2152099609375,31.32392120361328, 10.982494354248047
429,2005548372,0.46253136,0.5040835,-0.47052586,0.55728817,-3.508474826812744,-8.432076454162598,0.04694947600364685,-138.5738525390625,-10.5634765625, 21.268648147583008
430,2005565039,0.46918866,0.49294212,-0.48523378,0.549016,-5.647383213043213,-5.211820602416992,8.519713401794434,-141.83673095703125,-10.915702819824219, 34.621185302734375
431,2005581706,0.47703248,0.47775263,-0.49757048,0.5446248,-8.656618118286133,-2.1028902530670166,13.428476333618164,-137.0191650390625,28.959062576293945, 48.010013580322266
432,2005598373,0.48183116,0.45807347,-0.50464433,0.5507646,-10.448448181152344,-2.0019211769104004,15.559920310974121,-86.02606964111328,86.90084075927734, 91.98077392578125
433,2005615040,0.48477867,0.43680537,-0.5030615,0.5666745,-9.482311248779297,-0.18118184804916382,15.03696346282959,-18.809703826904297,145.57752990722656, 109.57339477539062
434,2005631707,0.4883454,0.41434482,-0.49455455,0.58758247,-7.841846466064453,2.3176538944244385,12.166844367980957,16.727792739868164,191.09481811523438, 109.15438079833984
435,2005648374,0.49158162,0.3934656,-0.4781125,0.6123241,-5.002370357513428,5.353165149688721,10.11000919342041,66.82982635498047,221.4058380126953, 95.96617126464844
436,2005665041,0.49855626,0.3696345,-0.46125153,0.6340814,0.1166570633649826,5.644420146942139,4.471559047698975,38.65810012817383,239.3364715576172, 78.48724365234375
437,2005681708,0.506114,0.34712338,-0.44205827,0.6541702,4.801922798156738,4.8295159339904785,-0.9913142919540405,47.59749984741211,238.78428649902344, 59.464385986328125
438,2005698375,0.51480603,0.32468346,-0.42320544,0.6711578,7.763250350952148,5.184422969818115,-3.3173887729644775,36.9813232421875,232.30514526367188, 43.10710525512695
439,2005715042,0.5249315,0.30145735,-0.40636438,0.6844257,9.993644714355469,4.64127779006958,-6.215461254119873,10.852289199829102,224.93658447265625, 30.262792587280273
440,2005731709,0.53481203,0.27883115,-0.3928066,0.6942136,12.157849311828613,1.9834986925125122,-9.602383613586426,-11.668535232543945,202.71339416503906, 24.118288040161133
441,2005748376,0.54125124,0.2616668,-0.38180956,0.7019966,12.937386512756348,-1.3480916023254395,-14.540971755981445,-2.5835063457489014,154.5312957763672, 23.41776466369629
442,2005765043,0.5431632,0.25363743,-0.3704715,0.7095016,11.2885160446167,-0.5631904006004333,-15.701910972595215,40.60063171386719,99.88179779052734, 19.678972244262695
443,2005781710,0.54052794,0.25504908,-0.3616153,0.71555156,10.050886154174805,-0.13961757719516754,-20.315990447998047,68.0947265625,30.976133346557617, 16.75185203552246
444,2005798377,0.5339614,0.26439655,-0.35831627,0.7187414,8.810615539550781,2.471270799636841,-22.7304630279541,70.17271423339844,-42.91383361816406, 15.504903793334961
445,2005815044,0.52501136,0.27787223,-0.3641858,0.7172997,8.469438552856445,1.360520601272583,-23.229400634765625,33.053043365478516,-110.66998291015625, 16.82970428466797
446,2005831711,0.51265824,0.29779896,-0.3733193,0.71353346,11.020746231079102,-1.3469363451004028,-22.350767135620117,41.055057525634766,-166.65585327148438, 15.321051597595215
447,2005848378,0.4962695,0.3233401,-0.382476,0.7091403,8.889006614685059,-0.9068863987922668,-20.341659545898438,67.55386352539062,-205.34825134277344, 18.492586135864258
448,2005865045,0.47863808,0.34866208,-0.3948025,0.7024753,5.682552814483643,-0.012357957661151886,-17.05027198791504,48.272377014160156,-222.92608642578125, 24.342668533325195
449,2005881712,0.46136045,0.37151036,-0.4101156,0.6934925,3.7771058082580566,0.4087434709072113,-14.306591033935547,18.657745361328125,-225.04397583007812, 28.81608772277832
450,2005898379,0.4437778,0.39327642,-0.42744043,0.68241465,3.9111340045928955,-0.6342504620552063,-11.871414184570312,-1.7797067165374756,-230.86370849609375, 32.499267578125
451,2005915046,0.42554632,0.41440743,-0.44520208,0.67005366,3.6349239349365234,0.7903215289115906,-7.830409526824951,-8.200913429260254,-234.05873107910156, 34.986148834228516
452,2005931713,0.4078319,0.43417498,-0.46260825,0.6566271,1.469936728477478,2.5879745483398438,-4.537495136260986,-15.386007308959961,-227.96337890625, 32.92570877075195
453,2005948380,0.39102602,0.45257464,-0.4787302,0.6427227,-0.25009649991989136,3.5158917903900146,-2.073622941970825,-17.887874603271484,-216.5253143310547, 28.409873962402344
454,2005965047,0.3750408,0.46976498,-0.492852,0.6290965,-0.581228494644165,5.105712890625,-0.5968716144561768,-13.789074897766113,-202.37310791015625, 23.50165557861328
455,2005981714,0.36103877,0.48524052,-0.50630915,0.6146899,-0.0586823932826519,4.968535423278809,1.5464304685592651,-23.61976432800293,-189.69808959960938, 16.342836380004883
456,2005998381,0.34747955,0.50006336,-0.5181968,0.6005555,-0.23938384652137756,3.8284711837768555,-2.9724323749542236,-18.386869430541992,-181.3482666015625, 11.821223258972168
457,2006015048,0.32784247,0.5176343,-0.5320906,0.5843404,3.450646162033081,-6.9828667640686035,-16.66193389892578,-5.475625038146973,-227.2802734375, 28.17095184326172
458,2006031715,0.29839337,0.54025084,-0.5362752,0.5757598,13.222825050354004,3.1673192977905273,8.798641204833984,108.0935287475586,-234.29769897460938, 31.304182052612305
459,2006048382,0.27515137,0.5558936,-0.5465655,0.5626192,2.970425844192505,1.4590656757354736,6.761385917663574,29.65048599243164,-213.70692443847656, 45.856239318847656
460,2006065049,0.25201142,0.5706621,-0.55680674,0.5484537,10.003131866455078,-4.104840278625488,2.0459742546081543,23.8906307220459,-214.10731506347656, 46.625755310058594
461,2006081716,0.23593,0.5803784,-0.5702882,0.5312904,4.72318172454834,-0.8420138955116272,3.3015103340148926,-36.311195373535156,-185.6482391357422, 46.82426834106445
462,2006098383,0.22529292,0.5865818,-0.5846375,0.51319,7.908902168273926,-1.440929889678955,3.3119726181030273,-70.62675476074219,-156.8458251953125, 42.68402862548828
463,2006115050,0.22375312,0.5903416,-0.59868324,0.49296042,8.645857810974121,0.468825101852417,4.727701187133789,-118.6495361328125,-120.02757263183594, 15.953032493591309
464,2006131717,0.22537905,0.5949982,-0.6118641,0.46989784,10.90287971496582,-1.0089951753616333,6.624781608581543,-138.91305541992188,-120.50554656982422, -6.20923376083374
465,2006148384,0.21995372,0.6015898,-0.6184577,0.45521456,13.326141357421875,-3.2556216716766357,13.823494911193848,-50.60684585571289,-112.2896728515625, -5.446691513061523
466,2006165051,0.21406421,0.6085131,-0.6227819,0.4427542,10.988121032714844,-0.36946773529052734,15.660565376281738,-31.77897834777832,-103.22274017333984, -11.396371841430664
467,2006181718,0.20902018,0.61454344,-0.62692934,0.43082094,5.754515171051025,0.7044928073883057,16.074607849121094,-33.95392608642578,-94.95761108398438, -10.041297912597656
468,2006198385,0.20836927,0.6213098,-0.63605577,0.40741837,4.482894420623779,-2.655457019805908,16.030771255493164,-115.74777221679688,-134.28302001953125, -21.635417938232422
469,2006215052,0.20644283,0.62945884,-0.6438244,0.38295344,6.753533363342285,-1.86116361618042,14.590164184570312,-109.27899932861328,-146.74044799804688, -31.49196434020996
470,2006231719,0.21208927,0.63623977,-0.6517711,0.35413513,10.532504081726074,0.9062292575836182,22.013866424560547,-163.82647705078125,-129.1129608154297, -50.834739685058594
471,2006248386,0.2190359,0.6420559,-0.6601033,0.3225695,8.937154769897461,-1.6731112003326416,18.832963943481445,-184.2274627685547,-134.13153076171875, -52.01552200317383
472,2006265053,0.21686815,0.6488898,-0.66375977,0.30221435,10.952374458312988,-8.409717559814453,15.509230613708496,-81.23275756835938,-121.68950653076172, -40.254249572753906
473,2006281720,0.20770428,0.65667754,-0.66350186,0.29223135,8.449065208435059,-5.066221237182617,17.82950210571289,6.7372355461120605,-103.90616607666016, -32.21138000488281
474,2006298387,0.19889659,0.66295326,-0.66219753,0.28710204,7.498429298400879,-4.372867107391357,16.966835021972656,27.12769889831543,-76.23202514648438, -23.863542556762695
475,2006315054,0.18989623,0.6682975,-0.6581709,0.29004997,8.039460182189941,-2.573969841003418,15.241044998168945,68.80853271484375,-35.07567596435547, -20.60616111755371
476,2006331721,0.1833628,0.6723225,-0.65134627,0.30018073,8.259397506713867,0.6192530989646912,12.43055248260498,93.80150604248047,15.064906120300293, -22.96453094482422
477,2006348388,0.18402052,0.67336446,-0.64375645,0.31351987,7.404253005981445,0.8148183822631836,11.344890594482422,72.774658203125,68.96814727783203, -23.811683654785156
478,2006365055,0.19177176,0.6714082,-0.6347397,0.33096862,5.477673053741455,0.02559720352292061,9.0037260055542,57.43532943725586,127.45634460449219, -27.13789176940918
479,2006381722,0.20702398,0.665383,-0.6240677,0.35347733,5.562953948974609,-1.3856350183486938,5.7865705490112305,43.30813217163086,194.8875274658203, -27.36808967590332
480,2006398389,0.22952339,0.65396726,-0.61246717,0.38017097,5.674055576324463,-2.259392738342285,4.290804862976074,22.684139251708984,259.52935791015625, -20.150915145874023
481,2006415056,0.2592761,0.6359458,-0.60149145,0.4081141,4.9766011238098145,-3.019993543624878,2.11039137840271,-16.765649795532227,311.9986877441406, -6.580349445343018
482,2006431723,0.2951483,0.6102896,-0.5922494,0.43551663,3.7554235458374023,-2.688072681427002,-0.2973536550998688,-64.29566955566406,353.3822021484375, 14.291205406188965
483,2006448390,0.3329603,0.57644254,-0.58519197,0.4630357,3.3000566959381104,-3.818852663040161,-4.388786792755127,-95.18452453613281,382.0605773925781, 51.05501937866211
484,2006465057,0.36314985,0.5411283,-0.5736859,0.49617234,2.395982265472412,-1.2849067449569702,-7.9355902671813965,-31.564456939697266,388.78863525390625, 76.25743865966797
485,2006481724,0.38429847,0.50889724,-0.5552021,0.53393716,1.2543772459030151,1.781764030456543,-12.121532440185547,51.88602828979492,377.6114196777344, 80.47045135498047
486,2006498391,0.40017664,0.48069793,-0.52931327,0.5732501,0.9585461616516113,3.783667802810669,-15.6342191696167,114.16236114501953,368.1542663574219, 62.67531967163086
487,2006515058,0.41285318,0.45796636,-0.49818352,0.6096167,1.1706175804138184,3.535186529159546,-20.903732299804688,147.0532989501953,342.0224914550781, 32.97639465332031
488,2006531725,0.42410776,0.43855855,-0.46864414,0.63888335,1.5598595142364502,-0.02219313383102417,-26.444921493530273,129.58364868164062,297.2691955566406, 12.36905288696289
489,2006548392,0.43305194,0.42268008,-0.44534153,0.659908,1.882789134979248,-1.5963951349258423,-30.287261962890625,92.72998809814453,232.18679809570312, 5.645726680755615
490,2006565059,0.44121784,0.40962335,-0.43164492,0.6717278,1.1103770732879639,1.4538319110870361,-29.314651489257812,31.803293228149414,162.44036865234375, 0.6447916030883789
491,2006581726,0.45043728,0.396506,-0.4340703,0.67191714,-1.3933956623077393,0.39467674493789673,-29.2572021484375,-79.3863296508789,84.40829467773438, 5.497526168823242
492,2006598393,0.45426133,0.38993442,-0.44599304,0.66534835,-2.4511618614196777,-3.3418638706207275,-29.687318801879883,-108.33067321777344,-9.063873291015625, 15.885300636291504
493,2006615060,0.44711244,0.39726368,-0.45570862,0.6592434,-1.5026004314422607,-3.073270559310913,-26.15142250061035,-24.099082946777344,-97.26439666748047, 19.179834365844727
494,2006631727,0.43087655,0.4160918,-0.46405584,0.6525835,0.09473687410354614,-2.3698220252990723,-22.559432983398438,40.20389938354492,-174.2015838623047, 19.246658325195312
495,2006648394,0.4083133,0.44167104,-0.47249708,0.644169,1.703822374343872,0.2639656960964203,-17.6093692779541,72.87430572509766,-229.68588256835938, 20.941566467285156
496,2006665061,0.38551077,0.46670422,-0.48662248,0.6298947,2.3311240673065186,1.1814281940460205,-11.875105857849121,28.74439811706543,-261.929931640625, 24.115873336791992
497,2006681728,0.3599636,0.49045002,-0.5035589,0.6134442,3.83817195892334,-7.565978527069092,-30.94121742248535,15.471160888671875,-280.2923583984375, 43.093528747558594
498,2006698395,0.3304567,0.5142219,-0.5195332,0.59704244,16.978254318237305,0.1788407564163208,3.5970094203948975,35.34670639038086,-292.68743896484375, 54.19153594970703
499,2006715062,0.2975651,0.53902215,-0.5304638,0.5826822,3.466111183166504,2.057546854019165,-4.249177932739258,76.99394226074219,-290.1047058105469, 51.90095901489258
500,2006731729,0.2682692,0.5618018,-0.54092413,0.5655187,7.840932369232178,5.7078351974487305,-2.3638062477111816,51.14413070678711,-278.4014587402344, 37.33842468261719
501,2006748396,0.2524345,0.573053,-0.55395705,0.5486519,7.7828369140625,3.938209295272827,-2.0060842037200928,-31.062000274658203,-187.21511840820312, 38.51516342163086
502,2006765063,0.2426607,0.5797546,-0.5675405,0.53188175,11.38741397857666,1.9123573303222656,-1.9659712314605713,-64.55546569824219,-147.692626953125, 35.509544372558594
503,2006781730,0.23486997,0.5850601,-0.57736874,0.51883155,15.004781723022461,0.044936373829841614,-1.4717352390289307,-46.545074462890625,-113.9406967163086, 25.126256942749023
504,2006798397,0.23038682,0.5884536,-0.5858459,0.50737464,15.972460746765137,0.15399006009101868,1.1556270122528076,-51.8170280456543,-85.63920593261719, 18.222698211669922
505,2006815064,0.2316808,0.5902148,-0.5936276,0.49555722,17.324649810791016,2.5080742835998535,4.365440845489502,-76.84870147705078,-57.350135803222656, 1.4501034021377563
506,2006831731,0.24068452,0.5915592,-0.5983372,0.48386106,15.586106300354004,3.232973337173462,10.382801055908203,-97.9033203125,-19.48920249938965, -35.126678466796875
507,2006848398,0.26080784,0.58739305,-0.60351735,0.47192785,10.284168243408203,1.3178341388702393,17.562856674194336,-154.90621948242188,42.310489654541016, -47.65976333618164
508,2006865065,0.28123033,0.5830885,-0.61896044,0.44475335,-3.0381081104278564,-2.4052722454071045,-3.8654708862304688,-253.09347534179688,-36.622257232666016, -33.768333435058594
509,2006881732,0.28350857,0.58854324,-0.62463784,0.4278638,3.671130657196045,-11.061774253845215,9.018106460571289,-87.8216781616211,-83.4874038696289, -39.122798919677734
510,2006898399,0.2752028,0.6004439,-0.6235105,0.41828844,-3.1341631412506104,-5.295445919036865,9.319586753845215,18.838287353515625,-105.35147857666016, -49.18781280517578
511,2006915066,0.25999755,0.6160122,-0.6228215,0.4062311,0.4178459346294403,-3.984043598175049,3.3517518043518066,42.25678253173828,-156.77255249023438, -48.11304473876953
512,2006931733,0.24250174,0.6322351,-0.62564653,0.3873474,5.561050891876221,-3.7789618968963623,7.292665958404541,14.01190185546875,-203.7254638671875, -41.941532135009766
513,2006948400,0.22420111,0.64838547,-0.62982094,0.36421955,4.624939918518066,-1.7860881090164185,14.866135597229004,-4.543450832366943,-227.98196411132812, -40.753761291503906
514,2006965067,0.20922875,0.6628106,-0.6365266,0.33427474,6.041783332824707,-6.149713039398193,17.041793823242188,-57.98393630981445,-243.9739532470703, -40.85499954223633
515,2006981734,0.1864991,0.6778499,-0.63907355,0.31196597,6.793238639831543,-5.2987446784973145,19.72467613220215,21.106136322021484,-239.00889587402344, -33.76035690307617
516,2006998401,0.166107,0.69032854,-0.6414607,0.29048792,8.005274772644043,-1.812174916267395,22.082250595092773,10.792350769042969,-219.65528869628906, -27.241348266601562
517,2007015068,0.1527926,0.6990891,-0.64453393,0.26926753,9.674187660217285,-2.4616639614105225,22.88559913635254,-27.352277755737305,-181.0877685546875, -21.40561294555664
518,2007031735,0.14559314,0.7049778,-0.64744586,0.25024554,9.26795768737793,-3.1173694133758545,20.52650260925293,-49.7921257019043,-138.46194458007812, -18.470172882080078
519,2007048402,0.14277844,0.7079637,-0.6507221,0.23444128,9.704939842224121,-4.745809555053711,17.356822967529297,-60.32612228393555,-99.15847778320312, -8.144613265991211
520,2007065069,0.14176707,0.7092204,-0.6527286,0.22550818,8.945161819458008,-3.7815513610839844,14.748387336730957,-38.10377883911133,-53.98348617553711, -2.8205008506774902
521,2007081736,0.14389239,0.70824426,-0.65419596,0.22296342,8.057766914367676,-2.2545735836029053,12.695049285888672,-26.136056900024414,-5.06687068939209, 5.882618427276611
522,2007098403,0.15347528,0.7034034,-0.65662783,0.22474205,6.386600494384766,-2.2119197845458984,10.83076286315918,-48.34534454345703,54.26655960083008, 20.758955001831055
523,2007115070,0.16949141,0.6943037,-0.6597096,0.23237537,5.532810688018799,-3.7500669956207275,7.953880786895752,-58.57118225097656,117.37377166748047, 39.28529357910156
524,2007131737,0.186162,0.6817574,-0.6611154,0.2519464,4.6395721435546875,-4.241587162017822,6.974165916442871,-8.960476875305176,184.72283935546875, 59.68665313720703
525,2007148404,0.20505267,0.66495705,-0.66110295,0.28058574,3.1016604900360107,-4.535874843597412,5.014938831329346,18.7828369140625,246.4928741455078, 80.05892181396484
526,2007165071,0.2226996,0.6448402,-0.65753174,0.3197473,1.7393673658370972,-4.456951141357422,2.7539305686950684,74.42119598388672,300.43072509765625, 96.04341125488281
527,2007181738,0.24046506,0.62186646,-0.64954746,0.36544076,0.7826638221740723,-0.72441166639328,0.9014769792556763,108.7087631225586,343.09747314453125, 99.0976333618164
528,2007198405,0.26068422,0.5951309,-0.6384687,0.41257825,0.28514742851257324,2.8918607234954834,-1.7217379808425903,106.22962951660156,374.9653015136719, 98.91547393798828
529,2007215072,0.28334615,0.566603,-0.62324506,0.45852116,-0.24600863456726074,7.093693256378174,-3.698983669281006,99.596923828125,393.51873779296875, 80.82227325439453
530,2007231739,0.3094739,0.5377261,-0.6044725,0.49968964,-0.23654264211654663,8.412086486816406,-6.095917224884033,76.24027252197266,398.0072021484375, 48.39379119873047
531,2007248406,0.3386152,0.50917214,-0.58191156,0.5361552,1.0388119220733643,8.50614070892334,-8.826725959777832,59.3709831237793,400.3702697753906, 12.829818725585938
532,2007265073,0.36917686,0.48002225,-0.5597984,0.56560844,2.408845901489258,4.527627944946289,-14.28758430480957,23.402076721191406,382.9551696777344, -4.630144119262695
533,2007281740,0.39459598,0.45371446,-0.5371128,0.59156346,3.6701107025146484,-2.192200183868408,-22.357702255249023,36.478641510009766,342.4307556152344, -6.264758110046387
534,2007298407,0.4095083,0.43453783,-0.5101075,0.6190882,5.7815937995910645,-4.723974704742432,-26.933385848999023,112.17362213134766,291.8834228515625, 0.8733291029930115
535,2007315074,0.417258,0.42240852,-0.48712683,0.6404487,7.80109167098999,-0.6562055349349976,-30.84964370727539,110.78575134277344,210.71023559570312, 5.495656490325928
536,2007331741,0.42109033,0.4155042,-0.47610283,0.65066534,5.107268810272217,-2.2137794494628906,-33.57277297973633,47.55136489868164,108.61602783203125, 7.390547275543213
537,2007348408,0.423075,0.41076052,-0.48243096,0.64772207,-1.913793921470642,-2.891953706741333,-33.182926177978516,-61.159549713134766,5.811420917510986, 19.695602416992188
538,2007365075,0.419519,0.41298535,-0.49738288,0.6372264,-1.5332152843475342,-1.0467113256454468,-31.646825790405273,-88.18395233154297,-89.36856079101562, 23.4637508392334
539,2007381742,0.40931857,0.42493156,-0.5139068,0.62272906,1.7538700103759766,1.4213370084762573,-25.89512825012207,-61.844276428222656,-169.61013793945312, 12.75102424621582
540,2007398409,0.3935576,0.44272983,-0.5317764,0.60524094,1.9361019134521484,1.1586074829101562,-21.127197265625,-45.52325439453125,-225.95631408691406, 12.169309616088867
541,2007415076,0.3681411,0.46817097,-0.54721063,0.58808917,6.567702293395996,4.478764057159424,-31.87114143371582,19.84577751159668,-287.9736328125, 13.335750579833984
542,2007431743,0.3498454,0.49113938,-0.56871176,0.55942595,19.440996170043945,12.807243347167969,4.288512229919434,-77.05583190917969,-302.8880615234375, -15.720674514770508
543,2007448410,0.32402304,0.5171968,-0.58296025,0.5363525,8.816139221191406,7.407135963439941,2.657726287841797,5.456661701202393,-308.23199462890625, -9.502577781677246
544,2007465077,0.28813156,0.54757696,-0.5830445,0.52649695,6.212715148925781,2.1190602779388428,-9.363336563110352,156.10198974609375,-286.2610168457031, -10.57404613494873
545,2007481744,0.2593785,0.5710824,-0.58060426,0.5191207,3.516791343688965,5.077368259429932,-1.0227066278457642,134.66864013671875,-218.31719970703125, -13.619298934936523
546,2007498411,0.24239069,0.5844216,-0.5852575,0.5071212,10.50755500793457,-2.3090829849243164,0.2660542130470276,26.51474952697754,-166.00550842285156, 4.575222969055176
547,2007515078,0.2330116,0.5910748,-0.58581424,0.50314814,12.369810104370117,-2.9199440479278564,0.07715674489736557,31.310134887695312,-73.25287628173828, 1.8419084548950195
548,2007531745,0.2277205,0.59608227,-0.58625996,0.49912784,11.145000457763672,-2.5627400875091553,3.780632495880127,12.179925918579102,-51.38819122314453, -6.188409805297852
549,2007548412,0.22560497,0.600157,-0.5917444,0.48862332,10.546669960021973,-0.24843285977840424,2.7207207679748535,-45.81816482543945,-70.20320892333984, -2.78027606010437
550,2007565079,0.23259233,0.6022062,-0.6008838,0.47136748,12.694148063659668,1.6481331586837769,9.521857261657715,-126.34542846679688,-60.203895568847656, -20.369321823120117
551,2007581746,0.24598363,0.60247713,-0.6124369,0.44881463,12.253725051879883,-0.0903206467628479,11.3008394241333,-185.52407836914062,-54.28493118286133, -32.027366638183594
552,2007598413,0.26143178,0.60051864,-0.62648237,0.4225524,10.245877265930176,-7.781880855560303,9.200993537902832,-221.24615478515625,-58.871742248535156, -24.76504135131836
553,2007615080,0.25039774,0.61194557,-0.62819433,0.41011655,5.115935325622559,-12.405366897583008,11.8346529006958,7.439014434814453,-132.9989776611328, -31.637548446655273
554,2007631747,0.23030147,0.6289761,-0.6282735,0.395756,2.0208795070648193,-3.81435227394104,13.524053573608398,51.320655822753906,-193.63580322265625, -40.727256774902344
555,2007648414,0.20394206,0.6484361,-0.6307969,0.37421077,8.817728042602539,-5.201045989990234,3.6207611560821533,44.46390151977539,-262.64385986328125, -35.06575393676758
556,2007665081,0.1658397,0.66877186,-0.6302737,0.3577659,18.809762954711914,-3.9301843643188477,19.48601531982422,127.9566421508789,-289.0935974121094, -15.138263702392578
557,2007681748,0.13744596,0.6846393,-0.63461137,0.33112887,14.746158599853516,1.0493731498718262,24.42525291442871,21.934995651245117,-289.1728210449219, -8.856325149536133
558,2007698415,0.11468918,0.69723773,-0.6382666,0.30548644,14.004039764404297,-0.9596545100212097,27.080705642700195,-1.8650113344192505,-252.51048278808594, -9.566690444946289
559,2007715082,0.099783115,0.7050118,-0.642796,0.2825161,12.24118423461914,1.0943467617034912,30.75953483581543,-33.517425537109375,-196.48875427246094, 1.4876723289489746
560,2007731749,0.093211904,0.7090748,-0.6474697,0.26326367,12.6148042678833,-1.0403242111206055,27.70453643798828,-60.394508361816406,-135.188232421875, 5.006727695465088
561,2007748416,0.090317145,0.71170545,-0.6493249,0.25237957,11.635231971740723,0.37631046772003174,24.77549934387207,-36.977325439453125,-74.21564483642578, -3.642778158187866
562,2007765083,0.09370409,0.7119197,-0.6504486,0.24760133,8.476201057434082,0.634703516960144,21.43031883239746,-40.74119186401367,-12.14769458770752, -3.5320141315460205
563,2007781750,0.10359575,0.7085371,-0.6513362,0.25100672,5.54953670501709,0.11398035287857056,17.916757583618164,-37.94319152832031,62.916683197021484, 5.578188419342041
564,2007798417,0.11856733,0.7012345,-0.6505473,0.26645872,4.238650321960449,0.8372132778167725,14.774520874023438,-8.700033187866211,152.09222412109375, 14.743508338928223
565,2007815084,0.14207298,0.68914765,-0.64860016,0.29018763,3.814065933227539,1.534690022468567,11.446067810058594,-14.654683113098145,239.75955200195312, 21.640642166137695
566,2007831751,0.17178772,0.6716435,-0.64444566,0.3226049,3.6581037044525146,-0.027744226157665253,7.63832950592041,-6.260435104370117,321.5445251464844, 31.408525466918945
567,2007848418,0.20391513,0.6501882,-0.6342854,0.36517945,0.813789963722229,1.5291062593460083,4.86333703994751,36.218849182128906,395.053955078125, 27.786272048950195
568,2007865085,0.24487951,0.62114745,-0.62259996,0.4081415,0.48075443506240845,1.3435156345367432,0.6812067031860352,-8.460992813110352,456.68023681640625, 32.364402770996094
569,2007881752,0.28365442,0.5870489,-0.60550666,0.4563721,1.4171735048294067,1.6554471254348755,-6.264558792114258,30.107563018798828,493.3394470214844, 45.88282012939453
570,2007898419,0.31874242,0.5510386,-0.58126473,0.50684416,2.143038034439087,3.3244457244873047,-12.369697570800781,73.06820678710938,507.3157958984375, 40.91172790527344
571,2007915086,0.34871858,0.5160391,-0.5475079,0.55886865,4.885413646697998,5.078471660614014,-17.1086483001709,134.12574768066406,510.58111572265625, 22.100448608398438
572,2007931753,0.37890533,0.4781666,-0.5152309,0.6019341,10.048858642578125,3.61657452583313,-24.363811492919922,87.09022521972656,487.5718688964844, 15.992141723632812
573,2007948420,0.40506023,0.44298306,-0.48674095,0.63464606,15.774266242980957,-2.013453722000122,-34.54049301147461,50.61073684692383,422.5288391113281, 14.256976127624512
574,2007965087,0.4209078,0.4166053,-0.4627611,0.6596431,17.640602111816406,-4.845982074737549,-44.51247787475586,61.33251953125,314.07525634765625, 20.72247886657715
575,2007981754,0.4279123,0.40345743,-0.44549447,0.67501706,12.013980865478516,-2.2556138038635254,-39.80495834350586,64.2903823852539,180.01124572753906, 9.283476829528809
576,2007998421,0.4356421,0.3956297,-0.44701,0.6737027,0.028929203748703003,0.288664311170578,-38.1553955078125,-59.403045654296875,56.538368225097656, -8.225933074951172
577,2008015088,0.4401564,0.39508086,-0.46188885,0.66093296,-0.32698678970336914,-2.775378942489624,-35.126304626464844,-125.92182159423828,-57.255306243896484, -13.466691970825195
578,2008031755,0.43666524,0.4049385,-0.48291576,0.6419819,3.003553628921509,-3.230626106262207,-29.545669555664062,-120.58139038085938,-164.2274932861328, -11.412542343139648
579,2008048422,0.42145124,0.4270184,-0.500594,0.62405115,3.6517913341522217,-2.9952385425567627,-22.91841697692871,-33.3560905456543,-243.1503448486328, -5.578427314758301
580,2008065089,0.3972252,0.45674056,-0.5144524,0.60740364,4.383996486663818,0.1780167818069458,-13.858707427978516,37.27033996582031,-292.1863708496094, -1.344680905342102
581,2008081756,0.37185186,0.48283538,-0.5308284,0.5889122,4.102686882019043,0.8057525157928467,-12.574642181396484,17.583681106567383,-296.26116943359375, 14.7850341796875
582,2008098423,0.34537765,0.50623095,-0.54052454,0.5764356,3.269327163696289,0.9411916136741638,1.1588032245635986,63.37837600708008,-252.10711669921875, 22.191600799560547
583,2008115090,0.31741893,0.5282258,-0.5601255,0.5536085,5.94789981842041,-5.717273235321045,-4.818068981170654,-12.569605827331543,-311.89569091796875, 43.12933349609375
584,2008131757,0.28621873,0.54978275,-0.56457204,0.545047,5.782594680786133,-0.6646239161491394,-3.437798261642456,110.88333892822266,-237.8525390625, 33.02793884277344
585,2008148424,0.26569384,0.5641309,-0.57254195,0.53231484,5.736839294433594,2.01908016204834,0.7827467918395996,26.894975662231445,-192.1937713623047, 26.01613426208496
586,2008165091,0.25762683,0.5702726,-0.58394915,0.51712775,10.991178512573242,-1.4713956117630005,-0.5243523716926575,-58.713897705078125,-129.1276092529297, 21.664339065551758
587,2008181758,0.25223866,0.57434285,-0.59242386,0.5055097,13.805187225341797,-0.2956179082393646,-0.6923680305480957,-48.17584228515625,-92.03868103027344, 15.388993263244629
588,2008198425,0.2508742,0.5769796,-0.5999166,0.4942235,17.21585464477539,3.745279312133789,0.6654636859893799,-61.8292350769043,-67.90509796142578, 4.0986857414245605
589,2008215092,0.25396723,0.5776525,-0.6049873,0.4856013,20.657312393188477,3.3866360187530518,4.238879203796387,-63.71434020996094,-28.42724609375, -7.688347816467285
590,2008231759,0.2610326,0.57829076,-0.60691375,0.47864148,16.72894287109375,3.666470527648926,7.69160270690918,-62.20622253417969,-0.14550821483135223, -30.11029815673828
591,2008248426,0.27221066,0.58457863,-0.61263216,0.45700237,12.404014587402344,5.265158176422119,13.48307991027832,-142.2587890625,-67.23355865478516, -78.23657989501953
592,2008265093,0.29403788,0.58664644,-0.62548196,0.42209038,5.513989448547363,-3.162647247314453,21.391498565673828,-271.43463134765625,-76.41191101074219, -89.84912872314453
593,2008281760,0.30588335,0.58883446,-0.64107513,0.3856583,-2.1700923442840576,-16.065284729003906,4.839489936828613,-245.55284118652344,-132.06442260742188, -53.382164001464844
594,2008298427,0.28833145,0.60427433,-0.64529,0.36785635,5.636107921600342,-17.41294288635254,13.7086820602417,13.532634735107422,-197.5276336669922, -41.05762481689453
595,2008315094,0.26232007,0.62568516,-0.6461943,0.34948432,4.791030406951904,-8.589615821838379,11.66749382019043,66.16278076171875,-246.42257690429688, -61.382144927978516
596,2008331761,0.2288102,0.6487067,-0.6461442,0.3306408,10.642833709716797,-3.5614824295043945,11.553455352783203,101.41374206542969,-284.3020324707031, -55.61658477783203
597,2008348428,0.19919609,0.66772705,-0.64797294,0.30755922,14.238136291503906,-4.373236656188965,21.592069625854492,54.56060028076172,-280.187255859375, -44.976959228515625
598,2008365095,0.17255054,0.683169,-0.65039015,0.28372395,11.032289505004883,-3.8233585357666016,22.10009002685547,31.330657958984375,-264.33929443359375, -33.618534088134766
599,2008381762,0.14921401,0.6962516,-0.6510545,0.26286316,10.240886688232422,-3.901736259460449,20.73997688293457,29.628576278686523,-229.46421813964844, -34.200408935546875
600,2008398429,0.1304114,0.70612645,-0.6512668,0.24541783,8.742196083068848,-3.052642822265625,20.680822372436523,20.664337158203125,-187.0541534423828, -26.670326232910156
601,2008415096,0.11717735,0.7131942,-0.65145767,0.23070864,6.927426338195801,-2.5945839881896973,18.86618995666504,3.341869354248047,-144.51100158691406, -21.126184463500977
602,2008431763,0.10736617,0.71862423,-0.65010875,0.2222846,5.809467315673828,-1.4421303272247314,15.810423851013184,15.787138938903809,-94.85466003417969, -21.690690994262695
603,2008448430,0.10361424,0.72182363,-0.64833647,0.2188485,4.865565299987793,-1.0410300493240356,14.841629981994629,7.1287102699279785,-39.649261474609375, -19.370290756225586
604,2008465097,0.1054565,0.7219723,-0.6466942,0.2223105,3.2357828617095947,-1.5924469232559204,13.648181915283203,7.733280181884766,23.824600219726562, -8.620372772216797
605,2008481764,0.11099625,0.71910495,-0.64374286,0.23698744,1.4487369060516357,-0.46040475368499756,12.167975425720215,39.028900146484375,101.37007141113281, 0.772754430770874
606,2008498431,0.124322504,0.7127833,-0.63944423,0.25999072,0.7868428230285645,-0.3604390323162079,10.366190910339355,36.9300537109375,183.61114501953125, 3.079789400100708
607,2008515098,0.14363065,0.7027134,-0.63270676,0.2919699,-0.2566295862197876,-0.7593899965286255,8.171932220458984,48.22563934326172,262.6968994140625, 4.588843822479248
608,2008531765,0.16708551,0.6880649,-0.6234106,0.33167505,-2.3561689853668213,-1.35446298122406,5.3985161781311035,62.40556716918945,329.8631591796875, 11.44525146484375
609,2008548432,0.19340952,0.6686454,-0.6110389,0.3770114,-2.4043943881988525,-0.18462133407592773,2.208519458770752,74.48863983154297,383.3861389160156, 17.24770736694336
610,2008565099,0.22473706,0.64198714,-0.5993081,0.42210865,-1.8514097929000854,-0.656343400478363,-2.761388063430786,39.16872787475586,421.4223327636719, 37.297401428222656
611,2008581766,0.2538941,0.6117231,-0.58398753,0.46935204,-1.3641531467437744,2.2271230220794678,-6.87709379196167,62.45512008666992,438.2284240722656, 45.87648391723633
612,2008598433,0.28355846,0.5790557,-0.5666006,0.5130817,-0.6082351207733154,2.781400442123413,-10.622016906738281,48.71926498413086,437.1513977050781, 39.061851501464844
613,2008615100,0.31101158,0.5455659,-0.54791117,0.55265117,0.023604631423950195,2.045863151550293,-15.989747047424316,44.36884307861328,417.7605895996094, 36.77568054199219
614,2008631767,0.33293036,0.5153045,-0.5277355,0.5874641,5.248142242431641,1.6538541316986084,-23.72829246520996,59.8609619140625,370.4215087890625, 29.889392852783203
615,2008648434,0.35433012,0.48693472,-0.5140645,0.61080503,9.186988830566406,-1.9559227228164673,-32.10974884033203,-1.7521312236785889,305.97442626953125, 21.91098403930664
616,2008665101,0.36841655,0.46711373,-0.50236356,0.6274591,9.4450101852417,-2.130650281906128,-35.3665657043457,7.894310474395752,221.7195587158203, 18.39044761657715
617,2008681768,0.3770096,0.45512545,-0.49627867,0.63594973,4.046711444854736,1.154605746269226,-34.927146911621094,-7.3577656745910645,129.7552032470703, 12.496564865112305
618,2008698435,0.38106793,0.45293513,-0.49731523,0.6342828,-0.8893797397613525,3.354560613632202,-33.497398376464844,-33.321044921875,21.98289680480957, -5.414734363555908
619,2008715102,0.38231224,0.4558306,-0.5096617,0.6215312,-0.07452939450740814,0.5724268555641174,-28.42941665649414,-97.6187973022461,-73.74696350097656, -4.992178440093994
620,2008731769,0.37419158,0.4665108,-0.52454597,0.6059702,0.7246962785720825,-2.7398412227630615,-26.10601043701172,-64.47062683105469,-157.94485473632812, 3.3861091136932373
621,2008748436,0.3539743,0.48841664,-0.5325101,0.5937883,2.1984121799468994,0.7959899306297302,-19.65182876586914,44.39987564086914,-219.1005401611328, -0.34188729524612427
622,2008765103,0.33305714,0.5098058,-0.5471631,0.5742679,0.8982594013214111,-2.381065845489502,-35.3438720703125,-8.611702919006348,-260.0887756347656, 8.921978950500488
623,2008781770,0.29833084,0.538149,-0.55475444,0.5600374,14.405027389526367,-4.110439300537109,0.18865448236465454,103.7276611328125,-304.0101623535156, 24.381202697753906
624,2008798437,0.27570444,0.5559491,-0.5696852,0.53885674,8.14216423034668,-1.2659912109375,12.69364070892334,-17.562650680541992,-258.2379150390625, 30.78818702697754
625,2008815104,0.25232527,0.5715227,-0.5844314,0.51781636,3.6113529205322266,-5.208832740783691,-6.995517253875732,-17.81871795654297,-252.60714721679688, 41.89727020263672
626,2008831771,0.23535958,0.5815307,-0.59525347,0.50209695,6.766857147216797,3.8544929027557373,-0.34986117482185364,-17.337385177612305,-179.2528533935547, 35.124324798583984
627,2008848438,0.22733359,0.5868081,-0.6072688,0.48497456,7.836450576782227,4.505777835845947,-3.0198638439178467,-70.61622619628906,-134.07078552246094, 26.29390525817871
628,2008865105,0.22199652,0.5920634,-0.6161774,0.46957856,12.637872695922852,4.293354034423828,-0.9831827878952026,-63.92099380493164,-111.09290313720703, 7.798643589019775
629,2008881772,0.21721937,0.598245,-0.6214446,0.4568649,14.583641052246094,1.731537938117981,-1.302069067955017,-41.68044662475586,-95.4977035522461, -8.428478240966797
630,2008898439,0.21547735,0.604664,-0.6239798,0.44564593,17.360349655151367,3.361854314804077,3.219224452972412,-38.88322830200195,-73.33238983154297, -27.802946090698242
631,2008915106,0.21981587,0.6101197,-0.62510353,0.43437386,15.70667839050293,1.6317517757415771,5.5496721267700195,-61.55923080444336,-42.86628723144531, -48.00572204589844
632,2008931773,0.23100202,0.6132954,-0.6247571,0.4244829,13.741717338562012,0.8623236417770386,11.988580703735352,-83.49952697753906,0.9184361100196838, -62.53935623168945
633,2008948440,0.24981831,0.61573285,-0.6274738,0.40588272,9.224831581115723,-0.9117926359176636,14.376916885375977,-163.33810424804688,-6.334717273712158, -82.3848876953125
634,2008965107,0.26525897,0.61903226,-0.63267326,0.38231075,4.800378799438477,-12.17452335357666,1.1188992261886597,-176.07115173339844,-49.19679641723633, -74.6288070678711
635,2008981774,0.25954685,0.62599874,-0.63378185,0.37293667,4.323243141174316,-19.226280212402344,17.856067657470703,-6.965728759765625,-83.09603118896484, -26.710208892822266
636,2008998441,0.24430409,0.6379746,-0.631989,0.36591512,-5.430673599243164,-6.66079568862915,15.015205383300781,60.426944732666016,-122.69286346435547, -32.762821197509766
637,2009015108,0.22477561,0.6533199,-0.6346187,0.3462776,1.9682152271270752,-3.93221378326416,1.203625202178955,18.819480895996094,-212.8491668701172, -38.563812255859375
638,2009031775,0.20031013,0.668711,-0.63788503,0.3252759,10.899225234985352,-5.433884143829346,14.817644119262695,33.545188903808594,-241.695068359375, -26.314769744873047
639,2009048442,0.18234307,0.67886466,-0.6461277,0.29734287,6.749715328216553,-2.306035280227661,20.390579223632812,-45.19862747192383,-240.73876953125, -4.5670318603515625
640,2009065109,0.17124029,0.6866029,-0.6559118,0.2627415,9.948873519897461,-5.555378437042236,17.08834457397461,-113.13627624511719,-238.9016876220703, -9.037954330444336
641,2009081776,0.1559239,0.6940278,-0.66220504,0.2355798,10.350997924804688,-5.104177474975586,18.433610916137695,-53.85195541381836,-218.58473205566406, -7.79038143157959
642,2009098443,0.1428541,0.7000343,-0.6675256,0.20965321,8.993555068969727,-3.000204563140869,20.0194034576416,-58.993526458740234,-199.61367797851562, -8.329845428466797
643,2009115110,0.13069074,0.70494735,-0.6714089,0.18756197,9.16834831237793,-4.1200432777404785,18.27940559387207,-44.813499450683594,-174.451416015625, -7.786691665649414
644,2009131777,0.1164385,0.7093712,-0.67295295,0.17426689,9.532292366027832,-3.01401424407959,17.002246856689453,8.425907135009766,-139.11976623535156, -6.284289360046387
645,2009148444,0.106449425,0.7120287,-0.67414814,0.16494827,8.400022506713867,-1.5098400115966797,15.337088584899902,4.989107131958008,-97.9659423828125, -1.721193552017212
646,2009165111,0.102167524,0.7123086,-0.67576385,0.15975556,6.552974224090576,-2.301448106765747,12.233403205871582,-6.063501358032227,-49.216007232666016, 7.9237236976623535
647,2009181778,0.098696634,0.71066576,-0.6766722,0.16531207,4.570312976837158,-2.1356990337371826,9.499701499938965,39.292694091796875,9.616703033447266, 20.06459617614746
648,2009198445,0.097178794,0.7072102,-0.6759904,0.18288538,3.0267343521118164,0.9379834532737732,9.419245719909668,86.19446563720703,80.46530151367188, 26.714021682739258
649,2009215112,0.10606073,0.701236,-0.6743558,0.2055811,1.9521733522415161,2.799478530883789,8.812541007995605,58.962120056152344,157.46792602539062, 24.210376739501953
650,2009231779,0.12414632,0.69241786,-0.6713164,0.23340823,0.3027883470058441,0.6816337704658508,5.890804290771484,38.334442138671875,229.92906188964844, 21.41634750366211
651,2009248446,0.14105274,0.68195564,-0.66325647,0.27410138,-0.9744595885276794,0.48850542306900024,3.2401926517486572,110.0234375,292.7660827636719, 18.018217086791992
652,2009265113,0.16213863,0.6689675,-0.651433,0.31910634,-1.406019687652588,3.5144245624542236,1.9178497791290283,114.7564697265625,340.61553955078125, 8.251184463500977
653,2009281780,0.19117686,0.6508043,-0.63971436,0.36148426,-2.3996896743774414,3.220327615737915,-0.7593938112258911,60.443077087402344,375.5509948730469, 11.608972549438477
654,2009298447,0.22183432,0.6286266,-0.62597,0.40469733,-2.976633071899414,2.843106269836426,-5.05150032043457,56.66836166381836,399.2777404785156, 17.30562400817871
655,2009315114,0.25254756,0.6039803,-0.60904616,0.44776163,-3.086606025695801,3.413137674331665,-7.703580856323242,60.91596984863281,410.901611328125, 13.817890167236328
656,2009331781,0.2801549,0.5780604,-0.5888975,0.49046865,-2.994964599609375,2.2734596729278564,-11.400938034057617,80.0988998413086,406.2747497558594, 14.731790542602539
657,2009348448,0.30528513,0.5514359,-0.56533855,0.5320825,0.1551308035850525,1.441551685333252,-15.083498001098633,95.73318481445312,401.27545166015625, 10.28562068939209
658,2009365115,0.32923907,0.5235765,-0.5435318,0.5674882,4.9229960441589355,-0.8942546248435974,-21.352375030517578,67.11424255371094,374.4539794921875, 13.002197265625
659,2009381782,0.35053784,0.49681687,-0.5257522,0.59487903,9.298276901245117,-2.628460645675659,-30.5283145904541,33.59384536743164,322.8455505371094, 15.560479164123535
660,2009398449,0.36378467,0.4781672,-0.50922966,0.61619973,10.383821487426758,-0.459493488073349,-33.59672164916992,53.75651931762695,237.6419219970703, 8.770223617553711
661,2009415116,0.37335625,0.4678923,-0.5009883,0.62505406,5.708401679992676,1.8304306268692017,-34.180091857910156,8.266632080078125,128.5441131591797, -8.955904006958008
662,2009431783,0.381148,0.46428016,-0.5061668,0.61884195,0.9417439699172974,-1.036623239517212,-35.84187316894531,-82.4889907836914,15.381978988647461, -14.02546215057373
663,2009448450,0.3799019,0.46890485,-0.5183915,0.6058656,-0.08825525641441345,-2.3274850845336914,-32.09423065185547,-81.11249542236328,-93.72926330566406, -5.229859352111816
664,2009465117,0.3678359,0.4840724,-0.53054506,0.59067154,1.144902229309082,-0.2535859942436218,-27.778589248657227,-26.089515686035156,-182.33575439453125, -3.8524961471557617
665,2009481784,0.34920317,0.5058389,-0.54137456,0.57367057,2.112241268157959,3.247762680053711,-19.811697006225586,11.392906188964844,-235.08396911621094, -10.334465980529785
666,2009498451,0.32863766,0.52831644,-0.5532249,0.55391455,5.407573699951172,-2.396254539489746,-19.40742301940918,5.601577281951904,-256.70928955078125, -8.456219673156738
667,2009515118,0.30457908,0.5493197,-0.56540114,0.5346039,10.248882293701172,0.1225842833518982,1.53912353515625,15.475578308105469,-263.1330261230469, 12.500984191894531
668,2009531785,0.27848205,0.5698253,-0.5744592,0.5174395,11.18037223815918,-3.18752121925354,5.521929740905762,41.87361526489258,-254.8975067138672, 14.620291709899902
669,2009548452,0.24874486,0.58936447,-0.5812597,0.50290436,7.475596904754639,-1.7509310245513916,-6.148137092590332,72.60945129394531,-251.6579132080078, 27.47677993774414
670,2009565119,0.23154308,0.60170114,-0.5899663,0.48608997,5.453312397003174,6.16840124130249,0.751718282699585,-6.241904258728027,-189.1972198486328, 16.666671752929688
671,2009581786,0.22690585,0.6070444,-0.60249275,0.46584728,8.8670015335083,3.4334137439727783,-3.2884933948516846,-96.04700469970703,-135.36697387695312, 13.604164123535156
672,2009598453,0.22546628,0.6109959,-0.61415404,0.4457173,11.313553810119629,0.6383683681488037,-0.05958139896392822,-108.32183837890625,-116.03025817871094, 5.925288677215576
673,2009615120,0.21953063,0.61644506,-0.61972326,0.4332957,17.105201721191406,0.38020259141921997,0.5877729654312134,-35.922935485839844,-98.0863037109375, -0.109178327023983
674,2009631787,0.21757555,0.6220912,-0.6219997,0.42282382,17.998489379882812,1.8785027265548706,6.323630332946777,-34.43213653564453,-68.89604187011719, -23.670135498046875
675,2009648454,0.22512521,0.6255618,-0.62275845,0.41250867,15.05113697052002,1.710774540901184,10.455263137817383,-73.34072875976562,-19.556072235107422, -48.05228042602539
676,2009665121,0.24055523,0.62803507,-0.62615085,0.39451292,10.372892379760742,-0.07020658254623413,15.413254737854004,-149.24440002441406,-20.715866088867188, -66.50381469726562
677,2009681788,0.25693953,0.6311697,-0.63128537,0.37025106,5.584174633026123,-7.847412109375,8.143145561218262,-184.09683227539062,-48.99607467651367, -74.67676544189453
678,2009698455,0.25606564,0.6371444,-0.63657176,0.3510754,4.4469380378723145,-21.05480194091797,13.11560344696045,-82.60142517089844,-109.68214416503906, -33.54416275024414
679,2009715122,0.23335372,0.65128934,-0.63380736,0.3459143,-3.847139596939087,-9.716634750366211,13.276405334472656,107.96963500976562,-149.83837890625, -27.608457565307617
680,2009731789,0.20484667,0.6703955,-0.6327895,0.32891536,3.468355417251587,-2.8072407245635986,2.2210800647735596,85.99930572509766,-242.98622131347656, -46.83198165893555
681,2009748456,0.1712391,0.6895135,-0.6330802,0.30734015,13.773811340332031,-4.332838535308838,8.380584716796875,86.61833953857422,-288.30267333984375, -35.794315338134766
682,2009765123,0.14418079,0.7042589,-0.6364644,0.27954304,12.56861400604248,-1.2589532136917114,22.63625144958496,16.707374572753906,-284.1659240722656, -23.24818229675293
683,2009781790,0.12838958,0.7149954,-0.64367115,0.24080116,11.708789825439453,-5.96489143371582,19.726259231567383,-97.15206909179688,-284.6625671386719, -19.652170181274414
684,2009798457,0.107847,0.7252068,-0.64615005,0.21197732,13.594804763793945,-4.919374465942383,21.131437301635742,-22.63079071044922,-252.44073486328125, -23.99573516845703
685,2009815124,0.09453161,0.7322936,-0.64900774,0.1833,11.797892570495605,-2.867445468902588,23.036514282226562,-60.98039245605469,-215.9253387451172, -18.671588897705078
686,2009831791,0.085322045,0.73649824,-0.6520895,0.15833506,11.008193016052246,-5.146835803985596,20.386823654174805,-67.2972640991211,-175.9550018310547, -7.475259780883789
687,2009848458,0.076336145,0.7396001,-0.6533119,0.14264666,9.922082901000977,-2.8255133628845215,18.588947296142578,-25.552265167236328,-126.11548614501953, -6.805781841278076
688,2009865125,0.07486756,0.7404781,-0.65494376,0.13090368,8.03792953491211,-2.2964961528778076,14.88815689086914,-47.67000961303711,-70.67923736572266, -0.07158932089805603
689,2009881792,0.07734378,0.73911625,-0.65686995,0.127465,5.613912105560303,-3.3604519367218018,12.410659790039062,-31.814071655273438,-9.021613121032715, 12.187631607055664
690,2009898459,0.08003694,0.7357833,-0.65835196,0.13707657,2.5504791736602783,-2.678238868713379,10.182143211364746,25.295557022094727,60.100563049316406, 25.549869537353516
691,2009915126,0.08492893,0.73048544,-0.6586073,0.15941978,1.2157965898513794,-0.6138095259666443,8.953372955322266,71.82212829589844,136.97227478027344, 33.190086364746094
692,2009931793,0.09768792,0.7225123,-0.65778995,0.18906567,-0.27360638976097107,0.1264074146747589,6.955826759338379,64.97827911376953,212.8773193359375, 35.60495376586914
693,2009948460,0.11429687,0.71133333,-0.655173,0.22735307,-1.426867961883545,-1.1926956176757812,4.041123390197754,85.12767791748047,278.7159729003906, 42.00737380981445
694,2009965127,0.13208169,0.6975845,-0.6489249,0.27354532,-1.9833648204803467,0.9717243909835815,2.0442440509796143,118.63883209228516,329.7386779785156, 40.22869873046875
695,2009981794,0.15604962,0.6796899,-0.64165694,0.31929114,-3.4030208587646484,2.62724232673645,-0.24139058589935303,85.14730072021484,364.1103515625, 41.8435173034668
