Acc_X,Acc_Y,Acc_Z
10.510890007019045,-4.982363224029541,1.7942731380462646
6.095180034637451,-5.150773048400879,6.615714550018311
-7.570631980895996,2.3533270359039307,1.684180736541748
-7.519614696502685,7.37467622756958,-10.369665145874023
-4.591403484344482,1.302578687667847,-14.213314056396484
-6.849010944366455,0.5756626725196838,-9.63540267944336
-6.20863151550293,-8.87807846069336,-5.141266822814941
-10.664030075073242,-6.3715901374816895,4.957045078277588
-14.92034149169922,-7.069247245788574,14.670881271362305
-16.25978660583496,-7.755437850952148,20.85430335998535
-11.373469352722168,-10.215846061706545,17.740930557250977
-10.217495918273926,15.768439292907717,-54.944583892822266
46.81830978393555,21.705331802368164,22.052047729492188
-1.5974270105361938,14.90822982788086,8.757794380187988
42.03131103515625,6.137918949127197,5.088795185089111
4.796847820281982,-16.440385818481445,-6.849984169006348
12.731552124023438,-17.989707946777344,-9.069905281066896
6.482387542724609,-0.1316007524728775,-3.700103282928467
6.433787822723389,8.777615547180176,-3.712812900543213
7.260987281799316,12.190180778503418,0.2734466195106506
6.610174655914307,5.83519983291626,1.0602420568466189
1.7424253225326538,3.1622073650360107,4.338562965393066
-7.862109184265137,6.833696842193604,-2.973430633544922
-7.396463871002197,5.4072585105896,-10.44546127319336
-5.689559459686279,-4.409901142120361,-6.371272087097168
-11.368956565856934,-4.451566219329834,0.6066303253173828
-12.434308052062988,-4.440761089324951,6.164169788360596
-9.645129203796388,-9.389894485473633,6.827016353607178
-9.227632522583008,-4.776633739471436,4.989494800567627
-9.1117582321167,-4.957131862640381,3.466543674468994
-11.162192344665527,3.204220056533813,-19.836395263671875
12.568326950073242,7.812703609466553,-9.61240291595459
2.077273368835449,0.5395419597625732,20.071178436279297
17.32474136352539,5.775116443634033,-2.182371139526367
12.654034614562988,-0.1084260046482086,5.104986667633057
20.01541519165039,-3.876171350479126,-3.277594566345215
10.329944610595703,-2.308571577072144,-5.264840126037598
7.9871344566345215,0.2290101647377014,-6.641945838928223
8.849089622497559,4.321811676025391,-4.086152076721191
10.546818733215332,5.499357223510742,1.471219182014465
10.817734718322754,3.6765503883361816,3.564168930053711
6.223799705505371,0.6910728216171265,5.196600437164307
-2.386649370193481,2.1755270957946777,3.7557315826416016
-10.579231262207031,11.463272094726562,-6.478353500366211
-7.054269313812256,6.822769641876221,-5.573991775512695
-7.597832679748535,-7.365450382232666,-1.8656744956970213
-9.839838027954102,0.7736799120903015,-0.0583714991807937
-11.078983306884766,1.427420973777771,2.408825159072876
-10.920686721801758,-2.1065306663513184,3.6321942806243896
-9.817852973937988,-9.769068717956545,3.090274810791016
-10.497708320617676,-7.950325965881348,4.842360496520996
-9.152082443237305,-4.446683406829834,9.126644134521484
-13.836766242980955,5.507551670074463,-34.65414047241211
22.228464126586918,5.514653205871582,-11.348384857177734
-3.9989943504333496,-3.847348690032959,18.450164794921875
33.216773986816406,5.756918430328369,-2.5430986881256104
12.548646926879885,-0.8706817626953125,1.3899602890014648
26.13798713684082,-5.243457794189453,-2.5389461517333984
16.0601806640625,-0.169985145330429,1.007275938987732
9.047779083251951,-3.659501552581787,-4.216014862060547
-1.3077540397644043,0.2224738001823425,-6.040155410766602
-0.1185782179236412,2.6811439990997314,-3.760345220565796
0.7394507527351379,3.754047155380249,0.7989857792854309
-5.402355670928955,7.539477825164795,-2.965797185897827
-7.993680477142334,8.741100311279297,-5.286292552947998
-8.804075241088867,-1.126504898071289,-7.51196813583374
-9.5103759765625,-5.353726863861084,3.950772285461426
-13.587997436523438,-7.753596305847168,10.06903076171875
-11.47840404510498,-5.5797200202941895,8.985878944396973
-9.289314270019531,-5.160078048706055,1.426260232925415
-8.985520362854004,-4.175378322601318,-3.590641975402832
-8.724191665649414,-0.993690013885498,-6.817383289337158
-5.558895111083984,5.630894660949707,-12.551772117614746
6.881744861602783,0.7704686522483826,4.789247512817383
5.3792829513549805,6.445037841796875,8.754638671875
15.3270263671875,10.67941665649414,3.594099760055542
15.254122734069824,-0.4505611360073089,3.1821014881134038
11.262800216674805,-1.7600560188293457,-8.268702507019043
7.1415863037109375,-6.840285778045654,-9.738168716430664
7.977442264556885,-0.8104242086410522,-4.653898239135742
9.1175537109375,0.0162024945020675,-3.1399130821228027
8.597005844116211,2.7385060787200928,-3.691115617752075
7.942122459411621,1.9463049173355105,-0.4764004349708557
7.397267818450928,0.1467946469783783,3.1317434310913086
-2.491263628005981,-2.712589740753174,3.205057144165039
-9.665433883666992,5.777101993560791,-2.703674554824829
-4.662485122680664,4.535871982574463,-10.278496742248535
-6.774047374725342,0.3398090302944183,-8.73983097076416
-9.79317855834961,-5.454095363616943,-3.231531143188477
-11.799363136291504,-8.321473121643066,3.6665985584259033
-10.857075691223145,-6.13303804397583,5.7336835861206055
-9.777234077453612,-2.0013859272003174,6.665713787078857
-12.521516799926758,-0.023038275539875,9.037697792053224
-12.618865966796877,2.8377270698547363,-3.134706735610962
4.690418720245361,9.67439079284668,-20.855377197265625
11.860268592834473,12.721353530883787,23.29793739318848
11.714362144470217,2.265752077102661,-0.1079574003815651
19.314584732055664,-1.964819073677063,3.7274999618530273
16.52596664428711,-9.254490852355955,-4.823404788970947
12.116957664489746,-5.949169158935547,-3.805591344833374
8.688008308410645,-0.0153916273266077,-3.508453607559204
5.736052989959717,2.733969211578369,-5.201335906982422
5.27955436706543,4.857282638549805,-0.9354984760284424
5.736030578613281,4.601317882537842,3.281696557998657
-1.297083020210266,3.166851282119751,3.199908971786499
-7.729339122772217,7.197456359863281,-3.2980105876922607
-8.344437599182129,6.073842525482178,-5.853340148925781
-8.3128662109375,-4.720848083496094,-3.53098726272583
-10.127933502197266,-3.1468722820281982,-0.9347608685493468
-10.451844215393066,-4.494653224945068,2.787738084793091
-10.313419342041016,-2.429396152496338,4.441555023193359
-9.307003021240234,-1.6724474430084229,6.017819404602051
-8.10677433013916,-2.6179819107055664,2.6106998920440674
-7.472128868103027,-5.451447010040283,-0.6915396451950073
-2.7739627361297607,4.415708065032959,-16.007780075073242
8.629576683044434,4.874831199645996,5.761739730834961
1.386435866355896,-3.592825412750244,-0.5690873265266418
17.929214477539062,9.032289505004885,4.7313232421875
13.639615058898926,-0.7553719878196716,-0.1645179390907287
14.411091804504396,-2.3391005992889404,-3.263089895248413
12.876293182373049,-1.401819944381714,-2.488675832748413
11.919231414794922,0.3033678233623504,-2.4213716983795166
9.067221641540527,3.3515400886535645,1.4497321844100952
6.208281517028809,2.785198926925659,4.426080226898193
-1.9195388555526731,2.583891630172729,1.3049582242965698
-7.146312236785889,8.05862808227539,-3.926766157150269
-7.835834503173828,2.2066473960876465,0.2284248769283294
-8.552290916442871,-3.128732204437256,-0.7702213525772095
-9.442859649658203,-4.639461040496826,5.787964344024658
-11.446897506713867,0.7847281694412231,5.405590534210205
-9.918990135192873,-2.696998119354248,5.0605316162109375
-8.675851821899414,-4.466404438018799,-1.389116644859314
-9.325531005859377,-3.406339406967163,-3.907872676849365
-8.239874839782715,-2.8811399936676025,-3.058424711227417
-9.268386840820312,-0.630462110042572,-4.602980136871338
-4.872848033905029,4.016013145446777,-17.492340087890625
9.528286933898926,-0.6493029594421387,0.3573789000511169
2.9546613693237305,3.2666354179382324,8.827091217041016
20.020734786987305,4.277070999145508,-1.441511869430542
9.84750747680664,-0.511417806148529,-1.0872647762298584
13.689021110534668,-2.160856246948242,-5.28773832321167
10.144267082214355,-2.240343809127808,-4.085391521453857
10.014747619628906,-1.7880980968475342,-4.651957988739014
8.093780517578125,0.1680577844381332,-3.4503698348999023
6.45959997177124,0.6807515025138855,-0.5214272737503052
4.1214680671691895,-0.1540493369102478,2.761868953704834
-4.118185043334961,3.5680251121521,-1.1909992694854736
-7.052583694458008,9.179292678833008,-6.149538040161133
-6.44984245300293,-2.197211265563965,-7.513165950775146
-9.35199737548828,-2.8356363773345947,-2.74487853050232
-11.422445297241213,-2.589027404785156,2.1206302642822266
-12.803290367126465,-2.660623788833618,4.763309478759766
-11.31540298461914,-3.211095094680786,3.3990626335144043
-9.71454620361328,-4.761595726013184,0.0781194493174552
-9.504080772399902,-3.333125114440918,-0.1124685406684875
-9.945443153381348,-2.408232927322388,0.7334684729576111
-10.839035034179688,6.818068504333496,-6.54226541519165
8.219542503356934,4.276007175445557,-4.933221817016602
7.279738426208496,-2.538583278656006,9.37503719329834
11.289606094360352,8.937483787536621,4.238125801086426
17.721214294433594,5.576156139373779,5.574347972869873
15.189781188964844,-9.011686325073242,-4.424224853515625
10.58720874786377,-3.965080499649048,-6.5075531005859375
10.130361557006836,-3.4610981941223145,-4.558403015136719
8.88071060180664,0.7877839803695679,-2.059722900390625
6.828378200531006,1.6884602308273315,1.7645673751831057
4.325946807861328,-0.6125733256340027,2.5420033931732178
-2.3605213165283203,-1.5690429210662842,2.5931878089904785
-9.510540962219238,2.8907384872436523,-1.4123255014419556
-10.33858585357666,3.625969886779785,-6.490118503570557
-6.50690507888794,2.135093927383423,-7.172305107116699
-8.549226760864258,-2.2335898876190186,-7.095260620117188
-9.8135347366333,-1.3044151067733765,-4.566073417663574
-10.381780624389648,0.503187358379364,0.8434979319572449
-9.200613975524902,-1.0900864601135254,3.9423320293426514
-6.872270584106445,-4.324436187744141,5.46604585647583
-8.532937049865723,-1.9058257341384888,7.739957332611084
-4.538749694824219,0.4025929570198059,-6.207037448883057
12.339744567871094,9.724316596984863,0.0450939387083053
1.116004467010498,3.73961353302002,4.857901096343994
16.922103881835938,2.596740484237671,0.9221020340919496
9.86968994140625,1.7144408226013184,-0.5905833840370178
10.91237449645996,-5.738104820251465,-6.47037410736084
12.39482307434082,-2.382535696029663,-3.356151819229126
13.35390853881836,2.772058725357056,-0.1407349705696106
10.630891799926758,0.5487299561500549,0.2947106957435608
6.153595447540283,0.6423892378807068,2.241910934448242
0.4420147538185119,-0.4487186074256897,4.881962299346924
-8.851519584655762,2.5572726726531982,-0.6302529573440552
-11.2930269241333,7.051639556884766,-6.4770097732543945
-5.171335220336914,-0.7485801577568054,-4.7292656898498535
-8.61771297454834,-3.738561630249024,-3.1150002479553223
-10.75035285949707,2.821455240249634,2.248258352279663
-10.901555061340332,-0.892989993095398,6.420126438140869
-7.824012756347656,-6.092675685882568,-0.6748509407043457
-8.355224609375,-6.742325305938721,0.5684876441955566
-9.541462898254396,-1.182438850402832,4.796530246734619
-10.753772735595703,3.0125527381896973,-15.57039737701416
11.117180824279783,3.1293601989746094,-7.690163135528564
-3.366246223449707,2.1949093341827397,9.399860382080078
21.146190643310547,5.618654727935791,1.6475789546966553
13.110408782958984,2.3340814113616943,2.192222595214844
19.66120719909668,-2.520998001098633,-0.2401493340730667
16.024789810180664,-1.4946118593215942,-1.6420533657073977
11.976618766784668,-0.8130921125411987,-1.3113142251968384
7.64415168762207,2.80369234085083,1.3244588375091553
4.726561546325684,3.227238893508911,4.409483909606934
-4.002079010009766,4.725229740142822,2.2667019367218018
-9.026803970336914,11.903613090515137,-3.70694351196289
-8.497781753540039,3.069119691848755,-0.1269726902246475
-9.930238723754885,-4.525971412658691,2.129843711853028
-11.80293083190918,-8.0859956741333,10.359493255615234
-12.274497032165527,1.151658296585083,8.615554809570312
-8.705955505371094,-1.6083705425262451,4.74758768081665
-7.736744880676269,-4.43940544128418,-5.442538738250732
-9.00831699371338,-2.559394598007202,-9.590886116027832
-9.608136177062988,1.238250970840454,-11.18124294281006
-6.330711841583252,2.202467918395996,-20.417390823364254
7.918644905090332,-1.88574492931366,4.78696346282959
5.673247337341309,2.4082350730896,15.053289413452148
14.229655265808104,1.4493170976638794,-3.839858293533325
9.78213596343994,-5.646078109741211,-2.086380243301392
6.226251602172852,0.2511168420314789,-8.56902027130127
3.957045316696167,-0.694713830947876,-7.43780517578125
7.904322147369385,3.53698468208313,-5.6015400886535645
12.672646522521973,3.871328830718994,-2.505039930343628
13.421175956726074,0.4584420323371887,-1.1589634418487549
10.558494567871094,-0.7475964426994324,1.7281354665756226
4.998836517333984,-2.6268773078918457,3.360400915145874
-1.8887758255004885,-2.1669905185699463,4.586466312408447
-10.688591957092283,6.714183807373047,-2.750133991241455
-8.13590145111084,5.709341049194336,-9.508475303649902
-7.76872444152832,-2.083537578582764,-5.389016628265381
-10.585336685180664,-1.1503392457962036,-4.347438335418701
-10.736191749572754,-0.3560108542442322,-1.9084465503692627
-11.045628547668455,1.2679569721221924,3.987073183059693
-11.118389129638672,-1.7225143909454346,6.167283535003662
-11.062045097351074,-8.386357307434082,6.219539165496826
-13.451912879943848,-3.51575231552124,-9.94842529296875
2.7470273971557617,10.209968566894531,-15.072599411010742
8.33350658416748,9.185697555541992,16.89354705810547
4.951563835144043,-7.979590892791748,-3.000850200653076
20.22693252563477,6.125912189483643,6.964962005615234
16.807636260986328,-6.547187805175781,1.4332764148712158
17.796865463256836,-6.118401050567627,-2.2153897285461426
11.207219123840332,-2.804926633834839,-2.673027276992798
7.030474185943604,-0.3154753148555755,-3.30884051322937
4.385496139526367,2.2146239280700684,-0.4212045669555664
1.8487757444381716,2.321490526199341,0.6045719981193542
-0.0178153738379478,1.2177252769470217,3.043999671936035
-7.589136600494385,2.947349548339844,0.3226856589317322
-12.21891975402832,7.640701293945312,-5.4833197593688965
-8.545891761779785,3.397474527359009,-12.1282958984375
-8.116767883300781,-2.7659943103790283,-7.628366470336914
-10.326478004455566,-1.502077341079712,-4.231907367706299
-9.862049102783203,-0.8492817878723145,-0.0182448774576187
-8.755099296569824,-1.928849220275879,3.9205362796783447
-6.752297878265381,-5.601100921630859,2.622516870498657
-5.339956283569336,-6.834202289581299,5.801910400390625
-5.771464824676514,5.475522518157959,7.329933643341064
4.747237205505371,3.6538784503936768,-8.511322021484375
7.970819473266602,-0.919681191444397,3.182345151901245
8.985620498657227,4.918187141418457,3.165879011154175
13.366411209106444,4.347392082214356,2.187469959259033
8.17885971069336,-2.8221583366394043,-9.16230583190918
9.173091888427734,-1.1317921876907349,-4.207520008087158
12.823383331298828,-0.4893036484718323,-2.3400821685791016
10.140825271606444,-1.113821268081665,-2.9725403785705566
8.224526405334473,-1.0870139598846436,-2.906649351119995
5.933988571166992,-1.853467583656311,-0.3409088850021362
3.780361175537109,-1.0959244966506958,4.201697826385498
-7.515491008758545,1.2513706684112549,-1.295380473136902
-9.848567008972168,7.582949161529541,-10.09880828857422
-4.9453444480896,4.059231281280518,-9.02828884124756
-8.38752555847168,0.6207226514816284,-9.911354064941406
-8.643052101135254,1.1345422267913818,0.6086273789405823
-9.00699234008789,-3.264766216278076,5.485116004943848
-9.086190223693848,0.7163192629814148,10.026697158813477
-9.05215835571289,-2.544370412826538,10.338208198547363
-9.646799087524414,-8.832291603088379,11.806160926818848
-13.004687309265137,2.966500997543335,-16.238683700561523
11.732928276062012,11.716758728027344,-0.7606989145278931
0.6258741021156311,8.685603141784668,7.019059181213379
16.7684268951416,-6.642665863037109,-2.4070804119110107
17.04142951965332,7.656685829162598,3.495753049850464
19.31797981262207,-8.183985710144043,-1.2028261423110962
18.442893981933597,-5.033565044403076,0.1471523195505142
14.031898498535156,-1.094685196876526,1.637215256690979
8.31402587890625,-0.4116703569889068,3.6307122707366943
3.8943822383880615,2.454256534576416,5.375838279724121
-3.325401782989502,2.41027569770813,5.311978816986084
-11.604546546936035,10.867841720581056,-3.963634490966797
-8.793292999267578,4.709069728851318,0.7632814645767212
-12.028970718383787,-2.761659383773804,3.013866662979126
-12.009318351745604,-11.243942260742188,7.979962348937988
-11.554638862609863,-3.0473265647888184,8.575843811035156
-10.249455451965332,4.502558708190918,5.832253932952881
-7.222315311431885,0.5025815963745117,-1.5621453523635864
-7.00880241394043,-2.8997912406921387,-9.637099266052246
-7.27598237991333,0.897798478603363,-9.885374069213867
-5.514735221862793,1.8123066425323489,-18.242834091186523
10.620312690734863,2.170205593109131,-3.506559371948242
4.180952072143555,-3.7361245155334473,0.9782536029815674
15.11825466156006,3.3659164905548096,-4.5991058349609375
12.85141372680664,3.449056386947632,-1.5702862739562988
17.16765785217285,1.1532667875289917,0.3246601819992065
14.3516206741333,-0.7991729974746704,0.2226946204900741
8.5186128616333,-4.628008842468262,-5.016234397888184
4.905182361602783,-1.859542727470398,-2.533965349197388
2.496509552001953,0.4504448175430298,-0.2076525390148162
-1.5551470518112185,2.85720443725586,0.6792224645614624
-7.808268070220947,9.67974090576172,-2.1351640224456787
-9.445586204528809,3.7924551963806152,0.8939895033836365
-10.182050704956056,-2.261972665786743,3.993532419204712
-11.374906539916992,-7.82243537902832,10.986671447753906
-10.720473289489746,-3.1228673458099365,12.00843334197998
-9.155345916748049,1.51091468334198,6.337867259979248
-8.285968780517578,-2.7100718021392822,-7.939194679260254
-9.519246101379396,-3.991408348083496,-14.482562065124512
-9.595300674438477,3.742210865020752,-31.822847366333008
5.994700908660889,0.4597378373146057,13.486266136169434
1.862385869026184,0.181059643626213,13.307082176208496
13.773043632507324,0.1858724504709243,-7.664470672607422
6.681832790374756,0.9720135927200316,3.498872995376587
14.649255752563477,1.87906813621521,1.998564839363098
-0.0135517120361328,-3.028397560119629,-11.9743070602417
1.0290186405181885,1.937928557395935,-9.622209548950195
8.392669677734375,7.958569526672363,-3.882889986038208
14.73446559906006,2.459460020065308,-0.2017416954040527
15.032912254333496,-0.391872227191925,4.183579444885254
9.597708702087402,-5.874709129333496,6.5598554611206055
2.6891417503356934,-6.300627708435059,8.658721923828125
-10.084589004516602,0.6564791202545166,1.45149564743042
-11.394137382507324,5.120480537414551,-7.880527019500732
-7.798471927642822,-1.928666949272156,-7.302484035491943
-11.88772964477539,-1.808340311050415,-3.581501007080078
-12.864253044128418,1.8574799299240112,-4.040383815765381
-12.809127807617188,1.7627146244049072,-1.559656023979187
-10.416709899902344,1.6533210277557373,-1.7025349140167236
-8.161764144897461,0.7256379127502441,-1.4887672662734983
-7.314533233642578,-1.0650322437286377,-0.1588803082704544
-6.619457244873047,-2.7097420692443848,1.965318202972412
0.9592597484588624,-3.608205795288086,-2.9862477779388428
6.395196437835693,10.256718635559082,0.2343136370182037
8.332643508911133,3.5086264610290527,7.80122184753418
17.380048751831055,0.5101192593574524,0.6074556112289429
23.441186904907227,-5.305119514465332,-1.0899574756622314
4.971227169036865,0.7404404282569885,-9.632342338562012
2.88308334350586,-3.732112407684326,-10.328655242919922
2.9322948455810547,1.9950218200683596,-6.022599220275879
9.541204452514648,3.406423330307007,0.3430745005607605
4.488507270812988,0.7424569129943848,0.3949534893035888
-5.36863899230957,3.9009082317352295,-3.226811170578003
-6.225991725921631,3.668477058410645,-12.695096015930176
-4.535457134246826,3.870767831802368,-15.519478797912598
-4.352596759796143,-1.2444303035736084,-14.277395248413086
-3.8679702281951904,-2.426474571228028,-9.233460426330566
-4.194867134094238,-4.495926856994629,1.1273438930511477
-5.657970905303955,-5.178635597229004,6.681268215179443
-6.597326278686523,-4.8107757568359375,10.899362564086914
-8.21861457824707,-3.619307041168213,12.640813827514648
-10.446538925170898,-6.430833339691162,18.020832061767575
-8.63634967803955,-3.6284658908844,12.087514877319336
4.492005825042725,14.114302635192873,-22.425264358520508
19.273256301879883,4.684406757354736,13.39292049407959
9.463017463684082,7.25885534286499,8.27964973449707
20.47130584716797,4.420979976654053,-0.966468632221222
8.977167129516602,-6.023936748504639,-3.9030370712280273
15.852978706359863,-5.033303737640381,-3.557637453079224
14.803013801574709,-2.5145533084869385,0.8434845805168152
12.966181755065918,0.4718558490276336,5.409183502197266
7.146008968353272,0.4820757508277893,9.779984474182127
-3.798269748687744,0.8397512435913086,6.554664611816406
-10.546265602111816,6.380697727203369,-1.2999159097671509
-8.586044311523438,2.187069892883301,-0.4756731390953064
-9.643574714660645,-5.438190460205078,0.8714637756347656
-10.274182319641112,-0.8141800165176392,2.7550361156463623
-11.024213790893556,3.087580442428589,1.629967212677002
-9.086471557617188,-0.3340806066989898,0.8349565267562866
-7.841873645782471,-2.032200574874878,0.0854890570044517
-7.905601501464844,-2.627892017364502,1.675374984741211
-6.932339668273926,-2.3181185722351074,-1.8354732990264893
-3.723310947418213,-1.09625244140625,-27.915647506713867
9.219600677490234,2.1137609481811523,1.40995991230011
-0.5739967226982117,2.8869144916534424,1.2710988521575928
20.20663833618164,-1.6866774559020996,-3.671655416488648
12.230055809020996,2.628958225250244,0.1031262427568435
18.11815071105957,1.4410338401794434,-0.5245320796966553
15.919686317443848,-2.7640509605407715,1.099410057067871
10.909546852111816,-0.5210245847702026,0.9167706966400146
5.242082118988037,-0.345873475074768,2.364501476287842
-1.6561435461044312,1.330436944961548,2.76889967918396
-10.841801643371582,9.800238609313965,-4.704139232635498
-6.53764009475708,4.393231391906738,0.6646584868431091
-10.426742553710938,-2.1618216037750244,9.858574867248535
-12.498808860778809,-9.922362327575684,17.260494232177734
-11.523914337158203,-1.7545616626739502,16.924165725708008
-4.143729209899902,0.6192235350608826,7.74507474899292
-3.7264907360076895,-3.039414644241333,-12.756477355957031
-8.251199722290039,-0.0190915465354919,-19.159521102905277
-11.490163803100586,2.306526899337769,-36.32367706298828
7.26932430267334,-1.303924322128296,6.193241119384766
4.257587909698486,0.1044504344463348,8.268009185791016
18.39991950988769,-3.4602956771850586,-7.918003559112549
12.65937328338623,7.7442803382873535,2.583505868911743
20.22124671936035,1.3282604217529297,3.2088143825531006
8.70253849029541,-2.401900291442871,-3.942180156707764
3.1606926918029785,-4.967992782592773,-8.564984321594238
3.4780080318450928,0.561471164226532,-6.848520278930664
6.052873134613037,4.182558059692383,-0.6752402782440186
3.4931273460388184,5.1236958503723145,5.194262981414795
-5.619710922241211,9.938430786132812,0.9790299534797668
-8.400566101074219,8.164337158203125,2.6543781757354736
-9.324825286865234,-4.7841339111328125,1.0207228660583496
-9.46943473815918,-3.645173311233521,1.906630635261536
-10.24635410308838,-3.560450553894043,2.539758443832397
-11.883343696594238,-4.342645645141602,2.41988468170166
-10.771551132202148,-6.690605640411377,-3.069896697998047
-9.23884105682373,-6.687777996063232,-7.378699779510498
-9.107073783874512,-4.616652488708496,-8.893949508666992
-5.485424518585205,2.8525829315185547,-6.572710990905762
5.930569648742676,-0.3408168256282806,-2.027012586593628
1.0953412055969238,3.487324476242065,5.093905925750732
13.128768920898438,14.58196258544922,5.953763961791992
12.087114334106444,3.934457063674927,2.427785634994507
16.20939064025879,-4.3470540046691895,-11.357316970825195
13.318217277526855,-5.890120506286621,-6.391914367675781
11.690752029418944,-5.524343967437744,-7.121466636657715
10.756805419921877,1.4935014247894287,-0.2018466889858245
6.681968688964844,0.112570621073246,-0.7255574464797974
1.893266558647156,-3.333302974700928,2.7233150005340576
-6.819916725158691,2.018947124481201,-1.2313473224639893
-5.840602874755859,0.743099570274353,-7.718143463134766
-5.743222236633301,5.703924179077148,-13.952624320983888
-7.142640113830566,-3.7479772567749023,-15.985721588134766
-8.544013977050781,1.2362451553344729,-12.134472846984863
-7.404243469238281,1.4441421031951904,-6.7668137550354
-5.152721881866455,-3.020848512649536,-0.8332571983337402
-4.36484432220459,-6.059920310974121,4.529411792755127
-6.415998935699463,-6.1149749755859375,9.325029373168944
-8.896382331848145,-1.9413806200027464,16.499103546142578
-10.742544174194336,2.7800934314727783,18.226173400878903
-1.240262746810913,7.490926742553711,-19.077077865600582
28.815265655517575,5.517775058746338,7.338674545288086
3.989166259765625,8.802017211914062,15.68003749847412
25.12512969970703,4.516580581665039,-1.9300793409347532
8.968017578125,-7.674525737762451,-0.992445707321167
14.116589546203612,-5.023768424987793,-4.406660079956055
10.851961135864258,-5.769184589385986,-2.238222360610962
9.923394203186035,1.280124306678772,2.186201333999634
6.0815205574035645,1.585288405418396,6.935095310211182
-4.143784523010254,3.028841257095337,3.7729299068450928
-9.955979347229004,7.504190921783447,-1.2992254495620728
-6.594794273376465,1.881213903427124,-3.1342735290527344
-7.037481784820557,-4.561408042907715,1.22274649143219
-9.9033842086792,1.2227277755737305,0.5921102166175842
-10.263020515441896,-2.536354780197144,1.0223331451416016
-8.942586898803711,-4.180235385894775,-0.1548214703798294
-7.340303897857666,-3.6191189289093018,1.6831300258636477
-8.308721542358398,0.1357761025428772,0.5109724998474121
-7.79047155380249,-0.8412889838218689,-7.472476959228516
6.967099189758301,-3.5026192665100098,-12.445785522460938
1.5705108642578125,6.120474815368652,9.832261085510254
5.988626003265381,1.3783713579177856,-1.4525190591812134
10.515640258789062,1.9206335544586184,-0.0653102248907089
7.077206134796143,3.725592851638794,-1.313647985458374
9.43215560913086,-1.3349266052246094,-5.3943610191345215
11.556841850280762,3.1114752292633057,-2.115772008895874
14.398475646972656,3.2696359157562256,-1.468376398086548
12.472177505493164,2.031580686569214,1.5248750448226929
9.739176750183104,0.0428903512656688,4.248619079589844
4.801568984985352,-0.546750545501709,8.93014144897461
-7.591829299926758,2.5729191303253174,1.6242845058441162
-10.439592361450195,6.910881519317627,-1.6438148021697998
-7.88120698928833,-4.860002040863037,3.762123346328736
-9.974681854248049,-3.3492836952209477,7.138197422027588
-10.378064155578612,2.124239683151245,4.848423957824707
-9.729507446289062,-0.8917809724807739,1.7296907901763916
-7.861814022064209,-2.4358296394348145,-3.981835842132568
-9.12546730041504,-4.229964733123779,-10.701848030090332
-7.895257472991943,-3.247915029525757,-9.081048965454102
-7.151584625244141,-0.1828429549932479,-10.449074745178224
6.618825912475586,4.891279220581055,-2.827375888824463
2.842733383178711,-1.0596941709518433,2.587557792663574
14.05299949645996,0.4708180129528045,-2.124894142150879
12.114465713500977,5.163222312927246,1.470686435699463
14.555002212524414,-5.165194511413574,-3.165273904800415
10.746148109436035,-0.3292512893676758,-2.276196002960205
9.603151321411133,-1.2616678476333618,-3.693512916564941
6.438508033752441,0.7736362218856812,-3.3430819511413574
4.878746509552002,2.1340575218200684,-0.426419198513031
2.6230788230896,3.5996813774108887,3.859379529953003
-6.150880336761475,4.495960712432861,0.4698533415794372
-8.528542518615723,8.476545333862305,-2.2150979042053223
-8.269807815551758,-0.7628673911094666,-0.8429439663887024
-8.820881843566895,-6.052211284637451,1.2212475538253784
-10.584723472595217,-5.3624267578125,5.112173557281494
-11.190230369567873,-2.654339075088501,5.6654558181762695
-7.920729160308838,-4.55459451675415,-2.0037407875061035
-7.930024147033691,-6.037960052490234,-9.153160095214844
-8.192859649658203,-1.9211249351501465,-12.263715744018556
-1.4494023323059082,10.01975440979004,2.5168650150299072
4.793710708618164,3.3955910205841064,6.358598232269287
9.229869842529297,-1.760063409805298,-0.6041668653488159
10.744903564453123,3.1122522354125977,0.0755783468484878
14.10319709777832,-4.467932224273682,0.6621126532554626
8.771601676940918,-2.159616708755493,-4.699105262756348
4.618533134460449,-0.9230815768241882,-10.047179222106934
7.243701934814453,4.312821388244629,-4.856949806213379
10.20087718963623,4.628422260284424,-0.3074589967727661
9.219218254089355,0.7622489333152771,2.5704472064971924
5.231899738311768,-1.9502264261245728,7.080234050750732
-4.898874282836914,-1.4574319124221802,3.595377206802368
-8.879119873046875,2.4010300636291504,-3.2924928665161133
-5.539905548095703,-0.3597558438777923,-6.17402982711792
-8.105116844177246,-2.3271756172180176,-4.439229965209961
-8.856080055236816,-4.615215301513672,-3.811826944351196
-9.721287727355955,-3.9047465324401855,-2.4906413555145264
-10.51092529296875,-3.79229998588562,-0.6910104751586914
-11.116756439208984,-4.330133438110352,4.643561840057373
-9.624529838562012,-6.465733528137207,5.69334077835083
-12.911316871643066,5.409211158752441,-5.453888416290283
5.704515933990479,10.176356315612791,-10.79196834564209
11.701295852661133,4.052821636199951,13.33480453491211
7.248583316802978,6.886219501495361,2.6012537479400635
19.181795120239254,5.601315975189209,4.107633590698242
7.877041816711426,-9.300822257995604,-8.455953598022461
10.054828643798828,-4.885626792907715,-7.269552230834961
9.715548515319824,-0.5376671552658081,-5.186706066131592
10.829995155334473,2.565751314163208,-0.7187131643295288
9.449749946594238,1.9321495294570925,1.2666826248168943
4.156515598297119,-0.0636883378028869,4.123434543609619
-6.867538928985596,2.86309027671814,-0.3699995279312134
-9.048644065856934,5.945587158203125,-8.022440910339355
-4.704415321350098,2.132232427597046,-8.492839813232422
-8.307893753051758,3.856936693191528,-10.37253189086914
-7.498201370239258,-0.1833369433879852,-8.442914962768555
-7.7217607498168945,-0.1891638934612274,-3.2055892944335938
-7.512458801269531,-3.152580976486206,5.6444010734558105
-8.92733097076416,-5.11652946472168,8.085517883300781
-9.753385543823242,-7.395292282104492,13.888298034667969
-10.75625705718994,-8.619621276855469,16.241613388061523
-11.731303215026855,4.52302885055542,-31.390548706054688
24.524621963500977,5.373599052429199,6.474301338195801
-4.041833877563477,7.295397281646728,10.412670135498049
22.71076774597168,4.052789688110352,1.2710188627243042
15.062514305114746,1.8005585670471191,3.683935642242432
15.112385749816896,-4.524089336395264,-3.2084405422210693
12.476235389709473,-6.953446388244629,-4.109020233154297
9.788288116455078,0.1706535220146179,-0.8195883631706238
8.164321899414062,2.007782220840454,0.1204865872859954
4.460305213928223,3.3336551189422607,4.989680767059326
-4.323531627655029,2.879913330078125,3.535158634185791
-9.98024845123291,7.619038105010986,-0.9467713236808776
-6.551609516143799,0.858410656452179,-0.9374549388885498
-6.298529148101807,-9.833540916442873,3.3602054119110107
-9.047164916992188,1.2847506999969482,3.8816397190094
-10.533263206481934,-0.1557971835136413,2.8445253372192383
-8.363521575927734,-5.542018413543701,-1.3492141962051392
-7.368926525115967,-5.248641490936279,-5.165756702423096
-8.413176536560059,-1.0606917142868042,-5.433911323547363
-8.114465713500977,0.0426594465970993,-3.535976886749268
0.0476597845554351,-0.5259767174720764,-7.767411231994629
8.451139450073242,4.578789234161377,3.085244655609131
2.498464584350586,4.217376708984375,5.405806064605713
13.284521102905272,2.313591718673706,-1.6001216173171997
4.510448455810547,0.1055043563246727,-5.288052082061768
8.693527221679688,0.466899424791336,-6.051103115081787
13.203683853149414,3.81939148902893,-2.920335292816162
15.976015090942385,0.987233579158783,-0.845485508441925
15.065930366516112,-1.9649384021759035,2.5736775398254395
10.906360626220703,-5.225626468658447,4.997037887573242
2.918449878692627,-6.245693683624268,7.603517532348633
-11.87588119506836,1.791584849357605,-1.364065170288086
-10.607528686523438,6.404599189758301,-6.439426898956299
-8.605883598327637,-8.854522705078125,2.4885427951812744
-8.565495491027832,-6.856589794158936,2.1739840507507324
-11.205500602722168,10.797860145568848,4.381995677947998
-11.09880542755127,8.588666915893555,3.805532455444336
-7.809852600097656,-3.941887140274048,-5.486543655395508
-9.116960525512695,-3.007228374481201,-8.0795259475708
-8.209263801574707,-0.4653764367103576,-7.153241157531738
-8.552681922912598,3.141059398651123,-6.884627342224121
6.815054893493652,7.988944053649902,-3.2385189533233643
9.643095016479492,-0.6962004899978638,3.5749833583831787
15.831231117248535,-2.5539979934692383,-2.347475290298462
17.60854148864746,3.917012453079224,3.2424123287200928
18.28079414367676,-7.204674243927002,-0.0710136294364929
11.485421180725098,-1.5299396514892578,-1.452587366104126
6.0124382972717285,-2.3615219593048096,-1.754316329956055
1.6299344301223757,1.823490858078003,-2.2472145557403564
-1.1100034713745115,3.4136977195739746,-0.4653436243534088
-5.918734550476074,4.208900451660156,-2.478035926818848
-10.019216537475586,7.9285173416137695,-5.799248695373535
-9.444916725158691,2.383641242980957,-4.553288459777832
-9.572416305541992,-0.6413449645042419,-6.291555404663086
-9.501676559448242,-2.655273199081421,-2.5771870613098145
-10.042518615722656,-3.3990302085876465,0.9003946185112
-9.361884117126465,-3.1361095905303955,3.4629058837890625
-8.363764762878418,-2.7923529148101807,2.5631563663482666
-9.079839706420898,-7.880787849426269,1.3512890338897705
-6.37263822555542,-0.2987148463726043,-4.529914855957031
10.4661283493042,8.429777145385742,-1.2501832246780396
4.127533912658691,4.297206878662109,8.52456283569336
16.6867618560791,-3.0176024436950684,1.1839885711669922
12.208165168762209,1.97886335849762,-0.5304191708564758
8.636839866638184,-8.78353500366211,-8.644546508789062
10.277609825134276,-0.4226217567920685,-5.2017669677734375
12.753789901733398,2.6421420574188232,-1.8038420677185056
10.494702339172363,0.7998616099357605,-0.6380746364593506
9.828089714050291,-1.1570568084716797,3.199427843093872
0.2178837358951568,-2.1966583728790283,3.538990259170532
-6.429601669311523,0.2423486858606338,-0.4606176018714905
-9.204245567321776,4.110729217529297,-7.011207580566406
-5.215521812438965,0.6365082263946533,-6.963938236236572
-8.242426872253418,-2.968177080154419,-4.471925258636475
-9.55959129333496,0.8661565184593201,-2.54229736328125
-10.642982482910156,1.4934370517730713,1.8450207710266116
-9.13881492614746,-3.1143078804016118,2.2461416721343994
-9.706413269042969,-3.5351109504699707,4.132933616638184
-11.16622829437256,-2.2904982566833496,7.739523410797119
-11.487483978271484,5.026311874389648,-9.855958938598633
11.113938331604004,13.67034149169922,-3.926131248474121
0.3416095376014709,3.725317478179932,5.643860340118408
14.652583122253418,-3.483651161193848,0.2452430129051208
18.23141860961914,4.2494707107543945,4.26556396484375
17.522693634033203,-10.45140266418457,-1.819718360900879
14.656766891479492,-5.239623546600342,-2.924355983734131
9.9782133102417,-0.8772165179252625,-1.514197826385498
5.7413763999938965,0.7228349447250366,-1.116032958030701
0.8605986833572388,2.3277676105499268,0.4542091190814972
-0.8412342667579651,2.454955577850342,2.183521509170532
-8.226612091064453,3.240795612335205,-0.1701932698488235
-10.440585136413574,6.108583450317383,-3.415481805801392
-9.025875091552734,4.040607929229736,-6.89594841003418
-7.869526863098144,-2.2127182483673096,-4.871897220611572
-9.442497253417969,-4.275153160095215,-3.5882327556610107
-9.336281776428224,-2.608830213546753,-1.2329834699630735
-8.988288879394531,-1.7175074815750122,2.9189558029174805
-7.209780216217041,-3.18583083152771,1.769222378730774
-7.5901780128479,-1.5233137607574463,0.2434494644403457
0.0361084826290607,-2.274709939956665,3.1306746006011963
11.331132888793944,8.89692211151123,3.858933210372925
7.536557197570801,3.6849710941314697,3.3200483322143555
14.08115005493164,-3.31041955947876,-1.007453441619873
11.423892974853516,1.1924549341201782,-1.3574674129486084
8.08195686340332,-3.800266742706299,-6.5968017578125
9.266406059265137,-1.6877784729003906,-3.5633373260498047
8.617801666259766,1.6799993515014648,-2.466116189956665
5.957915306091309,0.3893743753433227,-1.3393248319625854
4.48707389831543,1.4173964262008667,1.8405324220657349
-3.3474879264831543,0.6855033040046692,1.049066424369812
-7.202237129211426,4.42337703704834,-1.2668921947479248
-8.159282684326172,4.620089530944824,-4.062333106994629
-7.302813529968262,-0.6244950294494629,-3.772235870361328
-8.219831466674805,-2.6510252952575684,-0.1007816419005394
-9.50624656677246,-2.3304922580718994,2.331101179122925
-9.678226470947266,-0.9335763454437256,3.635417461395264
-7.347705364227295,-3.117380380630493,-0.5436313152313232
-8.030606269836426,-5.2651214599609375,0.4991124868392944
-7.057128429412842,0.4682660102844238,-2.5015828609466557
3.3313682079315186,13.457980155944824,-2.1445565223693848
5.005774021148682,-1.5737097263336182,4.684740543365479
13.617874145507812,-2.909773111343384,0.483691394329071
13.301953315734863,5.699690341949463,4.011964321136475
14.023107528686523,-9.915523529052734,-5.076517581939697
9.77108383178711,-1.3361235857009888,-3.974652767181397
10.647431373596191,1.4325737953186035,-1.4654839038848877
8.29591178894043,2.3480663299560547,1.224011778831482
5.461487770080566,2.849048137664795,3.53609561920166
2.5780246257781982,0.4668969810009002,6.339198589324951
-6.457167625427246,0.9878742694854736,0.896537184715271
-9.93826389312744,6.977097034454346,-1.5716488361358645
-8.577644348144531,-4.209432601928711,-2.61755108833313
-10.558926582336426,-4.925620079040527,3.0979995727539062
-9.178553581237791,-7.998305320739746,3.397714138031006
-10.786704063415527,1.7693097591400146,3.3866286277771
-8.879608154296875,2.55893611907959,0.8283259868621826
-7.4063005447387695,-3.533543825149536,-8.532927513122559
-7.585379600524902,-2.48825478553772,-9.66511344909668
-4.385546684265137,1.073641657829285,-6.892418384552002
5.968874454498291,6.711002826690674,1.2948471307754517
5.986608505249023,0.742547333240509,1.805736064910889
12.274513244628906,-2.377896547317505,-1.9912563562393188
12.305781364440918,4.221691608428955,0.5570046305656433
13.796031951904297,-3.754417181015015,-2.4174013137817383
7.5567498207092285,1.3441191911697388,-4.609641551971436
6.123294830322266,0.6370954513549805,-5.274899482727051
5.23307991027832,2.2456133365631104,-3.493088960647583
5.413854598999023,2.3399360179901123,-0.2081110477447509
1.4099184274673462,0.3010454475879669,2.860782623291016
-5.698733806610107,3.605748176574707,0.0705731660127639
-7.808489799499512,3.833518505096436,-4.734096527099609
-6.2387375831604,-1.1819827556610107,-5.345560073852539
-8.563735961914062,-2.079019546508789,-1.269278049468994
-9.825014114379885,-2.94813084602356,0.0875650644302368
-10.750701904296877,-3.3285000324249268,2.2311532497406006
-9.37337875366211,-4.122103214263916,0.9386923909187316
-7.963362693786621,-4.840677738189697,-1.1130059957504272
-8.915719032287598,-1.6650896072387695,-2.7221853733062744
-4.527243614196777,7.14207124710083,3.825971841812134
8.600141525268555,6.973883628845215,1.0702956914901731
6.669349670410156,-2.293009757995605,2.4466047286987305
11.921539306640623,5.03354024887085,0.8939277529716492
13.441227912902832,-2.5023624897003174,1.424227952957153
11.829901695251465,-6.59827995300293,-5.4592132568359375
9.055970191955566,-2.9902989864349365,-5.0196614265441895
8.962469100952148,0.2568088173866272,-3.961286783218384
7.511956691741943,2.2492408752441406,-0.5033791065216064
6.472352504730225,2.06023907661438,2.789421319961548
0.2255161851644516,0.259064108133316,3.939042329788208
-7.978906154632568,4.378718376159668,-0.0626899302005767
-8.71824836730957,3.4639694690704346,-7.729516983032227
-5.795542240142822,-1.5956764221191406,-5.207880020141602
-9.343409538269045,-0.2295161336660385,-4.111500263214111
-9.014875411987305,-4.687797546386719,-3.7316970825195312
-9.713663101196287,-5.099717140197754,-1.0388981103897097
-9.247129440307615,-4.565507888793945,3.784466505050659
-9.12728214263916,-4.755648612976074,8.142695426940918
-11.586383819580078,-2.131638288497925,-1.4855483770370483
-5.185253620147705,13.890402793884276,-8.525301933288574
16.47638511657715,9.925559043884276,11.26464557647705
4.18079948425293,-0.1985495090484619,1.3117899894714355
18.189699172973636,1.9745166301727293,3.9547312259674072
11.906023979187012,-5.043073177337647,-2.3023757934570312
10.712165832519531,-9.74519157409668,-6.860918998718262
9.922577857971191,0.0274583678692579,-3.5379598140716557
8.833159446716309,4.549631118774414,-1.2470667362213137
5.699051856994629,3.7341465950012207,0.5992884635925293
3.010629653930664,1.8986328840255735,2.421142578125
-2.5142738819122314,0.7397251725196838,4.00669002532959
-9.07951831817627,3.837349176406861,-1.032442927360535
-9.14681625366211,3.899097681045532,-7.610318183898926
-5.88337516784668,-2.422173023223877,-5.161131381988525
-9.52455997467041,-4.928745746612549,-2.0592563152313232
-10.964903831481934,-0.4753205776214599,-0.0562131702899932
-10.802388191223145,-1.3744076490402222,4.790740013122559
-8.608778953552246,-3.884789943695069,0.1450662761926651
-9.402953147888184,-7.153426647186279,0.5812773704528809
-10.271720886230469,3.235247135162353,-2.9542248249053955
7.814006328582764,9.482576370239258,-8.533774375915527
4.521286010742188,-5.448530673980713,6.536525249481201
13.976551055908203,1.1593670845031738,-0.3637305200099945
14.932745933532717,7.4936299324035645,4.222630023956299
19.82348251342773,-4.969796180725098,0.3767839670181274
15.744210243225098,0.7727282643318176,-0.1116390973329544
12.83000659942627,-2.5030758380889893,0.5720841288566589
5.295300006866455,-0.5676394701004028,0.9877490997314452
0.709405243396759,1.3484488725662231,1.921749234199524
-3.6833810806274414,1.3532658815383911,2.133035898208618
-11.387328147888184,4.833302974700928,-4.690639972686768
-9.642359733581545,6.523824214935303,-5.180284023284912
-9.935369491577148,-2.39992904663086,-4.329010486602783
-9.197030067443848,-4.454883098602295,-1.090155005455017
-9.72370147705078,-4.620762825012207,0.8117239475250244
-11.25648593902588,1.3518028259277344,2.5329813957214355
-9.37690544128418,0.1149933934211731,3.2109999656677246
-7.32819128036499,-4.869357109069824,-1.1606534719467163
-9.300074577331545,-2.59690523147583,-9.888259887695312
3.624035596847534,4.707815647125244,-6.741145610809326
6.804739475250244,10.974516868591309,12.4745512008667
3.702263116836548,-8.190197944641113,-4.688316345214844
15.089747428894045,1.6669700145721436,-1.6451232433319092
10.038183212280272,1.8155536651611328,-1.9575451612472532
16.70128059387207,-4.489028453826904,-2.1719648838043213
11.890406608581545,2.1131367683410645,-1.9212653636932373
8.138837814331055,-0.1493494361639022,-3.972564935684204
5.798949241638184,2.673107385635376,-1.2207130193710327
1.3564062118530271,2.872699737548828,0.3469176590442657
-0.4288644790649414,1.464916706085205,2.898984909057617
-8.100515365600586,5.5602641105651855,-0.6320188045501709
-9.157249450683594,5.775795936584473,-5.476982593536377
-6.862870693206787,-2.3269331455230717,-4.658351421356201
-9.037464141845703,-2.700270652770996,-0.1481712311506271
-10.370193481445312,-3.280514717102051,2.4636940956115723
-10.428824424743652,-5.387413501739502,3.4719557762146
-8.391349792480469,-6.966196537017822,1.7403539419174194
-7.151345729827881,-6.25819730758667,-0.7428061962127686
-9.56578540802002,-1.3102436065673828,-6.879807949066162
-1.9651670455932615,14.77176570892334,0.1039906442165374
10.879335403442385,4.885041236877441,5.031792640686035
7.122534275054932,-2.806938409805298,-0.6063365340232849
17.369508743286133,10.01009464263916,3.821374893188477
14.232995986938477,-8.497940063476562,-2.6669416427612305
13.930583000183104,-4.711123466491699,-4.648229598999023
11.502214431762695,-2.5132222175598145,-2.06234073638916
9.286237716674805,0.0170668456703424,-0.7456765174865723
5.039120197296143,2.1614084243774414,1.9776809215545652
2.0522284507751465,1.2721692323684692,3.750527620315552
-4.923267364501953,1.3251482248306274,0.0153025761246681
-9.554295539855955,8.127793312072754,-3.930518388748169
-8.268868446350098,-2.960257053375244,-3.3785207271575928
-9.257400512695312,-3.691139459609986,-4.677624702453613
-9.978681564331056,-7.532575607299805,-0.8724815249443054
-11.66791820526123,-3.742856025695801,1.6619173288345337
-12.24124240875244,-0.950813889503479,4.483596324920654
-9.298269271850586,-2.4059433937072754,1.9171764850616453
-9.688620567321776,-4.719444274902344,-2.708528518676758
-9.296103477478027,5.954066276550293,-20.48873710632324
10.714635848999023,14.535425186157228,8.028926849365234
-1.465853214263916,2.923408269882202,4.925585746765137
16.724912643432617,-3.707414388656616,-1.114056944847107
9.141239166259766,5.031937122344971,1.159469485282898
15.60585117340088,-8.970205307006836,-4.579680919647217
11.769247055053713,-0.0467163883149623,-2.990729570388794
9.479270935058594,2.191448450088501,-4.386781692504883
8.148493766784668,1.0383222103118896,-3.3844265937805176
5.91571569442749,2.0452322959899902,-0.0998205542564392
3.32422947883606,0.1229982823133468,1.4657984972000122
0.5325803160667419,-0.8713057041168213,4.077661514282227
-7.630867004394531,1.2103993892669678,1.5078635215759275
-10.52455234527588,6.0291619300842285,-4.432779788970947
-7.281635761260986,2.594351053237915,-7.775891780853271
-8.551799774169922,-4.174716472625732,-5.426592826843262
-9.847857475280762,-3.2713623046875,-5.032194137573242
-10.457000732421877,-3.6489431858062735,0.202768012881279
-11.33291721343994,-1.748757004737854,7.675580978393555
-9.618144989013672,-4.4379987716674805,4.036177158355713
-9.87505340576172,-0.0532502345740795,-5.4878339767456055
7.264420509338379,7.684554100036621,-7.376924991607666
3.967060089111328,10.337706565856934,12.003962516784668
10.747364044189451,-4.925383567810059,-0.0290476083755493
17.21531105041504,4.467492580413818,5.015726566314697
12.626009941101074,-8.91963005065918,-5.101420402526856
12.07018756866455,-2.534285068511963,-4.506854057312012
10.590920448303224,2.739999294281006,-1.1814745664596558
9.482251167297363,2.7435457706451416,0.1354035884141922
4.850562572479248,1.6049723625183103,1.9542864561080933
2.546354055404663,1.000149130821228,5.125025272369385
-5.671688556671143,0.9922595024108888,2.41938591003418
-10.835379600524902,4.94490909576416,-3.808657646179199
-8.195637702941895,0.7854108214378357,-5.658604145050049
-8.026787757873535,-7.472890853881836,-0.8934759497642517
-9.963180541992188,-2.5539321899414062,-1.5141096115112305
-11.116617202758787,0.9879369139671326,0.2556501626968384
-9.491087913513184,-2.382657766342163,-0.4993925094604492
-7.092152118682861,-3.3074684143066406,-3.1531426906585693
-8.06674575805664,-1.3162050247192385,-4.111856937408447
-1.647201418876648,-0.5743431448936462,-0.5068861246109009
6.108809471130371,6.168827056884766,-0.9515801072120668
2.290849208831787,-0.4392583966255188,3.125096082687378
9.480327606201172,3.911036968231201,1.513169288635254
11.347033500671388,3.676522016525269,1.8027132749557493
10.876614570617676,-2.085955619812012,-5.483328342437744
10.847453117370604,-1.209505915641785,-4.362183094024658
11.815667152404783,0.192148670554161,-2.1894304752349854
10.277085304260254,-0.4977608621120453,-0.5618178844451904
7.115593433380127,-0.6905369758605957,1.4248318672180176
2.52532958984375,-1.105065107345581,3.885221719741821
-4.819563388824463,0.4742305874824524,2.0240869522094727
-9.266620635986328,4.394378662109375,-2.708051919937134
-8.453900337219238,2.589228630065918,-6.9764604568481445
-8.255765914916992,-1.5571238994598389,-3.1909267902374268
-9.721171379089355,-0.5880611538887024,-1.5304933786392212
-10.05796718597412,-1.6255943775177002,-1.7627530097961426
-8.649431228637695,-2.105116844177246,-0.9581225514411926
-8.2949857711792,-0.8181237578392029,2.143453359603882
-8.586705207824707,-0.5962044596672058,4.311554431915283
-6.070700168609619,-2.874232769012451,0.6385094523429871
6.366362571716309,6.131335258483887,-7.008327960968018
7.455338478088379,7.674281120300293,7.3093485832214355
11.622564315795898,-6.461661815643311,-3.0948848724365234
16.293039321899414,3.219690322875977,2.2147533893585205
12.430609703063965,-4.217113018035889,-3.0127615928649902
11.751479148864746,-3.19431471824646,-3.6947832107543945
8.12238883972168,2.343902111053467,-1.2517844438552856
4.849736213684082,2.1425156593322754,-0.9223700165748596
1.4231643676757812,2.4190211296081543,0.4331400096416473
-1.9752384424209597,2.063875436782837,2.0389466285705566
-8.809348106384277,3.3270981311798096,-0.8270019888877869
-10.14443302154541,4.893392562866211,-5.84853982925415
-7.777973175048828,0.5565586686134338,-6.891829490661621
-8.367142677307129,-3.339367628097534,-2.0478243827819824
-10.145252227783203,-2.9845423698425293,1.31631600856781
-10.809805870056152,-3.70126748085022,4.884415149688721
-8.69570255279541,-4.029839038848877,2.915480375289917
-7.301985263824463,-5.661820888519287,-0.2751094996929168
-7.882369518280029,5.49161958694458,-8.07555866241455
6.683538436889648,8.274921417236328,-0.5095134377479553
1.5375688076019287,-3.9743380546569824,2.413245439529419
14.977415084838867,2.3443312644958496,2.14255428314209
13.127158164978027,2.0421359539031982,3.637643575668335
16.16668701171875,-6.165492057800293,-4.5615739822387695
11.824506759643556,-0.0003738733939826,-2.035609483718872
10.990535736083984,0.193854883313179,-3.0984861850738525
7.343723297119141,1.3407936096191406,-1.070755124092102
4.50385046005249,1.596074104309082,0.6926025152206421
2.5451669692993164,0.8066444396972656,3.794915199279785
-5.620129585266113,1.509449481964111,1.6521058082580566
-10.458809852600098,5.921676635742188,-2.940596342086792
-7.919774532318115,2.6797568798065186,-6.122904777526856
-8.16700553894043,-4.098330020904541,-3.739183187484741
-10.082948684692385,-4.724853992462158,-1.2832562923431396
-11.181629180908203,-2.62904953956604,2.489337205886841
-9.719484329223633,-2.546738386154175,0.4254944920539856
-8.180770874023438,-4.46199369430542,-0.7022555470466614
-8.746399879455566,-2.519963502883911,0.2940146923065185
-5.635062217712402,3.918490171432495,-9.284879684448242
8.595316886901855,5.496334075927734,-1.800016164779663
0.2328329235315323,-0.1923073828220367,7.98890495300293
