PacketCounter,SampleTimeFine,Quat_W,Quat_X,Quat_Y,Quat_Z,Acc_X,Acc_Y,Acc_Z,Gyr_X,Gyr_Y,Gyr_Z 
1,581965294,0.4578766,-0.5402758,-0.61829966,-0.34081745,0.07816451787948608,1.4798043966293335,-1.0564258098602295,-0.6799848675727844,2.2284274101257324, -0.7419286966323853
2,581981961,0.45743826,-0.54083997,-0.61802834,-0.34100348,9.029439926147461,-0.6928223967552185,-3.3933441638946533,1.056094765663147,-0.22984835505485535, 0.030255001038312912
3,581998628,0.45724607,-0.54081184,-0.6182844,-0.3408418,9.06785774230957,-0.7260691523551941,-3.4081919193267822,1.0273702144622803,-0.3286365568637848, 0.07208053767681122
4,582015295,0.45713493,-0.5409845,-0.6183221,-0.34064856,9.119097709655762,-0.7013660669326782,-3.334292411804199,1.1123658418655396,-0.3371911942958832, 0.1691654622554779
5,582031962,0.45742548,-0.540702,-0.6183724,-0.34061563,9.117383003234863,-0.6869248151779175,-3.299881935119629,1.0005666017532349,-0.22781215608119965, 0.13146358728408813
6,582048629,0.45757893,-0.540727,-0.6180018,-0.3410421,9.166064262390137,-0.6833626627922058,-3.326829195022583,1.165281891822815,-0.3007187247276306, 0.04053850099444389
7,582065296,0.45785037,-0.5404522,-0.6179112,-0.34127742,9.201818466186523,-0.6941652894020081,-3.2819371223449707,1.1809823513031006,-0.33539828658103943, -0.11401493847370148
8,582081963,0.4581807,-0.54014134,-0.61779976,-0.341528,9.180139541625977,-0.7286292314529419,-3.2775516510009766,1.1984118223190308,-0.15196016430854797, -0.16621360182762146
9,582098630,0.45836687,-0.5401425,-0.6174471,-0.34191406,9.172463417053223,-0.737102210521698,-3.331261157989502,1.1807711124420166,-0.22986118495464325, -0.1974739134311676
10,582115297,0.45873478,-0.5398036,-0.6174609,-0.3419308,9.11666488647461,-0.7091673016548157,-3.353656053543091,0.938622236251831,-0.09513837099075317, -0.1013878658413887
11,582131964,0.45892566,-0.539685,-0.6173781,-0.34201127,9.08008098602295,-0.7004167437553406,-3.362234115600586,0.8234418630599976,-0.1680833399295807, -0.06637531518936157
12,582148631,0.45894033,-0.53979445,-0.61718655,-0.3421646,9.059144973754883,-0.6699059009552002,-3.36698842048645,0.7512268424034119,-0.3582831919193268, 0.00964958406984806
13,582165298,0.45892847,-0.5398978,-0.6170438,-0.34227484,9.045241355895996,-0.6597362756729126,-3.3817098140716553,0.9095006585121155,-0.30362576246261597, 0.04822231084108353
14,582181965,0.45890206,-0.5399803,-0.6169692,-0.34231463,9.075312614440918,-0.6593984365463257,-3.410372734069824,1.0398435592651367,-0.3991227149963379, 0.1451023519039154
15,582198632,0.4588867,-0.540002,-0.6169862,-0.3422703,9.133764266967773,-0.7062248587608337,-3.307111978530884,0.9445130228996277,-0.4495284855365753, 0.25252199172973633
16,582215299,0.45874938,-0.54026204,-0.61677724,-0.34242082,9.158403396606445,-0.6837499737739563,-3.324352502822876,1.2421584129333496,-0.43987253308296204, 0.0673678070306778
17,582231966,0.45878047,-0.54022944,-0.616812,-0.34236783,9.154179573059082,-0.6925061941146851,-3.340012311935425,1.2491761445999146,-0.3907089829444885, 0.05690502002835274
18,582248633,0.45864704,-0.54050696,-0.61655027,-0.34258002,9.129645347595215,-0.6900511980056763,-3.2608895301818848,1.103798508644104,-0.16194909811019897, 0.025094041600823402
19,582265300,0.4588091,-0.540284,-0.6167074,-0.34243172,9.114367485046387,-0.7048051953315735,-3.279905319213867,0.9945986866950989,-0.09494626522064209, 0.11190828680992126
20,582281967,0.45890546,-0.5401545,-0.61679864,-0.34234238,9.107437133789062,-0.698053777217865,-3.355477809906006,0.993843138217926,-0.28617069125175476, 0.021111266687512398
21,582298634,0.45892084,-0.5401641,-0.6167727,-0.34235358,9.096506118774414,-0.7131550908088684,-3.398413896560669,1.1107267141342163,-0.2582912743091583, -0.05588690564036369
22,582315301,0.458953,-0.54012334,-0.6168136,-0.3423012,9.081260681152344,-0.7148406505584717,-3.359651803970337,1.2126652002334595,-0.3567464351654053, -0.11428385972976685
23,582331968,0.45899135,-0.54004645,-0.6169108,-0.34219584,9.071465492248535,-0.7302225232124329,-3.33571457862854,1.0162670612335205,-0.5127021074295044, -0.07569832354784012
24,582348635,0.45905003,-0.53993756,-0.6170515,-0.34203523,9.06420612335205,-0.683654248714447,-3.2785487174987793,1.112839698791504,-0.6391136646270752, -0.042517077177762985
25,582365302,0.4590488,-0.5398962,-0.617119,-0.34198043,9.128340721130371,-0.6987122297286987,-3.211212396621704,0.1948806196451187,-0.47087666392326355, 0.000019209523088647984
26,582381969,0.4589611,-0.5400429,-0.61702126,-0.34204283,9.162096977233887,-0.696963906288147,-3.4131534099578857,0.5411323308944702,-0.5901550054550171, 0.04218411073088646
27,582398636,0.45890814,-0.54011536,-0.6169991,-0.34203956,9.24444580078125,-0.6551026701927185,-3.4089369773864746,0.7773134708404541,-0.6394082903862, -0.047742072492837906
28,582415303,0.45894477,-0.54006267,-0.6170338,-0.342011,9.184694290161133,-0.6708034873008728,-3.2403335571289062,0.5331347584724426,-0.11320813000202179, -0.01175622921437025
29,582431970,0.45902854,-0.5399171,-0.6171503,-0.34191778,9.21286392211914,-0.7105801105499268,-3.348037004470825,0.8535752892494202,-0.21515950560569763, -0.1536249816417694
30,582448637,0.4589838,-0.54007524,-0.61695546,-0.34207988,9.169477462768555,-0.6907230019569397,-3.335070848464966,0.7179303765296936,0.21216921508312225, 0.021930871531367302
31,582465304,0.45912808,-0.53991455,-0.6170111,-0.34203967,9.076118469238281,-0.6818270683288574,-3.363600492477417,0.7824615836143494,0.4697945713996887, -0.038918495178222656
32,582481971,0.45930928,-0.5396789,-0.61714065,-0.34193435,9.055736541748047,-0.6870387196540833,-3.4433610439300537,0.8348396420478821,0.427162230014801, -0.05751332268118858
33,582498638,0.4594423,-0.5395729,-0.6171432,-0.34191835,9.00773811340332,-0.6716955900192261,-3.406653881072998,1.2027660608291626,0.597499430179596, -0.033501412719488144
34,582515305,0.45952347,-0.5395229,-0.6171283,-0.34191513,8.998307228088379,-0.6865803003311157,-3.4299893379211426,0.8627957701683044,0.3947237432003021, 0.06316731870174408
35,582531972,0.4595914,-0.5394711,-0.61713123,-0.34190026,9.054344177246094,-0.687221348285675,-3.3424904346466064,1.091504454612732,0.2880980670452118, -0.07532695680856705
36,582548639,0.45961902,-0.53951234,-0.6170561,-0.34193385,9.124445915222168,-0.7327486276626587,-3.3369407653808594,1.2559635639190674,0.25469908118247986, -0.008644286543130875
37,582565306,0.45954138,-0.5397027,-0.61687315,-0.34206763,9.137413024902344,-0.7321065068244934,-3.323098659515381,1.220297932624817,0.0452384315431118, -0.1137332022190094
38,582581973,0.45957905,-0.539664,-0.6168901,-0.34204778,9.172720909118652,-0.6962500214576721,-3.3267908096313477,1.5534549951553345,0.013939711265265942, -0.3728184700012207
39,582598640,0.45964825,-0.5395155,-0.61700916,-0.34197435,9.170172691345215,-0.7042444944381714,-3.3012330532073975,1.453731894493103,-0.046077243983745575, -0.5987736582756042
40,582615307,0.45969844,-0.53937715,-0.61711466,-0.34193465,9.154888153076172,-0.7074728012084961,-3.30403733253479,1.3362592458724976,-0.013894888572394848, -0.7176294326782227
41,582631974,0.45967573,-0.53937197,-0.61710334,-0.34199357,9.142633438110352,-0.7083988189697266,-3.33090877532959,1.3754595518112183,-0.026035308837890625, -0.7313962578773499
42,582648641,0.45964202,-0.5393855,-0.617086,-0.34204882,9.12405776977539,-0.6853733062744141,-3.2975189685821533,1.10965096950531,-0.09997917711734772, -0.5856600403785706
43,582665308,0.45962942,-0.5393281,-0.61714685,-0.34204656,9.171935081481934,-0.6982751488685608,-3.2581372261047363,0.6873231530189514,-0.22236944735050201, -0.5229728817939758
44,582681975,0.45960054,-0.53934866,-0.61713135,-0.34208095,9.107845306396484,-0.679608166217804,-3.32808256149292,0.5944514870643616,-0.1638956516981125, -0.2656804919242859
45,582698642,0.45958498,-0.5393096,-0.6171858,-0.34206527,9.11866569519043,-0.6675105690956116,-3.3508856296539307,0.8768059015274048,-0.34419625997543335, -0.4678415358066559
46,582715309,0.4596246,-0.5391989,-0.6172923,-0.3419945,9.12079906463623,-0.648841142654419,-3.308352470397949,1.310800313949585,-0.2747858166694641, -0.5239589810371399
47,582731976,0.45973668,-0.5389437,-0.6175288,-0.3418188,9.09848403930664,-0.6307580471038818,-3.3246662616729736,1.5989946126937866,-0.3369350731372833, -0.6703356504440308
48,582748643,0.4596603,-0.53904945,-0.61744785,-0.34190118,9.053262710571289,-0.6422216892242432,-3.335172414779663,1.5505993366241455,-0.3074036240577698, -0.5422337055206299
49,582765310,0.45969093,-0.538947,-0.61757433,-0.34179303,9.08376693725586,-0.6868557929992676,-3.296600103378296,1.4502615928649902,-0.5255597233772278, -0.4334821105003357
50,582781977,0.45963448,-0.5390042,-0.6175555,-0.34181294,9.095641136169434,-0.6997945308685303,-3.2842681407928467,0.8342248201370239,-0.4263745844364166, -0.23573929071426392
51,582798644,0.4594922,-0.5392439,-0.6173754,-0.3419512,9.169487953186035,-0.7018166780471802,-3.406315565109253,1.2826007604599,-0.45142385363578796, -0.26087817549705505
52,582815311,0.45935482,-0.5394174,-0.6172325,-0.34212026,9.167527198791504,-0.6775538921356201,-3.3159866333007812,0.8418190479278564,-0.21681150794029236, -0.5382381081581116
53,582831978,0.45938784,-0.53932166,-0.6173047,-0.34209666,9.159612655639648,-0.6823817491531372,-3.3302698135375977,1.1143125295639038,-0.06103506311774254, -0.5412219762802124
54,582848645,0.45938784,-0.5392897,-0.61730635,-0.34214392,9.13314151763916,-0.6923804879188538,-3.300607681274414,0.714178204536438,0.1022523045539856, -0.45285820960998535
55,582865312,0.45939723,-0.53927195,-0.6172762,-0.34221357,9.110806465148926,-0.6232613921165466,-3.254270076751709,0.1453072428703308,0.3179880380630493, -0.18374550342559814
56,582881979,0.4592127,-0.53952426,-0.617018,-0.34252894,9.10102367401123,-0.7482568025588989,-3.4789650440216064,-1.3948932886123657,0.3549215793609619, -0.007312426343560219
57,582898646,0.4590986,-0.53970695,-0.6168657,-0.3426685,9.062202453613281,-0.6399338245391846,-3.2445926666259766,-0.5105379223823547,-0.09640619158744812, 0.22945775091648102
58,582915313,0.4590885,-0.539756,-0.6168329,-0.34266374,9.152913093566895,-0.6051657795906067,-3.399667739868164,0.09362081438302994,-0.17732952535152435, 0.32896310091018677
59,582931980,0.459056,-0.5398551,-0.6167359,-0.342726,9.146117210388184,-0.5606669783592224,-3.278005361557007,-0.0489586777985096,0.03019096702337265, 0.3314603567123413
60,582948647,0.4590554,-0.5399136,-0.61667585,-0.34274247,9.16470718383789,-0.6143959760665894,-3.2787275314331055,0.69532710313797,-0.050994884222745895, 0.17775852978229523
61,582965314,0.45910102,-0.5399318,-0.6166271,-0.34274068,9.180397987365723,-0.6190387010574341,-3.337960958480835,1.006085991859436,0.13562564551830292, 0.17541496455669403
62,582981981,0.45916733,-0.5399385,-0.61659175,-0.3427048,9.123709678649902,-0.6462138295173645,-3.3293204307556152,1.082578420639038,0.09759079664945602, 0.31979382038116455
63,582998648,0.45920467,-0.5400242,-0.6164829,-0.34271523,9.0935640335083,-0.7130465507507324,-3.298609495162964,0.8390528559684753,0.15612861514091492, 0.5385646224021912
64,583015315,0.45923826,-0.54011595,-0.6163909,-0.34269127,9.142287254333496,-0.7491256594657898,-3.4113352298736572,0.4513917863368988,-0.014112596400082111, 0.7907728552818298
65,583031982,0.459212,-0.54034215,-0.6161433,-0.34281537,9.177009582519531,-0.7424342632293701,-3.4098658561706543,-0.297414630651474,0.39668306708335876, 0.9921014308929443
66,583048649,0.45890597,-0.5408668,-0.6155598,-0.34344527,9.070706367492676,-0.6843019127845764,-3.2895843982696533,-2.9377639293670654,1.2768123149871826, 0.4051224887371063
67,583065316,0.4586272,-0.5411482,-0.61517835,-0.3440575,9.205642700195312,-1.0858983993530273,-3.155731201171875,-6.023979663848877,1.615809440612793, 0.3950183391571045
68,583081983,0.4582695,-0.5415773,-0.614694,-0.3447237,9.2984037399292,-0.9298058748245239,-3.1724512577056885,-4.940408229827881,1.252941370010376, 0.14283563196659088
69,583098650,0.45800886,-0.5418715,-0.6143887,-0.3451519,9.24268913269043,-1.1588770151138306,-3.0737311840057373,-4.038392543792725,0.6105747222900391, 0.33855506777763367
70,583115317,0.4579198,-0.5422243,-0.6140289,-0.34535617,9.27807331085205,-0.6282963752746582,-3.346475124359131,0.5663416385650635,0.24399298429489136, 0.6205765604972839
71,583131984,0.4577717,-0.542432,-0.6138561,-0.34553346,9.224394798278809,-0.8489269018173218,-3.4582295417785645,-1.8410536050796509,-0.10298866033554077, 0.4363187253475189
72,583148651,0.45778412,-0.5425562,-0.61372817,-0.34554932,9.081087112426758,-0.5704087615013123,-3.3157496452331543,1.0805164575576782,-0.05392753705382347, 0.323597252368927
73,583165318,0.45785153,-0.54262173,-0.61371696,-0.34537697,9.255569458007812,-0.5923566222190857,-3.322632074356079,2.500868558883667,-0.7449196577072144, 0.39546647667884827
74,583181985,0.45804065,-0.54245573,-0.613775,-0.3452839,9.203119277954102,-0.37939688563346863,-3.4728171825408936,2.193542242050171,0.4970080554485321, -0.30237075686454773
75,583198652,0.4576922,-0.5425984,-0.6134289,-0.34613544,9.357075691223145,-0.2966419458389282,-3.5478010177612305,-4.058512210845947,2.1788406372070312, -2.315260171890259
76,583215319,0.45749402,-0.5425816,-0.6129084,-0.347344,10.293166160583496,-0.8843785524368286,-3.1560475826263428,-4.049176216125488,5.027088165283203, -3.366328477859497
77,583231986,0.455325,-0.5461061,-0.6063402,-0.3560881,12.351913452148438,-2.096815586090088,-0.6240034699440002,-70.86255645751953,35.505855560302734, 6.464731216430664
78,583248653,0.45284763,-0.54931706,-0.60083264,-0.36356562,8.910571098327637,-1.2460275888442993,-7.330249786376953,-62.288124084472656,26.482595443725586, 3.929237127304077
79,583265320,0.45191833,-0.55017596,-0.5992668,-0.3659992,8.965798377990723,-0.6873525977134705,-7.7661285400390625,-16.30794334411621,7.731629848480225, -1.8822791576385498
80,583281987,0.4511977,-0.55119413,-0.59832466,-0.36689696,8.231788635253906,-0.017219798639416695,-4.3725504875183105,-4.322566032409668,0.6666921973228455, 0.41961926221847534
81,583298654,0.45174238,-0.5511641,-0.5976443,-0.36738026,7.622173309326172,0.29170235991477966,0.3868902921676636,0.8414860963821411,6.594854354858398, 1.4509915113449097
82,583315321,0.45220757,-0.55167747,-0.59574485,-0.36911836,7.192439079284668,-0.8119533658027649,0.30995696783065796,-7.562207221984863,13.030784606933594, 3.6686956882476807
83,583331988,0.4564534,-0.5489496,-0.59574044,-0.36796466,7.763365268707275,-0.8520169854164124,0.4765472114086151,31.449766159057617,19.745771408081055, 2.4488351345062256
84,583348655,0.46047094,-0.5465224,-0.5947181,-0.3682259,8.024308204650879,-0.7425985932350159,0.10917146503925323,21.738605499267578,26.26984214782715, 2.3281843662261963
85,583365322,0.463521,-0.5448109,-0.59259695,-0.37034896,8.381112098693848,-0.8840118646621704,-0.9505109786987305,4.012159824371338,30.835012435913086, 1.4885448217391968
86,583381989,0.4654495,-0.5439116,-0.5895747,-0.37405705,8.669669151306152,-0.7504410743713379,-1.4627561569213867,-12.2090482711792,32.91493606567383, 0.44930627942085266
87,583398656,0.46693376,-0.543339,-0.58624476,-0.37824968,8.914162635803223,-0.6897497773170471,-2.9138031005859375,-17.657276153564453,32.98155212402344, 0.2097882330417633
88,583415323,0.46835247,-0.5427675,-0.58305484,-0.38222575,9.088934898376465,0.4782710075378418,-2.9565579891204834,-16.665874481201172,31.49896812438965, 0.20652252435684204
89,583431990,0.46934134,-0.54239035,-0.58022946,-0.38583076,9.285412788391113,0.07394199073314667,-3.42073392868042,-16.42075538635254,26.75481605529785, -0.21708117425441742
90,583448657,0.47110814,-0.5414037,-0.5787041,-0.38735092,9.3632230758667,-0.6070396900177002,-3.8380794525146484,0.23719310760498047,19.59346580505371, 1.3494387865066528
91,583465324,0.47326547,-0.54012495,-0.57796264,-0.38761368,9.08305835723877,-0.4269672632217407,-3.398447036743164,9.734112739562988,14.830584526062012, 2.3815805912017822
92,583481991,0.47547758,-0.53858817,-0.57797056,-0.3870323,9.308279991149902,-0.9062875509262085,-3.7395219802856445,16.138282775878906,10.256317138671875, 1.4802943468093872
93,583498658,0.47889608,-0.53545165,-0.57946026,-0.38493636,8.991582870483398,-0.7359886169433594,-3.779226064682007,35.79800796508789,8.97252368927002, -2.225318670272827
94,583515325,0.48321313,-0.5314112,-0.5822294,-0.38094148,8.989965438842773,-1.2323142290115356,-4.116657257080078,53.040008544921875,3.8688433170318604, -1.9165921211242676
95,583531992,0.4876412,-0.5266763,-0.5855832,-0.37671012,8.766956329345703,0.42530885338783264,-2.0669138431549072,58.228858947753906,3.4771647453308105, -5.806366920471191
96,583548659,0.491617,-0.5220406,-0.58871955,-0.37308952,8.424565315246582,0.4288179278373718,-1.3178292512893677,53.25764083862305,4.330671787261963, -7.751532077789307
97,583565326,0.49294478,-0.520774,-0.59019506,-0.37076896,8.806817054748535,-1.3626718521118164,-5.1318206787109375,22.859525680541992,-4.81013822555542, 0.7448635101318359
98,583581993,0.49606422,-0.51775557,-0.59380895,-0.3650213,10.697602272033691,-0.6088951826095581,-6.599727630615234,54.57455825805664,-12.356022834777832, 2.1018974781036377
99,583598660,0.49745363,-0.51600707,-0.59676445,-0.36076173,9.416531562805176,-0.40139761567115784,-2.250394344329834,36.38611602783203,-14.755939483642578, 0.2242467999458313
100,583615327,0.4985474,-0.5142323,-0.5996168,-0.35703698,9.290443420410156,-0.5874001383781433,-1.0625861883163452,32.98430252075195,-13.670685768127441, -2.0566961765289307
101,583631994,0.49961236,-0.512447,-0.6024293,-0.35336223,9.932321548461914,-1.4885919094085693,-2.0943961143493652,32.60880661010742,-13.558180809020996, -2.189063310623169
102,583648661,0.5007505,-0.51031214,-0.60558945,-0.34941697,10.521254539489746,-1.3293695449829102,-2.156306505203247,36.016109466552734,-14.595653533935547, -3.806041955947876
103,583665328,0.50118035,-0.508638,-0.6086382,-0.34592706,10.55856990814209,-1.3286904096603394,-1.23003089427948,29.767934799194336,-16.721445083618164, -4.798097610473633
104,583681995,0.5001459,-0.5086245,-0.61078554,-0.34365124,10.931924819946289,-1.730802297592163,-0.8094621896743774,11.681341171264648,-19.57027816772461, -2.39091157913208
105,583698662,0.49714383,-0.51139265,-0.61060435,-0.34422088,10.4520902633667,-1.6588677167892456,-1.7380212545394897,-22.24492073059082,-16.61111068725586, 2.9464738368988037
106,583715329,0.49478447,-0.5135882,-0.6106505,-0.3442697,8.785137176513672,-0.9248608946800232,-3.137540102005005,-15.326920509338379,-15.250748634338379, 2.9937260150909424
107,583731996,0.49358177,-0.5144904,-0.611483,-0.34316966,8.48811149597168,-0.1054130345582962,-3.4484872817993164,-0.15687787532806396,-14.015713691711426, 1.426788330078125
108,583748663,0.4924257,-0.51513326,-0.6126703,-0.3417453,8.364644050598145,0.1706066131591797,-2.9623539447784424,3.1110167503356934,-15.484769821166992, 0.3414623439311981
109,583765330,0.49123552,-0.5156154,-0.61405003,-0.3402513,9.033966064453125,-0.06766557693481445,-2.842323064804077,4.30382776260376,-16.11189079284668, -0.7921504378318787
110,583781997,0.4892045,-0.5168048,-0.6149089,-0.33982217,9.42398452758789,-0.062417227774858475,-2.1636078357696533,-6.761592388153076,-15.772456169128418, -1.4688383340835571
111,583798664,0.48689246,-0.5176561,-0.6158295,-0.34017938,8.774781227111816,0.10956177115440369,-3.3016915321350098,-9.788122177124023,-13.634577751159668, -6.362624168395996
112,583815331,0.485408,-0.5171161,-0.6177817,-0.33958182,7.833806037902832,-0.48024043440818787,-4.199646472930908,4.296963691711426,-13.685905456542969, -10.731464385986328
113,583831998,0.48523802,-0.51504093,-0.6207639,-0.33753404,7.243265151977539,-0.5804305076599121,-4.204223155975342,21.23972511291504,-12.865484237670898, -12.54422378540039
114,583848665,0.48483005,-0.51351625,-0.62318337,-0.33598143,8.527338027954102,-1.6294220685958862,-3.169231653213501,16.544496536254883,-11.514375686645508, -10.844768524169922
115,583865332,0.4844935,-0.5125543,-0.6251255,-0.334324,9.413302421569824,-2.309185028076172,-2.6866486072540283,14.277029991149902,-11.261405944824219, -6.309607028961182
116,583881999,0.48408654,-0.51203567,-0.6266923,-0.33277112,10.196680068969727,-1.554805040359497,-2.341883897781372,9.907096862792969,-10.884739875793457, -3.2796828746795654
117,583898666,0.48250264,-0.5128713,-0.62709814,-0.33302018,11.973453521728516,-1.1286309957504272,-1.433372139930725,-8.536384582519531,-8.972427368164062, -2.3051953315734863
118,583915333,0.48082694,-0.5132983,-0.6276906,-0.33366886,12.431325912475586,-0.7932240962982178,-1.2770003080368042,-7.895952224731445,-7.891290664672852, -6.572107791900635
119,583932000,0.4778014,-0.5138737,-0.6276905,-0.33711192,11.917840003967285,-0.38883790373802185,-1.0033177137374878,-25.554861068725586,-2.5062620639801025, -16.502483367919922
120,583948667,0.4744647,-0.5140059,-0.62825274,-0.3405579,9.245199203491211,0.4814026653766632,-4.4280924797058105,-22.71576690673828,-4.9280805587768555, -21.501811981201172
121,583965334,0.47209185,-0.5137281,-0.6293072,-0.3423238,6.824864864349365,0.903361439704895,-4.717850208282471,-9.622950553894043,-7.231693267822266, -17.175954818725586
122,583982001,0.47067985,-0.5135927,-0.6302667,-0.3427053,7.137518405914307,0.1610768586397171,-4.258376121520996,-0.7315118908882141,-7.8257975578308105, -9.43978214263916
123,583998668,0.47071007,-0.5125658,-0.6317765,-0.34141907,9.555593490600586,-0.6264593601226807,-2.9947102069854736,15.843863487243652,-7.021793842315674, -6.439322471618652
124,584015335,0.47090814,-0.51132464,-0.63344145,-0.33991888,10.833351135253906,-0.7746905088424683,-2.5131335258483887,18.377456665039062,-7.060754299163818, -6.8314056396484375
125,584032002,0.47113633,-0.51032716,-0.6347693,-0.33862182,11.089126586914062,-0.8246926069259644,-2.659268617630005,15.94841194152832,-5.770086765289307, -5.1696858406066895
126,584048669,0.47149503,-0.5095526,-0.6357304,-0.33748424,11.477344512939453,-1.4466465711593628,-2.1212596893310547,14.12299919128418,-4.048153877258301, -3.1417324542999268
127,584065336,0.47208828,-0.5091657,-0.6360343,-0.33666548,11.885666847229004,-1.3305788040161133,-1.90711510181427,10.590912818908691,-0.7890506982803345, 0.36094069480895996
128,584082003,0.4724655,-0.50907433,-0.635834,-0.3366526,10.835320472717285,-0.656736433506012,-2.466161012649536,4.251625061035156,1.8911075592041016, 0.225884810090065
129,584098670,0.4732294,-0.50801665,-0.6362866,-0.33632192,9.007866859436035,-0.05952351540327072,-3.622030735015869,11.622657775878906,2.505774736404419, -4.351715087890625
130,584115337,0.47456443,-0.50682735,-0.63650596,-0.33582002,8.247879028320312,0.0466524101793766,-4.190435886383057,14.443775177001953,5.49653434753418, -2.2625250816345215
131,584132004,0.47671506,-0.50561345,-0.63633126,-0.33493385,7.550880432128906,-0.12595416605472565,-4.150455951690674,17.880155563354492,9.172093391418457, 2.273597478866577
132,584148671,0.47950354,-0.5045762,-0.63557464,-0.33395228,7.305957794189453,0.5623612403869629,-4.08607292175293,18.657859802246094,13.226494789123535, 6.863033294677734
133,584165338,0.4818125,-0.50478476,-0.63357836,-0.33410722,7.064807891845703,0.6249346733093262,-4.059290409088135,5.118520259857178,16.39655303955078, 11.83074951171875
134,584182005,0.48404127,-0.5055146,-0.6308434,-0.33495677,6.659047603607178,0.9750456809997559,-4.491610050201416,-2.431034564971924,19.865745544433594, 14.537858009338379
135,584198672,0.48652047,-0.5054938,-0.6284524,-0.33588934,7.191448211669922,1.1693075895309448,-4.25914192199707,-0.07712000608444214,22.071352005004883, 10.961280822753906
136,584215339,0.48947525,-0.5044923,-0.6265717,-0.33661506,8.300015449523926,0.03358577936887741,-3.571138858795166,6.997002601623535,24.085041046142578, 6.8373332023620605
137,584232006,0.49315557,-0.5027971,-0.6249737,-0.33675018,9.999890327453613,-1.8705559968948364,-2.339592695236206,15.079670906066895,25.873693466186523, 6.566137313842773
138,584248673,0.49735796,-0.5006158,-0.6234347,-0.3366724,11.46449089050293,-1.998408317565918,-1.793635368347168,19.338895797729492,28.277395248413086, 6.192838191986084
139,584265340,0.50070214,-0.4988735,-0.6214893,-0.33789626,12.081158638000488,-0.8773530125617981,-1.7514126300811768,8.827913284301758,29.308998107910156, 2.8186676502227783
140,584282007,0.5030695,-0.4974883,-0.61946934,-0.34012404,11.130696296691895,-0.013292653486132622,-1.9459481239318848,-0.5348713994026184,27.921045303344727, -1.0328731536865234
141,584298674,0.50464875,-0.49654537,-0.6174089,-0.3428975,9.399652481079102,0.49908483028411865,-2.586225748062134,-7.163876533508301,25.461179733276367, -2.6898138523101807
142,584315341,0.5061737,-0.4954766,-0.61572105,-0.34522292,7.068093776702881,0.6624442338943481,-3.6083316802978516,-4.113701343536377,22.706462860107422, -2.9933359622955322
143,584332008,0.508052,-0.49484083,-0.61368555,-0.3469954,6.332422733306885,0.4094708561897278,-3.5382332801818848,-2.875082015991211,22.610681533813477, 2.862691879272461
144,584348675,0.5113321,-0.49335587,-0.61211336,-0.34706873,8.272665023803711,-0.23873327672481537,-2.664656400680542,13.155415534973145,23.270936965942383, 7.037191390991211
145,584365342,0.51486635,-0.49178886,-0.6105299,-0.34685704,10.272917747497559,-0.1422082781791687,-2.0430476665496826,15.48456859588623,23.646503448486328, 8.359888076782227
146,584382009,0.51756066,-0.49118307,-0.6083656,-0.34750807,11.14623737335205,-1.0197429656982422,-1.3956609964370728,4.239070415496826,22.772523880004883, 9.340682983398438
147,584398676,0.51955336,-0.4911054,-0.6060485,-0.34869054,10.94527816772461,-1.6043330430984497,-1.043829083442688,-2.6096696853637695,20.835783004760742, 8.488710403442383
148,584415343,0.5213078,-0.49129876,-0.603771,-0.34974906,9.794694900512695,-1.2152705192565918,-1.7175188064575195,-3.793003797531128,18.541555404663086, 9.31085205078125
149,584432010,0.5225763,-0.49175367,-0.6018349,-0.3505526,8.599159240722656,0.36965885758399963,-2.253021478652954,-4.5022687911987305,13.779921531677246, 8.96191120147705
150,584448677,0.52240556,-0.49304757,-0.6000114,-0.3521121,8.91978645324707,1.7372666597366333,-2.068939447402954,-15.223397254943848,7.975897789001465, 5.936574935913086
151,584465344,0.5209989,-0.49482012,-0.5984415,-0.35437423,10.630260467529297,1.3480390310287476,-1.404772400856018,-23.381147384643555,3.1921234130859375, 1.6906015872955322
152,584482011,0.51900727,-0.49689773,-0.59732,-0.3562766,11.6712007522583,-0.5720023512840271,-0.7941940426826477,-23.865142822265625,-2.8502895832061768, 1.4197725057601929
153,584498678,0.51650405,-0.49952617,-0.59650457,-0.35760254,10.311568260192871,-1.3904366493225098,-1.0833933353424072,-24.463531494140625,-9.473291397094727, 3.4600603580474854
154,584515345,0.514164,-0.5024533,-0.59572816,-0.35816768,9.062175750732422,-1.372811198234558,-1.957842230796814,-21.759475708007812,-12.364906311035156, 7.614231586456299
155,584532012,0.51203346,-0.50554127,-0.5950436,-0.35801256,9.022231101989746,-1.0435082912445068,-2.1157877445220947,-18.434541702270508,-14.719614028930664, 10.974356651306152
156,584548679,0.5099044,-0.5090188,-0.5943744,-0.35723487,9.17870807647705,-1.2787662744522095,-1.8350597620010376,-17.216127395629883,-17.887577056884766, 14.687601089477539
157,584565346,0.507981,-0.5126198,-0.59382397,-0.3557379,9.174665451049805,-1.9176990985870361,-1.9049338102340698,-13.703502655029297,-20.301803588867188, 17.769180297851562
158,584582013,0.5063322,-0.5161497,-0.5932512,-0.35393548,9.777205467224121,-1.6631433963775635,-1.950407862663269,-11.310347557067871,-20.020843505859375, 19.225433349609375
159,584598680,0.5044844,-0.51982,-0.5924737,-0.35250223,10.177817344665527,-1.4163050651550293,-1.8946415185928345,-14.521244049072266,-19.17667579650879, 18.708044052124023
160,584615347,0.50239706,-0.5234893,-0.591663,-0.35141322,9.594256401062012,-1.7402139902114868,-2.125835418701172,-16.864709854125977,-18.842451095581055, 17.020761489868164
161,584632014,0.5005087,-0.52663386,-0.591142,-0.35028413,9.218057632446289,-2.044747829437256,-2.460273265838623,-13.484670639038086,-17.92861557006836, 14.414742469787598
162,584648681,0.49905783,-0.52878207,-0.5912266,-0.3489728,9.353776931762695,-1.975186824798584,-2.5619845390319824,-6.287964820861816,-16.489158630371094, 9.788623809814453
163,584665348,0.49790275,-0.53010947,-0.5918542,-0.3475423,9.309033393859863,-2.2494897842407227,-2.3675167560577393,-0.6223891377449036,-15.60696029663086, 5.5403971672058105
164,584682015,0.49693683,-0.5310281,-0.59257936,-0.34628415,9.255152702331543,-1.9748870134353638,-2.6951353549957275,0.9779384136199951,-13.571561813354492, 3.3136770725250244
165,584698682,0.4957498,-0.53215903,-0.59292364,-0.3456594,9.429153442382812,-1.51421058177948,-2.5252416133880615,-4.0554022789001465,-11.352643966674805, 2.8261005878448486
166,584715349,0.49449596,-0.53306466,-0.5933004,-0.3454134,9.434882164001465,-1.0133095979690552,-2.763101577758789,-5.003365993499756,-9.818413734436035, 0.3139541745185852
167,584732016,0.49334762,-0.53370285,-0.5937551,-0.3452893,9.634041786193848,-1.1717326641082764,-2.6829512119293213,-4.017941951751709,-8.563275337219238, -1.2196515798568726
168,584748683,0.49233863,-0.5341663,-0.59421855,-0.34521517,10.05296802520752,-1.2668912410736084,-2.4197499752044678,-3.094949722290039,-7.4280171394348145, -1.8071686029434204
169,584765350,0.49134353,-0.53452593,-0.59465325,-0.34532768,10.095537185668945,-0.9174419641494751,-2.5702064037323,-3.5267157554626465,-6.367369651794434, -2.7303526401519775
170,584782017,0.49033877,-0.5345423,-0.59529227,-0.3456294,9.987067222595215,-0.42698246240615845,-2.6229662895202637,-2.680946111679077,-5.606288909912109, -5.534880638122559
171,584798684,0.48927948,-0.5342393,-0.59620494,-0.34602547,9.510519027709961,-0.3988443911075592,-2.7773921489715576,-1.5470972061157227,-5.658987045288086, -8.249649047851562
172,584815351,0.48809522,-0.5340461,-0.5970157,-0.34659797,9.249539375305176,-0.4245099425315857,-2.9724152088165283,-3.3352489471435547,-5.4393720626831055, -8.276850700378418
173,584832018,0.48701516,-0.5338815,-0.59773123,-0.347137,8.774096488952637,-0.5573006272315979,-3.137360095977783,-3.197784900665283,-4.859524250030518, -7.3958740234375
174,584848685,0.4861632,-0.53381354,-0.59824455,-0.34755167,8.669939994812012,-0.8248640894889832,-3.0852410793304443,-2.5948102474212646,-3.905181646347046, -5.290713787078857
175,584865352,0.48572826,-0.53364736,-0.5985912,-0.34781775,9.174898147583008,-1.1273530721664429,-2.9788050651550293,-0.5903470516204834,-1.905623197555542, -3.5648393630981445
176,584882019,0.4856842,-0.53328794,-0.598841,-0.34800053,9.677748680114746,-1.3263740539550781,-2.545783042907715,1.7320523262023926,0.18379034101963043, -2.8441109657287598
177,584898686,0.48537531,-0.53267,-0.5993803,-0.34844944,9.760908126831055,-1.2371675968170166,-2.4040119647979736,1.0897372961044312,-0.28281542658805847, -6.475147247314453
178,584915353,0.48495993,-0.5314671,-0.60052544,-0.34889236,9.330662727355957,-1.0826565027236938,-2.85799241065979,3.942084312438965,-1.371842384338379, -11.300981521606445
179,584932020,0.48487043,-0.5296893,-0.60204124,-0.34910786,8.933477401733398,-0.7849431037902832,-3.0621492862701416,7.710561275482178,-0.5943686962127686, -13.147661209106445
180,584948687,0.48490158,-0.52758855,-0.60374093,-0.34931052,8.714384078979492,-0.6673589944839478,-3.1479122638702393,11.380996704101562,-0.11689650267362595, -15.317413330078125
181,584965354,0.48532686,-0.5243857,-0.60633796,-0.34904435,8.528725624084473,-0.6468427181243896,-3.438267946243286,20.175289154052734,-0.45266738533973694, -20.505111694335938
182,584982021,0.486847,-0.5191694,-0.61050797,-0.34745276,7.9882283210754395,-0.5074788331985474,-3.673417091369629,38.33012771606445,-0.8740784525871277, -26.968608856201172
183,584998688,0.48911184,-0.5128505,-0.6153564,-0.3450949,7.813967227935791,-0.7068502306938171,-3.69126033782959,53.327606201171875,-0.36455038189888, -30.80333137512207
184,585015355,0.49185172,-0.50614053,-0.62017554,-0.3424708,7.921789169311523,-1.0050561428070068,-3.5546271800994873,56.782493591308594,1.869081974029541, -30.158994674682617
185,585032022,0.49489608,-0.49911138,-0.62515986,-0.3393242,7.9659504890441895,-1.075386643409729,-3.0805981159210205,61.21648025512695,1.6426523923873901, -29.54055404663086
186,585048689,0.49786788,-0.49203712,-0.63011205,-0.33613434,8.62394905090332,-0.8731397986412048,-1.9874053001403809,59.30350112915039,1.579822063446045, -29.113418579101562
187,585065356,0.4998126,-0.4861073,-0.6342266,-0.33413124,9.772412300109863,-1.3889718055725098,-1.7893401384353638,45.583065032958984,1.2863914966583252, -27.999187469482422
188,585082023,0.50085026,-0.4814285,-0.6375286,-0.33306587,9.811210632324219,-1.6587227582931519,-1.6140049695968628,32.4948616027832,0.3134692907333374, -25.241130828857422
189,585098690,0.5008922,-0.4783258,-0.6399355,-0.3328576,8.745597839355469,-2.1644535064697266,-1.7634514570236206,18.08396339416504,-1.8132045269012451, -20.700864791870117
190,585115357,0.50069726,-0.47630653,-0.6417166,-0.3326174,7.799604415893555,-1.7366242408752441,-2.6603171825408936,12.155464172363281,-3.3199734687805176, -14.37102222442627
191,585132024,0.5006669,-0.47482738,-0.6431832,-0.33194458,7.8276190757751465,0.348651647567749,-2.885056257247925,12.010541915893555,-4.1406426429748535, -9.164756774902344
192,585148691,0.50031346,-0.47384727,-0.6444702,-0.33138093,9.531908988952637,1.681982398033142,-2.7725398540496826,8.430007934570312,-5.7042460441589355, -7.464542865753174
193,585165358,0.49917018,-0.4727968,-0.64647377,-0.3307022,13.330921173095703,1.1453986167907715,-0.7771685123443604,8.240403175354004,-11.883270263671875, -11.389982223510742
194,585182025,0.49717638,-0.47280458,-0.6485085,-0.32970974,11.955631256103516,-0.21388563513755798,-1.3076069355010986,3.3347721099853516,-19.363996505737305, -7.556014060974121
195,585198692,0.49474528,-0.4739864,-0.6499579,-0.32881445,9.745559692382812,-0.3643859922885895,-2.488905191421509,-3.891113519668579,-21.774547576904297, -1.7194476127624512
196,585215359,0.49240887,-0.47548616,-0.6514857,-0.32712838,8.556310653686523,-1.8851968050003052,-2.4836740493774414,-0.9169623255729675,-24.93777084350586, 2.338425397872925
197,585232026,0.49139017,-0.4760272,-0.65387374,-0.3230841,9.599931716918945,-2.887782573699951,-2.872945547103882,19.11132049560547,-27.506628036499023, 6.096827030181885
198,585248693,0.49207178,-0.47506636,-0.65761065,-0.31579387,10.194339752197266,-2.4067702293395996,-3.282282829284668,47.289676666259766,-31.711910247802734, 9.550209045410156
199,585265360,0.49369016,-0.47162715,-0.6643012,-0.3042069,10.270877838134766,-2.2578659057617188,-4.316376209259033,84.535888671875,-46.12335968017578, 5.179396629333496
200,585282027,0.49549514,-0.46657512,-0.671836,-0.29228193,10.7472505569458,-0.42899683117866516,-3.9273927211761475,96.61115264892578,-46.005367279052734, -4.42962646484375
201,585298694,0.4979342,-0.4613092,-0.6770767,-0.28429362,11.756731986999512,0.6889284253120422,-4.159733772277832,76.10813903808594,-22.178295135498047, -10.02161693572998
202,585315361,0.50163543,-0.45599672,-0.6791584,-0.2813769,11.809800148010254,1.8601150512695312,-4.50347375869751,50.135498046875,10.70763111114502, -14.889939308166504
203,585332028,0.5065113,-0.450439,-0.679136,-0.28164786,12.724353790283203,2.299851179122925,-4.495371341705322,34.10186767578125,34.06193923950195, -17.409025192260742
204,585348695,0.51220006,-0.44465625,-0.6777055,-0.28398472,13.884293556213379,0.867889940738678,-3.741375207901001,24.680566787719727,49.6275634765625, -19.411449432373047
205,585365362,0.5189842,-0.43917528,-0.6744408,-0.28794128,16.179601669311523,0.6337189674377441,-2.0334537029266357,14.843352317810059,65.5804672241211, -15.543557167053223
206,585382029,0.5259414,-0.4357645,-0.66804653,-0.29531175,16.432218551635742,0.2894997298717499,-0.6785237789154053,-12.814552307128906,83.51490020751953, -8.645736694335938
207,585398696,0.5344119,-0.43087444,-0.6599539,-0.30530623,15.875649452209473,0.4563937485218048,-0.10194462537765503,-18.38311004638672,107.2607192993164, -16.72474479675293
208,585415363,0.5525004,-0.41449136,-0.6486691,-0.31963834,15.568324089050293,0.6609246134757996,7.520388126373291,25.90863609313965,199.43170166015625, -55.09759521484375
209,585432030,0.54911095,-0.42334542,-0.6331426,-0.3440732,2.693270444869995,-1.3223458528518677,-7.406537055969238,-185.60324096679688,92.50797271728516, -16.005346298217773
210,585448697,0.5476488,-0.42731202,-0.6243528,-0.35730797,5.368603706359863,-2.9798340797424316,-6.149653911590576,-96.83317565917969,54.76469421386719, -10.146801948547363
211,585465364,0.54897,-0.42857832,-0.61724335,-0.36601007,1.6403366327285767,-3.2552642822265625,-4.134013652801514,-54.91851043701172,53.98120880126953, -2.9312169551849365
212,585482031,0.55378133,-0.42842686,-0.60680926,-0.37624368,-0.5472655892372131,-0.20045599341392517,7.953772068023682,-54.172149658203125,89.63338470458984, 3.680284023284912
213,585498698,0.56613195,-0.42666572,-0.5917793,-0.38372958,2.1030235290527344,-2.4077019691467285,6.414903163909912,-26.28221893310547,134.26683044433594, 40.434139251708984
214,585515365,0.58365124,-0.42271617,-0.57543695,-0.38669714,2.574988842010498,-2.936424493789673,5.25692081451416,12.280966758728027,152.61044311523438, 66.47283935546875
215,585532032,0.59862804,-0.42170498,-0.55823106,-0.3901122,6.474411964416504,0.8923957347869873,-1.3035744428634644,-11.007911682128906,139.2515869140625, 71.89710235595703
216,585548699,0.6049017,-0.4261015,-0.54346156,-0.39646095,5.543102264404297,1.2921723127365112,-7.023138046264648,-63.2393684387207,89.89968872070312, 50.21572494506836
217,585565366,0.6068744,-0.43031514,-0.5377269,-0.39671457,6.282649517059326,-4.574774265289307,-12.54229736328125,-27.66130256652832,19.269254684448242, 36.76902770996094
218,585582033,0.60296106,-0.435423,-0.5393435,-0.39490956,7.2651824951171875,3.189145565032959,-13.218759536743164,-21.080286026000977,-41.0352668762207, 10.676461219787598
219,585598700,0.5919389,-0.4453054,-0.54477483,-0.39310533,8.132747650146484,-0.7964152097702026,-0.014826133847236633,-51.74093246459961,-95.5050048828125, -2.12660813331604
220,585615367,0.58287615,-0.4526883,-0.5531901,-0.3864058,6.955926895141602,-1.4048693180084229,6.661470413208008,-9.163543701171875,-108.53621673583984, 4.597537517547607
221,585632034,0.57397527,-0.45923522,-0.5640318,-0.37619627,8.913511276245117,-4.365867614746094,-1.1936002969741821,14.446090698242188,-126.68286895751953, 8.31955337524414
222,585648701,0.5684798,-0.459228,-0.5783559,-0.3625535,10.07926082611084,-1.4796563386917114,-2.151421070098877,73.37728118896484,-121.06660461425781, -5.904196739196777
223,585665368,0.563267,-0.46105883,-0.5890864,-0.35090232,14.994808197021484,-2.4101674556732178,0.9638316631317139,50.20314407348633,-104.12305450439453, 5.653929710388184
224,585682035,0.55541104,-0.46442416,-0.5990998,-0.3419188,20.20637321472168,-1.0981587171554565,6.199288845062256,23.320327758789062,-107.42272186279297, -2.604525566101074
225,585698702,0.5464524,-0.46631232,-0.6102606,-0.33395326,15.863335609436035,1.5425279140472412,-2.498457670211792,23.895099639892578,-110.05489349365234, -18.78357696533203
226,585715369,0.5393769,-0.4672852,-0.61819744,-0.32946816,10.678587913513184,1.483637809753418,-6.713074684143066,11.395547866821289,-76.78431701660156, -20.88104820251465
227,585732036,0.5371798,-0.46605387,-0.62291205,-0.3259022,11.826395988464355,-1.2175161838531494,-4.2003865242004395,24.09144401550293,-35.933258056640625, -12.128198623657227
228,585748703,0.5399349,-0.4623871,-0.6254083,-0.32176572,13.011280059814453,-1.9184318780899048,-4.309660911560059,46.43375015258789,-2.8184940814971924, -2.245969295501709
229,585765370,0.54577523,-0.4584351,-0.62378776,-0.3207113,13.202818870544434,1.766443133354187,-6.522843360900879,34.941627502441406,36.23227310180664, 4.970374584197998
230,585782037,0.55432796,-0.45428738,-0.61814874,-0.32285562,15.053321838378906,4.002694606781006,-5.583308219909668,21.69595718383789,73.63062286376953, 10.922683715820312
231,585798704,0.5652574,-0.44819614,-0.6108566,-0.32628015,18.496503829956055,4.051002025604248,-2.1956305503845215,27.471744537353516,98.46407318115234, 8.481173515319824
232,585815371,0.5769731,-0.43953016,-0.60404533,-0.33021915,21.10804557800293,3.851067543029785,2.180497407913208,38.84647750854492,107.21424865722656, -3.7761127948760986
233,585832038,0.5882055,-0.42902225,-0.5959446,-0.33882812,21.01479148864746,2.781294584274292,6.76209020614624,22.349262237548828,128.38583374023438, -26.87958335876465
234,585848705,0.6003028,-0.4153355,-0.5828017,-0.3570367,12.854121208190918,-0.0021771714091300964,8.988813400268555,-13.394794464111328,187.64601135253906, -61.636714935302734
235,585865372,0.60080737,-0.41610193,-0.5697701,-0.37583485,5.562954425811768,-5.17915153503418,-2.5631790161132812,-108.3262939453125,106.45809936523438, -34.91785430908203
236,585882039,0.60041654,-0.41481006,-0.56393784,-0.38653186,4.357597351074219,-5.391000747680664,-5.195122718811035,-52.0478630065918,55.45646667480469, -32.67613983154297
237,585898706,0.5961585,-0.41575485,-0.56021565,-0.39736816,3.8403639793395996,1.307626724243164,-4.76681661605835,-67.2274398803711,26.450258255004883, -41.123741149902344
238,585915373,0.58338255,-0.4273611,-0.5491795,-0.41884258,2.5480446815490723,-1.0025596618652344,1.519696831703186,-196.24586486816406,25.1031436920166, -45.97921371459961
239,585932040,0.58035004,-0.43214807,-0.538101,-0.4323068,0.30357956886291504,-3.35553240776062,4.357126712799072,-110.12385559082031,58.07273483276367, -11.482650756835938
240,585948707,0.585638,-0.43202087,-0.5265323,-0.43948826,0.5641691088676453,-2.421241283416748,2.699406147003174,-44.01840591430664,86.55304718017578, 21.413650512695312
241,585965374,0.59068334,-0.43150428,-0.5156691,-0.44607502,0.8187857270240784,-2.916469097137451,-1.2005479335784912,-38.89964294433594,82.1302490234375, 19.4417781829834
242,585982041,0.5930267,-0.43149906,-0.50971186,-0.4498017,2.872244119644165,-2.778306722640991,-7.959862232208252,-23.80059051513672,42.64011764526367, 9.889705657958984
243,585998708,0.59454834,-0.43068537,-0.5108953,-0.44722316,3.1572539806365967,-0.22915706038475037,-12.293057441711426,21.268281936645508,-5.179345607757568, 8.930338859558105
244,586015375,0.591543,-0.43457085,-0.5163546,-0.44113827,3.7468791007995605,-0.37332993745803833,-12.100242614746094,14.14992904663086,-62.82740020751953, 13.198594093322754
245,586032042,0.58545244,-0.4417572,-0.52506363,-0.43174556,4.95178747177124,-1.598494291305542,-1.2367162704467773,13.14733600616455,-106.3476791381836, 19.30583381652832
246,586048709,0.57725954,-0.45108765,-0.5346508,-0.42123634,4.711060523986816,-4.738821029663086,7.749626636505127,4.78019380569458,-127.16786193847656, 22.57257652282715
247,586065376,0.5682628,-0.46091908,-0.54372215,-0.4110928,9.507593154907227,-3.7193548679351807,-1.2492011785507202,-2.5622565746307373,-128.73109436035156, 22.029560089111328
248,586082043,0.55987394,-0.4669481,-0.555738,-0.39957008,15.138652801513672,1.0964299440383911,0.9700115323066711,27.687835693359375,-131.53482055664062, 5.458869457244873
249,586098710,0.55003065,-0.47490776,-0.56487995,-0.3909471,13.1588773727417,4.700453758239746,2.3287787437438965,-3.387009620666504,-122.09920501708984, 7.001159191131592
250,586115377,0.53824717,-0.4854048,-0.5728243,-0.38281158,14.534307479858398,2.808561086654663,4.920978546142578,-24.423982620239258,-130.4891357421875, 13.955487251281738
251,586132044,0.5325599,-0.48954356,-0.58198553,-0.37151042,13.306163787841797,2.36387300491333,-5.797880172729492,35.13182067871094,-105.09770965576172, 12.773529052734375
252,586148711,0.53320366,-0.48925254,-0.5868449,-0.3632341,16.343477249145508,0.5970891714096069,-4.84730339050293,49.616249084472656,-42.34856033325195, 14.7682523727417
253,586165378,0.53373957,-0.48988098,-0.58718586,-0.3610425,19.822721481323242,-6.309605121612549,1.4076300859451294,10.075233459472656,-7.958386421203613, 11.184391021728516
254,586182045,0.5361124,-0.48798713,-0.5865132,-0.36118457,20.975223541259766,-2.9473695755004883,0.12548543512821198,13.523636817932129,17.098779678344727, 0.22118526697158813
255,586198712,0.5398254,-0.48297113,-0.58487487,-0.36503264,20.64859390258789,1.0986419916152954,-1.6947399377822876,12.159059524536133,46.09636306762695, -19.501171112060547
256,586215379,0.5476103,-0.47355753,-0.58347166,-0.3680044,19.918781280517578,2.899625062942505,0.08130728453397751,46.12830352783203,69.65939331054688, -24.367883682250977
257,586232046,0.55470467,-0.467055,-0.57921726,-0.37238407,19.070844650268555,3.953498601913452,3.019078016281128,20.066116333007812,74.72371673583984, -10.261768341064453
258,586248713,0.5600278,-0.46370423,-0.57005644,-0.3826007,16.684566497802734,4.0959062576293945,4.2895379066467285,-33.45486068725586,96.83427429199219, -8.530396461486816
259,586265380,0.56699586,-0.45787603,-0.5551854,-0.40079224,12.255833625793457,0.19036154448986053,6.53340482711792,-64.98634338378906,156.96771240234375, -26.214141845703125
260,586282047,0.5719073,-0.45325333,-0.540004,-0.4193797,2.3533077239990234,-3.1408884525299072,-2.4128270149230957,-78.5802993774414,147.9384765625, -27.84000587463379
261,586298714,0.5771471,-0.44510975,-0.53368753,-0.42890146,6.512324810028076,-4.9867844581604,-4.722027778625488,-4.506372451782227,96.2933578491211, -32.08647537231445
262,586315381,0.57931954,-0.43941045,-0.5310554,-0.43507192,5.4117913246154785,-3.411648988723755,-6.784228801727295,-0.4191829562187195,53.16562271118164, -30.333595275878906
263,586332048,0.57515323,-0.43869686,-0.53002954,-0.4425073,4.270731449127197,1.7303060293197632,-8.685871124267578,-39.22556686401367,12.826498985290527, -41.1126594543457
264,586348715,0.5704793,-0.44047672,-0.5296433,-0.44722688,2.896003007888794,-3.595475912094116,-3.639296770095825,-38.757545471191406,-6.9707159996032715, -24.68203353881836
265,586365382,0.57409835,-0.43664438,-0.5335093,-0.44172493,1.4414575099945068,-3.9234366416931152,-0.43391916155815125,58.67520523071289,-6.9907402992248535, 7.450026512145996
266,586382049,0.58057386,-0.43190056,-0.53691846,-0.43372178,-0.9364809393882751,-1.586151361465454,2.238280773162842,78.6465072631836,0.5763826966285706, 23.863121032714844
267,586398716,0.58273035,-0.43268633,-0.53682846,-0.4301435,-0.1947031021118164,-3.3542323112487793,-0.6528027057647705,16.975465774536133,-4.838983535766602, 24.054235458374023
268,586415383,0.58431524,-0.4324497,-0.53906703,-0.42540535,0.33587175607681274,-2.1155412197113037,-2.6243491172790527,30.547775268554688,-16.678115844726562, 16.174213409423828
269,586432050,0.58421135,-0.43200207,-0.5440727,-0.41959068,2.488724708557129,0.6581066846847534,-2.8314294815063477,38.464324951171875,-36.53200149536133, 6.467686653137207
270,586448717,0.57981324,-0.44010067,-0.5487598,-0.41108513,7.498186111450195,-4.9970197677612305,-13.13976001739502,0.5365188121795654,-83.85234832763672, 37.83531951904297
271,586465384,0.5735335,-0.44805366,-0.5583212,-0.39822713,7.696455955505371,-2.348188877105713,-0.30438941717147827,25.657567977905273,-122.62401580810547, 34.39595031738281
272,586482051,0.56566477,-0.4562781,-0.5669326,-0.3878417,8.396073341369629,-3.6924688816070557,3.007049083709717,7.594030857086182,-118.1034927368164, 24.1884708404541
273,586498718,0.5571061,-0.46326262,-0.57700086,-0.37694928,14.574888229370117,-3.678689956665039,3.528223991394043,16.085845947265625,-124.88336944580078, 14.796674728393555
274,586515385,0.5532657,-0.46426317,-0.59086865,-0.35948753,15.418169975280762,-0.25764307379722595,4.046395778656006,89.91202545166016,-126.33174133300781, 16.24489402770996
275,586532052,0.5508751,-0.45935416,-0.6085301,-0.33944315,17.822771072387695,4.988224029541016,1.4336175918579102,136.86227416992188,-128.7589111328125, -6.429025173187256
276,586548719,0.5476926,-0.45512524,-0.6238641,-0.32200587,16.396575927734375,3.5901436805725098,-0.10137121379375458,115.45624542236328,-116.77535247802734, -7.703638076782227
277,586565386,0.5439644,-0.4540887,-0.6335029,-0.3107741,16.996402740478516,1.3458114862442017,-1.7013683319091797,62.521114349365234,-85.42546081542969, -0.5701612234115601
278,586582053,0.54168576,-0.45415083,-0.6381602,-0.30508232,14.615754127502441,1.0061458349227905,-5.636152744293213,28.17840003967285,-45.59911346435547, 2.259453773498535
279,586598720,0.5431601,-0.45084402,-0.6406868,-0.3020554,12.936534881591797,1.708965539932251,-6.641880512237549,36.31503677368164,-5.723378658294678, -7.828996181488037
280,586615387,0.54904515,-0.44333857,-0.6412848,-0.30125463,15.598470687866211,1.4101654291152954,-3.72070050239563,51.89500427246094,36.662052154541016, -19.388540267944336
281,586632054,0.56006724,-0.43119386,-0.6399512,-0.30142847,18.517921447753906,-0.3828713595867157,-1.1028923988342285,76.78732299804688,79.1956787109375, -26.88876724243164
282,586648721,0.5692643,-0.42399558,-0.63327795,-0.30842373,18.164459228515625,0.4200049042701721,1.3317806720733643,11.234101295471191,101.60128784179688, -19.294565200805664
283,586665388,0.5738376,-0.42554182,-0.62043154,-0.32355738,15.94877815246582,1.5351502895355225,1.634490728378296,-85.02050018310547,110.64002990722656, -4.812213897705078
284,586682055,0.58242863,-0.42218375,-0.6058257,-0.33987245,13.912643432617188,0.729676365852356,2.116286277770996,-62.894622802734375,148.93260192871094, -16.215652465820312
285,586698722,0.5895033,-0.41886523,-0.59197444,-0.35581487,7.047162055969238,1.2467496395111084,1.2881271839141846,-64.17100524902344,138.27346801757812, -20.242290496826172
286,586715389,0.59088343,-0.4230595,-0.57774365,-0.37160465,7.798276424407959,-0.7377660274505615,-4.282022953033447,-111.35161590576172,97.73258209228516, -1.8421566486358643
287,586732056,0.5906655,-0.42557603,-0.56847197,-0.38319594,5.004872798919678,-0.1321260929107666,-8.146768569946289,-79.83686065673828,63.43927001953125, -9.981457710266113
288,586748723,0.5880722,-0.42827767,-0.5633638,-0.39162573,3.5198705196380615,-0.49331721663475037,-8.090746879577637,-64.20005798339844,27.789897918701172, -14.856361389160156
289,586765390,0.5804183,-0.43488222,-0.5603443,-0.40000847,3.6577043533325195,0.3990113139152527,-7.790734767913818,-89.05819702148438,-10.626923561096191, -19.334104537963867
290,586782057,0.5705339,-0.4434288,-0.559801,-0.40556756,1.7511855363845825,-1.3916893005371094,-4.454503059387207,-85.76901245117188,-42.627017974853516, -14.091856956481934
291,586798724,0.5608503,-0.4523972,-0.56140697,-0.40694717,1.9276807308197021,-2.7959351539611816,-3.026568651199341,-64.71113586425781,-64.0629653930664, -2.105438470840454
292,586815391,0.5528037,-0.4593891,-0.56529117,-0.40474144,1.5740095376968384,-2.0918502807617188,-1.132203459739685,-31.77161979675293,-72.0582275390625, 1.4914281368255615
293,586832058,0.54525477,-0.46563286,-0.5699798,-0.40125594,1.187513828277588,-1.9265637397766113,1.2780482769012451,-20.133499145507812,-75.1135025024414, 2.218395471572876
294,586848725,0.5352055,-0.47378504,-0.5725905,-0.40152588,1.1248596906661987,2.2096376419067383,3.2652711868286133,-55.74254608154297,-70.424560546875, -4.694596290588379
295,586865392,0.52489424,-0.4859108,-0.57162076,-0.402028,3.3378384113311768,-6.453001976013184,1.9970383644104004,-82.00772094726562,-68.63211059570312, 21.113887786865234
296,586882059,0.517125,-0.49512532,-0.5754637,-0.39531544,7.567173004150391,-6.275022983551025,-12.272431373596191,-21.366966247558594,-92.15448760986328, 26.435514450073242
297,586898726,0.5120311,-0.49983284,-0.5841469,-0.38309783,9.078697204589844,-3.967463731765747,-1.1183311939239502,38.70642852783203,-104.8848876953125, 18.770532608032227
298,586915393,0.50656503,-0.50439894,-0.5924498,-0.37145242,12.778477668762207,-6.777953624725342,2.1603198051452637,34.60824966430664,-102.72405242919922, 16.387588500976562
299,586932060,0.50105786,-0.5084462,-0.6020041,-0.3577912,15.672470092773438,-4.449066162109375,3.7127645015716553,47.62595748901367,-113.08525085449219, 16.643306732177734
300,586948727,0.49922192,-0.50786597,-0.6137796,-0.34077013,17.305644989013672,6.335934162139893,-2.2363457679748535,95.72126007080078,-106.16349792480469, 10.217011451721191
301,586965394,0.49801752,-0.50512856,-0.6250865,-0.32571563,16.68233299255371,4.82439661026001,-0.7925125360488892,95.9851303100586,-90.05572509765625, -2.264838933944702
302,586982061,0.49701744,-0.50329334,-0.6341249,-0.31233844,19.237258911132812,0.15451328456401825,0.29269635677337646,81.35903930664062,-77.7413330078125, 4.412093639373779
303,586998728,0.49404868,-0.5045935,-0.6381133,-0.30677855,16.342342376708984,-0.18516995012760162,-3.1972334384918213,13.108882904052734,-48.28995132446289, 6.876578330993652
304,587015395,0.49244377,-0.50606376,-0.63833916,-0.30646697,12.645495414733887,0.4481373429298401,-6.5846848487854,-13.216296195983887,-11.792791366577148, 5.643770694732666
305,587032062,0.49503407,-0.5036917,-0.6378361,-0.3072477,12.79113483428955,0.6096614599227905,-6.1276373863220215,8.354512214660645,21.02133560180664, -3.597489595413208
306,587048729,0.5032545,-0.49490756,-0.63839173,-0.30701405,13.165265083312988,-0.14496590197086334,-6.098380088806152,56.51042556762695,52.180870056152344, -20.090368270874023
307,587065396,0.5138041,-0.48476276,-0.63688034,-0.30885917,14.141313552856445,-1.8996620178222656,-2.82403826713562,55.42530822753906,79.58611297607422, -21.297393798828125
308,587082063,0.52134,-0.48094136,-0.6294276,-0.3173661,16.23908805847168,-1.8972349166870117,0.13466297090053558,-13.675416946411133,95.5266342163086, -5.530566215515137
309,587098730,0.5269731,-0.48060608,-0.6181067,-0.33054706,17.36342430114746,-2.0579516887664795,2.267822742462158,-61.16304016113281,108.8589859008789, 1.4291967153549194
310,587115397,0.5346053,-0.47892383,-0.6027972,-0.34851807,15.12525749206543,-0.14837968349456787,2.2630527019500732,-79.1390151977539,150.4920196533203, -3.952186107635498
311,587132064,0.54037005,-0.47935557,-0.58192855,-0.37360144,6.378657817840576,-1.5712682008743286,3.4448554515838623,-135.8990936279297,181.3783721923828, -7.487295150756836
312,587148731,0.5385135,-0.48300114,-0.56818753,-0.39227062,4.574994087219238,-2.5779855251312256,-8.286240577697754,-128.99783325195312,94.83993530273438, -13.934616088867188
313,587165398,0.539967,-0.48008174,-0.5636446,-0.4003274,4.5310845375061035,-4.051737308502197,-7.469491958618164,-27.410533905029297,56.424034118652344, -21.98563003540039
314,587182065,0.54259205,-0.47571337,-0.5622616,-0.40392175,4.145290851593018,-3.0052220821380615,-5.786818981170654,7.838106632232666,38.720680236816406, -18.357471466064453
315,587198732,0.5438703,-0.47446766,-0.55880237,-0.40844303,3.220649242401123,-0.2705013155937195,-3.0280985832214355,-17.55585289001465,35.79535675048828, -6.778029918670654
316,587215399,0.5416813,-0.4785495,-0.5507113,-0.41747946,-1.101597547531128,3.4363853931427,3.3290109634399414,-79.13821411132812,39.65312576293945, 2.179720163345337
317,587232066,0.5423799,-0.48293528,-0.54385054,-0.4205047,1.005915880203247,-2.1858086585998535,-3.1071560382843018,-44.48134231567383,25.247358322143555, 30.061206817626953
318,587248733,0.54500246,-0.4836255,-0.5426991,-0.41779953,0.44065359234809875,0.01838371530175209,-3.0959908962249756,13.627626419067383,2.906172275543213, 24.151607513427734
319,587265400,0.5459276,-0.48126942,-0.5468916,-0.41382653,2.8756933212280273,5.174515247344971,-3.2127673625946045,39.487789154052734,-18.82177734375, -5.107834815979004
320,587282067,0.54408276,-0.4821423,-0.55254096,-0.40769023,4.620703220367432,-1.278586745262146,-5.581994533538818,30.492916107177734,-50.95716094970703, 2.6190268993377686
321,587298734,0.5391259,-0.48673636,-0.5592696,-0.39956057,8.793909072875977,-2.4077441692352295,-2.8741655349731445,16.870777130126953,-83.6951675415039, 11.879525184631348
322,587315401,0.53339505,-0.490913,-0.5680178,-0.38967952,8.499035835266113,-4.1824541091918945,-2.337073564529419,28.118375778198242,-98.8125228881836, 7.8227386474609375
323,587332068,0.5281433,-0.49353686,-0.5782271,-0.37833792,11.703126907348633,-3.699681282043457,0.5324790477752686,45.04514694213867,-103.03236389160156, 3.3539085388183594
324,587348735,0.52029896,-0.49840513,-0.5876491,-0.36817145,12.315024375915527,-3.9537203311920166,5.1994547843933105,21.359704971313477,-112.40433502197266, 3.8491578102111816
325,587365402,0.5138663,-0.5012828,-0.59923166,-0.35437045,14.524659156799316,-6.393631935119629,0.4992985129356384,53.43545150756836,-122.07310485839844, 4.8892645835876465
326,587382069,0.51558244,-0.49533585,-0.6142207,-0.33399126,13.500105857849121,-1.4100627899169922,-3.874274969100952,148.0703582763672,-101.82589721679688, -0.2642506957054138
327,587398736,0.51748717,-0.48816034,-0.6277163,-0.3160362,12.272540092468262,2.2455079555511475,-4.5824294090271,139.38888549804688,-84.65271759033203, -8.524823188781738
328,587415403,0.5158252,-0.48589388,-0.63520765,-0.3071532,13.358601570129395,1.4595297574996948,-2.9977283477783203,57.762916564941406,-58.864933013916016, -7.105210781097412
329,587432070,0.5153477,-0.48456523,-0.63735837,-0.3055943,14.707130432128906,1.9301612377166748,-5.228172302246094,15.143821716308594,-12.288762092590332, -8.551697731018066
330,587448737,0.5175839,-0.4817946,-0.6366644,-0.3076353,16.663257598876953,2.75532603263855,-4.7716522216796875,7.569310665130615,24.728626251220703, -12.340554237365723
331,587465404,0.5217278,-0.4791288,-0.63312185,-0.31207803,18.10987091064453,2.887760639190674,-2.9530653953552246,-2.994971990585327,50.946712493896484, -6.822275161743164
332,587482071,0.52744085,-0.4761953,-0.6280593,-0.3171525,18.522932052612305,2.6723597049713135,-3.107435941696167,-2.8588438034057617,65.82271575927734, -1.7407296895980835
333,587498738,0.5340775,-0.47143006,-0.62405425,-0.32104728,18.735862731933594,1.7181622982025146,-0.6087009906768799,14.22019100189209,66.05876159667969, -6.688033103942871
334,587515405,0.5406964,-0.46612534,-0.6191639,-0.32712525,18.7120418548584,0.09234743565320969,2.582808256149292,4.816834926605225,77.39115905761719, -14.086984634399414
335,587532072,0.55263335,-0.45614284,-0.60704476,-0.34355047,19.658754348754883,-0.1532822698354721,7.500494003295898,-21.085350036621094,170.4141845703125, -37.292396545410156
336,587548739,0.55234754,-0.45782143,-0.59126884,-0.36839256,2.942692995071411,-1.99503755569458,-1.5807150602340698,-147.54916381835938,131.82374572753906, -37.98657989501953
337,587565406,0.552885,-0.45804605,-0.58133906,-0.38282758,5.85500431060791,-6.349384784698486,-7.587034702301025,-82.31766510009766,83.90599822998047, -20.765323638916016
338,587582073,0.5555506,-0.45451897,-0.5767043,-0.39011315,2.897840738296509,-3.7987277507781982,-6.040187358856201,-18.83307456970215,59.8431396484375, -19.836837768554688
339,587598740,0.55787,-0.45182994,-0.5733365,-0.3948622,3.8568801879882812,-1.7751864194869995,-4.698481559753418,-9.652090072631836,43.625972747802734, -11.818570137023926
340,587615407,0.5588177,-0.45181894,-0.56831604,-0.4007486,2.9602086544036865,-0.767745316028595,-1.2997326850891113,-33.149269104003906,40.948760986328125, -4.2601118087768555
341,587632074,0.56686676,-0.44667217,-0.5672986,-0.39663398,0.7234042882919312,-2.965871572494507,1.174254059791565,58.75190734863281,36.434139251708984, 21.2113094329834
342,587648741,0.5757638,-0.44154862,-0.5680696,-0.38836592,-1.0224074125289917,-3.396991014480591,-0.5970445275306702,82.3446273803711,19.921239852905273, 34.22859573364258
343,587665408,0.58439523,-0.43411714,-0.57250345,-0.37717968,1.8227421045303345,-0.05834231525659561,-2.183016777038574,111.85791015625,1.7049435377120972, 24.844003677368164
344,587682075,0.58561146,-0.43261433,-0.57617885,-0.3713787,1.9338942766189575,2.2675485610961914,-3.2669448852539062,42.74369812011719,-23.677623748779297, 9.58071231842041
345,587698742,0.5805466,-0.4361322,-0.5801974,-0.36895177,2.8450541496276855,1.5521515607833862,-4.6848530769348145,-8.644526481628418,-52.6368293762207, -1.1043154001235962
346,587715409,0.57131827,-0.44339967,-0.5835038,-0.36948016,2.453510284423828,0.7697793245315552,0.7910019159317017,-49.684505462646484,-66.93035125732422, -6.317040920257568
347,587732076,0.565835,-0.44777468,-0.59046465,-0.36149734,6.506472587585449,-5.71574592590332,-11.868186950683594,16.527124404907227,-84.88863372802734, 13.910038948059082
348,587748743,0.5588898,-0.45146552,-0.6001582,-0.3516122,11.030255317687988,-0.7924132943153381,-4.5933380126953125,29.22395133972168,-105.3067855834961, 6.344655513763428
349,587765410,0.5547072,-0.4521964,-0.61090624,-0.3385438,10.996147155761719,-2.4233670234680176,3.1366348266601562,64.866943359375,-100.60087585449219, 9.76565170288086
350,587782077,0.546948,-0.45570314,-0.62181693,-0.32638377,16.37139129638672,-5.993072509765625,7.346413612365723,39.70613479614258,-120.01616668701172, 9.083039283752441
351,587798744,0.54232526,-0.4546058,-0.636609,-0.30650598,19.565563201904297,0.8782278299331665,-1.0946860313415527,108.51966857910156,-135.33822631835938, 13.174137115478516
352,587815411,0.53582925,-0.45420182,-0.64846605,-0.29339328,18.672388076782227,3.1009645462036133,-0.5171144604682922,64.27104187011719,-112.98794555664062, -3.713794231414795
353,587832078,0.53059626,-0.45262566,-0.6592292,-0.2810953,15.358851432800293,-2.1904232501983643,-1.102897047996521,66.70449829101562,-98.52432250976562, -5.840601921081543
354,587848745,0.5266107,-0.45293027,-0.66530555,-0.27368584,10.73691463470459,0.07814393937587738,-6.065497875213623,32.498291015625,-64.27130126953125, 1.8360353708267212
355,587865412,0.5251004,-0.45503926,-0.66562843,-0.27230078,9.823295593261719,0.43843740224838257,-8.04781723022461,-4.6990790367126465,-16.677772521972656, 10.889542579650879
356,587882079,0.52794176,-0.45439762,-0.6642057,-0.27135053,12.50750732421875,2.2447423934936523,-6.474002838134766,13.610621452331543,16.173765182495117, 10.384029388427734
357,587898746,0.5349179,-0.44883248,-0.6631901,-0.26942772,14.802953720092773,1.6791698932647705,-5.631406784057617,43.661705017089844,40.60254669189453, 0.04891446605324745
358,587915413,0.5439808,-0.44067034,-0.6613963,-0.2691646,16.60954475402832,0.3854312300682068,-3.506291389465332,56.60981369018555,62.129756927490234, -13.615301132202148
359,587932080,0.55282134,-0.43512705,-0.65493053,-0.2758968,18.54445457458496,0.8440114259719849,-0.8821648359298706,5.683457374572754,94.91185760498047, -14.063380241394043
360,587948747,0.5601944,-0.43479273,-0.6423719,-0.29068172,19.296855926513672,2.364379644393921,1.6581132411956787,-66.33708190917969,125.57413482666016, -5.694543838500977
361,587965414,0.5676075,-0.4357665,-0.6261836,-0.30955356,16.98396110534668,3.7343852519989014,2.274179458618164,-96.58832550048828,149.17855834960938, -4.618561744689941
362,587982081,0.5828115,-0.42644355,-0.6073492,-0.33106476,13.282292366027832,1.9060554504394531,3.85888409614563,-50.09324645996094,222.74429321289062, -34.616424560546875
363,587998748,0.58831364,-0.42661792,-0.5893908,-0.35284954,1.788403868675232,-2.31723952293396,-1.8276598453521729,-115.78215789794922,157.72853088378906, -20.644550323486328
364,588015415,0.59046054,-0.42786378,-0.57628626,-0.36903015,6.140103816986084,-4.464439868927002,-6.2635579109191895,-95.48580932617188,105.4783935546875, -16.0859375
365,588032082,0.5918614,-0.42681518,-0.5689713,-0.3792106,4.66611385345459,-4.737419605255127,-7.514849662780762,-49.89086151123047,67.3305892944336, -19.854034423828125
366,588048749,0.5918524,-0.42615563,-0.5651378,-0.3856443,4.065425395965576,-2.036275625228882,-8.900228500366211,-31.858266830444336,35.824546813964844, -17.090524673461914
367,588065416,0.5871939,-0.42948306,-0.56235296,-0.39307413,5.184861660003662,-1.0987608432769775,-7.636107444763184,-62.7794303894043,6.057504177093506, -21.095075607299805
368,588082083,0.58174884,-0.43354374,-0.5610721,-0.39850542,-1.1752487421035767,1.4664716720581055,0.7807838916778564,-56.25676727294922,-10.75512409210205, -16.771148681640625
369,588098750,0.5756701,-0.44008118,-0.5600442,-0.4016006,0.2768169343471527,-3.0851502418518066,-3.3524742126464844,-58.35380935668945,-27.9898681640625, -0.3280906677246094
370,588115417,0.5721401,-0.44304943,-0.562805,-0.39951673,1.2789536714553833,-1.3765356540679932,-2.3097054958343506,-6.091501712799072,-38.90806579589844, 1.9263993501663208
371,588132084,0.56702495,-0.44726005,-0.5665282,-0.39684638,1.428746223449707,-0.5034411549568176,-1.859149694442749,-10.887228012084961,-53.97433853149414, 1.7225041389465332
372,588148751,0.56181437,-0.45086643,-0.57166785,-0.39278507,1.6412310600280762,0.49859797954559326,0.13739067316055298,0.4663688540458679,-62.45792770385742, 0.16367381811141968
373,588165418,0.55398023,-0.45843056,-0.5742827,-0.39133987,3.1484248638153076,0.013011271134018898,1.027108907699585,-40.052490234375,-65.6071548461914, 6.369863986968994
374,588182085,0.5466386,-0.466531,-0.57752204,-0.3873027,6.907319068908691,-1.0961153507232666,-5.386448383331299,-28.625946044921875,-75.6911849975586, 17.722322463989258
375,588198752,0.53612834,-0.47645056,-0.58208036,-0.3830715,13.38929271697998,-4.830483436584473,-2.505194664001465,-41.33158493041992,-98.59078979492188, 12.99414348602295
376,588215419,0.5266637,-0.4836459,-0.58835995,-0.37755123,12.037568092346191,-1.6268658638000488,4.110559463500977,-18.162395477294922,-97.78153991699219, 3.863304853439331
377,588232086,0.5198342,-0.4877917,-0.596621,-0.36861244,15.910540580749512,-4.611879825592041,4.638561248779297,20.60921287536621,-97.8929214477539, 4.131659984588623
378,588248753,0.5139478,-0.49245235,-0.6046095,-0.35748562,16.981266021728516,-2.294872522354126,0.6918743848800659,30.19993782043457,-101.87136840820312, 17.277423858642578
379,588265420,0.51015043,-0.49299523,-0.6135922,-0.3467089,18.202823638916016,4.572907447814941,-0.7917532324790955,52.79881286621094,-85.49200439453125, 0.6631555557250977
380,588282087,0.50709,-0.49242237,-0.62198764,-0.33691496,15.7595796585083,1.667464017868042,-1.8432865142822266,53.67446517944336,-74.41219329833984, -3.6029560565948486
381,588298754,0.50464076,-0.4941327,-0.6255999,-0.3313543,13.130414962768555,0.560328483581543,-4.333562850952148,18.60622215270996,-46.12652587890625, 9.079225540161133
382,588315421,0.50683933,-0.49300122,-0.6258259,-0.32925063,12.826569557189941,0.5661113262176514,-6.814662933349609,21.67918586730957,3.850614070892334, 6.992747783660889
383,588332088,0.5118075,-0.49133527,-0.6219411,-0.3314095,15.397268295288086,-4.14170503616333,-3.0952696800231934,5.292482376098633,45.82373809814453, 10.082067489624023
384,588348755,0.520119,-0.4860401,-0.61734766,-0.33484814,17.666946411132812,-6.270073890686035,-1.4839683771133423,22.25659942626953,75.18305206298828, 0.005487638525664806
385,588365422,0.52930313,-0.47835156,-0.61311203,-0.3392811,19.22523307800293,-4.214570999145508,0.7599806785583496,30.3151912689209,86.3754653930664, -13.005060195922852
386,588382089,0.537063,-0.4715993,-0.6087029,-0.34443894,19.254812240600586,-2.0376510620117188,2.907430648803711,18.748165130615234,81.08837890625, -14.505693435668945
387,588398756,0.5438914,-0.46581915,-0.60267323,-0.35210788,15.439961433410645,2.649899482727051,2.5356333255767822,-2.2202491760253906,88.86392211914062, -16.671798706054688
388,588415423,0.5530127,-0.45708722,-0.59374726,-0.36429733,10.963371276855469,0.698596715927124,4.92841100692749,-9.59216022491455,130.71014404296875, -30.893783569335938
389,588432090,0.55481374,-0.4592767,-0.5779521,-0.38369033,1.874370813369751,-2.4202239513397217,-4.634042739868164,-120.7550277709961,122.08949279785156, -10.426426887512207
390,588448757,0.5589685,-0.4550115,-0.5705227,-0.39372927,6.508709907531738,-2.0350863933563232,-10.54425048828125,-29.442428588867188,87.11598205566406, -20.663604736328125
391,588465424,0.56466067,-0.44745663,-0.56895995,-0.396517,4.260519027709961,0.281030535697937,-8.022193908691406,32.3532600402832,57.04867935180664, -19.92511558532715
392,588482091,0.5687202,-0.44227415,-0.56894773,-0.39654705,4.024322032928467,0.9555413722991943,-6.998287677764893,33.142364501953125,29.866859436035156, -9.14426040649414
393,588498758,0.5691418,-0.44142476,-0.5689755,-0.3968483,2.8170108795166016,2.1334104537963867,-4.257113933563232,4.192614555358887,4.642706871032715, -3.267259120941162
394,588515425,0.56631005,-0.44473398,-0.5684417,-0.39796832,0.6141662001609802,0.23625434935092926,-2.755919933319092,-26.689414978027344,-14.658119201660156, 2.677886962890625
395,588532092,0.5632765,-0.44848886,-0.5690563,-0.39718056,-0.017673255875706673,-1.6585280895233154,-1.5391600131988525,-18.441741943359375,-26.914060592651367, 7.79139518737793
396,588548759,0.55940855,-0.4521134,-0.57039875,-0.39661193,0.23284365236759186,-0.1511271893978119,-0.6847626566886902,-19.371644973754883,-31.934389114379883, 1.873584508895874
397,588565426,0.5554869,-0.45513445,-0.57176846,-0.3966964,1.3815727233886719,0.3995116353034973,0.04081554338335991,-19.702909469604492,-28.56243324279785, -3.23806095123291
398,588582093,0.55249906,-0.46017176,-0.57235795,-0.39419952,3.5473995208740234,-3.0260491371154785,-4.015622138977051,-16.461904525756836,-35.494693756103516, 19.546125411987305
399,588598760,0.5483263,-0.46590516,-0.57677263,-0.38678718,9.863595962524414,-5.554718017578125,-8.784221649169922,6.869142055511475,-72.04994201660156, 25.582101821899414
400,588615427,0.5410969,-0.47342587,-0.5819775,-0.37997973,9.234930038452148,-6.829422473907471,3.507368326187134,-9.936195373535156,-89.79949951171875, 19.622779846191406
401,588632094,0.5358079,-0.47723928,-0.59071183,-0.36906946,12.633150100708008,-4.786068439483643,4.415956974029541,35.80487823486328,-98.93972778320312, 13.49379825592041
402,588648761,0.5296825,-0.48036987,-0.601443,-0.3562971,14.31558895111084,-1.231041431427002,3.5091922283172607,48.19162368774414,-114.21112060546875, 8.8173246383667
403,588665428,0.5239631,-0.48145962,-0.61313134,-0.34311718,16.914220809936523,5.117793560028076,1.6115593910217285,60.97586441040039,-112.4983139038086, -0.30812573432922363
404,588682095,0.5182639,-0.4800289,-0.6256012,-0.33105668,15.159947395324707,5.482743263244629,0.152326762676239,67.23895263671875,-105.68621063232422, -17.36355972290039
405,588698762,0.51515144,-0.47643062,-0.6379943,-0.3171689,12.337488174438477,1.557325005531311,-4.6105451583862305,91.18815612792969,-95.4609603881836, -13.8861722946167
406,588715429,0.51299584,-0.4740824,-0.6457568,-0.3083498,10.843670845031738,0.39220571517944336,-5.992316246032715,57.56855773925781,-60.9527473449707, -9.042994499206543
407,588732096,0.5124099,-0.4730936,-0.6486364,-0.30477774,11.008733749389648,-1.339203119277954,-5.009823799133301,24.248462677001953,-22.481029510498047, -2.240018606185913
408,588748763,0.51227605,-0.47383457,-0.6472462,-0.30680034,13.679228782653809,0.2693319022655487,-2.0577104091644287,-14.270886421203613,9.183960914611816, 0.5928769707679749
409,588765430,0.51119334,-0.4778491,-0.6411486,-0.3150715,15.38036823272705,1.909964919090271,-2.5860116481781006,-66.6296615600586,34.950653076171875, 6.518017768859863
410,588782097,0.5115248,-0.48220497,-0.632228,-0.3257433,15.379642486572266,3.436983108520508,-4.150361061096191,-79.88043212890625,58.21206283569336, 11.991111755371094
411,588798764,0.51338553,-0.48692352,-0.6202773,-0.33852154,15.96576976776123,2.980834722518921,-3.062704563140869,-92.02824401855469,81.67964935302734, 19.729074478149414
412,588815431,0.5174327,-0.49014795,-0.60689294,-0.35170937,15.780112266540527,0.47584909200668335,-2.5234968662261963,-84.5233383178711,100.88253021240234, 21.885128021240234
413,588832098,0.5264866,-0.4877353,-0.59575194,-0.3605637,17.421031951904297,-1.9018408060073853,0.6138673424720764,-24.100400924682617,112.78972625732422, 18.35928726196289
414,588848765,0.5381705,-0.48097286,-0.58717346,-0.36642185,16.18330192565918,-1.9553922414779663,2.6863908767700195,19.07256317138672,114.94014739990234, 9.299362182617188
415,588865432,0.5467275,-0.47462294,-0.57794684,-0.37656304,12.078154563903809,-0.4416482448577881,3.2635388374328613,-11.740676879882812,117.73240661621094, -10.63654899597168
416,588882099,0.55491096,-0.46660876,-0.5669446,-0.3910549,7.8597893714904785,-3.366941213607788,5.445294380187988,-28.61176872253418,141.33702087402344, -28.774818420410156
417,588898766,0.55548245,-0.46773142,-0.5520544,-0.40975916,3.7293460369110107,-5.086359024047852,-5.5123114585876465,-114.7810287475586,115.32076263427734, -17.298721313476562
418,588915433,0.5574923,-0.46426278,-0.54565525,-0.41943145,7.220013618469238,-2.9688186645507812,-11.130867958068848,-34.39383316040039,72.33968353271484, -23.59170913696289
419,588932100,0.5610057,-0.4585408,-0.5452674,-0.42154062,3.8203630447387695,-4.119239330291748,-7.939553260803223,24.777820587158203,37.51384353637695, -17.95812225341797
420,588948767,0.5615889,-0.4564587,-0.5466688,-0.4212088,4.370798587799072,-1.2657032012939453,-7.9676737785339355,15.861891746520996,1.5402790307998657, -9.107117652893066
421,588965434,0.56169945,-0.45566025,-0.550504,-0.41690874,2.666039228439331,-1.1131519079208374,-3.860307216644287,31.400794982910156,-25.648386001586914, 2.0128560066223145
422,588982101,0.5625052,-0.45511615,-0.55566067,-0.40951025,0.1001594290137291,-0.4614029824733734,0.4163041412830353,48.12291717529297,-38.48373031616211, 12.773198127746582
423,588998768,0.5611108,-0.45643836,-0.55929697,-0.40497634,-0.5847301483154297,0.9589376449584961,0.7389398813247681,18.79468536376953,-37.31016540527344, 7.376227855682373
424,589015435,0.55799276,-0.45923555,-0.5611436,-0.40356535,0.44516313076019287,1.0249086618423462,0.9484392404556274,-9.300030708312988,-31.356473922729492, 1.835444688796997
425,589032102,0.55371255,-0.46336937,-0.56167746,-0.40399227,0.49937307834625244,0.2665436565876007,1.1320751905441284,-28.835159301757812,-28.731481552124023, 0.8826507925987244
426,589048769,0.5494001,-0.46998864,-0.5636639,-0.39944136,5.0752458572387695,-2.346463680267334,-12.149101257324219,-15.147618293762207,-57.17194747924805, 24.721097946166992
427,589065436,0.54195976,-0.47789478,-0.5692553,-0.3922307,9.379659652709961,-3.8598690032958984,-6.351503372192383,-9.881056785583496,-94.81803131103516, 19.47929573059082
428,589082103,0.5357292,-0.4833041,-0.5765504,-0.38340715,8.872968673706055,-2.7690865993499756,2.673089027404785,14.321642875671387,-94.89759826660156, 13.317501068115234
429,589098770,0.53029126,-0.4866792,-0.58550125,-0.37299186,12.542366981506348,-1.4579287767410278,3.21863055229187,35.11970520019531,-97.85807800292969, 7.6586503982543945
430,589115437,0.5263931,-0.48784557,-0.596534,-0.35925522,13.3632173538208,-2.034353494644165,3.9188385009765625,67.02226257324219,-104.80223083496094, 7.845489978790283
431,589132104,0.5274556,-0.4840675,-0.61063063,-0.3385256,16.832393646240234,1.0071265697479248,-0.7890059947967529,137.80520629882812,-106.91835021972656, 14.828810691833496
432,589148771,0.5335166,-0.47211105,-0.6254086,-0.31833217,17.5682430267334,4.775588035583496,-1.8147752285003662,183.43341064453125,-67.63693237304688, -12.041543006896973
433,589165438,0.5381883,-0.46281096,-0.635911,-0.30294698,15.941794395446777,-1.9498000144958496,-0.8817510604858398,139.13067626953125,-48.16818618774414, -7.29299259185791
434,589182105,0.54096776,-0.45758793,-0.6409512,-0.29521015,17.55398941040039,-2.05576753616333,0.21926361322402954,73.19188690185547,-20.435022354125977, -4.332463264465332
435,589198772,0.54339266,-0.4529431,-0.6430953,-0.29324996,15.91782283782959,2.4813666343688965,-3.9656341075897217,38.584163665771484,5.6920671463012695, -14.878778457641602
436,589215439,0.54658073,-0.44938904,-0.6421114,-0.2949438,15.48962116241455,4.317530155181885,-4.067366600036621,14.423914909362793,29.93553352355957, -12.343494415283203
437,589232106,0.5506976,-0.4478291,-0.6369119,-0.3008734,15.894051551818848,1.708988904953003,-3.158828020095825,-17.448564529418945,58.93032455444336, -4.433399677276611
438,589248773,0.55584383,-0.4478649,-0.62743855,-0.31108785,15.218873023986816,-1.052703857421875,-1.9718127250671387,-47.935367584228516,89.50531005859375, 1.6836541891098022
439,589265440,0.5601832,-0.4474056,-0.6184801,-0.32172292,15.434505462646484,-2.5045769214630127,-0.3924260139465332,-49.24923324584961,86.38550567626953, -5.364639759063721
440,589282107,0.5609068,-0.45044172,-0.608274,-0.33539337,15.454042434692383,-3.0129811763763428,1.7776298522949219,-89.51111602783203,77.37421417236328, -6.3752264976501465
441,589298774,0.5601019,-0.4552179,-0.5961839,-0.3516071,13.613015174865723,-2.6406922340393066,1.9261763095855713,-115.94930267333984,82.03244018554688, -6.634609699249268
442,589315441,0.56527156,-0.45362753,-0.58084023,-0.37056026,12.28488826751709,-2.620854377746582,3.6630971431732178,-91.83622741699219,142.95297241210938, -18.69439125061035
443,589332108,0.5670511,-0.45539477,-0.5646058,-0.3902421,2.648764133453369,-2.500807046890259,-0.9127719402313232,-120.64793395996094,126.50353240966797, -14.021860122680664
444,589348775,0.56882644,-0.4548893,-0.55367196,-0.40368268,7.096499443054199,-2.899442434310913,-8.12631893157959,-73.33312225341797,92.38314819335938, -15.173460006713867
445,589365442,0.57203394,-0.45074564,-0.54908985,-0.4100074,6.0898756980896,-0.9376656413078308,-9.319247245788574,-9.886272430419922,60.976226806640625, -17.128379821777344
446,589382109,0.5748745,-0.44751513,-0.5477155,-0.4114093,3.993539333343506,-1.2887696027755737,-8.098023414611816,13.027263641357422,29.309650421142578, -5.30238676071167
447,589398776,0.57641834,-0.4452706,-0.549208,-0.40969098,3.949104070663452,1.1268423795700073,-6.035069465637207,25.01497459411621,0.849415123462677, -1.7629132270812988
448,589415443,0.5777054,-0.4436077,-0.5522764,-0.40553612,0.017367951571941376,2.6309762001037598,0.1926523745059967,35.56324768066406,-15.357941627502441, 4.566237449645996
449,589432110,0.573519,-0.4487134,-0.5522495,-0.4058974,-0.5105537176132202,-0.42611294984817505,-0.5483245849609375,-33.804019927978516,-28.95050811767578, 6.554969787597656
450,589448777,0.57040995,-0.4511864,-0.5554367,-0.40317917,1.5441018342971802,-1.3114525079727173,-2.537400245666504,0.5653713941574097,-39.67921829223633, 1.7853364944458008
451,589465444,0.56443536,-0.45559052,-0.55915326,-0.40149438,1.8770394325256348,0.07229897379875183,-1.5982202291488647,-18.366737365722656,-54.80489730834961, -4.4996795654296875
452,589482111,0.5581828,-0.46001413,-0.56323344,-0.39948368,1.6734918355941772,2.2420806884765625,1.2045793533325195,-17.05666732788086,-58.33512496948242, -5.0616350173950195
453,589498778,0.5551964,-0.46495736,-0.56710905,-0.39237633,3.546531915664673,-5.69810676574707,-3.9784793853759766,10.450942039489746,-62.473628997802734, 26.16908836364746
454,589515445,0.55349517,-0.4666816,-0.5764071,-0.37895453,12.588653564453125,-3.268401622772217,-9.697643280029297,66.11790466308594,-89.60454559326172, 23.754695892333984
455,589532112,0.5496556,-0.46931574,-0.58590823,-0.36651477,9.677410125732422,-4.591236591339111,5.848917007446289,52.45159149169922,-97.93025970458984, 17.35249900817871
456,589548779,0.5436984,-0.4723239,-0.59708303,-0.3532627,12.24057674407959,-3.431352376937866,5.143283367156982,51.692752838134766,-116.47610473632812, 11.118377685546875
457,589565446,0.5374978,-0.47502568,-0.6094443,-0.33767512,16.958837509155273,-3.085798978805542,4.3337531089782715,64.50914001464844,-128.87586975097656, 14.101402282714844
458,589582113,0.5337709,-0.4764339,-0.619833,-0.3223451,18.50888442993164,4.721549987792969,-0.6952846050262451,71.69099426269531,-107.50289916992188, 19.88825035095215
459,589598780,0.5340953,-0.46940872,-0.6320924,-0.30798858,15.01994514465332,4.708410263061523,-3.294163465499878,115.9054183959961,-75.27831268310547, -16.65843391418457
460,589615447,0.5335351,-0.46549457,-0.6416497,-0.29485747,12.14566707611084,-1.6698246002197266,-3.312946319580078,90.56803131103516,-71.8326187133789, -0.6746447086334229
461,589632114,0.53383625,-0.46426782,-0.6457192,-0.28726497,10.6500825881958,-2.501678705215454,-5.15620231628418,47.905033111572266,-35.616981506347656, 10.169891357421875
462,589648781,0.5359698,-0.46328893,-0.6457817,-0.28472108,13.797300338745117,-1.9414924383163452,-4.3244948387146,22.51918601989746,2.8863203525543213, 9.130030632019043
463,589665448,0.5385174,-0.46124205,-0.6453582,-0.2841963,16.990337371826172,0.9776898622512817,-1.4956697225570679,17.85816192626953,15.045754432678223, -0.6954885125160217
464,589682115,0.5379713,-0.4615881,-0.64437556,-0.28688613,17.931230545043945,0.8635908961296082,-0.5284883379936218,-16.173686981201172,8.858451843261719, -6.197205543518066
465,589698782,0.53587794,-0.4624034,-0.6428501,-0.29285112,20.1735782623291,0.8883757591247559,0.4183558225631714,-38.40731430053711,13.411588668823242, -17.508718490600586
466,589715449,0.5350533,-0.46406353,-0.6370621,-0.3041629,22.238677978515625,-1.3546197414398193,3.1564841270446777,-69.71204376220703,49.93016052246094, -17.315433502197266
467,589732116,0.54043645,-0.46384498,-0.625673,-0.3182922,20.581825256347656,-0.6267673373222351,2.7983028888702393,-67.06489562988281,110.505859375, -5.046947002410889
468,589748783,0.54457617,-0.46422344,-0.6126463,-0.3355561,11.177505493164062,1.3610098361968994,0.47072577476501465,-90.33329010009766,119.8130874633789, -11.613493919372559
469,589765450,0.5531038,-0.46012414,-0.5965448,-0.35566312,7.845090389251709,-3.5791125297546387,2.430907964706421,-78.6503677368164,169.18080139160156, -21.158733367919922
470,589782117,0.55927503,-0.4569513,-0.5831088,-0.3720099,-0.8928581476211548,-2.620418071746826,-6.662600517272949,-67.68577575683594,135.15005493164062, -17.318248748779297
471,589798784,0.5637226,-0.45257944,-0.57623845,-0.38123208,5.771754264831543,-2.662482738494873,-11.715526580810547,-23.115314483642578,83.77985382080078, -19.81561279296875
472,589815451,0.56951374,-0.44401553,-0.5758192,-0.3833232,4.133440017700195,-1.1203819513320923,-7.657102584838867,42.4969596862793,53.07851791381836, -25.372690200805664
473,589832118,0.57379526,-0.4370351,-0.5762486,-0.3843137,3.372755289077759,-0.022367561236023903,-4.317371368408203,38.28936767578125,36.3655891418457, -21.374605178833008
474,589848785,0.5719155,-0.43730757,-0.5731515,-0.3913722,2.9483871459960938,2.918900489807129,-1.868046760559082,-42.18959045410156,25.002710342407227, -22.257699966430664
475,589865452,0.5698429,-0.44050497,-0.5698932,-0.3955457,1.046873688697815,0.24061046540737152,-1.4775209426879883,-43.349971771240234,8.357834815979004, 0.6280725598335266
476,589882119,0.5687671,-0.4442171,-0.5688193,-0.39448687,0.8172984719276428,-3.9293949604034424,-3.9283177852630615,-15.905659675598145,-13.5192289352417, 19.24376678466797
477,589898786,0.5686222,-0.44436494,-0.5723263,-0.3894242,0.36099773645401,-0.12134842574596405,-3.315481662750244,28.979902267456055,-30.2924861907959, 9.432596206665039
478,589915453,0.5656307,-0.44473693,-0.5773428,-0.38593584,1.2339328527450562,2.7309792041778564,-1.5469834804534912,17.2557373046875,-43.13422393798828, -8.075272560119629
479,589932120,0.56239384,-0.44709358,-0.58181125,-0.38120386,3.3100171089172363,-1.6860010623931885,-2.4063920974731445,12.261937141418457,-51.023521423339844, 5.708147048950195
480,589948787,0.559166,-0.45066798,-0.58934206,-0.37001088,6.201128959655762,-3.1380763053894043,-12.674952507019043,41.46342849731445,-85.85027313232422, 26.14764404296875
481,589965454,0.5547528,-0.45356116,-0.6002225,-0.35533738,11.054129600524902,-6.254074573516846,0.9498183131217957,63.05582046508789,-112.4019775390625, 23.326889038085938
482,589982121,0.54777557,-0.45782268,-0.6116142,-0.34098175,11.71829891204834,-5.453561305999756,5.813083648681641,49.7927360534668,-127.32587432861328, 19.808252334594727
483,589998788,0.5392161,-0.46259606,-0.62338597,-0.32655916,16.69165802001953,-3.934096574783325,4.851381778717041,44.05397033691406,-136.94430541992188, 17.229623794555664
484,590015455,0.53275394,-0.4650245,-0.635764,-0.30940217,15.764681816101074,2.912691116333008,-0.6429457664489746,72.49839782714844,-133.76290893554688, 20.053199768066406
485,590032122,0.52702796,-0.46593326,-0.6461405,-0.2960583,12.971150398254395,4.700311183929443,-3.5364794731140137,59.47237014770508,-107.82959747314453, 7.481544494628906
486,590048789,0.524169,-0.46292916,-0.65725994,-0.2809857,13.710617065429688,-1.5545964241027832,-2.216291904449463,92.02333068847656,-95.35584259033203, -0.08251640945672989
487,590065456,0.5223077,-0.46180922,-0.6631325,-0.2723644,16.0485782623291,-1.527853012084961,-2.2060892581939697,37.286468505859375,-53.49420928955078, 8.086520195007324
488,590082123,0.5205606,-0.46535543,-0.66100603,-0.2748311,12.32050895690918,-1.4682135581970215,-5.425256252288818,-44.05244064331055,2.134610652923584, 15.03538990020752
489,590098790,0.5200345,-0.46820706,-0.65752554,-0.27929622,13.674761772155762,-2.097233533859253,-3.4872775077819824,-50.901611328125,20.454307556152344, 11.928269386291504
490,590115457,0.5240873,-0.46649843,-0.6544487,-0.28179577,15.181707382202148,-1.4269001483917236,-4.397741317749023,-8.68458080291748,41.90787124633789, 5.160832405090332
491,590132124,0.5311266,-0.4615056,-0.65098065,-0.2848538,16.525821685791016,0.8774585723876953,-4.331178665161133,10.818092346191406,64.7137451171875, -5.248903751373291
492,590148791,0.53937846,-0.45398787,-0.6482781,-0.2875783,17.27840232849121,1.4962834119796753,-2.5112764835357666,36.719364166259766,69.92042541503906, -18.695219039916992
493,590165458,0.5480757,-0.4459612,-0.64455634,-0.29202518,18.85943031311035,0.16707536578178406,1.4637411832809448,30.3032283782959,82.03751373291016, -23.234848022460938
494,590182125,0.55587643,-0.44122854,-0.63621885,-0.3025632,16.830791473388672,-0.23481929302215576,2.971475124359131,-21.13002586364746,107.4365463256836, -19.203649520874023
495,590198792,0.5637187,-0.43727955,-0.62455195,-0.3177152,12.895793914794922,0.7260121703147888,2.1338045597076416,-51.121829986572266,132.619140625, -23.206941604614258
496,590215459,0.58101577,-0.4173354,-0.6164514,-0.32899818,8.497299194335938,2.7706663608551025,0.6815517544746399,63.701725006103516,182.6592559814453, -66.9439926147461
497,590232126,0.5893818,-0.41101336,-0.6052279,-0.3426316,6.601083278656006,-4.030340194702148,-1.3197075128555298,-33.386375427246094,133.17153930664062, -29.78204345703125
498,590248793,0.59357285,-0.40987432,-0.5960594,-0.35268623,5.3502397537231445,-2.6754848957061768,-4.980737209320068,-46.44681930541992,85.1546401977539, -9.412534713745117
499,590265460,0.59454834,-0.41036522,-0.58985347,-0.36081243,3.1869022846221924,-2.2929720878601074,-8.05089282989502,-47.061546325683594,50.565982818603516, -11.047627449035645
500,590282127,0.5957594,-0.4092833,-0.5867417,-0.36509204,3.1873013973236084,-0.9053182005882263,-7.800422191619873,-16.68597412109375,32.03744888305664, -9.87844467163086
501,590298794,0.59430844,-0.41082773,-0.5821271,-0.37302297,2.3202993869781494,3.5312435626983643,1.3785626888275146,-53.431087493896484,31.248027801513672, -16.701963424682617
502,590315461,0.59156775,-0.4172907,-0.5751457,-0.38095087,-1.1686073541641235,-3.1723251342773438,-1.6066299676895142,-83.24971008300781,23.11131477355957, 6.42435359954834
503,590332128,0.59221953,-0.419601,-0.5721761,-0.38187116,1.2753310203552246,-1.353963851928711,-2.8238577842712402,-18.388530731201172,11.003851890563965, 15.832754135131836
504,590348795,0.5895027,-0.42423114,-0.57043034,-0.38356727,0.9191735982894897,0.026800118386745453,-4.647759437561035,-37.38484191894531,-11.044669151306152, 9.406668663024902
505,590365462,0.5862117,-0.426717,-0.5726434,-0.38255462,1.4145574569702148,0.39384451508522034,-4.798741340637207,-9.30350112915039,-31.522958755493164, -1.0831266641616821
506,590382129,0.5801133,-0.4321356,-0.5751076,-0.38207158,1.5105597972869873,0.844188392162323,-0.5624117851257324,-30.785568237304688,-49.6815299987793, 0.2175120860338211
507,590398796,0.57370085,-0.4406279,-0.57845134,-0.37697315,7.151710033416748,-4.494724750518799,-8.675666809082031,-23.41694450378418,-76.2144775390625, 27.35606575012207
508,590415463,0.56598103,-0.44902965,-0.5858273,-0.36721203,10.998061180114746,-4.545037746429443,-5.148673057556152,2.000105619430542,-111.09771728515625, 29.7283878326416
509,590432130,0.5590792,-0.45362905,-0.5966211,-0.35453424,10.299215316772461,-4.522735595703125,3.785552740097046,39.716522216796875,-120.45306396484375, 17.220840454101562
510,590448797,0.5506011,-0.45749515,-0.60917586,-0.3412352,14.272115707397461,-6.137026786804199,6.575082302093506,44.46522903442383,-133.91116333007812, 7.20773458480835
511,590465464,0.5445255,-0.45757943,-0.62415445,-0.32333347,15.05929946899414,0.30763593316078186,1.3313249349594116,91.30591583251953,-138.75750732421875, 6.728707313537598
512,590482131,0.5382096,-0.45822063,-0.63667214,-0.30824187,13.931568145751953,4.250855922698975,-4.346086502075195,70.92032623291016,-123.02842712402344, 5.827450275421143
513,590498798,0.5339914,-0.45620424,-0.64846003,-0.293651,12.846269607543945,2.370678424835205,-3.356968641281128,83.61427307128906,-103.91720581054688, -0.8319013714790344
514,590515465,0.530027,-0.4565653,-0.6558366,-0.28372225,15.251977920532227,0.6102308630943298,-2.8124284744262695,45.98160171508789,-76.76121520996094, 7.054226398468018
515,590532132,0.52834994,-0.45753497,-0.6586124,-0.27881518,15.213491439819336,-2.401442766189575,-2.651258707046509,19.3204345703125,-35.122650146484375, 10.436015129089355
516,590548799,0.5304002,-0.45665738,-0.65894413,-0.27555844,16.263477325439453,-1.7213618755340576,-1.906599521636963,25.596982955932617,-0.6579535603523254, 10.899762153625488
517,590565466,0.533847,-0.45353,-0.65814334,-0.27598095,16.928340911865234,1.6396373510360718,-2.4206430912017822,7.879980087280273,27.118465423583984, -2.6173181533813477
518,590582133,0.5367455,-0.45268112,-0.6539624,-0.28163362,16.58777618408203,1.0045772790908813,-3.2866570949554443,-20.811710357666016,47.45467758178711, -5.8362812995910645
519,590598800,0.54018366,-0.45252514,-0.647734,-0.28959215,16.173715591430664,0.9549965262413025,-2.3855576515197754,-36.02759552001953,63.25453186035156, -3.7708232402801514
520,590615467,0.5423545,-0.45471248,-0.6394284,-0.3003658,17.442337036132812,0.7378847599029541,-0.03972041606903076,-65.35324096679688,69.3932113647461, 0.1864728182554245
521,590632134,0.5463195,-0.45591328,-0.6284114,-0.3142888,17.982872009277344,1.5552619695663452,1.1681631803512573,-75.52436828613281,99.21977233886719, -3.6801960468292236
522,590648801,0.550174,-0.4569127,-0.61439204,-0.3332596,13.62772274017334,1.3603097200393677,1.1181628704071045,-103.43338012695312,126.21270751953125, -14.3007173538208
523,590665468,0.5539643,-0.45729008,-0.5986839,-0.3543824,7.984917163848877,-1.886646032333374,0.647090494632721,-114.2593765258789,140.46580505371094, -19.886934280395508
524,590682135,0.5621597,-0.4548741,-0.57936573,-0.37603423,5.9292731285095215,-4.64296293258667,1.5871131420135498,-100.75347900390625,180.79856872558594, -11.347811698913574
525,590698802,0.5660044,-0.4531134,-0.56467026,-0.3943031,4.053271770477295,-1.754294753074646,-8.932581901550293,-91.45304107666016,133.2813262939453, -21.43937873840332
526,590715469,0.56877774,-0.45041263,-0.5577657,-0.40313518,6.7780680656433105,-2.3913941383361816,-11.081243515014648,-33.35475158691406,72.05609130859375, -15.563530921936035
527,590732136,0.57300323,-0.4452898,-0.5561392,-0.4050846,3.8213493824005127,-2.5259177684783936,-8.591168403625488,21.651165008544922,42.5253791809082, -10.281035423278809
528,590748803,0.57712084,-0.43890443,-0.5589292,-0.4023587,4.42534875869751,0.4818245768547058,-7.805023193359375,56.49123001098633,14.026640892028809, -10.541316986083984
529,590765470,0.57842946,-0.4353013,-0.5624224,-0.39951625,1.5890454053878784,2.368061065673828,-1.8981231451034546,39.37117385864258,-7.504834175109863, -9.269866943359375
530,590782137,0.57826495,-0.43480232,-0.56505966,-0.39656577,-1.5635535717010498,-0.4574780762195587,1.0525932312011719,20.673816680908203,-18.624134063720703, 1.7090824842453003
531,590798804,0.5782076,-0.434216,-0.5690066,-0.3916172,-0.0483008548617363,-3.167715072631836,-1.235465168952942,32.67710494995117,-29.163545608520508, 5.68164587020874
532,590815471,0.57539505,-0.43546805,-0.572584,-0.38914752,2.001117467880249,1.5546045303344727,-1.8642590045928955,6.465245723724365,-36.007720947265625, -3.338784694671631
533,590832138,0.57050025,-0.43971425,-0.5741797,-0.38922828,1.5273977518081665,0.792369544506073,1.6108908653259277,-26.95941734313965,-36.71957778930664, -1.2574644088745117
534,590848805,0.5686453,-0.4431238,-0.57775265,-0.38273466,6.388860702514648,-3.925766706466675,-7.776494026184082,16.75394630432129,-50.13417053222656, 23.396087646484375
535,590865472,0.56361055,-0.4481026,-0.5837615,-0.3751933,11.537522315979004,-5.2194294929504395,-5.734744071960449,11.519914627075195,-79.51853942871094, 17.891366958618164
536,590882139,0.5570751,-0.45443448,-0.58959216,-0.36815453,10.278322219848633,-3.7575271129608154,5.156501293182373,-0.8000732064247131,-86.7353286743164, 17.99277114868164
537,590898806,0.54543823,-0.4659356,-0.59345436,-0.36498383,14.549943923950195,-1.6251757144927979,6.220837116241455,-57.1954345703125,-100.95628356933594, 17.32929801940918
538,590915473,0.5340271,-0.47560897,-0.59948796,-0.35947925,16.198246002197266,-2.1624879837036133,6.249311447143555,-34.6561279296875,-111.16913604736328, 12.22712516784668
539,590932140,0.5243509,-0.48431793,-0.606256,-0.35063657,15.788461685180664,4.411991596221924,0.6179282665252686,-9.869478225708008,-115.35626983642578, 22.379785537719727
540,590948807,0.5181887,-0.48708618,-0.6148871,-0.34079537,15.628114700317383,3.8838305473327637,-1.7579153776168823,31.882524490356445,-96.47025299072266, 3.56113338470459
541,590965474,0.5132922,-0.49000797,-0.6213572,-0.332173,11.691145896911621,0.7425259947776794,-4.284137725830078,25.34609603881836,-79.71665954589844, 10.14063549041748
542,590982141,0.5092209,-0.49382907,-0.6237493,-0.3282744,13.65352725982666,-2.6639926433563232,-4.824840068817139,-4.541107177734375,-47.92061233520508, 12.959582328796387
543,590998808,0.5078608,-0.49668393,-0.6226739,-0.32811564,14.706865310668945,-2.1568362712860107,-3.29060697555542,-15.814924240112305,-9.261735916137695, 13.595765113830566
544,591015475,0.5072862,-0.49981195,-0.6187073,-0.331738,14.41566276550293,-0.56123948097229,-2.3540549278259277,-36.79655838012695,16.482303619384766, 13.197710990905762
545,591032142,0.508935,-0.5012042,-0.6132953,-0.33711812,14.801776885986328,-0.42717239260673523,-2.8409152030944824,-33.879188537597656,40.96182632446289, 9.7316255569458
546,591048809,0.51435673,-0.49958962,-0.607079,-0.3424948,16.36671257019043,-1.1485244035720825,-2.5554234981536865,-12.210684776306152,66.62944030761719, 8.594923973083496
547,591065476,0.5216837,-0.49565446,-0.60021645,-0.34916067,17.43025016784668,-1.247756838798523,-0.37186282873153687,-4.366966247558594,86.74314880371094, 1.061028003692627
548,591082143,0.53069705,-0.4891081,-0.59388024,-0.35558474,16.818824768066406,-0.4313467741012573,0.9034662246704102,13.001110076904297,97.21778106689453, -6.588809013366699
549,591098810,0.54078776,-0.48000422,-0.58802754,-0.362448,13.668383598327637,0.7457409501075745,1.8077853918075562,25.336116790771484,107.53382110595703, -17.61220932006836
550,591115477,0.5515692,-0.4674572,-0.5828607,-0.37084842,9.790084838867188,-1.1263644695281982,1.320064902305603,35.90100860595703,121.38597106933594, -37.76609420776367
551,591132144,0.5607841,-0.45738614,-0.57280385,-0.38498685,6.890726089477539,-4.673380374908447,2.532010316848755,-13.995741844177246,145.75521850585938, -37.88845443725586
552,591148811,0.56242627,-0.45596683,-0.5607561,-0.40165108,5.614369869232178,-5.792871475219727,-8.51904296875,-86.36539459228516,108.60868835449219, -27.39630889892578
553,591165478,0.5670439,-0.44961798,-0.55676174,-0.40782514,5.829322338104248,-3.8050663471221924,-8.800472259521484,4.733554363250732,69.7583999633789, -22.933576583862305
554,591182145,0.5716239,-0.4434385,-0.55621177,-0.4089463,4.0491719245910645,-2.2906529903411865,-5.663530349731445,32.980587005615234,40.19269561767578, -13.37822437286377
555,591198812,0.5730132,-0.44152048,-0.55625474,-0.40901884,3.926569938659668,1.02333664894104,-7.549238204956055,12.198963165283203,10.547172546386719, -3.763059377670288
556,591215479,0.5726588,-0.44274166,-0.5570212,-0.4071479,1.2935539484024048,2.2243576049804688,-2.77998685836792,3.9999842643737793,-13.610755920410156, 8.816969871520996
557,591232146,0.5673962,-0.44984177,-0.5557216,-0.4085063,0.15834565460681915,0.4269537329673767,-1.6710610389709473,-52.24551010131836,-30.868148803710938, 11.195582389831543
558,591248813,0.56256616,-0.45554268,-0.55653435,-0.4077621,1.4663445949554443,-0.5760848522186279,-1.631668210029602,-31.478849411010742,-40.01067352294922, 8.740165710449219
559,591265480,0.55731845,-0.4604781,-0.5586563,-0.40652093,1.5095371007919312,-0.023586120456457138,-0.130150705575943,-24.24900245666504,-46.06515884399414, 2.457440137863159
560,591282147,0.55300075,-0.4650556,-0.5609503,-0.40403995,3.627457618713379,-1.0406548976898193,0.9370062947273254,-14.69648265838623,-46.07760238647461, 7.8899102210998535
561,591298814,0.5504656,-0.46855572,-0.5659269,-0.39644697,5.54560661315918,-2.644930362701416,-8.598533630371094,22.26909065246582,-62.7698974609375, 19.535106658935547
562,591315481,0.5483272,-0.46945712,-0.5759164,-0.3837546,12.628631591796875,-3.6624419689178467,-3.1707658767700195,66.90608978271484,-89.45343017578125, 13.626006126403809
563,591332148,0.5426286,-0.47411248,-0.58451796,-0.37297502,11.210774421691895,-4.760288238525391,6.122515678405762,30.037918090820312,-102.0302505493164, 16.327896118164062
564,591348815,0.5350173,-0.4801497,-0.5944712,-0.360301,14.192985534667969,-3.645400047302246,5.453597545623779,29.727825164794922,-124.57023620605469, 19.58806610107422
565,591365482,0.5299334,-0.48278314,-0.6063785,-0.3440876,12.423598289489746,0.4822581708431244,-1.542629599571228,69.89574432373047,-124.7730484008789, 18.473033905029297
566,591382149,0.52883667,-0.48088515,-0.6181073,-0.32714626,10.506200790405273,5.465419769287109,-3.812912702560425,102.25101470947266,-99.2082748413086, 12.274959564208984
567,591398816,0.5288245,-0.47645837,-0.6288606,-0.31283626,14.44006061553955,0.5889879465103149,-0.7193486094474792,101.63246154785156,-76.645263671875, -2.2941832542419434
568,591415483,0.52767485,-0.47446206,-0.6370785,-0.30095857,13.818129539489746,-1.0629308223724365,-1.5005652904510498,73.08870697021484,-69.6357650756836, 5.255691051483154
569,591432150,0.52604264,-0.4742523,-0.6414264,-0.29484954,15.416694641113281,-0.21648229658603668,-2.847067356109619,31.749990463256836,-42.609493255615234, 3.785651922225952
570,591448817,0.5245698,-0.47487932,-0.64288104,-0.29329252,15.731633186340332,0.4128131866455078,-2.054851531982422,3.3001937866210938,-18.311193466186523, 0.7897365093231201
571,591465484,0.5238983,-0.4745529,-0.64356333,-0.2935242,16.15740203857422,0.863884449005127,-2.2019424438476562,-0.11402776837348938,-4.247098445892334, -5.709277153015137
572,591482151,0.524692,-0.47289166,-0.6432147,-0.2955448,15.69708251953125,0.8581423759460449,-3.6237802505493164,-0.527238130569458,14.454961776733398, -11.703840255737305
573,591498818,0.528378,-0.46817815,-0.6427793,-0.29742348,15.416616439819336,0.27298110723495483,-3.78591251373291,20.332483291625977,33.29094314575195, -18.49744415283203
574,591515485,0.53440994,-0.46058783,-0.64253676,-0.29901773,17.0341739654541,-0.590893030166626,-1.120461344718933,39.98180389404297,47.9214973449707, -25.976486206054688
575,591532152,0.5420448,-0.4538151,-0.6372669,-0.30680653,18.939334869384766,0.21209587156772614,1.0048978328704834,4.347963809967041,91.3768081665039, -25.89545440673828
576,591548819,0.54982567,-0.4494713,-0.62608856,-0.32199454,15.36123275756836,0.73392653465271,0.9721940755844116,-49.142086029052734,131.945068359375, -24.06456756591797
577,591565486,0.55800146,-0.44519487,-0.6118427,-0.34071198,9.534174919128418,-0.20138821005821228,0.5298266410827637,-70.18426513671875,155.9612579345703, -26.743085861206055
578,591582153,0.5706561,-0.43565226,-0.59684724,-0.35823512,5.2645649909973145,-3.1325509548187256,0.12545309960842133,-33.0035400390625,186.34136962890625, -31.530454635620117
579,591598820,0.57733494,-0.4334152,-0.5802874,-0.3769646,6.258396148681641,-4.922110080718994,-4.183300018310547,-88.36380767822266,153.55992126464844, -16.3558292388916
580,591615487,0.58073884,-0.43033156,-0.57141376,-0.38864303,7.369345188140869,-0.040182970464229584,-9.255187034606934,-46.68351364135742,91.19541931152344, -23.191884994506836
581,591632154,0.5827964,-0.42820248,-0.56610477,-0.39562163,4.2099127769470215,-3.855290651321411,-6.529697895050049,-26.486873626708984,55.3127326965332, -14.81554126739502
582,591648821,0.58408743,-0.4261139,-0.5636932,-0.39939827,3.483771324157715,-1.522501826286316,-5.616809844970703,-8.541857719421387,31.25135612487793, -12.482683181762695
583,591665488,0.58427143,-0.4257956,-0.56137997,-0.40271288,2.2634005546569824,0.7582733035087585,-1.4598009586334229,-16.828100204467773,20.41197395324707, -7.107850551605225
584,591682155,0.58578897,-0.4263574,-0.5590222,-0.40319353,0.5115253925323486,0.16981056332588196,0.7863351106643677,-5.647120475769043,15.020950317382812, 11.505757331848145
585,591698822,0.5842536,-0.43135926,-0.5539383,-0.40709883,-1.6089731454849243,0.41140833497047424,2.2923502922058105,-53.20022964477539,11.988279342651367, 14.308699607849121
586,591715489,0.5798089,-0.43886423,-0.5489708,-0.41212988,0.9226784706115723,-1.6481399536132812,-3.3809990882873535,-75.8476791381836,-3.2523293495178223, 10.834966659545898
587,591732156,0.5750679,-0.4456751,-0.54694647,-0.41415,2.3785653114318848,-0.9408766627311707,-3.9155666828155518,-54.260597229003906,-23.185997009277344, 10.481674194335938
588,591748823,0.5678634,-0.45538864,-0.5464185,-0.41422114,3.5932693481445312,-0.646970808506012,-6.5840744972229,-61.69082260131836,-52.56297302246094, 17.49713134765625
589,591765490,0.5622724,-0.46237755,-0.5531151,-0.40511775,6.022375583648682,-1.6056641340255737,-8.700299263000488,9.054460525512695,-95.60733032226562, 25.053462982177734
590,591782157,0.55819464,-0.46478006,-0.5650564,-0.39129227,9.68034839630127,-3.942974328994751,-0.15070205926895142,64.17840576171875,-112.28076934814453, 13.393377304077148
591,591798824,0.551724,-0.46924406,-0.5751494,-0.3802815,11.715179443359375,-3.193246841430664,2.894885540008545,32.723388671875,-111.04109954833984, 10.028252601623535
592,591815491,0.54426473,-0.47351536,-0.5865426,-0.36813998,14.809782028198242,-1.4528683423995972,7.353487968444824,38.137245178222656,-123.07316589355469, 6.7469916343688965
593,591832158,0.53601015,-0.478443,-0.5978016,-0.35555378,16.274242401123047,-1.2030794620513916,4.421555042266846,34.53719711303711,-128.98509216308594, 9.475945472717285
594,591848825,0.5317862,-0.47889173,-0.61171544,-0.3371505,17.422487258911133,2.0193982124328613,-1.620021104812622,94.69296264648438,-130.4657745361328, 13.626834869384766
595,591865492,0.52973443,-0.47574875,-0.62499267,-0.32004482,16.746183395385742,0.8616109490394592,-1.3172969818115234,108.0290298461914,-106.41989135742188, 0.9484831690788269
596,591882159,0.52563846,-0.4772171,-0.63229865,-0.3101077,16.135419845581055,-1.478137731552124,-0.3261095881462097,40.589054107666016,-80.17311096191406, 9.717731475830078
597,591898826,0.52167356,-0.48229098,-0.6312465,-0.31109536,12.288616180419922,0.2465050220489502,-6.235041618347168,-37.3322868347168,-21.275480270385742, 13.6162748336792
598,591915493,0.5203494,-0.4857764,-0.62728673,-0.31586283,13.569540977478027,1.2218021154403687,-5.780942916870117,-45.50348663330078,16.575685501098633, 8.474117279052734
599,591932160,0.5224146,-0.485771,-0.6225584,-0.3217619,15.866522789001465,2.3749372959136963,-3.9579474925994873,-28.247802734375,45.32538986206055, -0.6705472469329834
600,591948827,0.5262425,-0.48325184,-0.61742806,-0.32911864,17.610858917236328,0.4271676540374756,-2.681178331375122,-20.47126579284668,64.74319458007812, -11.377222061157227
601,591965494,0.53345096,-0.47588348,-0.6147706,-0.3331998,18.07244300842285,-1.1856104135513306,-0.45885539054870605,27.801271438598633,70.22112274169922, -20.6539363861084
602,591982161,0.5401149,-0.46889433,-0.6117357,-0.33792508,19.66855239868164,-0.13955141603946686,3.3512487411499023,21.03265380859375,70.50743865966797, -21.419408798217773
603,591998828,0.5459048,-0.46488485,-0.60369664,-0.34845454,18.022449493408203,1.2650221586227417,4.308960914611816,-28.90256118774414,97.13379669189453, -16.322837829589844
604,592015495,0.55140394,-0.46238098,-0.59029627,-0.36566108,11.14560317993164,1.0846980810165405,2.9527502059936523,-76.06477355957031,133.7158966064453, -18.67148208618164
605,592032162,0.55856365,-0.45846155,-0.57464117,-0.3841969,3.6168482303619385,-1.7474901676177979,1.0328346490859985,-76.49747467041016,156.74609375, -18.102664947509766
606,592048829,0.5641915,-0.45589703,-0.55882126,-0.4019511,4.297056674957275,-3.1289775371551514,-3.1359188556671143,-83.87666320800781,145.2667236328125, -13.300361633300781
607,592065496,0.56696516,-0.45231786,-0.5501844,-0.41383114,6.886444091796875,0.632993221282959,-11.728116035461426,-46.44635772705078,90.8462142944336, -24.852535247802734
608,592082163,0.5709946,-0.44639704,-0.54786175,-0.4177827,4.653139114379883,-2.4609713554382324,-8.627653121948242,14.549663543701172,53.10330581665039, -18.856754302978516
609,592098830,0.57475126,-0.4408628,-0.5485832,-0.4175615,3.6522350311279297,-2.16249942779541,-7.9696364402771,36.66710662841797,26.295204162597656, -11.16801643371582
610,592115497,0.57683915,-0.4368319,-0.5514196,-0.41517618,2.9241721630096436,0.6543729901313782,-4.478036403656006,39.924102783203125,0.8479965925216675, -8.167949676513672
611,592132164,0.5754833,-0.4371788,-0.55402565,-0.41321865,1.1971839666366577,0.9897984862327576,-2.3158133029937744,9.937907218933105,-22.460769653320312, -2.3977890014648438
612,592148831,0.5736608,-0.43851832,-0.5577057,-0.4093647,0.8191760778427124,-1.4518911838531494,-1.5180761814117432,14.875946998596191,-36.985076904296875, 4.343035697937012
613,592165498,0.5719395,-0.43922994,-0.5626831,-0.404166,0.7932787537574768,-0.4846290946006775,-0.45948731899261475,26.4776611328125,-43.986785888671875, 3.5977275371551514
614,592182165,0.56685644,-0.44401413,-0.5652889,-0.4024595,0.5589335560798645,0.7367058396339417,-0.011202708818018436,-19.785552978515625,-48.43423843383789, 3.435868263244629
615,592198832,0.5622148,-0.44892433,-0.5676663,-0.4001705,2.409822940826416,0.32839515805244446,-1.9418977499008179,-17.298465728759766,-47.95595169067383, 8.123098373413086
616,592215499,0.5573121,-0.45537356,-0.5724404,-0.39287433,5.134109020233154,-2.822566509246826,-11.184453010559082,2.0845324993133545,-77.91304016113281, 25.37385368347168
617,592232166,0.55177957,-0.45952547,-0.5817667,-0.3819989,11.376588821411133,-2.8121042251586914,-0.5534945726394653,35.318016052246094,-102.7309341430664, 14.066658973693848
618,592248833,0.5421588,-0.46738082,-0.5889503,-0.37517554,12.662814140319824,-4.690650463104248,5.791738986968994,-13.476202011108398,-107.88536071777344, 9.516023635864258
619,592265500,0.5308335,-0.47740087,-0.5956687,-0.36808077,15.200296401977539,-2.996249198913574,4.478932857513428,-27.108713150024414,-119.58612060546875, 16.349231719970703
620,592282167,0.52337533,-0.48259056,-0.60505325,-0.35650444,14.816911697387695,1.3533416986465454,2.213937759399414,28.322057723999023,-116.03203582763672, 13.934377670288086
621,592298834,0.5213204,-0.4815503,-0.6168464,-0.34034526,14.555843353271484,3.9858756065368652,-1.161201000213623,93.62100219726562,-102.20687866210938, 9.787528038024902
622,592315501,0.5222554,-0.47669774,-0.6286956,-0.32365146,14.741046905517578,1.4592968225479126,-2.62835431098938,119.56854248046875,-82.59270477294922, 2.402092933654785
623,592332168,0.52262354,-0.47502533,-0.63544863,-0.31212306,15.814631462097168,-1.4746721982955933,-3.867919921875,72.60926818847656,-56.89338302612305, 13.071617126464844
624,592348835,0.52082074,-0.47793442,-0.63619894,-0.30915293,15.1856107711792,-5.066471099853516,-1.6737362146377563,-1.2177729606628418,-26.689756393432617, 17.282737731933594
625,592365502,0.51838356,-0.48341033,-0.6325206,-0.3122672,14.882366180419922,-0.6164008975028992,-2.1714041233062744,-48.511627197265625,0.9053857922554016, 19.8870906829834
626,592382169,0.518098,-0.48712406,-0.62645364,-0.31912476,14.150858879089355,3.5892419815063477,-4.7578630447387695,-56.4920654296875,34.981876373291016, 11.451127052307129
627,592398836,0.520735,-0.4885001,-0.6177988,-0.32943535,15.032266616821289,0.9354443550109863,-3.122516632080078,-58.94232177734375,73.49309539794922, 4.218216896057129
628,592415503,0.52695113,-0.4882567,-0.6060199,-0.34156698,16.891239166259766,-1.4336373805999756,-2.62137770652771,-55.945648193359375,109.6605224609375, 9.445722579956055
629,592432170,0.53697157,-0.48206353,-0.59548414,-0.35309356,18.37097930908203,-1.0793875455856323,0.5531387329101562,-16.182851791381836,132.93751525878906, -8.392098426818848
630,592448837,0.54741865,-0.47410148,-0.5857644,-0.36392403,15.688655853271484,-1.583821177482605,2.6314268112182617,-3.412315845489502,133.61886596679688, -14.728676795959473
631,592465504,0.5557807,-0.46576375,-0.57599914,-0.37735525,12.999565124511719,-0.508626401424408,4.659664154052734,-19.395206451416016,134.76214599609375, -31.104576110839844
632,592482171,0.56232464,-0.45757598,-0.56586385,-0.3927002,8.809473991394043,-1.229081153869629,4.895884990692139,-34.34005355834961,134.65660095214844, -41.354984283447266
633,592498838,0.562332,-0.4586021,-0.5498191,-0.41372222,6.895731449127197,-4.666903972625732,-0.8708658218383789,-128.58433532714844,125.00448608398438, -26.52904510498047
634,592515505,0.56026757,-0.45994803,-0.53946567,-0.42839813,6.4000115394592285,-4.308069705963135,-10.12403392791748,-96.14813995361328,74.24345397949219, -24.6733455657959
635,592532172,0.56146324,-0.45687792,-0.53671527,-0.4335418,4.6027960777282715,-3.7752745151519775,-8.475652694702148,-11.036298751831055,40.004207611083984, -18.81498146057129
636,592548839,0.5604012,-0.4560122,-0.5369834,-0.43549097,3.695866584777832,-0.9665102958679199,-8.953851699829102,-5.827086448669434,3.4978718757629395, -14.594498634338379
637,592565506,0.5577458,-0.45748514,-0.53974074,-0.4339436,4.764090061187744,-0.17664602398872375,-7.058236122131348,0.5384126901626587,-29.85355567932129, -5.070191383361816
638,592582173,0.5549717,-0.46069387,-0.54457253,-0.42802867,2.480299711227417,0.27407628297805786,-4.432192325592041,15.915140151977539,-57.098228454589844, 11.240943908691406
639,592598840,0.5504773,-0.46469045,-0.5504153,-0.42199627,-0.6884174942970276,2.442254066467285,-0.13435545563697815,10.876734733581543,-70.04625701904297, 6.37750244140625
640,592615507,0.5399349,-0.47446388,-0.5528392,-0.42157236,-1.2222613096237183,-0.6740083694458008,0.10838811099529266,-61.46788024902344,-78.83830261230469, 0.4119243323802948
641,592632174,0.532331,-0.4802387,-0.55837303,-0.41738987,2.1795506477355957,-1.0114078521728516,-0.9689896702766418,-13.725420951843262,-79.88517761230469, -2.4684300422668457
642,592648841,0.52651143,-0.48460063,-0.56487304,-0.41093385,2.121192455291748,-2.822864055633545,1.4164623022079468,8.835590362548828,-80.01647186279297, 2.3501274585723877
643,592665508,0.5277407,-0.4823011,-0.5760668,-0.39626107,2.8397910594940186,-0.04713096842169762,-4.362857818603516,101.62503051757812,-78.20858764648438, 10.468987464904785
644,592682175,0.5260998,-0.4826911,-0.5887623,-0.37892935,15.60399341583252,-5.26672887802124,-9.004679679870605,96.97238159179688,-111.13850402832031, 17.96634292602539
645,592698842,0.5206463,-0.48629075,-0.59914684,-0.36533844,11.95309066772461,-3.076066017150879,5.29935884475708,51.56452560424805,-114.09960174560547, 15.110827445983887
646,592715509,0.5147489,-0.4908417,-0.60837317,-0.35212263,15.428546905517578,-2.7733654975891113,4.583768367767334,42.21784591674805,-112.9910659790039, 20.41737174987793
647,592732176,0.5119613,-0.49044558,-0.6199999,-0.33609363,13.46422004699707,1.7188469171524048,-1.5584856271743774,87.79981231689453,-106.07530212402344, 9.087796211242676
648,592748843,0.513058,-0.48574913,-0.62991166,-0.3225379,14.103409767150879,6.443861961364746,-3.21920108795166,101.51374053955078,-65.21875762939453, -3.161973237991333
649,592765510,0.5152447,-0.47835508,-0.6390604,-0.31193173,17.208955764770508,1.4055085182189941,-0.47072833776474,100.17736053466797,-41.97617721557617, -20.201398849487305
650,592782177,0.5184889,-0.47003365,-0.64736724,-0.3019164,16.352113723754883,0.275004506111145,-2.0590009689331055,102.5262222290039,-30.45436668395996, -21.29927635192871
651,592798844,0.5236553,-0.46042952,-0.653133,-0.2953087,13.567904472351074,0.7714192271232605,-5.71143913269043,92.86177825927734,0.8132362961769104, -26.932878494262695
652,592815511,0.5320092,-0.4499979,-0.6548967,-0.2925382,15.010263442993164,0.4704485237598419,-4.138145446777344,80.56918334960938,43.38101577758789, -25.30014419555664
653,592832178,0.5411538,-0.44211128,-0.651492,-0.29537857,18.10555648803711,-1.7504301071166992,-1.04215669631958,38.0406494140625,78.08863067626953, -16.762680053710938
654,592848845,0.5506012,-0.43585816,-0.6450714,-0.3012458,19.60658073425293,-2.065049648284912,1.1995526552200317,13.197101593017578,96.5166244506836, -10.926592826843262
655,592865512,0.55642205,-0.43357468,-0.63675964,-0.3113596,20.23996353149414,-0.711010754108429,3.7648096084594727,-35.45113754272461,92.04271697998047, -11.245146751403809
656,592882179,0.5566632,-0.4371025,-0.6267496,-0.32596412,17.80933380126953,1.1855355501174927,5.100746154785156,-97.61373138427734,74.98551940917969, -9.860753059387207
657,592898846,0.5556628,-0.4417972,-0.6158458,-0.3417427,12.05483341217041,-0.2004345804452896,2.9591097831726074,-112.89144897460938,73.89269256591797, -9.404078483581543
658,592915513,0.5638577,-0.43575507,-0.6054324,-0.35444862,5.920215129852295,-4.132830619812012,0.9936782121658325,-29.778682708740234,126.80471801757812, -23.013046264648438
659,592932180,0.5692089,-0.43332255,-0.5950475,-0.3662672,5.192684173583984,-4.277149677276611,-5.634721755981445,-48.5072135925293,103.38353729248047, -11.60617733001709
660,592948847,0.5727721,-0.43009254,-0.5896272,-0.37321886,6.946780204772949,0.6306057572364807,-10.592243194580078,-18.27539825439453,64.1923828125, -15.157347679138184
661,592965514,0.5751764,-0.4273207,-0.5861473,-0.37815425,3.8966786861419678,-1.6780436038970947,-7.428297519683838,-10.358322143554688,44.811161041259766, -14.059975624084473
662,592982181,0.5782336,-0.42416385,-0.5827165,-0.38232547,3.063619613647461,0.7875307202339172,-2.8388586044311523,-3.702523946762085,46.072364807128906, -11.049930572509766
663,592998848,0.57621294,-0.4279796,-0.57414114,-0.39392164,0.21259644627571106,3.1430230140686035,1.6040679216384888,-89.5108413696289,49.53366470336914, -10.969279289245605
664,593015515,0.5721048,-0.43657985,-0.5627862,-0.40665215,-0.7774624824523926,1.2664134502410889,0.09685777127742767,-126.63626861572266,42.67119598388672, 5.978023052215576
665,593032182,0.5684892,-0.44511056,-0.5537477,-0.4148017,2.115769147872925,-2.1442999839782715,-5.05436897277832,-100.68661499023438,21.906421661376953, 18.161083221435547
666,593048849,0.564476,-0.45257857,-0.5489357,-0.41858,1.126787781715393,-1.4242737293243408,-4.723902225494385,-69.03482818603516,-6.427455425262451, 17.112016677856445
667,593065516,0.5595609,-0.4586884,-0.5490636,-0.41836122,2.972425699234009,1.131771206855774,-6.83693265914917,-37.25740051269531,-37.48860168457031, 9.519394874572754
668,593082183,0.5535501,-0.4639122,-0.5524244,-0.4161671,0.9959656000137329,1.8959764242172241,-0.7469218373298645,-20.551544189453125,-57.68052291870117, 0.4408068060874939
669,593098850,0.54908806,-0.46897867,-0.5585211,-0.40818566,4.241655349731445,-2.5509629249572754,-6.263988971710205,14.791549682617188,-80.21487426757812, 17.593250274658203
670,593115517,0.5433985,-0.4741981,-0.56769794,-0.3969551,8.208698272705078,-0.22328811883926392,-10.48376750946045,31.397598266601562,-107.41038513183594, 17.046308517456055
671,593132184,0.53902435,-0.4769933,-0.5784814,-0.38378355,11.999574661254883,-2.820910692214966,1.0762929916381836,56.71049880981445,-107.9013900756836, 13.188068389892578
672,593148851,0.5313029,-0.48219362,-0.5885971,-0.37250546,13.332114219665527,-5.278692722320557,6.684458255767822,27.533973693847656,-118.90235137939453, 9.070172309875488
673,593165518,0.52519333,-0.48484656,-0.60298014,-0.3542756,17.549528121948242,-5.624222755432129,5.36863899230957,81.26988220214844,-144.58078002929688, 14.08753490447998
674,593182185,0.5200622,-0.48601496,-0.6195047,-0.33096683,18.285478591918945,1.6570357084274292,0.7145963311195374,116.17082214355469,-161.6637420654297, 21.472620010375977
675,593198852,0.5192306,-0.48075455,-0.63526595,-0.3093734,15.804698944091797,3.7253127098083496,-2.7648766040802,144.4607696533203,-120.29801940917969, 0.32320210337638855
676,593215519,0.5167358,-0.47943324,-0.64500904,-0.29511267,13.383785247802734,-0.8907049894332886,-2.6846981048583984,80.04214477539062,-90.22000122070312, 7.762155055999756
677,593232186,0.51502573,-0.48036084,-0.64931667,-0.28703675,9.386271476745605,-2.1426897048950195,-6.7741570472717285,19.752029418945312,-49.470218658447266, 21.060022354125977
678,593248853,0.51643175,-0.47968397,-0.65011007,-0.2838287,10.031845092773438,-2.1870367527008057,-7.185557842254639,8.782403945922852,-3.963646411895752, 13.913504600524902
679,593265520,0.51864433,-0.47951758,-0.6477022,-0.28557485,13.879671096801758,-0.9087128043174744,-3.6077511310577393,-15.980460166931152,26.034677505493164, 9.679912567138672
680,593282187,0.522093,-0.4779113,-0.64348245,-0.29146177,16.676090240478516,2.3149619102478027,-3.3442838191986084,-29.882083892822266,54.599517822265625, -2.857046365737915
681,593298854,0.52691597,-0.47348115,-0.639442,-0.2988129,17.928049087524414,1.926306962966919,-2.45768404006958,-22.193443298339844,70.51567077636719, -18.383005142211914
682,593315521,0.53430533,-0.46708786,-0.6337421,-0.30776253,18.68747329711914,2.4411203861236572,-1.651005506515503,-3.4113452434539795,95.21770477294922, -26.55608558654785
683,593332188,0.54467654,-0.45877063,-0.62553364,-0.31869215,17.993024826049805,3.0867443084716797,0.060099273920059204,-0.7163535356521606,127.83256530761719, -27.80337905883789
684,593348855,0.55203336,-0.45514244,-0.6135767,-0.33410817,15.522768020629883,2.736725091934204,1.727367639541626,-55.315826416015625,132.74847412109375, -19.171655654907227
685,593365522,0.5558927,-0.45557252,-0.59899235,-0.35305148,12.331969261169434,1.2611217498779297,1.9365360736846924,-102.60127258300781,129.6396026611328, -15.216717720031738
686,593382189,0.56060904,-0.45653865,-0.57796043,-0.37848613,9.690150260925293,-0.9939820170402527,5.2455668449401855,-144.3863525390625,176.82241821289062, -15.530938148498535
687,593398856,0.5546635,-0.46842855,-0.55571663,-0.4050954,-0.7216959595680237,-3.7864935398101807,-4.736252307891846,-227.80812072753906,114.31462097167969, -0.6086586713790894
688,593415523,0.5503131,-0.4737443,-0.54347456,-0.42113805,6.978518486022949,-5.507802486419678,-13.096786499023438,-129.32699584960938,66.56341552734375, -13.247629165649414
689,593432190,0.55173635,-0.4711163,-0.5405175,-0.42600164,4.8213653564453125,-3.011232376098633,-8.520112037658691,-11.759163856506348,39.70329666137695, -14.207777976989746
