PacketCounter,SampleTimeFine,Quat_W,Quat_X,Quat_Y,Quat_Z,Acc_X,Acc_Y,Acc_Z,Gyr_X,Gyr_Y,Gyr_Z 
1,761541294,0.34480432,-0.55647635,-0.32828158,-0.680937,0.19889883697032928,-0.8700084686279297,-0.2692132592201233,-1.1648722887039185,1.429986834526062, -0.3358728885650635
2,761557961,0.34501973,-0.556331,-0.3284523,-0.6808645,9.67109489440918,0.5414828658103943,1.6119685173034668,2.451807975769043,-0.20382586121559143, -0.20902524888515472
3,761574628,0.34573457,-0.55651367,-0.32830083,-0.68042564,9.756218910217285,0.6697124242782593,1.7068642377853394,1.7791413068771362,-0.07318828254938126, -0.23681502044200897
4,761591295,0.3460005,-0.55604035,-0.3284219,-0.6806187,9.69213581085205,0.6236545443534851,1.6721731424331665,0.9917813539505005,0.047018516808748245, -0.5388143658638
5,761607962,0.3463252,-0.5555509,-0.32870758,-0.6807155,9.682554244995117,0.5327000617980957,1.6522420644760132,1.7645930051803589,-0.05235235393047333, -0.6481805443763733
6,761624629,0.34691787,-0.55522966,-0.3289571,-0.6805551,9.704221725463867,0.6191314458847046,1.633783221244812,2.148322820663452,-0.11051880568265915, -0.6517791748046875
7,761641296,0.34721118,-0.5550378,-0.32922322,-0.6804335,9.715469360351562,0.600125253200531,1.671916127204895,1.942358374595642,-0.21914227306842804, -0.8176854252815247
8,761657963,0.34757748,-0.55480075,-0.32958847,-0.6802627,9.6985445022583,0.6359509229660034,1.663330316543579,2.3016531467437744,-0.3182378113269806, -0.7941217422485352
9,761674630,0.34782895,-0.55460435,-0.3299155,-0.680136,9.69243335723877,0.6817877888679504,1.6658062934875488,1.7032251358032227,-0.3970736861228943, -0.7014934420585632
10,761691297,0.3480991,-0.5543937,-0.3302713,-0.67999685,9.73089599609375,0.7192257642745972,1.6735016107559204,0.7984567284584045,-0.43052390217781067, -0.3545694351196289
11,761707964,0.34812644,-0.55428284,-0.33043107,-0.6799955,9.73876667022705,0.7443053126335144,1.7024785280227661,0.3868989944458008,-0.28870630264282227, -0.028494125232100487
12,761724631,0.34818998,-0.5541345,-0.33062977,-0.6799873,9.68910026550293,0.6617342233657837,1.6755424737930298,0.26212677359580994,-0.28308433294296265, 0.17716944217681885
13,761741298,0.34801954,-0.55414736,-0.3305982,-0.68007946,9.677129745483398,0.6337276101112366,1.6406168937683105,1.0770204067230225,-0.3799644410610199, 0.4764282703399658
14,761757965,0.34809276,-0.5540696,-0.33073744,-0.6800377,9.697693824768066,0.6815615892410278,1.6594982147216797,1.4772188663482666,-0.2924329936504364, 0.5220956802368164
15,761774632,0.34846503,-0.553849,-0.33110434,-0.679848,9.74262809753418,0.6486709713935852,1.673995852470398,1.21509850025177,-0.20234033465385437, 0.5186764001846313
16,761791299,0.3485625,-0.55376667,-0.33122498,-0.6798065,9.689876556396484,0.6164558529853821,1.6710975170135498,0.9790646433830261,-0.1260657012462616, 0.44838228821754456
17,761807966,0.34938046,-0.55333304,-0.33189514,-0.67941266,9.70741081237793,0.5974340438842773,1.6643844842910767,0.7262929081916809,0.03188140690326691, 0.37707656621932983
18,761824633,0.34877887,-0.5535934,-0.33141604,-0.67974347,9.699150085449219,0.569836437702179,1.6394942998886108,0.5396531224250793,0.004514238331466913, 0.16317209601402283
19,761841300,0.34946457,-0.55324346,-0.33198616,-0.6793979,9.679827690124512,0.63856041431427,1.6781781911849976,0.5469655990600586,-0.07468663156032562, 0.07356608659029007
20,761857967,0.3466295,-0.5545933,-0.3297162,-0.6808535,9.698134422302246,0.5936504006385803,1.704745888710022,0.34331899881362915,-0.12217257171869278, -0.13017654418945312
21,761874634,0.3459922,-0.55487525,-0.32924226,-0.6811773,9.69665241241455,0.581222653388977,1.6696451902389526,1.1461617946624756,-0.16159051656723022, -0.0785285234451294
22,761891301,0.3464848,-0.55461425,-0.3296849,-0.6809254,9.699897766113281,0.6343736052513123,1.679907202720642,1.3195983171463013,-0.14783650636672974, -0.09116839617490768
23,761907968,0.34579566,-0.5549153,-0.32914847,-0.6812898,9.70997142791748,0.6560421586036682,1.6479734182357788,1.231874942779541,-0.0018441143911331892, -0.07947621494531631
24,761924635,0.34406614,-0.5557133,-0.32772237,-0.6822019,9.712347030639648,0.6837331056594849,1.6641029119491577,0.9050695300102234,0.2320830523967743, 0.033430974930524826
25,761941302,0.34437916,-0.55553997,-0.32792985,-0.6820854,9.668649673461914,0.6635642051696777,1.6544251441955566,0.8255035877227783,0.2868686020374298, 0.23173730075359344
26,761957969,0.34392735,-0.5557445,-0.32746518,-0.6823699,9.702611923217773,0.6718549132347107,1.6759823560714722,0.5244648456573486,0.42776408791542053, 0.4280202090740204
27,761974636,0.34518918,-0.55514944,-0.3283779,-0.68177825,9.684869766235352,0.6849760413169861,1.661348581314087,0.36932870745658875,0.3173477351665497, 0.5932989716529846
28,761991303,0.34407976,-0.5557025,-0.3273693,-0.6823732,9.713869094848633,0.6417689919471741,1.688320517539978,0.520789384841919,0.23063594102859497, 0.6472393274307251
29,762007970,0.34511632,-0.55523014,-0.32812226,-0.6818724,9.690180778503418,0.6181476712226868,1.7011722326278687,0.7206196784973145,0.12974753975868225, 0.6486095786094666
30,762024637,0.34566554,-0.5550034,-0.32851052,-0.68159175,9.692728996276855,0.6079888939857483,1.6677480936050415,0.8640636801719666,-0.11398932337760925, 0.5875489115715027
31,762041304,0.34580767,-0.55494297,-0.32860813,-0.68152183,9.678144454956055,0.6210035681724548,1.6758451461791992,1.1282458305358887,-0.04349036514759064, 0.3338167071342468
32,762057971,0.346159,-0.5547664,-0.32890463,-0.6813443,9.695392608642578,0.6030259132385254,1.6576176881790161,1.0507673025131226,-0.058960434049367905, 0.1418367177248001
33,762074638,0.3455119,-0.5550522,-0.32841524,-0.6816759,9.697080612182617,0.5942215919494629,1.6718554496765137,0.8980132341384888,-0.0315164253115654, -0.08368949592113495
34,762091305,0.3454915,-0.55502754,-0.328476,-0.68167704,9.66904067993164,0.5908468961715698,1.6821649074554443,1.0300978422164917,-0.13633640110492706, -0.2626326084136963
35,762107972,0.34464654,-0.5554014,-0.3278873,-0.6820836,9.693363189697266,0.6206504702568054,1.672842264175415,1.3531638383865356,-0.2299124151468277, -0.2991563677787781
36,762124639,0.3449927,-0.55522835,-0.3282747,-0.68186307,9.715188980102539,0.6883419156074524,1.7109805345535278,1.1997565031051636,-0.4688660800457001, -0.23952996730804443
37,762141306,0.3458741,-0.55477124,-0.32911798,-0.681382,9.720638275146484,0.6552530527114868,1.712679147720337,1.1439207792282104,-0.37764641642570496, -0.4072546660900116
38,762157973,0.34813097,-0.5536568,-0.3310954,-0.68018013,9.650704383850098,0.6147686243057251,1.6758031845092773,1.7110117673873901,-0.5114472508430481, -0.30269092321395874
39,762174640,0.3487144,-0.55335575,-0.33172473,-0.6798195,9.685099601745605,0.6467522382736206,1.6715108156204224,1.9109183549880981,-0.5926393270492554, -0.3119754493236542
40,762191307,0.3490541,-0.5531837,-0.33215117,-0.67957693,9.70402717590332,0.6561038494110107,1.6823511123657227,1.623544454574585,-0.6693623065948486, -0.296390175819397
41,762207974,0.35014352,-0.5526457,-0.3331613,-0.6789594,9.72120189666748,0.6539422273635864,1.71866774559021,1.2973921298980713,-0.5808832049369812, -0.24187354743480682
42,762224641,0.35015008,-0.5526418,-0.33326626,-0.6789077,9.687421798706055,0.6436872482299805,1.653051733970642,1.2268164157867432,-0.5161727666854858, -0.14815665781497955
43,762241308,0.3507425,-0.5523442,-0.33384895,-0.67855775,9.709641456604004,0.6584432125091553,1.658045768737793,1.1202162504196167,-0.4738349914550781, -0.19536086916923523
44,762257975,0.350763,-0.5523316,-0.3339501,-0.6785076,9.710922241210938,0.6486148834228516,1.6633598804473877,1.0924009084701538,-0.425260454416275, -0.12110964953899384
45,762274642,0.3523497,-0.5515466,-0.3353167,-0.6776495,9.735397338867188,0.6448238492012024,1.6749509572982788,1.2469862699508667,-0.37203726172447205, -0.06054842099547386
46,762291309,0.3514853,-0.55196774,-0.3346695,-0.6780754,9.671414375305176,0.6172974109649658,1.6409915685653687,1.5510090589523315,-0.23039904236793518, 0.04066656529903412
47,762307976,0.35017225,-0.5526025,-0.33367094,-0.67872936,9.693843841552734,0.6343631744384766,1.6539534330368042,1.8451064825057983,-0.22393180429935455, 0.005730840377509594
48,762324643,0.35012987,-0.5526043,-0.33369118,-0.67873985,9.710700988769531,0.6516634821891785,1.6882319450378418,1.371387004852295,-0.12192925810813904, -0.05484960228204727
49,762341310,0.35074785,-0.5522863,-0.33424142,-0.6784089,9.722870826721191,0.6699059009552002,1.6819260120391846,0.7979060411453247,-0.16776318848133087, -0.10012004524469376
50,762357977,0.35221493,-0.55154544,-0.33546454,-0.6776473,9.712099075317383,0.6712684035301208,1.7055468559265137,0.4724326729774475,-0.0888376533985138, -0.09735387563705444
51,762374644,0.35081047,-0.5522392,-0.33431384,-0.6783791,9.71336841583252,0.6294911503791809,1.6956372261047363,0.4172500669956207,-0.05368421599268913, 0.1005234345793724
52,762391311,0.3516135,-0.5518522,-0.33493006,-0.6779742,9.700368881225586,0.682748019695282,1.6706252098083496,0.6853893995285034,0.030306227505207062, 0.28875115513801575
53,762407978,0.35380244,-0.5507663,-0.33666173,-0.67685986,9.702714920043945,0.7077135443687439,1.660071849822998,0.6409258246421814,0.16450397670269012, 0.28569045662879944
54,762424645,0.3520439,-0.551652,-0.33516172,-0.6777992,9.719223976135254,0.6472483277320862,1.6852151155471802,0.7759814858436584,0.15555231273174286, 0.4516094923019409
55,762441312,0.35188526,-0.5517503,-0.3349463,-0.6779081,9.688243865966797,0.6541112065315247,1.6871412992477417,1.112570881843567,0.20909568667411804, 0.5965262055397034
56,762457979,0.3512884,-0.5520709,-0.3343733,-0.67823935,9.723326683044434,0.6177504062652588,1.7064152956008911,1.0112214088439941,0.15556512773036957, 0.6108308434486389
57,762474646,0.35116106,-0.5521497,-0.3342011,-0.6783261,9.700722694396973,0.6237045526504517,1.6704633235931396,0.9322063326835632,0.1358305662870407, 0.4806798994541168
58,762491313,0.35114238,-0.55216765,-0.33414644,-0.67834806,9.705565452575684,0.6068966388702393,1.6761788129806519,0.7713711857795715,0.046250127255916595, 0.3122764229774475
59,762507980,0.3508316,-0.55233616,-0.3338738,-0.67850596,9.684452056884766,0.5703299641609192,1.668915867805481,0.610177755355835,-0.10725317150354385, 0.23646283149719238
60,762524647,0.35082784,-0.5523665,-0.33384046,-0.6784996,9.716541290283203,0.6502009630203247,1.7198338508605957,0.2941938638687134,-0.17775212228298187, 0.2664809226989746
61,762541314,0.35068122,-0.5524372,-0.3337026,-0.6785857,9.709291458129883,0.6379846334457397,1.670135259628296,-0.009079703129827976,-0.026829306036233902, 0.04350957274436951
62,762557981,0.35040736,-0.55255675,-0.33347666,-0.67874086,9.677299499511719,0.5850961208343506,1.6611053943634033,0.7686178684234619,0.058838773518800735, 0.058582644909620285
63,762574648,0.35051897,-0.55249256,-0.3335759,-0.67868674,9.657735824584961,0.6424087882041931,1.6778069734573364,1.2872109413146973,-0.0014215047704055905, 0.1235748678445816
64,762591315,0.3498421,-0.5528116,-0.33301416,-0.6790518,9.696334838867188,0.6997078061103821,1.693527340888977,0.9884644746780396,0.0966431125998497, 0.12863336503505707
65,762607982,0.34981212,-0.55280364,-0.33300242,-0.67907953,9.694337844848633,0.6502887606620789,1.6809496879577637,1.0891351699829102,0.06656099110841751, 0.026822898536920547
66,762624649,0.3500292,-0.5526729,-0.33320525,-0.6789746,9.688970565795898,0.6003595590591431,1.6975387334823608,1.4372117519378662,0.039642054587602615, 0.031778957694768906
67,762641316,0.35062996,-0.5523612,-0.33374244,-0.6786543,9.66798210144043,0.583198070526123,1.6983603239059448,1.6103664636611938,-0.11360512673854828, 0.009470295161008835
68,762657983,0.3511736,-0.5520618,-0.33428678,-0.678349,9.658160209655762,0.6257181763648987,1.681881308555603,1.7636457681655884,-0.2394147515296936, -0.23120585083961487
69,762674650,0.347781,-0.5536813,-0.33165416,-0.6800669,9.698687553405762,0.6246058940887451,1.6864869594573975,1.640832781791687,-0.2817140817642212, -0.4036177694797516
70,762691317,0.34806648,-0.5535121,-0.3319963,-0.6798917,9.704057693481445,0.642453670501709,1.718828558921814,1.1984246969223022,-0.3258063495159149, -0.35348087549209595
71,762707984,0.34792078,-0.5535767,-0.33195424,-0.67993414,9.70035171508789,0.6935163736343384,1.748976707458496,0.7083768248558044,-0.3912596106529236, -0.2163248509168625
72,762724651,0.347449,-0.55378383,-0.33166865,-0.680146,9.666023254394531,0.6807918548583984,1.6950578689575195,0.6072450280189514,-0.3788118064403534, -0.3779922127723694
73,762741318,0.34720093,-0.5538875,-0.33156276,-0.6802399,9.707551956176758,0.6233702301979065,1.6721349954605103,1.2022665739059448,-0.3746625781059265, -0.24006783962249756
74,762757985,0.34796354,-0.5535069,-0.33226103,-0.6798192,9.692634582519531,0.6298744678497314,1.6677831411361694,1.6183576583862305,-0.3269205093383789, -0.06601673364639282
75,762774652,0.34846994,-0.55327165,-0.33272693,-0.6795235,9.706217765808105,0.663360059261322,1.7113984823226929,1.6582751274108887,-0.37407347559928894, 0.11585265398025513
76,762791319,0.35088453,-0.55208236,-0.3347511,-0.6782529,9.68978214263916,0.6935983896255493,1.7286878824234009,1.3637418746948242,-0.3079671263694763, -0.01385647151619196
77,762807986,0.3496974,-0.5526706,-0.33386445,-0.6788236,9.601480484008789,0.6278141736984253,1.642964482307434,1.4369428157806396,-0.4525892436504364, -0.047485947608947754
78,762824653,0.34918246,-0.55292934,-0.33348653,-0.6790637,9.8308687210083,0.6597293019294739,1.7340439558029175,1.033337950706482,-0.31522828340530396, 0.029973261058330536
79,762841320,0.34903654,-0.55302495,-0.33336782,-0.6791191,9.725052833557129,0.6324595808982849,1.764954924583435,0.07557667046785355,-0.3326064944267273, 0.09514477103948593
80,762857987,0.34978607,-0.55268025,-0.33399844,-0.67870426,9.64035701751709,0.6361214518547058,1.624159574508667,0.7075956463813782,-0.3903503715991974, 0.1254061758518219
81,762874654,0.3500128,-0.5525691,-0.33422264,-0.6785674,9.73157024383545,0.6708126068115234,1.6582101583480835,0.7987127900123596,-0.2907937467098236, -0.02936495840549469
82,762891321,0.34970132,-0.5527424,-0.33403283,-0.67868036,9.703839302062988,0.5633851289749146,1.6968023777008057,1.057093620300293,-0.5351004600524902, 0.013017653487622738
83,762907988,0.3498698,-0.5526476,-0.33430168,-0.67853826,9.69705867767334,0.6092032790184021,1.6991163492202759,2.4601962566375732,-0.5131505131721497, -0.14175349473953247
84,762924655,0.35046053,-0.552363,-0.33489877,-0.6781706,9.694356918334961,0.6349838972091675,1.6462945938110352,2.027251720428467,-0.6159598231315613, -0.08138435333967209
85,762941322,0.34968263,-0.55275077,-0.3343644,-0.6785199,9.664637565612793,0.7408461570739746,1.6765210628509521,1.3303556442260742,-0.5622499585151672, -0.15297183394432068
86,762957989,0.34925136,-0.55297697,-0.33406138,-0.6787069,9.706648826599121,0.710288405418396,1.7196013927459717,-0.01071891374886036,-0.4930444657802582, -0.14408423006534576
87,762974656,0.34804448,-0.5535988,-0.33314756,-0.67926884,9.745080947875977,0.6119607090950012,1.7232882976531982,-0.11932957172393799,-0.7197297215461731, -0.16936397552490234
88,762991323,0.34370783,-0.55575645,-0.32976535,-0.6813623,9.663612365722656,0.5647188425064087,1.6856913566589355,0.863858699798584,-1.1675549745559692, -0.2494933158159256
89,763007990,0.34370092,-0.5558017,-0.32997605,-0.68122685,9.687315940856934,0.6485980153083801,1.6989012956619263,2.0494959354400635,-1.3532212972640991, -0.3047654926776886
90,763024657,0.34332827,-0.5560192,-0.32989585,-0.68127614,9.745141983032227,0.67344731092453,1.7001734972000122,2.040032386779785,-1.354540467262268, -0.3548511564731598
91,763041324,0.34348232,-0.5559888,-0.33027068,-0.68104166,9.666717529296875,0.638123095035553,1.6776635646820068,2.010885000228882,-1.5323436260223389, -0.4208294451236725
92,763057991,0.34392446,-0.5557953,-0.3308777,-0.6806817,9.687738418579102,0.6811449527740479,1.6938128471374512,1.975629210472107,-1.3456528186798096, -0.5153531432151794
93,763074658,0.34367496,-0.55595714,-0.33086878,-0.6806798,9.671585083007812,0.6998232007026672,1.6474955081939697,0.9630951881408691,-1.3347675800323486, -0.4116857349872589
94,763091325,0.34402227,-0.55580956,-0.33132088,-0.6804051,9.733283996582031,0.7258408069610596,1.6430000066757202,0.7181225419044495,-1.0800875425338745, -0.4354286789894104
95,763107992,0.34440497,-0.5556279,-0.33180076,-0.6801259,9.673476219177246,0.624931275844574,1.58683443069458,1.097228765487671,-0.9222620129585266, -0.43261128664016724
96,763124659,0.34417164,-0.55573946,-0.33177307,-0.68016654,9.709793090820312,0.6265762448310852,1.6410962343215942,2.1030523777008057,-0.7726711630821228, -0.28587615489959717
97,763141326,0.3441681,-0.55573654,-0.3318928,-0.68011194,9.72957706451416,0.6714777946472168,1.6447598934173584,2.2176308631896973,-0.5622243881225586, -0.13499173521995544
98,763157993,0.3446676,-0.5555627,-0.33235106,-0.67977726,9.684889793395996,0.4295942783355713,1.5779412984848022,2.4110963344573975,-0.7920471429824829, 0.48023173213005066
99,763174660,0.34516996,-0.5552956,-0.3328581,-0.6794925,9.768031120300293,0.9631730318069458,1.7259961366653442,3.4018213748931885,-0.22539176046848297, 0.06362835317850113
100,763191327,0.34276202,-0.5564126,-0.33081958,-0.680792,9.78250503540039,0.7427777647972107,1.6516475677490234,-0.8252283334732056,0.5303301215171814, -0.1618722528219223
101,763207994,0.3430769,-0.55623597,-0.33102354,-0.68067855,9.653377532958984,0.6266549229621887,1.65152108669281,0.45125097036361694,0.27376773953437805, 0.1384686529636383
102,763224661,0.3446738,-0.5554752,-0.33213162,-0.67995286,9.740150451660156,0.7461147904396057,1.6677924394607544,-0.45549625158309937,0.552011251449585, 0.6804205179214478
103,763241328,0.34538686,-0.5551576,-0.33239344,-0.6797226,9.727409362792969,0.7691057324409485,1.6394708156585693,-1.531139850616455,0.9495075345039368, 1.011989712715149
104,763257995,0.34578007,-0.55501294,-0.3323235,-0.67967486,9.68863296508789,0.7120433449745178,1.6447402238845825,-0.7089979648590088,1.2035343647003174, 1.4832122325897217
105,763274662,0.34582978,-0.55507344,-0.33191022,-0.6798022,9.682019233703613,0.7523380517959595,1.6983009576797485,-0.3586290776729584,1.2301075458526611, 1.9309478998184204
106,763291329,0.34641007,-0.554932,-0.33179232,-0.6796799,9.72144889831543,0.7544063329696655,1.7023894786834717,-1.002890944480896,1.3782259225845337, 2.5757863521575928
107,763307996,0.3462378,-0.55522627,-0.33092293,-0.6799509,9.784177780151367,0.757002055644989,1.7587151527404785,-2.3238275051116943,1.3831305503845215, 3.1555163860321045
108,763324663,0.34647912,-0.5553141,-0.33023375,-0.6800914,9.75600814819336,0.7437772154808044,1.799680471420288,-3.593193531036377,2.055272102355957, 3.503772735595703
109,763341330,0.34627137,-0.55559295,-0.3291605,-0.6804896,9.708942413330078,0.667529821395874,1.6750175952911377,-4.354581832885742,2.2784993648529053, 3.333601951599121
110,763357997,0.34652445,-0.55566376,-0.32851806,-0.68061334,9.631502151489258,0.5084866881370544,1.6246849298477173,-2.8540103435516357,2.000793695449829, 3.4566962718963623
111,763374664,0.34685183,-0.5556667,-0.32802075,-0.6806842,9.675703048706055,0.46719250082969666,1.660972237586975,-2.5055625438690186,1.8850370645523071, 3.0626449584960938
112,763391331,0.34792027,-0.555295,-0.32832277,-0.68029636,9.568047523498535,0.40173664689064026,1.5949394702911377,-1.3986966609954834,1.1972209215164185, 2.4572761058807373
113,763407998,0.3489561,-0.55488116,-0.3288029,-0.67987156,9.62549877166748,0.46654072403907776,1.663008451461792,0.059274181723594666,0.7982261180877686, 1.6988966464996338
114,763424665,0.34944782,-0.5545778,-0.329011,-0.6797658,9.69577693939209,0.40493470430374146,1.694793939590454,-0.22224140167236328,1.1698919534683228, 0.355292946100235
115,763441332,0.34918863,-0.5545627,-0.3287589,-0.68003327,9.70498275756836,0.29271918535232544,1.5367321968078613,0.6701498627662659,1.1044387817382812, -0.3832044005393982
116,763457999,0.3494626,-0.55424017,-0.32919437,-0.6799447,9.748992919921875,0.2691538333892822,1.6501483917236328,1.831404209136963,0.40687695145606995, -1.3372135162353516
117,763474666,0.3503005,-0.553576,-0.3303252,-0.6795062,9.815939903259277,0.309684157371521,1.859580159187317,3.0781025886535645,-0.07777296751737595, -2.297062397003174
118,763491333,0.3502061,-0.55338645,-0.33082366,-0.6794668,9.528268814086914,0.5210710167884827,1.7569031715393066,3.5455212593078613,-0.8245112299919128, -2.6004831790924072
119,763508000,0.3504885,-0.55300206,-0.33177772,-0.6791687,9.538032531738281,0.8021079301834106,1.6555628776550293,2.2328317165374756,-1.520702838897705, -3.414428949356079
120,763524667,0.34969404,-0.5531093,-0.3320141,-0.67937547,9.602750778198242,0.6037452816963196,1.6422117948532104,3.1169440746307373,-1.9392657279968262, -3.9703402519226074
121,763541334,0.3501529,-0.5525473,-0.3335257,-0.6788557,9.719265937805176,0.39468467235565186,1.7196682691574097,7.0663347244262695,-2.4357171058654785, -4.457110404968262
122,763558001,0.35029832,-0.55216944,-0.33488175,-0.67842025,9.719939231872559,0.39043134450912476,1.6741567850112915,9.501423835754395,-2.992114782333374, -4.279883861541748
123,763574668,0.34911716,-0.5524841,-0.33521056,-0.67861074,9.70042610168457,0.6042823791503906,1.6990050077438354,9.679587364196777,-3.5140767097473145, -4.295136451721191
124,763591335,0.34879482,-0.5524459,-0.33598408,-0.6784252,9.84583568572998,0.7618814706802368,1.7572749853134155,7.682153701782227,-3.0090575218200684, -3.416773557662964
125,763608002,0.3497299,-0.5516971,-0.3375773,-0.6777618,9.846521377563477,0.9575221538543701,1.7516881227493286,4.447690963745117,-1.6279946565628052, -3.5921566486358643
126,763624669,0.34864917,-0.5518855,-0.33735436,-0.67827594,9.721963882446289,0.7673534154891968,1.6724603176116943,2.2673451900482178,-0.4701083302497864, -3.5921685695648193
127,763641336,0.34841973,-0.55167127,-0.33770913,-0.67839164,9.64531421661377,0.7003279328346252,1.569339632987976,3.2723233699798584,-0.014880979433655739, -2.917722225189209
128,763658003,0.34908298,-0.5511153,-0.3386775,-0.6780196,9.651751518249512,0.742485523223877,1.5988918542861938,2.5521068572998047,-0.33397677540779114, -2.1865174770355225
129,763674670,0.3493298,-0.5508468,-0.3392104,-0.67784435,9.747241973876953,0.8397343754768372,1.7533527612686157,4.109948635101318,-0.3756614625453949, -1.231253743171692
130,763691337,0.34945053,-0.5506311,-0.33942077,-0.6778521,9.806236267089844,1.0556915998458862,1.7353711128234863,4.100829601287842,0.7374215722084045, -0.48720476031303406
131,763708004,0.35178244,-0.5493423,-0.34127715,-0.6767586,9.767570495605469,0.940714955329895,1.7834421396255493,1.6223658323287964,0.9569222927093506, -0.17972427606582642
132,763724671,0.3522163,-0.5490343,-0.34148613,-0.67667735,9.622532844543457,0.744364857673645,1.7394132614135742,1.4986950159072876,1.2281608581542969, 0.30872905254364014
133,763741338,0.35240984,-0.54892945,-0.3413118,-0.67674965,9.714308738708496,0.8053979277610779,1.678594946861267,-0.24234738945960999,1.3573002815246582, 1.0415213108062744
134,763758005,0.3527653,-0.5487295,-0.34118566,-0.6767902,9.691667556762695,0.761643648147583,1.5932059288024902,-2.8531007766723633,1.656610131263733, 0.8437014818191528
135,763774672,0.3520843,-0.54909235,-0.34034252,-0.6772749,9.634445190429688,0.6683310866355896,1.693008542060852,-1.6148806810379028,0.8512188196182251, 0.7983414530754089
136,763791339,0.35234866,-0.5489144,-0.3403812,-0.67726225,9.656771659851074,0.7050734162330627,1.6758557558059692,-0.5337558388710022,0.8794183731079102, 0.28223276138305664
137,763808006,0.35087013,-0.54958653,-0.33921394,-0.6780699,9.689273834228516,0.7703439593315125,1.6839275360107422,1.4893592596054077,0.23264656960964203, -0.21765673160552979
138,763824673,0.34891334,-0.55041105,-0.33779213,-0.6791199,9.675504684448242,0.6355714797973633,1.717470407485962,3.07415771484375,0.35677850246429443, -0.7773838043212891
139,763841340,0.34736663,-0.5509832,-0.3368094,-0.6799364,9.68401050567627,0.652215301990509,1.6533139944076538,4.841241836547852,0.32854047417640686, -1.061467170715332
140,763858007,0.34622115,-0.5512882,-0.33624247,-0.68055373,9.766043663024902,0.5661107897758484,1.7669758796691895,5.155062675476074,0.44322144985198975, -1.6262658834457397
141,763874674,0.346423,-0.5508709,-0.3368311,-0.6804979,9.661385536193848,0.5304727554321289,1.5907551050186157,5.392504692077637,0.5893418192863464, -2.0671114921569824
142,763891341,0.34654614,-0.55054545,-0.33739233,-0.6804206,9.61474895477295,0.6581600904464722,1.6545215845108032,3.8180274963378906,-0.11151769757270813, -2.247655153274536
143,763908008,0.3502172,-0.5484042,-0.340731,-0.67860407,9.74679946899414,0.8897433280944824,1.7417449951171875,2.3965609073638916,0.5424193143844604, -2.3591344356536865
144,763924675,0.34682506,-0.5497557,-0.3382314,-0.68050015,9.672261238098145,0.8781419396400452,1.6886459589004517,0.5664952993392944,1.2562965154647827, -2.3458032608032227
145,763941342,0.3474723,-0.54915303,-0.33902055,-0.680264,9.658757209777832,0.6455533504486084,1.7137879133224487,2.951780080795288,0.8554577231407166, -1.750166893005371
146,763958009,0.3485619,-0.5482787,-0.3401782,-0.6798339,9.748695373535156,0.815405547618866,1.6960517168045044,3.534879207611084,1.2186459302902222, -1.918416976928711
147,763974676,0.34757552,-0.54850936,-0.33971438,-0.6803845,9.6904296875,0.7170895338058472,1.7908265590667725,4.669342517852783,0.5358753204345703, -1.6154826879501343
148,763991343,0.34824792,-0.54788995,-0.34056842,-0.68011284,9.665386199951172,0.8016852140426636,1.7525029182434082,5.429924964904785,0.8445980548858643, -1.512314796447754
149,764008010,0.3416097,-0.55092144,-0.33550623,-0.68353796,9.766593933105469,0.8700400590896606,1.758722186088562,4.411948204040527,0.70709627866745, -1.4928619861602783
150,764024677,0.34107825,-0.5508838,-0.33531892,-0.68392533,9.623644828796387,0.8311936855316162,1.70675528049469,2.8265600204467773,1.105527400970459, -1.7580941915512085
151,764041344,0.34051573,-0.55083376,-0.33520982,-0.6842995,9.609383583068848,0.8028614521026611,1.6673301458358765,1.8649184703826904,0.7536345720291138, -2.4125757217407227
152,764058011,0.33891016,-0.55128103,-0.33437997,-0.6851418,9.666165351867676,0.5920071601867676,1.6930283308029175,3.3012139797210693,0.41636642813682556, -2.6486988067626953
153,764074678,0.3419796,-0.5493875,-0.3374337,-0.68363875,9.692534446716309,0.713573157787323,1.6649928092956543,4.903801918029785,0.3491459786891937, -3.0461957454681396
154,764091345,0.34199885,-0.5489296,-0.33809876,-0.6836682,9.752695083618164,0.7055732011795044,1.7275675535202026,5.195069313049316,0.5260528326034546, -3.491741418838501
155,764108012,0.336411,-0.55115324,-0.33418614,-0.6865694,9.873659133911133,0.6082352995872498,1.72586989402771,6.181273460388184,1.5299171209335327, -3.351754903793335
156,764124679,0.3351222,-0.55123687,-0.33361277,-0.6874108,9.67768383026123,0.8591679334640503,1.6371742486953735,5.850691318511963,2.2525031566619873, -3.117002248764038
157,764141346,0.33433694,-0.551111,-0.3333952,-0.68799955,9.556407928466797,0.7902604341506958,1.6140367984771729,2.7515151500701904,1.9314987659454346, -3.318061590194702
158,764158013,0.33320355,-0.5511373,-0.33303437,-0.68870246,9.593459129333496,0.8772337436676025,1.7563823461532593,3.493720054626465,1.4983367919921875, -3.7520816326141357
159,764174680,0.32874015,-0.5527669,-0.33001915,-0.6909892,9.699368476867676,0.9489985108375549,1.855746865272522,2.9320590496063232,1.363805890083313, -3.8567094802856445
160,764191347,0.32855585,-0.5523595,-0.33041465,-0.69121355,9.738335609436035,0.8745633959770203,1.829529047012329,2.795222759246826,1.2690131664276123, -3.743424415588379
161,764208014,0.3258705,-0.5532949,-0.3285552,-0.69262165,9.765276908874512,0.897455096244812,2.0136334896087646,-0.5549887418746948,0.9541819095611572, -2.738330364227295
162,764224681,0.3208447,-0.55669284,-0.32079545,-0.6958752,10.746899604797363,0.6385276913642883,3.5232326984405518,-52.17741775512695,3.650172710418701, 9.147838592529297
163,764241348,0.3142843,-0.5627362,-0.30204406,-0.7023694,10.668185234069824,0.2980528473854065,2.745521068572998,-147.3197479248047,22.022886276245117, 38.31180953979492
164,764258015,0.30481163,-0.56878704,-0.28618023,-0.70828813,8.697211265563965,1.5879713296890259,0.5934166312217712,-99.44947052001953,10.426106452941895, 22.62343978881836
165,764274682,0.30119985,-0.5709345,-0.27960703,-0.71072686,9.43079948425293,0.9807137846946716,1.1712757349014282,-51.2556266784668,5.630090236663818, 7.843574047088623
166,764291349,0.29545912,-0.573135,-0.27360794,-0.713694,9.219120979309082,0.7005825042724609,1.4029908180236816,-16.831327438354492,4.403320789337158, 2.2984542846679688
167,764308016,0.2934654,-0.5735348,-0.2716231,-0.71495235,9.167834281921387,0.8599136471748352,1.7627664804458618,-3.6056406497955322,3.9052135944366455, -0.5375210046768188
168,764324683,0.29392108,-0.57260364,-0.27203473,-0.715355,9.598876953125,0.6874164938926697,1.9285258054733276,3.5224571228027344,5.835578918457031, -2.3682782649993896
169,764341350,0.29495394,-0.5713719,-0.27331144,-0.71542805,9.71977424621582,0.5593693256378174,2.020066499710083,12.120595932006836,5.392930507659912, -2.654181718826294
170,764358017,0.2950812,-0.57079047,-0.2737446,-0.715674,9.693425178527832,0.42526501417160034,2.17969012260437,10.704122543334961,3.317774534225464, -1.3174794912338257
171,764374684,0.29635423,-0.56992686,-0.27507374,-0.7153266,9.47049617767334,0.5997596979141235,1.9960887432098389,11.920085906982422,2.181581974029541, -0.42894890904426575
172,764391351,0.29725456,-0.56951475,-0.27618673,-0.71485215,9.373601913452148,0.2712492048740387,1.6989167928695679,11.732702255249023,-0.633709728717804, 0.31563183665275574
173,764408018,0.29931512,-0.5689254,-0.27857608,-0.71353334,9.660407066345215,-0.15363237261772156,1.5180927515029907,20.556547164916992,-3.689591884613037, 1.594719648361206
174,764424685,0.3016981,-0.5682074,-0.28172302,-0.7118644,9.658087730407715,0.2621769309043884,2.0669097900390625,28.58397674560547,-5.224160671234131, 1.0778943300247192
175,764441352,0.30348083,-0.56738305,-0.28498355,-0.71046484,9.670300483703613,0.8553926944732666,2.2151119709014893,36.73331832885742,-4.440943717956543, -1.045746088027954
176,764458019,0.30671144,-0.5655985,-0.2902185,-0.7083784,9.548372268676758,1.0686594247817993,2.0290794372558594,47.08298873901367,-4.232531547546387, -3.7504842281341553
177,764474686,0.30864146,-0.5640178,-0.29506537,-0.70679635,9.353949546813965,0.9859980940818787,1.801634669303894,52.2733039855957,-4.129115581512451, -6.559874057769775
178,764491353,0.31231102,-0.56206524,-0.30157098,-0.7039884,9.183242797851562,0.12155632674694061,1.5325347185134888,47.70551300048828,-8.644730567932129, -7.048162460327148
179,764508020,0.31465375,-0.56243986,-0.30812833,-0.69979393,9.838631629943848,-2.540727138519287,1.6122583150863647,53.671363830566406,-27.161701202392578, -3.4323368072509766
180,764524687,0.3204738,-0.56117654,-0.3173865,-0.6940053,11.295730590820312,-0.874289333820343,3.0232648849487305,77.5892105102539,-24.66510581970215, 0.9455596804618835
181,764541354,0.32568055,-0.55940413,-0.32519314,-0.68938273,11.44354248046875,1.9047659635543823,2.1155762672424316,56.82063293457031,-16.806503295898438, -1.8044239282608032
182,764558021,0.32779664,-0.55890137,-0.3304095,-0.6863004,10.68483829498291,0.060992419719696045,1.6106534004211426,39.60182571411133,-16.923498153686523, -4.791591167449951
183,764574688,0.3317353,-0.5575525,-0.3366019,-0.6824854,10.30233383178711,-3.7835755348205566,1.5800849199295044,35.48777770996094,-15.537128448486328, -3.263702392578125
184,764591355,0.3341936,-0.5577517,-0.33981502,-0.6795246,13.522884368896484,-5.363864421844482,1.95010244846344,7.005766868591309,-16.486501693725586, 2.1920974254608154
185,764608022,0.33443254,-0.5590291,-0.3379467,-0.679289,17.90324592590332,-8.48840045928955,3.1603262424468994,-10.661500930786133,-2.4618821144104004, 10.749549865722656
186,764624689,0.33573082,-0.5532711,-0.3256556,-0.6892927,20.655431747436523,-8.691250801086426,8.02749252319336,-49.25720977783203,97.29186248779297, 17.497392654418945
187,764641356,0.32113552,-0.5621455,-0.29510576,-0.70269275,8.29627513885498,-5.345390319824219,0.879300594329834,-256.4417724609375,45.8160285949707, 32.70541763305664
188,764658023,0.3072929,-0.57283235,-0.268834,-0.7107479,5.239990234375,-6.446306228637695,-1.821589469909668,-252.8793487548828,7.698895454406738, 29.465473175048828
189,764674690,0.2931074,-0.5833959,-0.24222304,-0.7176807,4.849026679992676,-0.45371702313423157,-2.1886208057403564,-198.54490661621094,6.118284225463867, 42.04182434082031
190,764691357,0.28433606,-0.59453475,-0.21669298,-0.7202261,7.6068878173828125,-5.4825825691223145,0.2733139395713806,-192.10223388671875,-7.473359107971191, 68.76060485839844
191,764708024,0.29484692,-0.60146827,-0.20679297,-0.71311855,6.529792785644531,-10.65087604522705,-1.1327699422836304,-34.21802520751953,-26.68901252746582, 108.5569076538086
192,764724691,0.31539804,-0.6038626,-0.20402755,-0.703027,6.0683393478393555,-6.524350643157959,1.9916185140609741,98.06498718261719,-19.276906967163086, 135.63821411132812
193,764741358,0.34049714,-0.6033507,-0.20164272,-0.6923656,6.436273574829102,-2.4006757736206055,5.0538411140441895,116.18314361572266,-1.658135175704956, 151.02212524414062
194,764758025,0.36796013,-0.5998842,-0.19913986,-0.68197334,7.373209476470947,-0.616325318813324,6.460679531097412,126.28939056396484,17.365089416503906, 156.8953094482422
195,764774692,0.39509368,-0.5936758,-0.19558966,-0.6731975,7.292912483215332,0.8719940781593323,7.2401347160339355,125.15989685058594,38.58690643310547, 152.0122528076172
196,764791359,0.4218511,-0.5842576,-0.19289519,-0.6659402,8.065045356750488,0.24609653651714325,6.875674247741699,134.16871643066406,56.37226486206055, 138.5377655029297
197,764808026,0.45033756,-0.56909007,-0.19427335,-0.6599929,9.587409019470215,1.196561574935913,6.469352722167969,174.63900756835938,78.04007720947266, 118.8893051147461
198,764824693,0.47698274,-0.54952896,-0.19714746,-0.65699196,10.021476745605469,3.986135959625244,6.513670444488525,183.8233184814453,102.08281707763672, 90.0054702758789
199,764841360,0.49720895,-0.5314241,-0.19633494,-0.6571334,9.502041816711426,4.62105655670166,5.1076178550720215,133.73916625976562,110.510009765625, 67.06465148925781
200,764858027,0.5092767,-0.51990974,-0.18895671,-0.659262,9.383622169494629,3.868558883666992,1.4083728790283203,48.901493072509766,99.32279205322266, 56.73442077636719
201,764874694,0.5199036,-0.50972956,-0.18237716,-0.6607683,9.799467086791992,2.7019155025482178,-0.31065285205841064,43.438201904296875,86.5064697265625, 51.633338928222656
202,764891361,0.52881706,-0.50094587,-0.17787229,-0.66164005,9.574594497680664,3.1287643909454346,-0.185039222240448,42.6184196472168,68.60877990722656, 40.904335021972656
203,764908028,0.53515357,-0.49512047,-0.17457724,-0.66180766,9.536934852600098,2.2195839881896973,-1.794519066810608,29.286277770996094,45.414981842041016, 31.506122589111328
204,764924695,0.5407411,-0.49073675,-0.1733668,-0.6608485,9.318610191345215,2.6265382766723633,-2.73347806930542,32.24614334106445,26.770034790039062, 27.139476776123047
205,764941362,0.54423606,-0.48871613,-0.17269804,-0.6596507,9.338597297668457,4.153111457824707,-1.8532930612564087,19.1278076171875,11.07819938659668, 19.778911590576172
206,764958029,0.5437409,-0.49014282,-0.1720336,-0.65917397,10.378942489624023,3.3754000663757324,-1.2535654306411743,-8.083974838256836,-6.56895637512207, 3.3955094814300537
207,764974696,0.5413189,-0.49342152,-0.173396,-0.6583639,12.069596290588379,0.7421317100524902,-0.9389910101890564,-11.977457046508789,-25.631694793701172, -8.418331146240234
208,764991363,0.5345499,-0.5018499,-0.17374663,-0.65743077,13.332876205444336,0.30119577050209045,-0.8540855050086975,-50.32069396972656,-50.451934814453125, -17.84199333190918
209,765008030,0.5242832,-0.5136345,-0.17400974,-0.6565268,13.637596130371094,0.5478512644767761,-2.064995288848877,-75.14263916015625,-69.05282592773438, -29.216581344604492
210,765024697,0.51167846,-0.5278256,-0.17466433,-0.6550403,13.438202857971191,0.13833759725093842,-0.6123895049095154,-89.58148956298828,-85.82508087158203, -35.91559600830078
211,765041364,0.49545103,-0.5450344,-0.17539833,-0.6532238,12.615513801574707,1.1818162202835083,0.22383584082126617,-112.57273864746094,-104.99651336669922, -47.48659133911133
212,765058031,0.47816437,-0.5615175,-0.17942542,-0.6510482,12.42910385131836,1.3092317581176758,-1.5325794219970703,-98.84977722167969,-115.41607666015625, -63.95028305053711
213,765074698,0.46397528,-0.57426184,-0.18991578,-0.6472111,12.776068687438965,-1.9748427867889404,-4.50852632522583,-43.58927917480469,-122.29901885986328, -73.91439056396484
214,765091365,0.4563015,-0.58566165,-0.20666426,-0.6372436,15.856213569641113,-11.162264823913574,-15.351883888244629,22.402082443237305,-151.6092987060547, -51.75038528442383
215,765108032,0.45531374,-0.5910313,-0.23273265,-0.6238646,23.570293426513672,-3.5371100902557373,8.197160720825195,114.28562927246094,-157.74246215820312, -58.26023864746094
216,765124699,0.44255272,-0.60209966,-0.2528384,-0.6145698,7.37882137298584,3.651714563369751,10.073328971862793,16.401145935058594,-165.8941192626953, -88.14665985107422
217,765141366,0.4231616,-0.6181502,-0.2579367,-0.6101585,4.128389835357666,-4.743183135986328,-0.5885948538780212,-98.23169708251953,-133.05978393554688, -59.961055755615234
218,765158033,0.41295198,-0.6292298,-0.26419738,-0.603109,6.093510627746582,-4.9487152099609375,-6.594258785247803,-35.13203811645508,-110.51280975341797, -27.689292907714844
219,765174700,0.41010877,-0.6351172,-0.27375978,-0.5945526,7.596321105957031,2.5470032691955566,-3.912295341491699,28.001541137695312,-91.17497253417969, -16.78506851196289
220,765191367,0.41021833,-0.6378754,-0.28310388,-0.5871016,11.438545227050781,4.964447021484375,0.390794038772583,46.79292297363281,-67.18524169921875, -12.624893188476562
221,765208034,0.41111854,-0.6395623,-0.2916156,-0.58043283,16.975597381591797,-1.695972204208374,3.3761959075927734,48.39087677001953,-55.546470642089844, -9.786072731018066
222,765224701,0.40871674,-0.64292717,-0.29901853,-0.5746157,13.438520431518555,-1.533940076828003,2.111062526702881,22.984569549560547,-62.147674560546875, -17.108489990234375
223,765241368,0.40307468,-0.6486063,-0.30143708,-0.57094353,10.328246116638184,0.6943517327308655,-0.17537513375282288,-21.94883155822754,-54.59511947631836, -9.127019882202148
224,765258035,0.39782855,-0.6535684,-0.30195296,-0.5686874,10.721532821655273,-0.024206817150115967,-1.5234432220458984,-28.583396911621094,-39.41651153564453, -4.382075309753418
225,765274702,0.39310387,-0.6577169,-0.30268887,-0.56679577,10.090926170349121,-1.6211652755737305,-1.8834190368652344,-23.900550842285156,-34.103355407714844, -5.934614658355713
226,765291369,0.3897799,-0.6605491,-0.30394194,-0.5651248,10.036169052124023,-2.12384295463562,-1.9536207914352417,-12.440922737121582,-26.43118667602539, -6.155558109283447
227,765308036,0.38746324,-0.6624717,-0.30558228,-0.5635807,10.142017364501953,-1.3406000137329102,-1.2890342473983765,-4.177553653717041,-21.22219467163086, -6.279975891113281
228,765324703,0.38319376,-0.66561824,-0.3054969,-0.562838,10.23208999633789,-1.6485577821731567,-0.7564878463745117,-24.70941162109375,-21.826152801513672, -5.544633865356445
229,765341370,0.37825227,-0.66944313,-0.3049615,-0.56193376,10.120914459228516,-1.9946855306625366,-0.7839053273200989,-30.97452163696289,-25.46087074279785, -4.237901210784912
230,765358037,0.37389413,-0.6729259,-0.30656132,-0.5598162,10.439090728759766,-1.2701681852340698,-0.641469419002533,-16.611780166625977,-34.09614944458008, -9.398462295532227
231,765374704,0.3684934,-0.6769572,-0.30953288,-0.5568943,10.287467002868652,-1.6220812797546387,0.6791555285453796,-15.864168167114258,-45.70392990112305, -16.53092384338379
232,765391371,0.36221334,-0.6819142,-0.31366593,-0.5526376,9.47207260131836,-2.169626474380493,-0.15274226665496826,-15.024174690246582,-60.38972473144531, -19.971267700195312
233,765408038,0.35587734,-0.6868852,-0.32003847,-0.5469147,8.76003360748291,-2.032058000564575,-0.8013545274734497,-3.6482486724853516,-73.08863067626953, -27.062009811401367
234,765424705,0.35019204,-0.69158316,-0.32790968,-0.5399571,9.299920082092285,-2.0002427101135254,-1.293538212776184,8.450201034545898,-80.170166015625, -29.340925216674805
235,765441372,0.34494513,-0.6958728,-0.3366561,-0.5323879,10.445448875427246,-2.326550245285034,-1.1571210622787476,16.144201278686523,-82.70608520507812, -31.394033432006836
236,765458039,0.33912045,-0.70030594,-0.34587273,-0.5243484,10.146148681640625,-2.161827325820923,-1.5540910959243774,15.851387023925781,-87.98574829101562, -34.396484375
237,765474706,0.33195084,-0.7054874,-0.35466984,-0.516048,9.998950958251953,-1.9234730005264282,-1.4948593378067017,6.734234809875488,-94.20243072509766, -34.91645050048828
238,765491373,0.32400933,-0.71087927,-0.36387038,-0.50721526,10.917160987854004,-0.7204209566116333,-1.5662977695465088,5.2383246421813965,-100.39302062988281, -37.95415115356445
239,765508040,0.3149516,-0.7163901,-0.3738538,-0.49781957,11.600008010864258,0.005598100367933512,-1.756438136100769,3.6655263900756836,-108.1727066040039, -44.13949203491211
240,765524707,0.30501372,-0.72200453,-0.38454428,-0.4876493,11.588940620422363,-0.909720242023468,-1.5358548164367676,3.5364089012145996,-116.22831726074219, -48.680484771728516
241,765541374,0.29402342,-0.7276584,-0.39560714,-0.4770312,12.443999290466309,0.0009343879064545035,-1.463688611984253,0.6662728786468506,-122.26295471191406, -53.05129623413086
242,765558041,0.28020427,-0.7335577,-0.40605798,-0.46743527,13.041919708251953,0.2249290943145752,-0.4053801894187927,-18.748506546020508,-124.5631332397461, -60.668514251708984
243,765574708,0.26384524,-0.739759,-0.41504928,-0.45921275,13.03203010559082,-0.8878404498100281,0.325573205947876,-40.6461067199707,-123.11529541015625, -63.26740264892578
244,765591375,0.24549621,-0.7462811,-0.42279902,-0.45170474,12.705009460449219,-1.1608493328094482,0.7260798215866089,-57.304222106933594,-124.2010498046875, -63.668758392333984
245,765608042,0.22356929,-0.7534202,-0.4291874,-0.4451663,12.705469131469727,-0.3682379126548767,0.15637841820716858,-83.74755096435547,-129.55645751953125, -67.71868133544922
246,765624709,0.19697292,-0.76048774,-0.43557957,-0.43946624,13.900656700134277,-0.3596746623516083,1.3827160596847534,-110.27706146240234,-139.08807373046875, -83.598388671875
247,765641376,0.16603866,-0.7678604,-0.43976566,-0.43523312,16.127643585205078,-4.389513969421387,3.0681819915771484,-144.40130615234375,-142.7400360107422, -86.35331726074219
248,765658043,0.12713204,-0.7769865,-0.43848783,-0.43342596,21.101356506347656,-10.615096092224121,6.173437118530273,-212.2582550048828,-153.58013916015625, -79.1504135131836
249,765674710,0.07838953,-0.7868643,-0.4307783,-0.43489093,22.452735900878906,-13.88864803314209,7.057745933532715,-294.7366638183594,-163.12722778320312, -75.36508178710938
250,765691377,0.032597702,-0.79098105,-0.4265643,-0.43741214,18.831836700439453,-10.060873985290527,5.1686930656433105,-268.56768798828125,-134.03855895996094, -103.96399688720703
251,765708044,-0.0009133497,-0.7899699,-0.42680943,-0.4402051,16.210617065429688,-13.969059944152832,-1.521655797958374,-188.1039581298828,-82.62035369873047, -107.0941162109375
252,765724711,-0.021746764,-0.7904738,-0.42667136,-0.43889648,17.66879653930664,-9.505829811096191,3.5430781841278076,-108.6814193725586,-72.53050994873047, -62.973716735839844
253,765741378,-0.03536898,-0.7883228,-0.42391655,-0.44451225,12.0230712890625,-7.974499225616455,6.650167465209961,-98.23780059814453,-6.568551063537598, -34.38318634033203
254,765758045,-0.028259465,-0.7855466,-0.424634,-0.44922635,10.709015846252441,-6.077150344848633,5.346598148345947,27.18745994567871,51.28915023803711, 7.679927349090576
255,765774712,-0.00843357,-0.7820843,-0.4262875,-0.45448014,7.880866050720215,-4.095308780670166,3.80305814743042,97.06525421142578,93.18531799316406, 39.759185791015625
256,765791379,0.01867884,-0.77756315,-0.4252575,-0.46282068,6.505239009857178,-5.330092430114746,4.483778476715088,118.7873306274414,133.92515563964844, 73.97163391113281
257,765808046,0.05094601,-0.7715838,-0.42018363,-0.47487786,6.507040023803711,-6.095925807952881,2.6367568969726562,122.80835723876953,173.67486572265625, 107.20816802978516
258,765824713,0.08974162,-0.76320064,-0.4116839,-0.4898852,7.462153911590576,-3.971374273300171,1.249311089515686,138.5468292236328,216.9529266357422, 138.6783905029297
259,765841380,0.13199271,-0.75182706,-0.39866352,-0.5083322,9.045042037963867,-1.7352428436279297,0.9492164850234985,133.5461883544922,257.4030456542969, 163.48536682128906
260,765858047,0.17736165,-0.736968,-0.38258237,-0.52825385,10.583150863647461,-0.9785942435264587,0.0938866138458252,138.1011199951172,288.2943115234375, 179.42218017578125
261,765874714,0.22540441,-0.7179251,-0.36427802,-0.5487059,11.960497856140137,0.9449461102485657,-1.233515977859497,147.30679321289062,315.72247314453125, 188.89967346191406
262,765891381,0.26976556,-0.69680774,-0.33885399,-0.57171977,13.257230758666992,2.055051565170288,-2.554441213607788,99.03803253173828,337.8893127441406, 201.1969451904297
263,765908048,0.31200767,-0.6730131,-0.30890858,-0.59521455,14.371946334838867,1.9068493843078613,-4.233994007110596,74.93345642089844,354.18304443359375, 207.60458374023438
264,765924715,0.35276824,-0.64678085,-0.2779561,-0.6164168,15.260761260986328,0.37072962522506714,-6.665633201599121,74.0391616821289,352.690185546875, 206.13095092773438
265,765941382,0.39057833,-0.61967593,-0.24487007,-0.6352081,19.0897274017334,1.7132962942123413,-9.914344787597656,58.61501693725586,345.4798889160156, 207.4392852783203
266,765958049,0.42318588,-0.59136486,-0.21137646,-0.653086,21.836597442626953,5.6053643226623535,-7.522638320922852,39.40822982788086,339.6897277832031, 187.06716918945312
267,765974716,0.4476838,-0.56588006,-0.17736794,-0.6692532,20.401723861694336,3.881246328353882,-7.4467363357543945,-1.7245054244995117,310.2520446777344, 162.15118408203125
268,765991383,0.47342134,-0.5374201,-0.15205808,-0.6811242,20.68429183959961,1.6126736402511597,-8.989974021911621,57.64827346801758,282.50469970703125, 143.96597290039062
269,766008050,0.49889034,-0.5077194,-0.13964687,-0.6883518,20.25214385986328,2.8098108768463135,-13.940199851989746,126.08116912841797,229.55528259277344, 109.2370834350586
270,766024717,0.51926106,-0.48434526,-0.13818505,-0.69042206,13.891403198242188,7.157495975494385,-21.305810928344727,143.4778594970703,140.0140838623047, 71.0804443359375
271,766041384,0.52981776,-0.47331777,-0.14439085,-0.6887779,10.55318832397461,11.601268768310547,-22.83648681640625,106.78816986083984,33.31790542602539, 24.41175079345703
272,766058051,0.52896136,-0.47699568,-0.15604346,-0.68434316,10.903308868408203,7.430993556976318,-19.27593994140625,44.715084075927734,-75.65386962890625, -22.121688842773438
273,766074718,0.52293324,-0.48770818,-0.17475161,-0.676863,13.212600708007812,2.784982442855835,-13.876221656799316,38.72862243652344,-149.22459411621094, -50.675323486328125
274,766091385,0.5139004,-0.5010968,-0.19829501,-0.6674487,16.750993728637695,1.084267020225525,-4.594507217407227,43.95828628540039,-188.64016723632812, -70.55894470214844
275,766108052,0.49906224,-0.5225336,-0.21320082,-0.6576026,21.75612449645996,-4.369497776031494,8.006484985351562,-43.51154708862305,-204.21556091308594, -54.83018493652344
276,766124719,0.4874508,-0.53662443,-0.2356144,-0.64723396,18.822938919067383,11.51304817199707,1.6000229120254517,27.993120193481445,-193.99441528320312, -76.21175384521484
277,766141386,0.47458208,-0.55553526,-0.2502923,-0.6352215,15.932026863098145,-3.0022175312042236,-8.649985313415527,-24.64691734313965,-197.60601806640625, -39.602603912353516
278,766158053,0.4661472,-0.5671954,-0.26645753,-0.62449723,9.302044868469238,1.481059193611145,-0.6165133118629456,20.31294059753418,-158.03123474121094, -42.68439865112305
279,766174720,0.45950106,-0.57751006,-0.27730522,-0.61517704,10.89466381072998,-5.478165626525879,-1.2201400995254517,6.218465328216553,-126.53857421875, -21.241703033447266
280,766191387,0.45520157,-0.58427936,-0.28638396,-0.6077775,10.789039611816406,-2.811641216278076,0.016291841864585876,15.6188383102417,-93.91828155517578, -17.284252166748047
281,766208054,0.45236653,-0.58902633,-0.29431918,-0.60148895,11.299933433532715,-1.4804255962371826,1.318769097328186,20.875030517578125,-74.64032745361328, -14.118847846984863
282,766224721,0.45018983,-0.5920205,-0.3014457,-0.59663343,11.28060245513916,-1.4058598279953003,-0.14997349679470062,22.72502326965332,-57.85499572753906, -16.179840087890625
283,766241388,0.4527193,-0.5910024,-0.3116642,-0.5904465,11.220452308654785,-2.0378763675689697,0.3256501853466034,69.74012756347656,-46.71066665649414, -13.705731391906738
284,766258055,0.45948547,-0.58610374,-0.32514638,-0.5827827,10.220375061035156,-1.2117531299591064,-0.390774130821228,115.4457015991211,-38.11674499511719, -13.554340362548828
285,766274722,0.4655257,-0.58157766,-0.33639026,-0.5761034,10.412198066711426,-0.17809109389781952,0.16410648822784424,100.16263580322266,-30.252206802368164, -9.77175235748291
286,766291389,0.4671247,-0.580601,-0.34215665,-0.57238615,9.845842361450195,-0.10346176475286484,0.04051923379302025,42.48102569580078,-25.27055549621582, -6.752399921417236
287,766308056,0.46702835,-0.5810811,-0.345713,-0.569835,10.193096160888672,-1.3374234437942505,0.014016324654221535,19.582786560058594,-23.299720764160156, -4.930512428283691
288,766324723,0.46705,-0.5812182,-0.34974232,-0.56721276,9.943347930908203,-1.2486801147460938,0.20854470133781433,23.17463493347168,-23.53143882751465, -6.97083044052124
289,766341390,0.46542665,-0.5824564,-0.35277882,-0.56539357,10.036840438842773,-1.598734974861145,0.9680324792861938,7.254310607910156,-25.435182571411133, -9.369227409362793
290,766358057,0.46196225,-0.5849013,-0.3549293,-0.564364,9.416315078735352,-1.802350401878357,0.7384905815124512,-9.347723960876465,-28.650386810302734, -12.598858833312988
291,766374724,0.45812175,-0.5877033,-0.3577964,-0.5627709,9.744260787963867,-1.8925503492355347,0.8707680106163025,-7.845327854156494,-35.545597076416016, -14.299327850341797
292,766391391,0.45341003,-0.5913426,-0.36142838,-0.56044877,9.246910095214844,-1.0620521306991577,1.0615099668502808,-9.25955867767334,-46.327117919921875, -16.425464630126953
293,766408058,0.44693753,-0.59648883,-0.36564848,-0.5574488,9.077634811401367,-0.9864238500595093,0.7371857762336731,-17.17078971862793,-61.14216613769531, -19.752973556518555
294,766424725,0.43882346,-0.6030189,-0.37089685,-0.5533878,8.918693542480469,-1.9320452213287354,1.3816999197006226,-21.5504150390625,-78.12034606933594, -23.53030014038086
295,766441392,0.42897466,-0.6110894,-0.37646416,-0.5484756,9.15528392791748,-2.115776538848877,1.8583147525787354,-30.011577606201172,-92.9387435913086, -24.974403381347656
296,766458059,0.4183842,-0.6200348,-0.38242185,-0.5424621,10.706110954284668,-2.950868606567383,0.8476674556732178,-31.39555549621582,-103.98080444335938, -23.917219161987305
297,766474726,0.40550983,-0.62968576,-0.38925567,-0.5362257,11.712247848510742,-0.10715540498495102,0.5760316252708435,-39.31760025024414,-116.11985778808594, -33.69800567626953
298,766491393,0.39187166,-0.6394868,-0.39703032,-0.5290182,10.883292198181152,-0.5218673348426819,-0.45936447381973267,-36.972103118896484,-125.57587432861328, -37.472145080566406
299,766508060,0.37898535,-0.64851826,-0.40744293,-0.5194079,11.549657821655273,1.1380202770233154,0.7574614882469177,-15.448030471801758,-138.41598510742188, -41.96277618408203
300,766524727,0.3654194,-0.65772414,-0.41893664,-0.5082911,12.714741706848145,0.6004611849784851,-1.625929594039917,-10.845440864562988,-150.5135040283203, -44.784934997558594
301,766541394,0.35008278,-0.6675964,-0.43001214,-0.49683693,14.145425796508789,2.5311803817749023,0.703850269317627,-21.020023345947266,-158.4329376220703, -46.307861328125
302,766558061,0.32845753,-0.6798675,-0.4377903,-0.48809385,16.62721824645996,1.021604061126709,2.387432336807251,-74.93128204345703,-164.88775634765625, -52.07156753540039
303,766574728,0.30466944,-0.6922731,-0.44500768,-0.47948194,20.527978897094727,-3.2701849937438965,3.851775884628296,-87.62551879882812,-170.03961181640625, -56.598915100097656
304,766591395,0.27677146,-0.70635736,-0.45012388,-0.47100466,23.531150817871094,-4.082231044769287,9.776141166687012,-118.08275604248047,-183.20657348632812, -55.324337005615234
305,766608062,0.22534765,-0.7281114,-0.44031328,-0.47454882,24.03744125366211,-2.2652993202209473,16.22366714477539,-332.64666748046875,-194.28594970703125, -58.23760223388672
306,766624729,0.15030572,-0.75199926,-0.41758922,-0.4873649,21.21821403503418,-6.023434638977051,4.060357093811035,-524.8305053710938,-206.64906311035156, -78.69931030273438
307,766641396,0.090451665,-0.76496446,-0.40821055,-0.48991022,20.963130950927734,-20.8937931060791,1.3986163139343262,-360.4624938964844,-193.28797912597656, -117.66656494140625
308,766658063,0.04695144,-0.77315307,-0.40813738,-0.4831705,14.479673385620117,-18.342130661010742,4.570635795593262,-214.02719116210938,-185.90553283691406, -119.31597137451172
309,766674730,0.026341386,-0.7767268,-0.41159692,-0.4760144,12.37504768371582,-12.860922813415527,6.06011962890625,-77.98418426513672,-109.70053100585938, -74.96635437011719
310,766691397,0.009476028,-0.77790844,-0.4058466,-0.47964302,8.848138809204102,-11.770094871520996,10.465254783630371,-118.26826477050781,-32.06291198730469, -22.324996948242188
311,766708064,0.013579807,-0.7772858,-0.40213436,-0.48366374,5.230098724365234,-9.475173950195312,8.76147174835205,-0.3902380168437958,34.3003044128418, 30.801288604736328
312,766724731,0.032524336,-0.77565897,-0.3966499,-0.4898614,5.140269756317139,-7.6470208168029785,6.133842468261719,67.0921859741211,90.4305419921875, 86.6260986328125
313,766741398,0.06424643,-0.7709477,-0.39003843,-0.49938163,4.954832077026367,-5.216172695159912,7.734213352203369,123.07518768310547,153.6248016357422, 126.52910614013672
314,766758065,0.09671679,-0.7636474,-0.3767767,-0.51529413,5.164550304412842,-2.9468467235565186,5.375753402709961,88.21099853515625,201.32174682617188, 154.6041717529297
315,766774732,0.1305833,-0.7536537,-0.35782984,-0.53564173,7.152735710144043,-2.1975769996643066,2.007497787475586,65.70931243896484,241.56137084960938, 179.5009765625
316,766791399,0.16809817,-0.73991674,-0.33535612,-0.558393,8.505894660949707,-0.362985223531723,2.26664662361145,69.08684539794922,279.9914245605469, 199.8729705810547
317,766808066,0.20647217,-0.7224822,-0.30828726,-0.5833934,11.169330596923828,1.7260066270828247,1.9164402484893799,54.92045974731445,312.9681091308594, 215.45664978027344
318,766824733,0.24576601,-0.70135266,-0.27730224,-0.6089393,14.36644172668457,3.069164514541626,0.9513837099075317,47.88906478881836,338.0564880371094, 230.04025268554688
319,766841400,0.28810418,-0.6746868,-0.24757296,-0.6328518,17.207679748535156,4.159327507019043,-1.004267692565918,80.34980773925781,357.0905456542969, 228.98448181152344
320,766858067,0.3327698,-0.6428171,-0.22168027,-0.65338236,18.757282257080078,1.1798323392868042,-4.806072235107422,123.9710464477539,360.4480895996094, 219.21824645996094
321,766874734,0.37872684,-0.60739994,-0.19858798,-0.6694731,22.003206253051758,-0.5776562690734863,-6.420945644378662,157.21014404296875,352.385498046875, 217.4559326171875
322,766891401,0.41934502,-0.5715846,-0.1760914,-0.68295884,25.83201789855957,3.0761940479278564,-6.2249932289123535,142.16661071777344,334.5679016113281, 196.6357421875
323,766908068,0.45519775,-0.53698975,-0.15735368,-0.6925872,24.629575729370117,1.884264349937439,-8.77089786529541,142.306396484375,297.1176452636719, 172.1627960205078
324,766924735,0.49233243,-0.498488,-0.15318377,-0.6968883,20.69799041748047,4.207615852355957,-12.807318687438965,234.4773406982422,251.9646759033203, 137.00440979003906
325,766941402,0.51994604,-0.46728212,-0.15507065,-0.69803786,15.820812225341797,6.87086820602417,-18.13193702697754,209.5035400390625,175.76300048828125, 89.05944061279297
326,766958069,0.5332138,-0.45347795,-0.15442435,-0.6972762,11.631109237670898,6.570778846740723,-23.926433563232422,91.08030700683594,80.00859069824219, 53.820274353027344
327,766974736,0.5351374,-0.4542299,-0.15752289,-0.6946149,9.74663257598877,6.764599323272705,-21.120939254760742,22.373409271240234,-21.271142959594727, 10.270198822021484
328,766991403,0.5312093,-0.46259114,-0.17122923,-0.68884456,11.441669464111328,3.24623703956604,-15.14370059967041,30.181684494018555,-112.52091217041016, -31.041027069091797
329,767008070,0.5248982,-0.47471496,-0.19243814,-0.67977583,13.589591979980469,-0.5703375935554504,-9.173097610473633,48.3283576965332,-170.91363525390625, -49.66507339477539
330,767024737,0.5185505,-0.48828387,-0.21737279,-0.66740793,15.509241104125977,-3.796098232269287,-4.253482818603516,64.80789947509766,-201.8316192626953, -48.17334747314453
331,767041404,0.5118127,-0.5038622,-0.24048571,-0.6529451,16.921398162841797,-7.873228073120117,5.815918922424316,51.14598846435547,-212.1014404296875, -33.38864517211914
332,767058071,0.5151576,-0.5057855,-0.27733243,-0.6339404,18.904287338256836,9.953445434570312,1.633249282836914,203.3465576171875,-198.21046447753906, -42.376991271972656
333,767074738,0.5084704,-0.5176772,-0.30067012,-0.618923,15.559568405151367,8.498958587646484,-4.422069549560547,66.61170959472656,-199.01231384277344, -34.16436767578125
334,767091405,0.49933454,-0.53193104,-0.31501034,-0.6070281,10.551172256469727,0.14483533799648285,-0.6874691247940063,4.912436008453369,-171.48367309570312, -18.514047622680664
335,767108072,0.49424264,-0.5425148,-0.32598943,-0.5959306,10.576396942138672,-1.720592975616455,0.40324506163597107,16.555810928344727,-132.93359375, -0.03113420680165291
336,767124739,0.489651,-0.55182356,-0.3327189,-0.58739334,13.015464782714844,-0.6206257343292236,1.7742767333984375,-0.38449931144714355,-102.59660339355469, 6.2966742515563965
337,767141406,0.48640808,-0.5591981,-0.3382526,-0.57990515,11.481517791748047,-2.2076926231384277,3.0701847076416016,4.017112731933594,-83.70677947998047, 8.323188781738281
338,767158073,0.48440504,-0.56460875,-0.34405148,-0.572885,10.655269622802734,-2.6927976608276367,0.8088093400001526,15.326088905334473,-72.10934448242188, 6.098757266998291
339,767174740,0.4842658,-0.56776994,-0.3504308,-0.5659702,9.717018127441406,-3.1980369091033936,0.7477466464042664,32.09142303466797,-60.375484466552734, 5.49235725402832
340,767191407,0.48499915,-0.56891024,-0.35801706,-0.5594111,10.663006782531738,-2.8105251789093018,-0.3054425120353699,46.06391525268555,-53.04949951171875, -1.9077054262161255
341,767208074,0.4859559,-0.5687611,-0.36596802,-0.55355686,9.782896041870117,-2.6871798038482666,-0.7588343620300293,50.9051628112793,-45.99931716918945, -8.02467155456543
342,767224741,0.48615503,-0.5689615,-0.37272686,-0.5486446,10.098597526550293,-2.049149990081787,0.1808134913444519,39.86612319946289,-41.56600570678711, -8.538171768188477
343,767241408,0.48656538,-0.5687161,-0.37938517,-0.54395133,10.46784782409668,-0.4193713366985321,-0.10296906530857086,41.23801040649414,-38.157169342041016, -9.23997688293457
344,767258075,0.4856732,-0.56991553,-0.3840774,-0.54018754,9.914427757263184,-0.4930481016635895,-0.5763536691665649,21.534969329833984,-36.75202560424805, -5.7627153396606445
345,767274742,0.483002,-0.5726599,-0.38667375,-0.53782266,9.920451164245605,0.32124271988868713,-0.41281864047050476,-2.070885181427002,-34.70868682861328, -4.7460408210754395
346,767291409,0.47755444,-0.57804364,-0.38593677,-0.53745735,10.148751258850098,0.05300019308924675,0.31624650955200195,-39.41677474975586,-32.91204833984375, -1.4944509267807007
347,767308076,0.4692767,-0.58615094,-0.38184348,-0.5388897,10.566829681396484,-0.013629727996885777,0.12857671082019806,-76.77510070800781,-32.336875915527344, 2.7324230670928955
348,767324743,0.4579316,-0.59666586,-0.37499946,-0.5419077,10.77366828918457,0.3495583236217499,0.6628039479255676,-111.26326751708984,-34.06090545654297, 3.685260534286499
349,767341410,0.4412656,-0.6110339,-0.36407453,-0.5471492,10.062172889709473,-0.10155147314071655,-0.12753073871135712,-166.17250061035156,-40.19269943237305, 3.5732696056365967
350,767358077,0.42564353,-0.6236945,-0.35624692,-0.55038255,8.656689643859863,-3.3953592777252197,-0.507521390914917,-139.9196319580078,-49.00874710083008, -3.661132574081421
351,767374744,0.41531742,-0.6321932,-0.35491002,-0.549438,8.220929145812988,-3.2381460666656494,-0.9491581320762634,-70.23002624511719,-57.20874786376953, -9.4314603805542
352,767391411,0.40586066,-0.6398855,-0.3561066,-0.5468198,8.147781372070312,-3.127014398574829,-0.6928762793540955,-50.50185775756836,-66.55503845214844, -14.365887641906738
353,767408078,0.39532784,-0.64830625,-0.35778862,-0.54350924,9.324501991271973,-3.6181600093841553,-0.7129001617431641,-53.75021743774414,-76.33902740478516, -16.8498592376709
354,767424745,0.38629788,-0.6555098,-0.36234623,-0.5383177,11.159512519836426,-2.8628334999084473,-0.5761112570762634,-28.371797561645508,-84.30323028564453, -21.95917320251465
355,767441412,0.37656763,-0.66308093,-0.36766455,-0.5323002,10.81486988067627,-0.6984445452690125,-0.46503329277038574,-27.660058975219727,-93.16437530517578, -24.88692283630371
356,767458079,0.3668129,-0.670449,-0.3738334,-0.52554286,10.209863662719727,0.7847691774368286,-0.9160041809082031,-22.247827529907227,-98.07672119140625, -27.452922821044922
357,767474746,0.35802284,-0.67677206,-0.3821767,-0.5174363,11.372638702392578,1.1381616592407227,-0.3394053280353546,-3.8483400344848633,-103.5376968383789, -33.26043701171875
358,767491413,0.35072798,-0.6818424,-0.39373112,-0.50700766,12.845887184143066,0.5695967674255371,-2.591104745864868,23.721885681152344,-113.88673400878906, -40.4467887878418
359,767508080,0.34254318,-0.6866443,-0.40709886,-0.4954335,13.242572784423828,-0.021599195897579193,0.16392366588115692,29.62936782836914,-125.11099243164062, -50.011741638183594
360,767524747,0.32853088,-0.6939262,-0.4179403,-0.4856541,14.404790878295898,-1.0923150777816772,0.06702223420143127,-17.36952018737793,-135.48997497558594, -55.220855712890625
361,767541414,0.3080356,-0.70377856,-0.4263364,-0.477543,16.392457962036133,-2.205380439758301,0.9547380208969116,-67.07978820800781,-149.27734375, -61.5936279296875
362,767558081,0.2790324,-0.7168007,-0.43134433,-0.47146568,19.815778732299805,-1.6790056228637695,4.485968589782715,-132.08985900878906,-167.70033264160156, -68.1695556640625
363,767574748,0.23917702,-0.7328153,-0.43006933,-0.4699112,21.336515426635742,-3.68074107170105,8.31902027130127,-225.1754913330078,-175.41244506835938, -72.2044677734375
364,767591415,0.19580421,-0.7481749,-0.4260431,-0.46944913,20.852703094482422,-5.159646034240723,9.251458168029785,-254.01495361328125,-173.8851776123047, -73.49073791503906
365,767608082,0.15464596,-0.7598553,-0.42717022,-0.46500576,20.674097061157227,-6.211169242858887,2.394545793533325,-209.4178009033203,-183.16018676757812, -98.34983825683594
366,767624749,0.1073681,-0.7716769,-0.42287484,-0.46277848,25.759654998779297,-15.872931480407715,13.323368072509766,-265.4924011230469,-184.4146270751953, -91.64287567138672
367,767641416,0.057183385,-0.77712476,-0.41447848,-0.4701223,17.16070556640625,-14.555469512939453,6.668728828430176,-317.2803039550781,-119.07167053222656, -104.96967315673828
368,767658083,0.03237449,-0.7794149,-0.41836867,-0.4652228,12.209610939025879,-18.038997650146484,-3.936246395111084,-105.847412109375,-106.94029998779297, -92.95671844482422
369,767674750,0.019596715,-0.78020465,-0.418491,-0.4645017,15.002557754516602,-9.035002708435059,10.751874923706055,-65.29747772216797,-44.36463165283203, -39.710174560546875
370,767691417,0.01114121,-0.77911556,-0.41442487,-0.4702199,4.402669429779053,-10.135238647460938,10.183941841125488,-73.83024597167969,8.958571434020996, -9.850186347961426
371,767708084,0.015227373,-0.77763313,-0.40541855,-0.48030278,3.47475528717041,-7.300152778625488,8.0300874710083,-35.08249282836914,69.60269165039062, 55.5848388671875
372,767724751,0.03457677,-0.7744068,-0.39623153,-0.492036,3.74373197555542,-4.565104961395264,7.0130205154418945,41.46775817871094,126.66040802001953, 101.84426879882812
373,767741418,0.06380191,-0.7682264,-0.38636723,-0.50643677,3.58963680267334,-2.2656633853912354,7.120517253875732,85.18285369873047,177.84561157226562, 130.14321899414062
374,767758085,0.09850601,-0.7595975,-0.3723115,-0.52411085,5.551824569702148,-4.2428154945373535,4.310194492340088,91.91097259521484,219.9842071533203, 163.41529846191406
375,767774752,0.14158227,-0.7462715,-0.35763043,-0.54326236,7.165097713470459,-3.663586139678955,1.8295495510101318,132.77464294433594,266.444580078125, 183.80592346191406
376,767791419,0.190976,-0.7275984,-0.3402843,-0.5642124,8.752803802490234,-2.801954746246338,0.9482251405715942,156.0177001953125,313.7716369628906, 206.17530822753906
377,767808086,0.24304698,-0.70392513,-0.31789288,-0.5868233,13.061893463134766,0.15315945446491241,-0.18452376127243042,152.5150909423828,354.3787536621094, 227.9221649169922
378,767824753,0.2955363,-0.67481035,-0.2928553,-0.6095286,16.57305335998535,3.123213768005371,-1.08389413356781,152.78475952148438,382.1372985839844, 230.37550354003906
379,767841420,0.34769577,-0.6400603,-0.26895234,-0.6301549,20.3533878326416,2.477881908416748,-3.664520740509033,171.7446746826172,393.1392517089844, 216.65335083007812
380,767858087,0.40030578,-0.5988636,-0.2499035,-0.64704406,23.971115112304688,2.5081920623779297,-5.969621658325195,217.1238555908203,393.8977966308594, 194.32754516601562
381,767874754,0.44275868,-0.55830824,-0.2271251,-0.6638306,25.928607940673828,2.793747663497925,-7.30765438079834,157.0900421142578,383.4783020019531, 165.93983459472656
382,767891421,0.47292963,-0.5255445,-0.1986445,-0.6787349,28.18937873840332,-0.16523408889770508,-9.763219833374023,63.094085693359375,338.9629821777344, 149.72122192382812
383,767908088,0.5009492,-0.49409053,-0.17751394,-0.6880505,23.11185646057129,-0.19436901807785034,-14.457265853881836,93.1723403930664,286.0126953125, 133.1918487548828
384,767924755,0.526188,-0.46371335,-0.16931894,-0.692407,16.513851165771484,5.6645097732543945,-19.95623207092285,147.404052734375,216.386962890625, 94.60066223144531
385,767941422,0.5399362,-0.44693664,-0.16569883,-0.6937295,11.300492286682129,9.884817123413086,-23.838029861450195,86.98139190673828,112.34030151367188, 52.316993713378906
386,767958089,0.539009,-0.4495774,-0.16295761,-0.6933934,8.776890754699707,6.7627739906311035,-22.33541488647461,-24.008325576782227,-4.990377426147461, 8.139179229736328
387,767974756,0.5322812,-0.46156055,-0.16987915,-0.68904257,12.074030876159668,0.7046175003051758,-16.592266082763672,-25.88178253173828,-103.91435241699219, -23.84908676147461
388,767991423,0.5270617,-0.4734547,-0.19023687,-0.67960036,13.604981422424316,-1.7264971733093262,-10.034503936767578,48.95389938354492,-166.77194213867188, -40.71739959716797
389,768008090,0.52384657,-0.48282978,-0.21997346,-0.66638714,14.990439414978027,-0.19388297200202942,-3.694617509841919,113.47137451171875,-198.42210388183594, -51.48139953613281
390,768024757,0.51861644,-0.4956374,-0.24671717,-0.6515453,18.34693717956543,-4.316165447235107,5.812254428863525,83.22069549560547,-211.65960693359375, -39.68214797973633
391,768041424,0.5162325,-0.50189894,-0.27896398,-0.63543755,20.033794403076172,15.492788314819336,1.8194389343261719,143.08485412597656,-201.4014892578125, -52.32736587524414
392,768058091,0.49921283,-0.5248426,-0.2909224,-0.62505287,17.100622177124023,5.6028218269348145,-5.38344669342041,-66.27720642089844,-210.49203491210938, -34.28487777709961
393,768074758,0.48254645,-0.5451386,-0.30145612,-0.6157087,10.521540641784668,-0.9764120578765869,-0.10682538151741028,-64.04688262939453,-189.5922088623047, -36.341148376464844
394,768091425,0.47264615,-0.5592795,-0.31130472,-0.605724,7.194612503051758,-6.8702921867370605,-1.5328714847564697,-19.806766510009766,-149.5835723876953, -15.751319885253906
395,768108092,0.47024205,-0.5662392,-0.32351905,-0.59462696,11.25481128692627,-3.4768178462982178,0.03803984820842743,44.64683151245117,-115.54351043701172, -5.489853858947754
396,768124759,0.4686366,-0.57152057,-0.33321884,-0.58541363,12.146530151367188,-1.1224335432052612,2.638302803039551,38.729801177978516,-91.40420532226562, -2.3142006397247314
397,768141426,0.46550363,-0.5769052,-0.34025624,-0.5785435,11.56580638885498,-0.8914995789527893,0.7190025448799133,16.311532974243164,-77.54551696777344, -5.324383735656738
398,768158093,0.46413982,-0.5804371,-0.34736988,-0.5718401,10.478652000427246,-0.5493617653846741,1.6141921281814575,29.181819915771484,-65.60689544677734, -3.4610817432403564
399,768174760,0.46537468,-0.58157176,-0.35533655,-0.56474465,10.844578742980957,-1.7944608926773071,-0.18037766218185425,51.5030517578125,-54.270477294921875, -1.1278774738311768
400,768191427,0.46742898,-0.5815196,-0.36297742,-0.5582049,10.437915802001953,-1.2761136293411255,0.02579132467508316,55.96407699584961,-44.37322235107422, -1.3486864566802979
401,768208094,0.4665377,-0.58335894,-0.36718124,-0.5542679,10.184325218200684,-1.5924108028411865,-0.16348721086978912,18.426227569580078,-37.51632308959961, -2.569993734359741
402,768224761,0.46517932,-0.58506286,-0.37042567,-0.5514478,10.477251052856445,-1.4718559980392456,-0.879386842250824,10.515685081481934,-30.60857391357422, -4.438069820404053
403,768241428,0.46490952,-0.5856,-0.3742055,-0.5485454,10.418135643005371,-1.8313651084899902,-0.6313912868499756,20.88004493713379,-25.43198585510254, -5.179446220397949
404,768258095,0.4645648,-0.58591795,-0.37750855,-0.5462301,10.221187591552734,-1.147072196006775,-0.43592569231987,17.97616195678711,-20.889991760253906, -5.999112129211426
405,768274762,0.46251753,-0.5875548,-0.3789521,-0.54520875,10.619964599609375,-0.9648101925849915,-0.015423694625496864,-3.4310052394866943,-19.096755981445312, -5.610470294952393
406,768291429,0.45960137,-0.58995354,-0.37982416,-0.54447687,10.441965103149414,-0.8250885009765625,-0.42689743638038635,-12.261311531066895,-21.225893020629883, -5.485419750213623
407,768308096,0.45587453,-0.59305215,-0.3807548,-0.5435931,10.06442642211914,-0.8096165657043457,0.2578982710838318,-17.136545181274414,-26.75498390197754, -6.435931205749512
408,768324763,0.45074108,-0.59732044,-0.38136798,-0.54277015,10.049877166748047,-1.307262897491455,0.30105841159820557,-27.886301040649414,-33.57123565673828, -7.513230323791504
409,768341430,0.44329792,-0.6032515,-0.38158065,-0.5421909,9.711125373840332,-2.1743617057800293,0.7316668629646301,-44.65751647949219,-43.6002197265625, -10.875127792358398
410,768358097,0.4331458,-0.61128926,-0.3812118,-0.5416528,8.837554931640625,-3.2556138038635254,0.28391483426094055,-64.60159301757812,-56.64039611816406, -13.164894104003906
411,768374764,0.42065805,-0.62081957,-0.3804048,-0.54122317,8.493114471435547,-2.3784337043762207,0.407033771276474,-80.7907943725586,-66.57708740234375, -16.455350875854492
412,768391431,0.4079366,-0.63051933,-0.38096288,-0.53935206,9.661081314086914,-1.768048644065857,-0.38054776191711426,-73.45215606689453,-77.94166564941406, -18.548385620117188
413,768408098,0.39394373,-0.64063805,-0.38301256,-0.5363701,10.548020362854004,-0.056689776480197906,0.9296607971191406,-71.69856262207031,-91.83708190917969, -25.51662826538086
414,768424765,0.378748,-0.6514035,-0.385983,-0.5322036,10.571080207824707,0.2676085829734802,-0.25225019454956055,-72.24895477294922,-105.1466064453125, -29.068401336669922
415,768441432,0.36372328,-0.66197217,-0.39165545,-0.5254563,11.197790145874023,1.4975597858428955,1.2563735246658325,-54.22513198852539,-122.59611511230469, -34.32023620605469
416,768458099,0.3474377,-0.67341757,-0.39882165,-0.51646614,11.404050827026367,0.6142391562461853,-1.9805141687393188,-50.71625900268555,-143.17129516601562, -37.665340423583984
417,768474766,0.33100098,-0.6845633,-0.4074695,-0.50574696,13.109188079833984,0.7097831964492798,-0.4784465432167053,-40.69721221923828,-154.07733154296875, -41.73509979248047
418,768491433,0.31216004,-0.6962337,-0.4161225,-0.4946278,14.872255325317383,-1.1686415672302246,0.3378926217556,-52.04801559448242,-164.59378051757812, -47.730194091796875
419,768508100,0.28935626,-0.7086571,-0.4229126,-0.4849982,16.171979904174805,-1.4862432479858398,1.1667643785476685,-83.27495574951172,-167.46922302246094, -53.34648895263672
420,768524767,0.2600839,-0.72186506,-0.42656347,-0.4788641,19.301639556884766,-2.2266557216644287,4.151185035705566,-137.03077697753906,-165.77102661132812, -64.31983184814453
421,768541434,0.21892834,-0.7381393,-0.42341718,-0.4774293,21.95993995666504,-3.8987460136413574,9.698785781860352,-237.79385375976562,-175.52589416503906, -69.15299224853516
422,768558101,0.1671327,-0.75637835,-0.41407803,-0.47801456,22.05500030517578,-5.155563831329346,10.484964370727539,-321.15325927734375,-193.83709716796875, -70.07120513916016
423,768574768,0.11894192,-0.770662,-0.41083702,-0.47238338,21.238136291503906,-10.214797973632812,1.1626867055892944,-260.1952209472656,-210.3468017578125, -94.21146392822266
424,768591435,0.07729356,-0.77905506,-0.41103923,-0.467061,24.721744537353516,-13.23544979095459,12.015755653381348,-210.5594940185547,-174.1562957763672, -108.3469009399414
425,768608102,0.022239778,-0.78409463,-0.39486206,-0.478315,14.397541046142578,-14.760570526123047,3.2598257064819336,-380.42169189453125,-104.30929565429688, -82.33465576171875
426,768624769,-0.0032493433,-0.7867674,-0.39555627,-0.47383717,7.221487045288086,-13.917679786682129,-4.4825897216796875,-122.55299377441406,-103.84149932861328, -80.4048080444336
427,768641436,-0.01822718,-0.7867461,-0.39310464,-0.47557062,11.804268836975098,-6.779870986938477,10.09886360168457,-93.16162872314453,-32.98103713989258, -36.58530807495117
428,768658103,-0.026071325,-0.7843102,-0.38916206,-0.4824218,3.723292827606201,-6.230917930603027,6.1411871910095215,-73.65199279785156,21.368850708007812, -11.290739059448242
429,768674770,-0.021188308,-0.78176945,-0.3822421,-0.49221808,5.475870609283447,-6.434851169586182,2.6662757396698,-22.847936630249023,70.97708892822266, 47.07725524902344
430,768691437,0.00456981,-0.7780122,-0.38045192,-0.49993256,5.110553741455078,-5.379731178283691,3.5668888092041016,111.92764282226562,119.38770294189453, 86.53044128417969
431,768708104,0.03809631,-0.7721467,-0.37654132,-0.51044565,4.4456963539123535,-3.709258556365967,4.770081520080566,138.8818817138672,161.8397979736328, 118.91053771972656
432,768724771,0.07540385,-0.76386195,-0.36809984,-0.5247206,5.581932544708252,-3.730736017227173,2.689560890197754,133.917724609375,201.12855529785156, 148.95236206054688
433,768741438,0.1171601,-0.75218815,-0.35647076,-0.54167813,6.528348445892334,-3.178844451904297,1.8691980838775635,140.70584106445312,240.25338745117188, 171.7296142578125
434,768758105,0.16359146,-0.7364159,-0.34159303,-0.5605744,8.05416488647461,-1.823615312576294,1.1699970960617065,151.30239868164062,279.5466003417969, 194.29876708984375
435,768774772,0.2118471,-0.71619,-0.32236105,-0.5816152,11.166133880615234,0.7515599131584167,1.0803371667861938,143.70826721191406,316.70465087890625, 210.47567749023438
436,768791439,0.2611233,-0.69086903,-0.30012855,-0.6036867,14.100377082824707,2.2553813457489014,-0.6076360940933228,141.89979553222656,348.7469177246094, 216.5432586669922
437,768808106,0.3083517,-0.6616916,-0.27674904,-0.6248949,16.542081832885742,2.8390183448791504,-2.922626495361328,136.17214965820312,358.45947265625, 207.1046142578125
438,768824773,0.35403407,-0.62991345,-0.2526085,-0.6434734,18.572111129760742,0.14587707817554474,-6.166753768920898,136.43914794921875,356.382080078125, 204.6180877685547
439,768841440,0.39920196,-0.59487224,-0.22959629,-0.65882516,22.558671951293945,0.5300535559654236,-7.430535793304443,152.86444091796875,353.35137939453125, 199.69781494140625
440,768858107,0.43617538,-0.5607507,-0.20701723,-0.6726468,25.718477249145508,4.072079658508301,-7.704782962799072,121.28971099853516,328.9730529785156, 166.5301971435547
441,768874774,0.46457732,-0.5323773,-0.18461841,-0.68312407,22.551664352416992,2.031578302383423,-9.964932441711426,76.64501953125,277.00689697265625, 144.583740234375
442,768891441,0.49626225,-0.4998902,-0.17762215,-0.6872292,19.063261032104492,2.4777767658233643,-13.706404685974121,182.4527587890625,228.31216430664062, 118.99057006835938
443,768908108,0.52450526,-0.46890843,-0.18325576,-0.6866124,15.966071128845215,6.08119010925293,-17.513267517089844,231.15635681152344,158.049072265625, 77.55950927734375
444,768924775,0.54018754,-0.45279267,-0.1893464,-0.6836114,11.66985034942627,7.502413749694824,-20.61626434326172,142.35287475585938,63.1588020324707, 44.46092987060547
445,768941442,0.5439201,-0.4521186,-0.19658636,-0.67903876,9.952574729919434,6.781038761138916,-19.111709594726562,55.41688919067383,-33.61077117919922, 10.991759300231934
446,768958109,0.5403333,-0.4600822,-0.21117996,-0.6721365,11.536795616149902,4.166467666625977,-15.746190071105957,38.011566162109375,-118.08723449707031, -25.361387252807617
447,768974776,0.5310695,-0.47408453,-0.23131499,-0.66310066,14.047808647155762,-0.8998579978942871,-9.269512176513672,26.487457275390625,-181.13577270507812, -52.21986770629883
448,768991443,0.5160007,-0.4964721,-0.2457072,-0.65336585,20.41708755493164,-6.148712635040283,2.5250351428985596,-47.980926513671875,-209.57325744628906, -43.987369537353516
449,769008110,0.5031133,-0.5098841,-0.26764545,-0.6444076,17.76866340637207,10.910035133361816,5.6186723709106445,23.97282600402832,-189.5277557373047, -77.91250610351562
450,769024777,0.48523864,-0.53524053,-0.2729437,-0.63526595,13.926692962646484,-2.674273729324341,-11.404459953308105,-108.25637817382812,-194.69325256347656, -18.72072410583496
451,769041444,0.46948805,-0.55391365,-0.28185934,-0.6271491,15.500781059265137,8.598666191101074,3.3422670364379883,-64.05591583251953,-169.45858764648438, -38.6644401550293
452,769058111,0.4511683,-0.5747575,-0.28012925,-0.6225982,7.50288724899292,-6.224279403686523,0.2409917116165161,-133.64877319335938,-135.86422729492188, -16.213558197021484
453,769074778,0.44150746,-0.58734304,-0.2820005,-0.6169078,12.771419525146484,0.6172478199005127,1.330895185470581,-56.136016845703125,-99.49832153320312, -5.846060752868652
454,769091445,0.42873788,-0.6022207,-0.27660605,-0.6140059,12.094526290893555,-0.28541406989097595,2.916365623474121,-111.85393524169922,-81.94331359863281, 6.372469425201416
455,769108112,0.4134782,-0.6175712,-0.2667534,-0.6135833,11.059012413024902,-1.754494309425354,0.021567553281784058,-147.07806396484375,-65.34818267822266, 7.989850997924805
456,769124779,0.4001673,-0.63026035,-0.2574912,-0.6134627,9.29660701751709,-2.7745351791381836,-0.674643874168396,-129.258056640625,-50.967411041259766, 8.014626502990723
457,769141446,0.3869863,-0.64124036,-0.24798328,-0.61445653,10.09533977508545,-3.491438865661621,-0.6758342385292053,-126.97087097167969,-38.03812026977539, 3.5496602058410645
458,769158113,0.3784937,-0.648069,-0.24370217,-0.614295,9.717416763305664,-3.364089250564575,-1.1651782989501953,-71.20825958251953,-31.508930206298828, -3.7034707069396973
459,769174780,0.37161213,-0.65296334,-0.24182461,-0.61405563,9.70075798034668,-2.9640462398529053,-1.6152944564819336,-48.672691345214844,-27.231142044067383, -10.667106628417969
460,769191447,0.36504716,-0.6570206,-0.24088259,-0.6140359,9.500690460205078,-3.149790048599243,-0.5743203163146973,-41.5374870300293,-24.542179107666016, -15.503493309020996
461,769208114,0.3592567,-0.66029364,-0.24084081,-0.6139566,9.574442863464355,-2.821389675140381,-0.9415612816810608,-32.17439270019531,-22.471803665161133, -17.478601455688477
462,769224781,0.3545808,-0.6626566,-0.24276419,-0.6133713,9.933743476867676,-2.2286875247955322,-0.5851544141769409,-15.745058059692383,-23.917133331298828, -21.979970932006836
463,769241448,0.35147804,-0.66428256,-0.24671344,-0.6118206,9.506475448608398,-2.1510281562805176,-0.5425540804862976,3.3776965141296387,-27.509801864624023, -23.471302032470703
464,769258115,0.34891543,-0.6658124,-0.25165904,-0.60960627,9.550025939941406,-1.2611249685287476,-0.10180619359016418,11.386495590209961,-31.61358642578125, -24.338409423828125
465,769274782,0.3461626,-0.667934,-0.25687966,-0.60667014,9.068111419677734,-1.883306622505188,-1.1043764352798462,11.497712135314941,-38.38581466674805, -23.65129280090332
466,769291449,0.34343225,-0.6703671,-0.26273322,-0.60302037,9.302693367004395,-1.3694933652877808,-0.2522660493850708,14.757535934448242,-44.40449523925781, -24.247575759887695
467,769308116,0.34059495,-0.6729473,-0.26920557,-0.5988867,9.485800743103027,-1.8482335805892944,-0.6123764514923096,17.34960174560547,-48.89690017700195, -26.15817642211914
468,769324783,0.33868346,-0.6751046,-0.27715096,-0.5938979,9.838144302368164,-2.0490505695343018,-1.1625065803527832,30.26596450805664,-52.8402099609375, -27.981796264648438
469,769341450,0.33635873,-0.67753685,-0.28562918,-0.58840716,9.9717378616333,-0.880551815032959,-0.06770099699497223,30.836654663085938,-58.30082702636719, -30.499210357666016
470,769358117,0.33276924,-0.6809838,-0.2938452,-0.5823923,8.704838752746582,-0.7384136319160461,-0.470974326133728,22.571388244628906,-66.73915100097656, -31.212352752685547
471,769374784,0.32911503,-0.68486905,-0.30311972,-0.5751142,9.658609390258789,-0.19280657172203064,-0.5858694911003113,28.04823875427246,-76.96479034423828, -32.677371978759766
472,769391451,0.3259594,-0.68848175,-0.31520846,-0.5660274,11.016684532165527,0.15618005394935608,-0.022689327597618103,45.913818359375,-89.73995208740234, -40.451778411865234
473,769408118,0.3231057,-0.6918647,-0.3305613,-0.5546668,11.779590606689453,0.5445266366004944,0.015390157699584961,65.49195098876953,-106.2966537475586, -50.15166473388672
474,769424785,0.32037607,-0.69511175,-0.34854445,-0.5410136,11.432343482971191,0.4489704668521881,-0.7356486320495605,81.62862396240234,-122.2787094116211, -57.430484771728516
475,769441452,0.31574363,-0.6991182,-0.3675387,-0.5257901,12.960110664367676,-0.06853868067264557,-0.8171476125717163,78.39786529541016,-139.41629028320312, -64.09835052490234
476,769458119,0.30735895,-0.7046435,-0.38520446,-0.510515,14.399694442749023,-0.8449720144271851,-1.0147182941436768,52.37751770019531,-151.7933807373047, -67.37161254882812
477,769474786,0.29430023,-0.71144754,-0.40012127,-0.49712452,15.531132698059082,-0.6897493004798889,-0.4164685308933258,12.364065170288086,-153.78623962402344, -71.10578918457031
478,769491453,0.27413672,-0.7200112,-0.41016644,-0.48805386,16.717411041259766,-0.2188888043165207,1.3129063844680786,-54.537498474121094,-148.4743194580078, -75.48650360107422
479,769508120,0.24492751,-0.73079705,-0.41437545,-0.48398274,18.886850357055664,-0.701220691204071,3.3130929470062256,-137.24879455566406,-145.8988800048828, -80.11067199707031
480,769524787,0.20615715,-0.74290425,-0.41323185,-0.48459476,22.44904327392578,-3.3963024616241455,8.661362648010254,-218.76904296875,-145.30905151367188, -89.17375183105469
481,769541454,0.16082934,-0.75509024,-0.40823558,-0.48715144,23.11992835998535,-6.5055389404296875,12.15738582611084,-270.9204406738281,-149.33033752441406, -93.97774505615234
482,769558121,0.117685005,-0.76547897,-0.40849715,-0.48303473,19.38222312927246,-10.259729385375977,3.4906270503997803,-221.42262268066406,-178.2586669921875, -111.83952331542969
483,769574788,0.07898577,-0.7729728,-0.41142526,-0.476449,24.758769989013672,-15.839364051818848,10.186101913452148,-180.10218811035156,-171.6669921875, -117.55113220214844
484,769591455,0.030475564,-0.77736026,-0.40401775,-0.48119882,18.571489334106445,-16.710590362548828,9.425556182861328,-296.90679931640625,-124.01280975341797, -110.19376373291016
485,769608122,0.0055695544,-0.7797171,-0.4076328,-0.47523233,9.915688514709473,-17.810806274414062,-5.295979976654053,-104.3139419555664,-111.78044128417969, -94.8538589477539
486,769624789,0.00022034379,-0.7806929,-0.41141126,-0.47038224,15.013427734375,-10.761460304260254,9.278596878051758,-2.4476563930511475,-46.585113525390625, -36.08679962158203
487,769641456,-0.0021309326,-0.7787831,-0.409862,-0.47487462,3.924560070037842,-8.926851272583008,10.74243450164795,-30.205049514770508,20.909366607666016, -6.246531963348389
488,769658123,0.004665738,-0.77543235,-0.40269637,-0.4863318,4.224258899688721,-5.176262855529785,8.51463508605957,-19.290695190429688,88.33253479003906, 49.53860092163086
489,769674790,0.02240323,-0.7708048,-0.3932103,-0.50074327,4.618104934692383,-4.756742000579834,4.782468795776367,23.106517791748047,138.51783752441406, 94.7261962890625
490,769691457,0.048818227,-0.7645385,-0.38101143,-0.5176179,4.6970624923706055,-5.0622968673706055,6.574210166931152,53.275142669677734,180.96339416503906, 134.0568389892578
491,769708124,0.07866233,-0.756702,-0.3634175,-0.5377193,6.093114376068115,-5.355271339416504,1.8550028800964355,44.10340118408203,214.16482543945312, 169.2943878173828
492,769724791,0.118145145,-0.7460132,-0.34445006,-0.55754846,7.592195987701416,-4.778164863586426,-0.4857814610004425,91.29774475097656,248.0888671875, 204.96295166015625
493,769741458,0.16409656,-0.7304387,-0.3237545,-0.5785452,8.839603424072266,-1.8163517713546753,0.9372103214263916,118.97111511230469,289.55523681640625, 225.9886474609375
494,769758125,0.21016909,-0.7114702,-0.29569682,-0.6018326,12.346566200256348,-0.02442815527319908,0.017726361751556396,88.9821548461914,323.1520080566406, 253.23081970214844
495,769774792,0.26013064,-0.6873023,-0.26738256,-0.6232609,15.914745330810547,2.4699723720550537,-0.6714839339256287,118.27009582519531,343.89532470703125, 262.6461181640625
496,769791459,0.3131635,-0.6568869,-0.24273589,-0.6414886,19.294458389282227,3.9391746520996094,-3.400362014770508,165.6616973876953,354.6670837402344, 252.76434326171875
497,769808126,0.36785284,-0.6193219,-0.22393711,-0.6564884,21.993309020996094,4.231468200683594,-6.105740070343018,219.9353485107422,361.88873291015625, 228.85496520996094
498,769824793,0.4180562,-0.5778412,-0.20847838,-0.6692275,24.963119506835938,4.524492263793945,-8.050660133361816,229.41043090820312,354.7303771972656, 194.3044891357422
499,769841460,0.45627424,-0.5403402,-0.1916256,-0.6805336,26.487533569335938,4.295041084289551,-9.647119522094727,166.08001708984375,317.7583923339844, 154.77549743652344
500,769858127,0.48833513,-0.5070007,-0.17795493,-0.6876127,21.965377807617188,1.0742779970169067,-13.033291816711426,150.8118133544922,264.8377380371094, 133.2232208251953
501,769874794,0.52083874,-0.47020867,-0.1787048,-0.68970686,18.528030395507812,4.619039058685303,-16.48353385925293,238.5062713623047,216.37149047851562, 97.86007690429688
502,769891461,0.5416457,-0.44501874,-0.18199822,-0.68953246,15.01300048828125,8.330723762512207,-19.98560333251953,174.18263244628906,131.01995849609375, 56.92873764038086
503,769908128,0.54712176,-0.43957865,-0.18216999,-0.68865275,10.89338207244873,8.049835205078125,-21.514509201049805,40.011573791503906,28.26003646850586, 21.581829071044922
504,769924795,0.54241115,-0.4477881,-0.18636785,-0.6859614,10.632894515991211,3.50718092918396,-17.67699432373047,-20.583358764648438,-69.15196990966797, -14.52328109741211
505,769941462,0.53498185,-0.46017233,-0.20041707,-0.67960936,12.762602806091309,-0.2154117375612259,-12.18984603881836,6.836939811706543,-139.8328094482422, -38.42880630493164
506,769958129,0.52660614,-0.4744723,-0.22093396,-0.6698884,14.782983779907227,-2.301569700241089,-8.057147979736328,31.8532772064209,-184.1246337890625, -48.15483093261719
507,769974796,0.51286125,-0.495721,-0.23532781,-0.6601932,16.627328872680664,-5.956446170806885,2.7514138221740723,-38.914451599121094,-201.6826934814453, -42.39169692993164
508,769991463,0.5021841,-0.5107928,-0.25537613,-0.6493729,17.970590591430664,8.024428367614746,3.84525203704834,20.897354125976562,-192.33792114257812, -53.829246520996094
509,770008130,0.48693916,-0.5305247,-0.26714283,-0.64036614,15.43421745300293,9.16951847076416,-4.860482215881348,-51.39888381958008,-186.12498474121094, -42.93079376220703
510,770024797,0.4655519,-0.555482,-0.26921982,-0.6342097,17.17213249206543,2.722182035446167,0.5148228406906128,-139.0782470703125,-177.37709045410156, -34.22172546386719
511,770041464,0.44849944,-0.5758391,-0.27270928,-0.6268074,8.15202522277832,-6.3687214851379395,-0.08832992613315582,-99.22061157226562,-158.50942993164062, -25.057836532592773
512,770058131,0.44159916,-0.58700216,-0.27962455,-0.61824673,10.226651191711426,-1.5340815782546997,1.3967045545578003,-13.738561630249023,-114.96128845214844, -8.685384750366211
513,770074798,0.43559203,-0.5966935,-0.28348738,-0.6114338,11.378804206848145,-2.9810562133789062,0.7799436450004578,-21.925142288208008,-90.68123626708984, -0.7112865447998047
514,770091465,0.4299919,-0.60467535,-0.2856475,-0.60653144,10.787995338439941,-2.706634283065796,0.6425385475158691,-25.994897842407227,-69.76358032226562, -1.1099222898483276
515,770108132,0.42280388,-0.6128549,-0.28523177,-0.60356337,9.943227767944336,-3.274308204650879,0.4840967357158661,-47.730770111083984,-58.05585861206055, -2.383821725845337
516,770124799,0.41404787,-0.6214748,-0.28191417,-0.6023772,10.42970085144043,-1.913500428199768,0.31626683473587036,-71.1358871459961,-47.0356559753418, -1.0106773376464844
517,770141466,0.40449226,-0.63060635,-0.27644107,-0.6019153,10.905503273010254,-1.3515721559524536,0.0890105813741684,-86.34648132324219,-41.495113372802734, 3.830458402633667
518,770158133,0.39420295,-0.63974994,-0.26955888,-0.6022145,10.739399909973145,-0.815927267074585,-0.578754723072052,-96.81027221679688,-35.75004196166992, 4.848686218261719
519,770174800,0.3828229,-0.6489844,-0.2612157,-0.6033509,10.10901165008545,-0.8546909093856812,-1.1104315519332886,-109.43557739257812,-30.525222778320312, 4.714443206787109
520,770191467,0.3698451,-0.6583892,-0.25136825,-0.60543567,9.949101448059082,-1.5369374752044678,-1.0729857683181763,-124.9413070678711,-25.92691993713379, 2.667274236679077
521,770208134,0.3593887,-0.66497797,-0.2456653,-0.6068713,10.332157135009766,-2.0504682064056396,-1.0162429809570312,-87.96991729736328,-23.341796875, -8.778946876525879
522,770224801,0.351287,-0.66904175,-0.24427606,-0.60770893,9.809947967529297,-1.869046926498413,-0.7891879677772522,-51.95012664794922,-22.229421615600586, -21.45479393005371
523,770241468,0.3435826,-0.6726605,-0.24368574,-0.6083552,9.514081001281738,-1.391111969947815,-0.9908331036567688,-45.403053283691406,-22.51766586303711, -23.755578994750977
524,770258135,0.33520958,-0.6768219,-0.2429784,-0.608694,9.103605270385742,-1.775230884552002,-1.1379159688949585,-49.750308990478516,-27.056655883789062, -24.36726188659668
525,770274802,0.327131,-0.6811448,-0.2431586,-0.60819495,8.99641227722168,-2.4326529502868652,-1.050334095954895,-43.64631271362305,-33.184913635253906, -25.072359085083008
526,770291469,0.32016534,-0.68497217,-0.24537905,-0.60670966,9.091766357421875,-2.890777587890625,-1.170543909072876,-27.135940551757812,-38.46232986450195, -28.61638641357422
527,770308136,0.31603414,-0.68762624,-0.25076443,-0.6036637,8.838569641113281,-3.7509419918060303,-1.380129337310791,4.593650817871094,-43.09355926513672, -30.297571182250977
528,770324803,0.3135105,-0.6895121,-0.2583563,-0.5996134,9.610042572021484,-1.6055039167404175,-1.628893494606018,24.72955894470215,-46.65855407714844, -33.29081726074219
529,770341470,0.31038564,-0.6921228,-0.2659127,-0.5949096,9.148449897766113,-1.662940263748169,-0.9031579494476318,21.31812286376953,-53.71519470214844, -32.94505310058594
530,770358137,0.30676168,-0.6953766,-0.2737421,-0.5894184,9.904226303100586,-0.8673315644264221,-0.4574366807937622,20.114957809448242,-61.58778381347656, -33.475894927978516
531,770374804,0.30444524,-0.69846994,-0.28471953,-0.5817112,10.256155014038086,-0.676859974861145,-0.2006824016571045,43.622642517089844,-75.72615051269531, -38.88947296142578
532,770391471,0.303424,-0.70138085,-0.29975766,-0.5710905,10.461464881896973,0.4577103555202484,-0.5596405267715454,72.1639633178711,-94.97400665283203, -47.513511657714844
533,770408138,0.3028791,-0.7041383,-0.31867388,-0.5575847,10.378211975097656,0.7602128386497498,-0.1472335010766983,95.96659851074219,-115.40667724609375, -58.677677154541016
534,770424805,0.30176255,-0.70694816,-0.3408255,-0.5412963,11.696002960205078,0.9799295663833618,-0.9325224757194519,111.59447479248047,-137.0958251953125, -70.66558837890625
535,770441472,0.29765174,-0.71025574,-0.3643716,-0.52361614,13.619192123413086,0.6246439814567566,-0.8140347003936768,104.46414947509766,-155.64236450195312, -84.57740020751953
536,770458139,0.28841832,-0.7144864,-0.3848314,-0.5081625,15.247289657592773,0.0470871739089489,-0.5425955653190613,60.857093811035156,-154.65147399902344, -90.23355865478516
537,770474806,0.27240962,-0.72054446,-0.39939156,-0.4970868,16.26568603515625,0.2684327960014343,0.46502813696861267,-8.282975196838379,-145.84329223632812, -88.80159759521484
538,770491473,0.24736716,-0.7284164,-0.40784258,-0.49181673,17.793474197387695,0.6076807379722595,2.836750030517578,-93.3105697631836,-136.80056762695312, -95.3091049194336
539,770508140,0.21268295,-0.7385061,-0.41057006,-0.49072072,21.137834548950195,-4.480930328369141,7.108526229858398,-176.50047302246094,-140.96226501464844, -100.12368774414062
540,770524807,0.17421281,-0.749264,-0.41042808,-0.48969635,23.694231033325195,-8.273510932922363,10.348628997802734,-206.76564025878906,-149.77273559570312, -96.6457290649414
541,770541474,0.13547568,-0.75917935,-0.41218072,-0.48518065,21.588607788085938,-8.719371795654297,8.106523513793945,-191.12112426757812,-168.49046325683594, -105.71370697021484
542,770558141,0.10032992,-0.76758456,-0.42164272,-0.47219208,21.000110626220703,-12.5617094039917,2.613210678100586,-121.4354476928711,-205.1629638671875, -130.60362243652344
543,770574808,0.05635,-0.7736112,-0.42164105,-0.46964824,25.091110229492188,-14.596332550048828,16.827587127685547,-227.74588012695312,-161.7689971923828, -123.77566528320312
544,770591475,0.015365748,-0.77580553,-0.41446725,-0.47550714,12.967616081237793,-16.635913848876953,-2.4751577377319336,-258.1495666503906,-93.94437408447266, -90.72343444824219
545,770608142,0.005161275,-0.77762073,-0.42054483,-0.46735588,10.114727973937988,-13.393725395202637,-3.8111331462860107,-11.001198768615723,-81.28106689453125, -60.71497344970703
546,770624809,-0.0010311806,-0.77814865,-0.41906977,-0.46782932,11.708659172058105,-8.480789184570312,11.778321266174316,-39.033748626708984,-19.288419723510742, -11.715959548950195
547,770641476,-0.0019074334,-0.7758872,-0.41443822,-0.4756433,1.164672613143921,-5.808557987213135,8.209602355957031,-42.026302337646484,43.849483489990234, 14.079601287841797
548,770658143,0.0049668592,-0.77323407,-0.40302417,-0.48954675,4.901700973510742,-4.782643795013428,5.196619987487793,-40.261932373046875,99.48477935791016, 74.45159912109375
549,770674810,0.028956365,-0.7686672,-0.39454862,-0.5026369,5.032680988311768,-4.8959527015686035,5.496249675750732,62.882293701171875,148.81106567382812, 111.04725646972656
550,770691477,0.06067525,-0.76191014,-0.3838121,-0.51816964,4.694097518920898,-4.317132472991943,6.0776519775390625,89.67001342773438,190.5764617919922, 143.20143127441406
551,770708144,0.09609099,-0.75317585,-0.3680249,-0.5367033,6.135985374450684,-4.376204967498779,2.039484977722168,83.88679504394531,225.0844268798828, 176.29052734375
552,770724811,0.13856576,-0.7406616,-0.34935084,-0.55693257,8.083409309387207,-3.1638152599334717,1.2046653032302856,107.91844177246094,267.5684509277344, 206.52310180664062
553,770741478,0.18513525,-0.7234821,-0.32670635,-0.57927704,9.900978088378906,-0.24286937713623047,2.4076666831970215,112.87801361083984,309.8378601074219, 229.1234588623047
554,770758145,0.23258299,-0.70234895,-0.29796866,-0.6031797,13.33105182647705,1.8516725301742554,1.303102731704712,94.50634765625,343.07720947265625, 252.02540588378906
555,770774812,0.2824298,-0.6755482,-0.2690451,-0.6256859,17.246116638183594,4.043572902679443,0.4340456426143646,117.28237915039062,365.08587646484375, 253.4846649169922
556,770791479,0.33410615,-0.64301217,-0.24357149,-0.6446561,20.946796417236328,3.7969963550567627,-3.3881711959838867,158.47828674316406,370.0450744628906, 241.66375732421875
557,770808146,0.3888803,-0.6020353,-0.22700815,-0.65938836,24.17910385131836,4.165802001953125,-7.460884094238281,238.31845092773438,373.56787109375, 211.7646026611328
558,770824813,0.43478337,-0.5606847,-0.2113059,-0.6722693,26.502090454101562,5.770456790924072,-9.640263557434082,209.4646759033203,351.60791015625, 172.54148864746094
559,770841480,0.46629706,-0.527964,-0.19254705,-0.68318874,24.952775955200195,4.695130348205566,-12.546112060546875,116.8812484741211,292.65631103515625, 136.41490173339844
560,770858147,0.49378985,-0.4979103,-0.18176271,-0.6893616,18.452482223510742,2.171257495880127,-16.148277282714844,137.8330078125,232.38645935058594, 107.68121337890625
561,770874814,0.51953274,-0.46673506,-0.18378575,-0.69171304,16.05133056640625,5.9739274978637695,-18.840360641479492,201.37477111816406,179.41444396972656, 67.36833190917969
562,770891481,0.5327239,-0.4504943,-0.18474445,-0.69219196,12.407328605651855,7.442383289337158,-20.95228385925293,105.27562713623047,90.79354095458984, 37.01190948486328
563,770908148,0.5329155,-0.45127308,-0.18465854,-0.69155985,11.168474197387695,5.345969200134277,-20.11456871032715,-0.6818869113922119,-5.803223133087158, 4.412511348724365
564,770924815,0.52752477,-0.46005246,-0.19363117,-0.6874421,11.779004096984863,0.9231165051460266,-16.079133987426758,0.396056205034256,-94.44075012207031, -27.023954391479492
565,770941482,0.5201972,-0.4725875,-0.21194835,-0.6790683,13.053274154663086,-1.7373046875,-11.61921215057373,30.68510627746582,-161.705078125, -45.14912033081055
566,770958149,0.5075013,-0.4929565,-0.22698887,-0.6692627,18.058542251586914,-7.164950847625732,1.5708732604980469,-27.82368278503418,-198.6898956298828, -42.966121673583984
567,770974816,0.50115097,-0.5025278,-0.2559698,-0.65634847,21.28583526611328,6.859217643737793,4.863339424133301,100.45690155029297,-198.13980102539062, -67.11637115478516
568,770991483,0.4868926,-0.51954144,-0.27335703,-0.6467522,13.040685653686523,12.400818824768066,-6.198276996612549,-10.666921615600586,-194.13668823242188, -60.84822463989258
569,771008150,0.4684098,-0.54468334,-0.2781438,-0.63761157,17.763084411621094,-1.8749053478240967,-1.7752273082733154,-109.7452621459961,-194.2158660888672, -20.50754165649414
570,771024817,0.45367417,-0.5620669,-0.28678232,-0.62929857,6.819514751434326,-2.9419355392456055,-1.0177216529846191,-55.33741760253906,-162.20684814453125, -35.983699798583984
571,771041484,0.4502342,-0.57066774,-0.29772362,-0.6188605,11.00838851928711,-4.350401401519775,0.7414627075195312,29.942302703857422,-117.28132629394531, -6.758747577667236
572,771058151,0.44894397,-0.5760463,-0.30760685,-0.60991657,11.45171070098877,-1.5121753215789795,0.5495315790176392,40.77937698364258,-90.00517272949219, -4.7938761711120605
573,771074818,0.44791663,-0.5808623,-0.31434977,-0.6026227,11.892542839050293,-0.7995564341545105,2.7143759727478027,26.958173751831055,-70.84840393066406, 2.4371554851531982
574,771091485,0.4437931,-0.58708435,-0.31684586,-0.59832144,10.850849151611328,-0.45961838960647583,0.2575913667678833,-13.83905029296875,-58.371097564697266, 0.3812562823295593
575,771108152,0.44211754,-0.5910907,-0.31894326,-0.59449077,10.470548629760742,-0.6383619904518127,0.5450763702392578,0.17902740836143494,-40.80645751953125, 5.812484264373779
576,771124819,0.44257647,-0.5926601,-0.32268935,-0.590552,11.197854042053223,-0.8932831883430481,0.177326500415802,23.23456382751465,-31.6198787689209, 2.8206584453582764
577,771141486,0.44361585,-0.59288824,-0.32745314,-0.5869098,10.58281135559082,-1.475853443145752,0.37384796142578125,33.16706466674805,-26.76832389831543, -2.855257987976074
578,771158153,0.44331157,-0.5933458,-0.33174092,-0.5842634,9.977195739746094,-2.118826389312744,-0.3824836313724518,22.832942962646484,-25.208372116088867, -8.879219055175781
579,771174820,0.4408237,-0.5958452,-0.3325881,-0.5831196,10.516786575317383,-2.1247196197509766,-0.3070017099380493,-9.546985626220703,-21.763641357421875, -3.5665626525878906
580,771191487,0.43731955,-0.59910053,-0.33249965,-0.5824724,10.548914909362793,-1.8053944110870361,-0.13804282248020172,-20.886560440063477,-22.244447708129883, -3.602707624435425
581,771208154,0.4328887,-0.6028845,-0.3323143,-0.5819837,10.351253509521484,-1.4685969352722168,0.5918296575546265,-27.047121047973633,-25.539180755615234, -6.1906208992004395
582,771224821,0.42794183,-0.60690236,-0.33233315,-0.58145535,9.979911804199219,-1.1873682737350464,0.6065504550933838,-28.984455108642578,-28.446792602539062, -8.45101261138916
583,771241488,0.42247963,-0.6113246,-0.33274814,-0.580579,10.100014686584473,-0.7110928893089294,0.10811103880405426,-29.948488235473633,-33.88243865966797, -10.212742805480957
584,771258155,0.41313103,-0.6187388,-0.33082718,-0.58055013,9.682822227478027,-1.221627116203308,0.9483871459960938,-66.23100280761719,-44.387760162353516, -11.506178855895996
585,771274822,0.4019141,-0.6276483,-0.32876623,-0.5800308,8.621255874633789,-2.633317232131958,0.26659220457077026,-77.88967895507812,-56.337284088134766, -13.563424110412598
586,771291489,0.39189285,-0.63549674,-0.3298456,-0.5777249,7.998945713043213,-3.435462713241577,0.39819473028182983,-53.265769958496094,-65.81715393066406, -19.835908889770508
587,771308156,0.3827561,-0.64304703,-0.33355486,-0.5733495,8.417659759521484,-1.1353591680526733,-0.31730154156684875,-33.46772003173828,-78.78583526611328, -22.970703125
588,771324823,0.37184456,-0.651569,-0.33778137,-0.568413,8.696784019470215,-0.7372626662254333,0.3861673176288605,-40.5614013671875,-90.54402923583984, -28.563037872314453
589,771341490,0.36014345,-0.6607765,-0.34345782,-0.561879,10.041848182678223,-1.7864577770233154,-0.39754074811935425,-36.48162078857422,-105.95650482177734, -32.47669219970703
590,771358157,0.3492321,-0.66963583,-0.35175017,-0.5530794,10.779603004455566,-1.5081907510757446,-0.29299917817115784,-16.595945358276367,-119.54164123535156, -36.5573844909668
591,771374824,0.33893856,-0.67792106,-0.36285704,-0.54210573,11.07964038848877,0.4424664378166199,-0.7932178378105164,3.5821752548217773,-132.66473388671875, -43.376094818115234
592,771391491,0.32698238,-0.68667823,-0.37453437,-0.530358,11.132562637329102,0.665675938129425,-0.7666298747062683,-1.224668264389038,-143.53822326660156, -49.255313873291016
593,771408158,0.3142685,-0.6956982,-0.3867687,-0.5173486,12.867568969726562,0.11377247422933578,-1.2549911737442017,-0.09741408377885818,-153.69508361816406, -51.144805908203125
594,771424825,0.29924315,-0.70489573,-0.39854002,-0.50471896,15.26932430267334,0.9310693740844727,-0.16463568806648254,-14.213104248046875,-157.7029571533203, -57.517459869384766
595,771441492,0.27818394,-0.7150747,-0.40719888,-0.49545047,16.30375862121582,1.548506498336792,0.46002984046936035,-65.51410675048828,-155.04684448242188, -67.58955383300781
596,771458159,0.2488763,-0.7269756,-0.41148168,-0.49015298,17.931222915649414,0.42711570858955383,3.3623316287994385,-135.4022216796875,-156.25503540039062, -76.92826080322266
597,771474826,0.2096785,-0.74001825,-0.40964872,-0.490506,21.069990158081055,0.5684522390365601,7.358031749725342,-223.47744750976562,-149.61964416503906, -86.1229248046875
598,771491493,0.16149823,-0.75366235,-0.4032819,-0.49322927,23.591026306152344,-7.681602478027344,11.786331176757812,-292.14013671875,-158.73289489746094, -95.08393859863281
599,771508160,0.120325044,-0.76443356,-0.40375692,-0.48799956,21.300399780273438,-11.217761993408203,4.123049736022949,-207.49818420410156,-178.8321533203125, -106.08308410644531
600,771524827,0.090096146,-0.77316165,-0.41481474,-0.4712032,24.564071655273438,-17.63132095336914,5.885313987731934,-80.86981964111328,-211.4600372314453, -121.31428527832031
601,771541494,0.042064514,-0.7804101,-0.40940282,-0.470723,22.97035026550293,-13.676953315734863,16.37668228149414,-274.9488830566406,-160.94923400878906, -106.10542297363281
602,771558161,0.0015278802,-0.78204024,-0.4041225,-0.47444257,10.805262565612793,-17.977766036987305,-2.5027835369110107,-244.69297790527344,-99.6995620727539, -99.90528106689453
603,771574828,-0.007997126,-0.7832808,-0.40861142,-0.4684488,10.957844734191895,-15.9017333984375,-3.503255605697632,-19.371320724487305,-64.69485473632812, -52.524803161621094
604,771591495,-0.01250155,-0.78332174,-0.40580744,-0.4707136,10.424354553222656,-7.526952743530273,11.070927619934082,-39.43610382080078,-2.7920687198638916, -0.2135726660490036
605,771608162,-0.012130698,-0.77902514,-0.40103447,-0.48181337,-0.21522992849349976,-3.4385156631469727,9.4146089553833,-44.64048385620117,71.9684066772461, 14.662032127380371
606,771624829,-0.007830871,-0.773985,-0.38630474,-0.5016518,4.3711628913879395,-2.9844648838043213,5.616476058959961,-80.7190933227539,131.1600341796875, 79.60540008544922
607,771641496,0.012349531,-0.76861614,-0.37214142,-0.5201804,4.833698272705078,-5.817410469055176,3.2743823528289795,9.204816818237305,167.47592163085938, 130.30767822265625
608,771658163,0.0447512,-0.7611318,-0.35864502,-0.5385625,5.823213577270508,-5.160216331481934,3.9728281497955322,76.65695190429688,205.44003295898438, 164.9921112060547
609,771674830,0.08147047,-0.7513906,-0.34093624,-0.5590501,6.278554916381836,-4.9864115715026855,0.8275054693222046,79.08099365234375,236.70225524902344, 196.7222442626953
610,771691497,0.12648702,-0.7381367,-0.32075003,-0.5798918,8.16103458404541,-4.993269920349121,0.21282343566417694,113.49738311767578,272.9057922363281, 232.90382385253906
611,771708164,0.17865945,-0.7199999,-0.29824978,-0.6006064,12.204643249511719,-0.40976908802986145,1.4494562149047852,145.07200622558594,309.58026123046875, 262.44586181640625
612,771724831,0.23334944,-0.6965985,-0.27368173,-0.6208035,16.207815170288086,3.5472867488861084,0.48105576634407043,156.55838012695312,336.4779357910156, 272.8940124511719
613,771741498,0.29014602,-0.666393,-0.25259715,-0.63869447,19.783349990844727,5.91452693939209,-1.1802399158477783,196.8877410888672,352.8637390136719, 256.1517028808594
614,771758165,0.34693855,-0.6298271,-0.23688668,-0.6533272,21.666677474975586,5.473887920379639,-5.659108638763428,238.99496459960938,355.1520080566406, 227.1124267578125
615,771774832,0.39986578,-0.58875525,-0.22425957,-0.66571957,23.040964126586914,4.323505878448486,-8.59222412109375,250.555908203125,352.148681640625, 194.5736846923828
616,771791499,0.44131765,-0.55042225,-0.21039236,-0.6767639,26.821077346801758,4.1361985206604,-11.925104141235352,192.96884155273438,320.0115966796875, 155.1265869140625
617,771808166,0.4708338,-0.52108806,-0.19492884,-0.68467915,23.903947830200195,1.999497890472412,-15.81776237487793,117.7902603149414,254.1173553466797, 128.35813903808594
618,771824833,0.5008683,-0.4902025,-0.1927054,-0.6868022,16.6184139251709,2.181791305541992,-17.871238708496094,195.04612731933594,198.89649963378906, 100.2708969116211
619,771841500,0.52561325,-0.4612946,-0.20014285,-0.6862079,14.853038787841797,7.994808673858643,-18.134780883789062,219.8468475341797,140.49993896484375, 54.92605209350586
620,771858167,0.5355315,-0.44981444,-0.20308787,-0.68529445,11.769682884216309,6.606630325317383,-20.20567512512207,89.24564361572266,53.471435546875, 24.687660217285156
621,771874834,0.53324234,-0.4538406,-0.2040902,-0.684126,10.738351821899414,4.947342872619629,-17.260820388793945,-14.203961372375488,-29.845598220825195, -3.9526569843292236
622,771891501,0.5242274,-0.46655604,-0.2100121,-0.6807392,11.609539031982422,1.270865559577942,-14.96129035949707,-40.630882263183594,-104.74808502197266, -30.3935489654541
623,771908168,0.5096743,-0.4856474,-0.2218587,-0.6746537,12.633206367492676,-0.7213486433029175,-9.832571983337402,-49.58689498901367,-172.27566528320312, -56.25260543823242
624,771924835,0.49511653,-0.506236,-0.23793109,-0.66481096,23.331214904785156,-4.372584819793701,0.583081066608429,-29.38610076904297,-206.3319854736328, -54.867454528808594
625,771941502,0.48713693,-0.5145533,-0.26384875,-0.654459,14.770674705505371,12.60016918182373,7.922918319702148,81.21086883544922,-174.59181213378906, -77.41484069824219
626,771958169,0.4691661,-0.5384893,-0.26932415,-0.6460474,13.95292854309082,-0.19844350218772888,-12.488558769226074,-101.98036193847656,-187.72520446777344, -27.925277709960938
627,771974836,0.45545202,-0.5562873,-0.2795731,-0.6363544,16.648658752441406,3.4043543338775635,4.13484525680542,-42.669193267822266,-172.4315185546875, -33.858497619628906
628,771991503,0.44534853,-0.57057273,-0.28841045,-0.62684214,7.214262962341309,-3.9066267013549805,-0.43805795907974243,-24.33551597595215,-145.0209197998047, -19.877792358398438
629,772008170,0.43924507,-0.57987875,-0.29661492,-0.6187279,10.537257194519043,-2.712181329727173,-0.00010769069194793701,1.123464822769165,-108.17703247070312, -14.39426326751709
630,772024837,0.43535176,-0.5869086,-0.3027245,-0.61185384,10.642313957214355,-2.1188066005706787,1.2479274272918701,5.393697738647461,-82.69367218017578, -5.07582950592041
631,772041504,0.43105954,-0.59295595,-0.30719978,-0.6068108,10.863088607788086,-2.739011764526367,0.3269771337509155,-3.967944622039795,-67.1174087524414, -7.7214436531066895
632,772058171,0.427663,-0.5974569,-0.3116868,-0.6024958,9.946873664855957,-2.8051326274871826,-0.2186269462108612,2.78783917427063,-55.83692932128906, -9.49744987487793
633,772074838,0.42995796,-0.59682727,-0.32138097,-0.596362,10.449262619018555,-2.403934955596924,-0.5992264151573181,66.71141815185547,-45.15272903442383, -13.015413284301758
634,772091505,0.43831992,-0.5906538,-0.33765718,-0.58735967,10.358561515808105,-2.4614906311035156,-0.8346449732780457,141.3523712158203,-40.21809768676758, -18.9893798828125
635,772108172,0.44571763,-0.5847978,-0.35216096,-0.5790768,9.967939376831055,-1.3227458000183105,0.11550702154636383,127.6275634765625,-35.438533782958984, -17.20439910888672
636,772124839,0.44864115,-0.5827788,-0.36042038,-0.57374835,10.275723457336426,-1.11432683467865,0.3059510588645935,65.85791778564453,-30.525405883789062, -9.723774909973145
637,772141506,0.4494343,-0.5825986,-0.36569214,-0.56996244,10.988679885864258,-0.20223189890384674,0.5385628342628479,36.04361343383789,-27.665300369262695, -6.384562969207764
638,772158173,0.44821653,-0.5841522,-0.36922172,-0.5670482,10.581094741821289,0.5416669249534607,-0.18701109290122986,13.601685523986816,-30.65117835998535, -5.6200385093688965
639,772174840,0.44625273,-0.5862701,-0.37237558,-0.5643423,10.165627479553223,-0.04912891238927841,-0.05330643430352211,6.88370418548584,-32.750953674316406, -6.209658145904541
640,772191507,0.44327077,-0.5892008,-0.37502104,-0.5618831,9.637317657470703,-0.5563331842422485,0.2344939410686493,-2.313401222229004,-35.96500015258789, -6.77679443359375
641,772208174,0.43884987,-0.5932287,-0.3773329,-0.5595626,9.695293426513672,-2.0131444931030273,0.6829838156700134,-13.137064933776855,-42.3492317199707, -8.578048706054688
642,772224841,0.43338966,-0.59817326,-0.37977806,-0.55689406,9.665709495544434,-1.6306886672973633,0.07038432359695435,-18.749011993408203,-50.41852951049805, -9.717419624328613
643,772241508,0.42593554,-0.60462224,-0.38183355,-0.55426896,9.849246978759766,-1.8589496612548828,0.40683943033218384,-33.039390563964844,-60.06193161010742, -11.96722412109375
644,772258175,0.4168982,-0.61229885,-0.3836541,-0.55144906,9.746779441833496,-3.221212863922119,0.5551548004150391,-43.62135696411133,-69.04429626464844, -13.248449325561523
645,772274842,0.40608883,-0.62107027,-0.38555858,-0.54836893,9.566828727722168,-1.3431402444839478,0.6059749126434326,-53.25431823730469,-79.23686218261719, -16.729080200195312
646,772291509,0.3928933,-0.63119763,-0.3867029,-0.54560566,9.639339447021484,-0.4930274188518524,0.29768288135528564,-70.96719360351562,-87.23572540283203, -19.774093627929688
647,772308176,0.37914845,-0.641285,-0.3895378,-0.5415353,11.775111198425293,1.3256144523620605,-0.09602505713701248,-63.42771911621094,-98.82152557373047, -25.738819122314453
648,772324843,0.3629722,-0.6526781,-0.3929932,-0.5364876,11.081247329711914,0.7651134729385376,-0.9855949878692627,-72.61544036865234,-116.160888671875, -31.444711685180664
649,772341510,0.34717393,-0.6639505,-0.39909092,-0.5285513,11.252553939819336,1.664737582206726,0.3337256908416748,-53.06819534301758,-134.27626037597656, -35.00483322143555
650,772358177,0.33058137,-0.6753046,-0.40613917,-0.5193561,11.92674446105957,0.5798954963684082,-0.7186586260795593,-49.967288970947266,-144.82569885253906, -38.9780387878418
651,772374844,0.31364718,-0.6864133,-0.41433322,-0.5087144,14.231895446777344,-0.0347067154943943,-0.17825651168823242,-42.872535705566406,-154.27001953125, -42.91476058959961
652,772391511,0.2919107,-0.6990716,-0.42052534,-0.49924514,15.844755172729492,-0.11803556978702545,0.855958104133606,-79.26187896728516,-163.60171508789062, -48.38266372680664
653,772408178,0.26296458,-0.7135621,-0.42361048,-0.49217185,16.962181091308594,-0.05486960709095001,2.4405806064605713,-135.23049926757812,-173.1131134033203, -57.713993072509766
654,772424845,0.22536886,-0.7289186,-0.42278334,-0.48902044,19.23750877380371,0.5978734493255615,6.205436706542969,-203.9659423828125,-175.10716247558594, -72.36388397216797
655,772441512,0.17419085,-0.74697036,-0.4130832,-0.49097383,23.489946365356445,-5.188535213470459,12.46181869506836,-321.05224609375,-184.6372833251953, -73.640380859375
656,772458179,0.123370625,-0.76174843,-0.405406,-0.49006656,23.025754928588867,-9.920394897460938,10.146303176879883,-300.4779052734375,-190.1161346435547, -88.7989730834961
657,772474846,0.084180884,-0.7710782,-0.41073957,-0.47921294,18.951152801513672,-12.868768692016602,-2.5639045238494873,-163.47552490234375,-202.8300323486328, -124.70003509521484
658,772491513,0.04283729,-0.7758577,-0.40786272,-0.4794353,24.52173614501953,-15.58043098449707,13.387518882751465,-230.91839599609375,-130.61642456054688, -107.72369384765625
659,772508180,-0.0013195788,-0.7795145,-0.40035075,-0.4817418,8.836071014404297,-15.021846771240234,-3.1613965034484863,-266.9894714355469,-122.80162811279297, -96.34956359863281
660,772524847,-0.019118283,-0.7819623,-0.4012722,-0.4766028,10.638198852539062,-14.980027198791504,-2.7463274002075195,-77.53021240234375,-86.12226104736328, -57.816062927246094
661,772541514,-0.034057833,-0.7814546,-0.39586225,-0.4811051,10.644095420837402,-6.219496250152588,9.732643127441406,-110.19010162353516,-17.663562774658203, -21.49371910095215
662,772558181,-0.04564912,-0.77795154,-0.38635516,-0.49339375,3.6087965965270996,-4.65802001953125,4.880900859832764,-127.70114135742188,42.00489044189453, 5.107017993927002
663,772574848,-0.045652002,-0.7752771,-0.3719331,-0.5084557,5.4123711585998535,-6.715499401092529,0.9647341966629028,-89.53727722167969,83.2097396850586, 73.6628646850586
664,772591515,-0.024273444,-0.7736972,-0.3617363,-0.5195674,5.266679286956787,-8.699145317077637,2.1522281169891357,49.549583435058594,114.3005599975586, 127.32359313964844
665,772608182,0.011500511,-0.7706074,-0.35324696,-0.53032887,5.7628889083862305,-6.3175201416015625,3.7792670726776123,132.72183227539062,153.8615264892578, 165.76834106445312
666,772624849,0.05155818,-0.7649749,-0.34086245,-0.5440295,6.7388200759887695,-5.055148601531982,2.4294474124908447,134.19862365722656,189.3489990234375, 195.55250549316406
667,772641516,0.097182244,-0.75555027,-0.32527375,-0.5602646,8.042691230773926,-3.420395851135254,1.9130715131759644,146.8331756591797,231.02593994140625, 223.3833465576172
668,772658183,0.14980012,-0.74039125,-0.30860025,-0.57805437,10.701733589172363,0.9547659754753113,3.102844476699829,179.31678771972656,277.5707092285156, 242.06155395507812
669,772674850,0.20233431,-0.719536,-0.28857145,-0.59837735,13.10879135131836,4.825573444366455,3.7116308212280273,166.07208251953125,316.3645324707031, 244.10031127929688
670,772691517,0.25488263,-0.6924365,-0.26744848,-0.61970794,16.32276725769043,6.782009601593018,2.6744766235351562,168.44866943359375,348.56634521484375, 235.81588745117188
671,772708184,0.3051058,-0.6601247,-0.24638273,-0.6406571,18.722909927368164,6.596953392028809,-0.47960364818573,167.57383728027344,364.54864501953125, 216.7953338623047
672,772724851,0.35611713,-0.6219031,-0.22771616,-0.6592134,20.726016998291016,2.3912806510925293,-4.472962856292725,198.41281127929688,376.0570068359375, 204.525146484375
673,772741518,0.40536124,-0.57968605,-0.21350905,-0.67384,25.123977661132812,2.3074989318847656,-7.489019393920898,226.96304321289062,363.78350830078125, 180.86941528320312
674,772758185,0.4434904,-0.5419028,-0.19947559,-0.6854686,27.925004959106445,4.758424758911133,-11.860029220581055,175.67417907714844,314.5608215332031, 143.66165161132812
675,772774852,0.477235,-0.50734943,-0.19270006,-0.691166,21.479572296142578,2.0154223442077637,-17.139169692993164,191.886962890625,249.3661346435547, 118.64108276367188
676,772791519,0.51130265,-0.468805,-0.20291963,-0.6910972,16.063587188720703,7.615390777587891,-18.46487045288086,294.8603515625,193.2185516357422, 74.77484893798828
677,772808186,0.5281517,-0.4479392,-0.20708929,-0.6910286,12.788543701171875,8.348725318908691,-19.879920959472656,148.5860137939453,106.74263763427734, 37.4312744140625
678,772824853,0.53095645,-0.44545275,-0.20653751,-0.69065154,10.53537654876709,4.167154312133789,-20.997055053710938,16.762033462524414,15.987041473388672, 12.823507308959961
679,772841520,0.52655214,-0.45247358,-0.21130724,-0.68801147,11.351651191711426,1.6338517665863037,-16.86166000366211,-11.350594520568848,-65.3751220703125, -15.74311637878418
680,772858187,0.5189491,-0.46416277,-0.22411193,-0.6819228,12.002164840698242,-0.4106411635875702,-12.84992790222168,4.986922264099121,-131.60357666015625, -36.46525573730469
681,772874854,0.5057094,-0.48350638,-0.2371966,-0.6739565,13.522724151611328,-3.6057610511779785,-8.033313751220703,-35.96162033081055,-182.90902709960938, -45.214813232421875
682,772891521,0.489366,-0.5077115,-0.24723332,-0.66454923,19.657302856445312,-2.5823285579681396,2.3963584899902344,-74.86710357666016,-204.48863220214844, -36.52927780151367
683,772908188,0.47688046,-0.5228428,-0.26598892,-0.6545765,17.02655029296875,10.554709434509277,8.936945915222168,10.010346412658691,-187.69140625, -62.839351654052734
684,772924855,0.46331534,-0.54146737,-0.2772703,-0.6444171,12.559632301330566,2.7280187606811523,-11.485224723815918,-38.625762939453125,-181.60513305664062, -33.60935592651367
685,772941522,0.4489132,-0.5598079,-0.2855678,-0.6352506,14.678601264953613,-0.2994559705257416,1.1825001239776611,-55.80855178833008,-168.51470947265625, -29.820507049560547
686,772958189,0.44258118,-0.5715749,-0.2966784,-0.6240239,8.878458976745605,-4.23325252532959,1.4843846559524536,11.946990966796875,-140.54063415527344, -11.930609703063965
687,772974856,0.43550387,-0.58220947,-0.30383566,-0.61567265,10.702289581298828,-2.8817079067230225,0.9031113386154175,-10.410009384155273,-113.86717987060547, -10.746076583862305
688,772991523,0.43262827,-0.58945,-0.31132558,-0.6070074,10.758854866027832,-3.244070529937744,-0.22754932940006256,18.72610855102539,-92.98021697998047, -0.47965142130851746
689,773008190,0.43106163,-0.59437406,-0.31812,-0.5997542,10.779387474060059,-2.3636415004730225,0.2353798896074295,24.950584411621094,-72.69528198242188, -1.4229559898376465
