PacketCounter,SampleTimeFine,Quat_W,Quat_X,Quat_Y,Quat_Z,Acc_X,Acc_Y,Acc_Z,Gyr_X,Gyr_Y,Gyr_Z 
1,2545599448,0.4274999,0.4417608,-0.17201826,0.7697407,-0.0030504390597343445,0.0030764583498239517,0.18123742938041687,-0.18648137152194977,0.78941810131073, -0.07921268790960312
2,2545616115,0.42729315,0.44189978,-0.17162886,0.7698628,14.409322738647461,1.9231265783309937,9.574389457702637,0.38219907879829407,3.4890451431274414, 0.2173173427581787
3,2545632782,0.4274421,0.4414465,-0.17197609,0.76996267,13.726158142089844,1.877079963684082,9.121627807617188,0.13454990088939667,3.4025638103485107, 0.050514645874500275
4,2545649449,0.4277274,0.44109565,-0.17207055,0.7699842,13.95031452178955,1.9250421524047852,9.133750915527344,0.290351927280426,3.5242366790771484, 0.1646704524755478
5,2545666116,0.4276368,0.44140053,-0.17195451,0.76988584,13.988965034484863,2.044717788696289,9.485672950744629,0.6150954961776733,3.50838303565979, -0.017531894147396088
6,2545682783,0.42806563,0.44112542,-0.17134324,0.76994145,14.27453899383545,2.036592483520508,9.497138023376465,0.2759576141834259,3.264460325241089, -0.06587586551904678
7,2545699450,0.42831844,0.4409838,-0.17078032,0.770007,14.113678932189941,1.87278413772583,9.469239234924316,1.3420605659484863,3.1435041427612305, 0.6508250832557678
8,2545716117,0.42863613,0.44047636,-0.17066722,0.7701458,14.01867389678955,1.9271785020828247,9.383088111877441,-1.3301445245742798,3.6711008548736572, -0.05082841217517853
9,2545732784,0.42861238,0.4402479,-0.17037258,0.77035487,13.766853332519531,1.7632763385772705,9.066581726074219,1.3370661735534668,2.7088441848754883, 0.3788054287433624
10,2545749451,0.42893112,0.4398782,-0.17052378,0.770355,13.862409591674805,1.8075815439224243,9.2161283493042,-0.024485738947987556,3.387324094772339, -0.10027370601892471
11,2545766118,0.42884743,0.43975374,-0.17040603,0.77049863,13.957948684692383,2.053874969482422,9.168530464172363,2.1681597232818604,2.800473213195801, 0.009419070556759834
12,2545782785,0.42882162,0.4396837,-0.17025103,0.77058744,14.201751708984375,2.1164138317108154,9.40007495880127,0.7885574698448181,2.9648942947387695, -0.34500306844711304
13,2545799452,0.42912376,0.4395693,-0.17027332,0.77047944,13.660333633422852,1.996135950088501,9.068318367004395,0.14216969907283783,2.8043155670166016, -0.09422912448644638
14,2545816119,0.42944467,0.43932658,-0.17029855,0.7704336,14.055621147155762,2.129253387451172,9.247723579406738,-1.0387614965438843,3.493104934692383, -0.09658549726009369
15,2545832786,0.42956957,0.4392765,-0.17008546,0.77043945,13.844245910644531,1.9224058389663696,9.205963134765625,1.2472680807113647,3.2429583072662354, 0.4815763533115387
16,2545849453,0.42964536,0.43911773,-0.16986442,0.7705366,13.923552513122559,1.941336989402771,9.266481399536133,0.7475515604019165,3.823765277862549, 0.47799068689346313
17,2545866120,0.42968047,0.43905136,-0.16958563,0.7706163,14.069598197937012,2.2197623252868652,9.468832969665527,2.121365547180176,3.3608286380767822, 0.608525812625885
18,2545882787,0.42981452,0.438866,-0.1694879,0.7706685,13.884931564331055,1.7948527336120605,9.286375999450684,-0.010770140215754509,3.1798486709594727, 0.7883269190788269
19,2545899454,0.4299404,0.43861368,-0.1694598,0.7707481,13.50918960571289,2.0108704566955566,9.075430870056152,-0.6523810029029846,3.2387449741363525, 0.5503720641136169
20,2545916121,0.43008912,0.43841356,-0.1695037,0.77076936,13.961451530456543,1.895999789237976,9.120553970336914,-0.6337862014770508,2.5245859622955322, 0.7693221569061279
21,2545932788,0.4301722,0.43821663,-0.16939895,0.77085805,13.996720314025879,1.8159066438674927,9.475526809692383,0.06106707453727722,3.213900327682495, 0.3993851840496063
22,2545949455,0.43033022,0.43796593,-0.16938837,0.77091485,13.700839042663574,2.002213478088379,9.14153003692627,-0.43539026379585266,3.049941062927246, 0.2223246544599533
23,2545966122,0.43041173,0.4377728,-0.1692799,0.7710029,13.573131561279297,1.938431978225708,9.070794105529785,0.5251563787460327,3.0227534770965576, 0.44667911529541016
24,2545982789,0.4304808,0.43754658,-0.16922589,0.7711045,13.7705659866333,1.9402940273284912,9.132355690002441,-0.15288221836090088,2.984398365020752, 0.5246697664260864
25,2545999456,0.43052158,0.43735072,-0.16911517,0.77121705,13.80838680267334,1.7283250093460083,9.260982513427734,0.8810960054397583,3.101102590560913, 0.8515774607658386
26,2546016123,0.43053553,0.43719426,-0.16889301,0.7713466,13.683008193969727,1.9725921154022217,9.065938949584961,1.7369186878204346,3.184445858001709, 0.44278594851493835
27,2546032790,0.43049958,0.4370085,-0.16877882,0.7714971,13.759583473205566,1.7937780618667603,9.260499000549316,0.7330675721168518,2.990699052810669, 0.8309464454650879
28,2546049457,0.43054307,0.4367638,-0.16881579,0.7716031,13.61998462677002,1.8547568321228027,9.067986488342285,-0.47844526171684265,2.7551772594451904, 0.7067632675170898
29,2546066124,0.43067342,0.436471,-0.16880547,0.77169824,13.623621940612793,1.7518218755722046,9.189129829406738,-0.11672987043857574,3.2986912727355957, 0.4570009708404541
30,2546082791,0.43078306,0.43625662,-0.168797,0.7717601,13.586858749389648,1.8825623989105225,8.995848655700684,0.15546266734600067,2.694693088531494, 0.2940017879009247
31,2546099458,0.43086714,0.43599004,-0.1686458,0.77189696,13.781129837036133,1.906645655632019,9.231183052062988,0.40514805912971497,3.131619691848755, 0.02523491345345974
32,2546116125,0.430998,0.43569604,-0.16844845,0.77203315,13.86782455444336,1.9392876625061035,9.32585620880127,0.9494050741195679,3.0950450897216797, 0.11193390190601349
33,2546132792,0.4310732,0.43540326,-0.16826096,0.7721971,13.468619346618652,1.928485631942749,9.053751945495605,0.6912675499916077,2.8618156909942627, 0.26742860674858093
34,2546149459,0.4311705,0.43502158,-0.16825256,0.77235985,13.480380058288574,1.8004587888717651,8.968657493591309,-0.7917397618293762,2.7504262924194336, 0.6572411060333252
35,2546166126,0.43119144,0.43475428,-0.16815142,0.7725205,13.687946319580078,1.7424145936965942,9.009105682373047,0.8895483016967773,2.3985462188720703, 1.0759831666946411
36,2546182793,0.43123433,0.4344743,-0.16800441,0.7726862,13.749106407165527,1.749177098274231,9.173731803894043,0.9636713862419128,2.6295723915100098, 0.800095796585083
37,2546199460,0.43124846,0.43428227,-0.16777554,0.7728359,13.648358345031738,1.9527029991149902,9.082733154296875,1.5659540891647339,2.2974400520324707, 0.4477163851261139
38,2546216127,0.43147492,0.43386206,-0.16784494,0.77293044,13.55593204498291,1.6196752786636353,8.81278133392334,-1.0476874113082886,2.7542293071746826, 0.5557379126548767
39,2546232794,0.43161976,0.43350238,-0.16780248,0.77306044,13.375125885009766,1.8425002098083496,8.85539722442627,-0.17019636929035187,2.7529618740081787, 0.5615519881248474
40,2546249461,0.4317878,0.4331861,-0.16766077,0.77317464,13.331348419189453,1.7453272342681885,8.742583274841309,0.41810810565948486,2.7986934185028076, 0.06318012624979019
41,2546266128,0.43193626,0.43284652,-0.16746463,0.77332443,13.585168838500977,1.8248958587646484,9.14498519897461,0.930016279220581,3.1963047981262207, 0.2726919949054718
42,2546282795,0.43200713,0.4325843,-0.1671947,0.77348995,13.422513008117676,1.9066317081451416,8.976510047912598,1.6892279386520386,2.9438531398773193, 0.346584677696228
43,2546299462,0.43215197,0.43226808,-0.16708519,0.77360946,13.556180953979492,1.8054418563842773,8.974897384643555,0.4275720417499542,2.706730842590332, 0.37719184160232544
44,2546316129,0.4322937,0.43195683,-0.1669964,0.77372336,13.782108306884766,1.775058627128601,9.299219131469727,0.5742303133010864,2.6340935230255127, 0.6010981202125549
45,2546332796,0.43240154,0.4316578,-0.16682611,0.7738667,13.54868221282959,1.6380914449691772,8.979458808898926,1.0292783975601196,2.837599039077759, 0.5066640973091125
46,2546349463,0.43254888,0.43132907,-0.1667154,0.7739915,13.50876522064209,1.7072992324829102,8.879471778869629,0.4820886254310608,2.8104748725891113, 0.4475882947444916
47,2546366130,0.43271807,0.4309957,-0.16653642,0.77412117,13.49616527557373,1.859358787536621,9.038496971130371,0.8823765516281128,3.096043348312378, 0.22734472155570984
48,2546382797,0.43296206,0.43060884,-0.16651326,0.774205,13.384075164794922,1.6692014932632446,8.887005805969238,-0.49905064702033997,2.8500852584838867, 0.13595861196517944
49,2546399464,0.4331194,0.43033132,-0.16637908,0.77430016,13.546892166137695,1.8607985973358154,8.987959861755371,0.5328401923179626,2.512432813644409, 0.0669580027461052
50,2546416131,0.43321759,0.4301095,-0.16624373,0.7743976,13.41136646270752,1.595751166343689,8.909512519836426,1.021031141281128,2.1796727180480957, 0.4226544201374054
51,2546432798,0.4335108,0.42978036,-0.16620557,0.7744244,13.328272819519043,2.017875909805298,8.819843292236328,-0.4667401909828186,2.478227138519287, -0.4138115644454956
52,2546449465,0.43356386,0.42961934,-0.1659545,0.77453804,13.43306827545166,1.823343276977539,8.944377899169922,1.962246298789978,2.200162649154663, 0.3002512753009796
53,2546466132,0.43383956,0.42929286,-0.1659722,0.7745606,13.221063613891602,1.8643954992294312,8.665017127990723,-0.4022986888885498,2.3119497299194336, 0.056187864392995834
54,2546482799,0.43400756,0.42896786,-0.16590652,0.7746605,13.102776527404785,1.7878631353378296,8.675415992736816,0.12134655565023422,2.6144609451293945, 0.37893345952033997
55,2546499466,0.43410453,0.42867747,-0.16573364,0.7748041,13.545997619628906,1.8223837614059448,8.975618362426758,1.1298084259033203,2.809361219406128, 0.5862299203872681
56,2546516133,0.43418473,0.42839164,-0.16559756,0.77494645,13.107767105102539,1.6735483407974243,8.812626838684082,0.9964556694030762,2.6543915271759033, 0.7763785123825073
57,2546532800,0.43435356,0.42804185,-0.16557269,0.7750502,13.517725944519043,1.873570203781128,8.925783157348633,-0.25708746910095215,2.625807285308838, 0.46868038177490234
58,2546549467,0.43437853,0.42788872,-0.16547167,0.7751424,13.276723861694336,1.6208397150039673,8.73396110534668,1.2430419921875,1.6243253946304321, 0.8244664072990417
59,2546566134,0.43461895,0.4274789,-0.16550137,0.77522755,13.411677360534668,1.5540969371795654,8.842924118041992,-0.6914788484573364,2.853158712387085, 0.45186567306518555
60,2546582801,0.43471375,0.4272706,-0.16534424,0.77532256,13.348061561584473,1.8839998245239258,8.847007751464844,1.2348202466964722,2.1871516704559326, 0.3953768312931061
61,2546599468,0.43485343,0.42703396,-0.16525617,0.77539337,13.301706314086914,1.762135624885559,8.613584518432617,0.6381596326828003,2.1134636402130127, 0.3351229727268219
62,2546616135,0.4351204,0.42662624,-0.16528551,0.775462,13.336799621582031,1.7872991561889648,8.868898391723633,-0.7685858607292175,2.8288393020629883, 0.2696184813976288
63,2546632802,0.43526286,0.4263086,-0.16526803,0.7755602,13.142369270324707,1.649204134941101,8.628185272216797,-0.08327969163656235,2.397752046585083, 0.6152106523513794
64,2546649469,0.43537182,0.42601243,-0.16517188,0.7756823,13.058438301086426,1.6991186141967773,8.613940238952637,0.5455185174942017,2.552222490310669, 0.6243928074836731
65,2546666136,0.43548557,0.42567065,-0.16510381,0.7758207,13.18929386138916,1.6828583478927612,8.786346435546875,0.4079270660877228,2.784580945968628, 0.8885237574577332
66,2546682803,0.43550205,0.42548564,-0.16490392,0.77595544,13.349377632141113,1.7606741189956665,8.745214462280273,1.7037121057510376,2.198779821395874, 0.71816086769104
67,2546699470,0.43562952,0.42520994,-0.16485713,0.77604496,13.200932502746582,1.5491961240768433,8.751848220825195,0.13513901829719543,2.2041842937469482, 0.46613192558288574
68,2546716137,0.43585414,0.42493257,-0.16479215,0.77608454,13.283488273620605,1.8629029989242554,8.74444580078125,0.09290366619825363,2.2614669799804688, -0.10370582342147827
69,2546732804,0.4359781,0.42460912,-0.16475931,0.77619886,13.024932861328125,1.4443219900131226,8.54063606262207,-0.6890968680381775,2.3951141834259033, 0.18040944635868073
70,2546749471,0.43610433,0.42436495,-0.16467792,0.77627873,13.08396053314209,1.8373992443084717,8.461432456970215,-0.2361234575510025,2.021206855773926, -0.16981220245361328
71,2546766138,0.43624413,0.42416242,-0.16460188,0.7763271,13.446589469909668,1.740610957145691,8.773195266723633,0.8563030958175659,1.8632408380508423, 0.4278281629085541
72,2546782805,0.43641028,0.42375627,-0.1647279,0.77642876,13.253642082214355,1.5790979862213135,8.670424461364746,-1.9095807075500488,2.3798232078552246, 0.4822295606136322
73,2546799472,0.43636617,0.42347136,-0.1646321,0.77662927,13.077375411987305,1.802787184715271,8.529916763305664,0.3637963831424713,2.4497456550598145, 1.1156059503555298
74,2546816139,0.43635613,0.42319056,-0.1646476,0.77678466,13.25743293762207,1.8811198472976685,8.651875495910645,-0.36959126591682434,2.0033040046691895, 1.1198960542678833
75,2546832806,0.43641734,0.42283565,-0.1648295,0.7769049,13.154067993164062,1.4132314920425415,8.646221160888672,-1.7294718027114868,1.880081057548523, 1.2036752700805664
76,2546849473,0.43635914,0.42256072,-0.16491398,0.7770692,13.204506874084473,1.71432363986969,8.607622146606445,-0.5692678689956665,1.7391022443771362, 1.5955687761306763
77,2546866140,0.43644562,0.42219892,-0.16502042,0.7771947,13.11867618560791,1.8168494701385498,8.650795936584473,-1.4120793342590332,2.191211223602295, 0.8692372441291809
78,2546882807,0.43679544,0.42173466,-0.16523647,0.7772043,13.458377838134766,1.801209807395935,8.768502235412598,-2.129119634628296,2.523836851119995, 0.3551841080188751
79,2546899474,0.43728444,0.4210815,-0.16540019,0.7772486,13.323003768920898,1.3997516632080078,8.685874938964844,-2.476261615753174,3.994793653488159, 0.01080215722322464
80,2546916141,0.4375544,0.42048755,-0.1653977,0.7774188,13.267471313476562,1.5906774997711182,8.741249084472656,-1.9778640270233154,4.107810020446777, -0.0069154296070337296
81,2546932808,0.4375933,0.42002895,-0.16497481,0.7777346,13.342823028564453,1.5401638746261597,8.650285720825195,1.5106178522109985,4.809009075164795, 0.2956538200378418
82,2546949475,0.43771017,0.41932213,-0.16374177,0.7783106,13.382774353027344,1.7404406070709229,8.820342063903809,5.166755676269531,9.417811393737793, -1.397621512413025
83,2546966142,0.4378093,0.41862404,-0.16215308,0.778963,13.063761711120605,1.810603141784668,8.617653846740723,7.232140064239502,10.644022941589355, -2.107004404067993
84,2546982809,0.4380768,0.41784737,-0.1611774,0.77943206,12.813814163208008,1.8595035076141357,8.552797317504883,3.02169132232666,8.882545471191406, -1.706984519958496
85,2546999476,0.4384583,0.41682774,-0.16009712,0.779986,13.191567420959473,2.287778377532959,9.00911808013916,2.615410327911377,10.870874404907227, -2.090804100036621
86,2547016143,0.4387742,0.4162816,-0.15827112,0.7804725,12.519120216369629,2.1216135025024414,8.021965980529785,8.150202751159668,10.31469440460205, -4.594755172729492
87,2547032810,0.4390176,0.4164602,-0.15748416,0.7803994,12.705934524536133,2.4361648559570312,7.8183274269104,4.355036735534668,1.6188700199127197, -3.7048137187957764
88,2547049477,0.4394299,0.41710073,-0.15774399,0.7797725,12.750347137451172,2.4306819438934326,7.30875301361084,-0.9575949907302856,-5.409685134887695, -3.778475522994995
89,2547066144,0.439798,0.41844893,-0.15881503,0.7786245,12.877978324890137,2.2190754413604736,5.969785213470459,-3.6136724948883057,-13.17890739440918, -3.5518434047698975
90,2547082811,0.44072133,0.41945326,-0.16093136,0.7771261,12.669057846069336,1.999311089515686,8.013716697692871,-12.235613822937012,-14.865466117858887, -4.199515342712402
91,2547099478,0.44164455,0.42016894,-0.16288623,0.775807,11.658295631408691,1.5905365943908691,9.949142456054688,-12.046623229980469,-12.322806358337402, -3.803105354309082
92,2547116145,0.44255915,0.42026025,-0.16444078,0.7749077,11.695229530334473,1.4748563766479492,10.008621215820312,-11.301316261291504,-6.620144367218018, -2.9446940422058105
93,2547132812,0.44332573,0.4200879,-0.16578704,0.774276,12.564292907714844,1.9507120847702026,8.530105590820312,-10.253907203674316,-4.012717247009277, -1.6505213975906372
94,2547149479,0.44444293,0.41967747,-0.16821605,0.77333343,12.667652130126953,2.4679269790649414,7.438142776489258,-18.111249923706055,-6.544770240783691, -1.0655792951583862
95,2547166146,0.44602877,0.41913408,-0.17156962,0.7719772,12.419306755065918,2.2837343215942383,7.5275492668151855,-25.271238327026367,-9.300544738769531, -1.9920837879180908
96,2547182813,0.44753537,0.4186291,-0.17475314,0.770664,12.250239372253418,1.4052516222000122,7.982901096343994,-23.976146697998047,-8.945551872253418, -1.969813585281372
97,2547199480,0.44827738,0.41840798,-0.17669107,0.7699105,12.328974723815918,0.3887200653553009,8.096025466918945,-13.622699737548828,-5.926040172576904, -0.12729521095752716
98,2547216147,0.44839594,0.41803968,-0.17819273,0.7696957,12.376656532287598,-0.45849600434303284,8.157413482666016,-8.392477035522461,-2.8970534801483154, 4.426932334899902
99,2547232814,0.4479814,0.41781944,-0.17898127,0.76987374,12.755635261535645,0.055985480546951294,7.671815872192383,-2.3418848514556885,-1.035880208015442, 6.045027256011963
100,2547249481,0.4478454,0.41728294,-0.18008725,0.7699858,12.913844108581543,0.9719237685203552,7.715497016906738,-6.5308427810668945,-0.26057085394859314, 5.157918453216553
101,2547266148,0.44824132,0.41639984,-0.18163356,0.76987034,13.0947847366333,1.1032315492630005,7.925327777862549,-10.700145721435547,0.3534233868122101, 4.1157002449035645
102,2547282815,0.4483219,0.41586733,-0.18237364,0.7699363,13.14494514465332,1.1664707660675049,7.978999137878418,-4.506054878234863,1.0804014205932617, 3.3892455101013184
103,2547299482,0.4475283,0.41605306,-0.18164293,0.7704703,12.93317699432373,0.8854700326919556,7.9438252449035645,8.687556266784668,2.0697693824768066, 4.439752101898193
104,2547316149,0.44632372,0.4165284,-0.18032458,0.7712213,12.25670337677002,1.2880383729934692,7.740290641784668,14.526927947998047,2.4970293045043945, 5.534083366394043
105,2547332816,0.44530448,0.41683677,-0.17930879,0.77188057,11.805923461914062,1.2749370336532593,7.465446949005127,11.452667236328125,2.3893139362335205, 5.114058017730713
106,2547349483,0.4444846,0.4170816,-0.17834882,0.772443,11.663078308105469,1.15394926071167,7.288804531097412,10.436225891113281,2.542055130004883, 4.129288196563721
107,2547366150,0.44382146,0.41728514,-0.17739709,0.77293336,11.790504455566406,1.1931244134902954,7.2550764083862305,10.264299392700195,2.7849273681640625, 3.5595967769622803
108,2547382817,0.44324905,0.41751188,-0.17657168,0.77332854,11.869010925292969,1.7732185125350952,7.402218818664551,9.126415252685547,2.1023356914520264, 3.001572370529175
109,2547399484,0.44243887,0.41785228,-0.17578852,0.7737869,11.951321601867676,1.6246098279953003,7.438520908355713,8.641016006469727,1.1061038970947266, 3.422312021255493
110,2547416151,0.44163913,0.41828942,-0.17511162,0.7741607,11.967994689941406,1.4218028783798218,7.740527153015137,9.740392684936523,0.2193024456501007, 4.4415202140808105
111,2547432818,0.4408437,0.41873163,-0.17472512,0.77446246,12.110206604003906,1.4720885753631592,7.765896320343018,7.927549839019775,-0.9136437773704529, 4.890279293060303
112,2547449485,0.44038513,0.41885436,-0.17524752,0.7745388,11.99499225616455,1.3781148195266724,7.550642013549805,1.1542555093765259,-2.1797685623168945, 5.622185707092285
113,2547466152,0.44014183,0.41872782,-0.17656031,0.7744473,11.706456184387207,1.27937650680542,7.274311065673828,-4.875480651855469,-3.498298406600952, 6.3585004806518555
114,2547482819,0.43987742,0.41865143,-0.17788792,0.77433497,11.187149047851562,1.4744460582733154,7.050323486328125,-4.9903669357299805,-3.9218430519104004, 6.21856689453125
115,2547499486,0.439578,0.41886657,-0.1785978,0.77422535,11.06579875946045,1.65701162815094,6.7336106300354,-0.3204789161682129,-3.5988404750823975, 4.579224586486816
116,2547516153,0.43939906,0.4190466,-0.17938878,0.7740468,11.313820838928223,1.3401845693588257,7.057024002075195,-1.2229937314987183,-3.698730707168579, 4.063167095184326
117,2547532820,0.4389676,0.41925704,-0.18000726,0.7740339,11.625235557556152,1.0432167053222656,7.088378429412842,0.21108070015907288,-3.2265477180480957, 4.992306709289551
118,2547549487,0.4385246,0.41933632,-0.18091276,0.7740311,11.58633041381836,0.8002411127090454,7.147918701171875,-1.4627670049667358,-3.358055830001831, 6.217425346374512
119,2547566154,0.43795297,0.41960248,-0.18175088,0.77401394,11.033504486083984,0.9668400883674622,6.744584560394287,-0.015406040474772453,-4.333452224731445, 6.547420501708984
120,2547582821,0.43745115,0.41991228,-0.1825355,0.7739452,11.121749877929688,1.1869757175445557,6.78209114074707,0.11167778074741364,-4.46876335144043, 5.787810802459717
121,2547599488,0.43715364,0.42022824,-0.18344823,0.7737259,11.019644737243652,1.079798698425293,6.767865180969238,-1.2910468578338623,-5.062889099121094, 4.638006687164307
122,2547616155,0.43678668,0.42064804,-0.18422604,0.7735203,10.86526870727539,0.9923229217529297,6.7137932777404785,0.04010309651494026,-5.25576639175415, 4.585449695587158
123,2547632822,0.43610394,0.42125314,-0.18459558,0.773488,10.906815528869629,0.875353991985321,6.6778483390808105,3.62935209274292,-4.943981647491455, 5.166280746459961
124,2547649489,0.4353695,0.4218946,-0.18508692,0.77343476,10.59057903289795,1.0279541015625,6.360805034637451,3.274078845977783,-5.629288673400879, 5.722308158874512
125,2547666156,0.4345677,0.42264393,-0.18550393,0.77337676,10.353805541992188,1.122820496559143,6.347385406494141,4.172713279724121,-6.084926128387451, 5.704378604888916
126,2547682823,0.43377447,0.4235659,-0.18567552,0.7732764,10.125945091247559,0.976850152015686,6.083496570587158,5.855315208435059,-6.392138957977295, 4.5558929443359375
127,2547699490,0.4333699,0.42440525,-0.18626818,0.7729004,9.994583129882812,1.124644160270691,6.034018039703369,1.8431607484817505,-7.522170066833496, 2.9644975662231445
128,2547716157,0.43305594,0.42532593,-0.1869662,0.7724015,10.11320972442627,0.8145104050636292,6.1112565994262695,1.2217580080032349,-8.505698204040527, 2.403374433517456
129,2547732824,0.43254697,0.42641988,-0.187561,0.7719393,10.36074161529541,0.49591898918151855,6.709102153778076,2.6127843856811523,-9.287884712219238, 2.8093748092651367
130,2547749491,0.43155092,0.42789876,-0.18750648,0.77169174,10.410429954528809,0.09673727303743362,6.697206497192383,8.958758354187012,-9.404247283935547, 3.6529691219329834
131,2547766158,0.430344,0.42985612,-0.186917,0.7714206,9.903204917907715,0.8447898030281067,5.985543251037598,13.912532806396484,-10.694927215576172, 2.562636613845825
132,2547782825,0.42942223,0.4320034,-0.18617418,0.7709143,9.514260292053223,0.8718636631965637,5.50816011428833,14.159788131713867,-11.575316429138184, -0.33591100573539734
133,2547799492,0.42864108,0.43429238,-0.18536164,0.7702585,9.671093940734863,0.7288128733634949,5.624368190765381,14.091760635375977,-12.399303436279297, -2.0835444927215576
134,2547816159,0.42805573,0.43672562,-0.18494897,0.76930696,9.699591636657715,0.4058258533477783,6.084201812744141,11.701849937438965,-14.95081615447998, -2.811727285385132
135,2547832826,0.42747733,0.43951452,-0.18485275,0.76806223,9.330178260803223,1.6173765659332275,6.056911945343018,10.48459529876709,-18.65451431274414, -3.3622610569000244
136,2547849493,0.42698896,0.44224042,-0.18550694,0.76661015,9.230887413024902,1.564538598060608,5.75413179397583,5.406343936920166,-21.07967185974121, -2.3478689193725586
137,2547866160,0.42637804,0.4448328,-0.18667254,0.76516604,9.820119857788086,0.9933546781539917,5.427306652069092,2.6836330890655518,-22.014591217041016, 0.04475186765193939
138,2547882827,0.42522326,0.44753027,-0.18798485,0.76391345,9.793688774108887,0.8459858298301697,5.0059332847595215,4.197987079620361,-23.09872817993164, 3.818943977355957
139,2547899494,0.4239759,0.45002958,-0.19002627,0.7626323,8.683402061462402,1.4490575790405273,4.5279860496521,-0.21925799548625946,-24.40875244140625, 6.554848670959473
140,2547916161,0.4231078,0.45215884,-0.19265692,0.76119345,9.520276069641113,1.6235982179641724,4.9023756980896,-5.910464763641357,-24.185462951660156, 6.337512493133545
141,2547932828,0.4219586,0.45465302,-0.19447428,0.75988245,8.723700523376465,0.9312910437583923,4.50300407409668,0.3984895646572113,-23.702768325805664, 5.150679111480713
142,2547949495,0.42128652,0.45714113,-0.19643222,0.7582572,8.767120361328125,0.3216440975666046,4.443943500518799,-2.394357204437256,-24.430110931396484, 2.119974136352539
143,2547966162,0.4208628,0.45985454,-0.1975233,0.7565665,8.749428749084473,0.18352851271629333,3.962891101837158,1.621869683265686,-22.98198699951172, -2.562683582305908
144,2547982829,0.42009962,0.46284968,-0.19700614,0.755298,9.551177978515625,-0.4787352681159973,3.949420213699341,12.50110149383545,-18.9080867767334, -5.023223400115967
145,2547999496,0.4190079,0.46594176,-0.19545256,0.75440645,9.503719329833984,0.37678059935569763,4.012863636016846,19.536970138549805,-15.664405822753906, -5.777867317199707
146,2548016163,0.41792583,0.46870852,-0.19414873,0.7536291,9.407487869262695,0.08764835447072983,4.052210330963135,17.442747116088867,-14.307331085205078, -4.255109786987305
147,2548032830,0.41695464,0.47136948,-0.19299683,0.7528026,9.024232864379883,0.9225456118583679,4.4065022468566895,15.857124328613281,-14.20601749420166, -4.383697509765625
148,2548049497,0.4162823,0.47378096,-0.19255345,0.7517737,8.591891288757324,0.7547147870063782,4.184326648712158,10.244035720825195,-15.210247039794922, -3.8688929080963135
149,2548066164,0.41592693,0.47603363,-0.1925985,0.75053495,8.431595802307129,1.5409973859786987,4.321835517883301,6.555097579956055,-16.00588035583496, -4.017279624938965
150,2548082831,0.4154439,0.4784667,-0.19262773,0.7492467,7.383415699005127,1.3941210508346558,3.614201784133911,7.497671127319336,-17.230234146118164, -3.7761619091033936
151,2548099498,0.4153223,0.4807557,-0.1932322,0.7476917,7.845308780670166,1.395666480064392,3.7487292289733887,2.5736501216888428,-18.535085678100586, -4.305026531219482
152,2548116165,0.4149714,0.48344007,-0.19386843,0.74598897,7.651826858520508,1.191508412361145,4.003159046173096,4.096008777618408,-21.45408058166504, -3.9581291675567627
153,2548132832,0.41484997,0.48643294,-0.19502239,0.743807,7.410722255706787,1.3339375257492065,3.987076997756958,0.9176348447799683,-25.810211181640625, -5.187134742736816
154,2548149499,0.41514295,0.48948067,-0.19681573,0.7411672,7.581613540649414,1.0743595361709595,4.02249002456665,-4.198357582092285,-28.90264892578125, -6.539839267730713
155,2548166166,0.41579276,0.49268937,-0.19918248,0.738038,7.490461349487305,1.2448453903198242,3.8344812393188477,-8.52380084991455,-32.53456497192383, -8.040640830993652
156,2548182833,0.41665366,0.49605417,-0.20176725,0.73458844,7.275557041168213,0.8119394779205322,3.209871530532837,-10.338744163513184,-34.754783630371094, -9.497055053710938
157,2548199500,0.41749114,0.4996829,-0.20404252,0.7310164,7.2408881187438965,0.6155065298080444,3.1093647480010986,-8.10839557647705,-35.650821685791016, -11.15477180480957
158,2548216167,0.41805887,0.50365895,-0.20570862,0.7274878,7.498515605926514,0.8746042847633362,2.962834119796753,-3.058811664581299,-35.87600326538086, -12.26119327545166
159,2548232834,0.4188709,0.5077141,-0.20748192,0.7236884,7.261601448059082,1.5299397706985474,3.3926727771759033,-4.59603214263916,-37.16751480102539, -14.003949165344238
160,2548249501,0.42016786,0.51158243,-0.20952858,0.71961117,6.998324394226074,1.5004981756210327,2.7753539085388184,-8.588502883911133,-37.31202697753906, -15.98511028289795
161,2548266168,0.42174006,0.5152673,-0.21164443,0.7154311,6.980068683624268,0.979874849319458,2.4271793365478516,-10.581413269042969,-36.56857681274414, -17.125295639038086
162,2548282835,0.42342627,0.518826,-0.21349429,0.71130186,7.045891284942627,0.8951549530029297,2.1299281120300293,-9.969236373901367,-34.82390594482422, -18.298892974853516
163,2548299502,0.42540216,0.5222588,-0.21501113,0.7071415,6.8549580574035645,0.5385063290596008,2.1608798503875732,-9.786412239074707,-32.9134521484375, -20.813331604003906
164,2548316169,0.4272775,0.52563304,-0.21620277,0.7031361,7.468384742736816,0.7929840683937073,2.439995527267456,-7.78285551071167,-31.26279067993164, -20.963768005371094
165,2548332836,0.429452,0.5285825,-0.21841651,0.6989033,6.8292131423950195,2.280752420425415,2.294276475906372,-15.38882827758789,-32.58438491821289, -18.760414123535156
166,2548349503,0.43276396,0.5302979,-0.22276637,0.6941721,5.899308681488037,3.410309314727783,2.1693029403686523,-34.1911735534668,-33.06487274169922, -16.053466796875
167,2548366170,0.43748093,0.53082,-0.22882839,0.6888238,4.634929656982422,4.296730041503906,2.370818853378296,-52.00169372558594,-32.569244384765625, -16.468441009521484
168,2548382837,0.44300413,0.53070134,-0.23535798,0.68316185,4.766443729400635,1.9203308820724487,1.7004746198654175,-59.6047477722168,-30.84259796142578, -18.437578201293945
169,2548399504,0.44595516,0.53122294,-0.24011377,0.67916965,7.2708330154418945,1.0765714645385742,1.2367743253707886,-37.23915481567383,-26.522932052612305, -8.760954856872559
170,2548416171,0.4489136,0.53096634,-0.24578553,0.67538214,6.628922462463379,0.21844874322414398,0.9236556887626648,-43.590450286865234,-24.911479949951172, -3.551309585571289
171,2548432838,0.4502979,0.53097665,-0.24991556,0.67293245,7.1472578048706055,-0.291814386844635,1.3969892263412476,-27.592605590820312,-19.1415958404541, 1.77789306640625
172,2548449505,0.4512253,0.5313996,-0.2527783,0.67090493,6.788264751434326,-0.9141634106636047,1.5191001892089844,-18.045377731323242,-16.35274314880371, -0.17852090299129486
173,2548466172,0.4523231,0.53218037,-0.25461158,0.6688504,6.490162372589111,-0.3033434748649597,1.869959831237793,-12.837667465209961,-14.601665496826172, -5.485300064086914
174,2548482839,0.45331442,0.5336786,-0.25557125,0.66661584,6.459068775177002,-0.4656410813331604,2.162039041519165,-6.503137111663818,-16.029987335205078, -10.041740417480469
175,2548499506,0.45463163,0.5355792,-0.25649664,0.6638333,5.761190891265869,0.1371912807226181,1.8372267484664917,-7.236397743225098,-19.216482162475586, -14.113395690917969
176,2548516173,0.45604193,0.53763795,-0.25722146,0.660915,5.399394512176514,0.44071251153945923,1.3549531698226929,-6.40272855758667,-19.653810501098633, -15.996794700622559
177,2548532840,0.4572616,0.53970927,-0.25813213,0.6580226,4.542064666748047,1.7482634782791138,1.3079148530960083,-6.4556193351745605,-20.532623291015625, -14.391744613647461
178,2548549507,0.45805153,0.54119563,-0.25986847,0.65556437,4.962399005889893,2.443582057952881,1.0949358940124512,-9.674869537353516,-19.637767791748047, -6.949353218078613
179,2548566174,0.4583928,0.5415401,-0.2629069,0.6538275,5.141364097595215,3.056638717651367,1.235600233078003,-16.197744369506836,-16.704120635986328, 4.276848316192627
180,2548582841,0.45789328,0.54089195,-0.266131,0.65340966,6.1127848625183105,1.7156471014022827,0.5404955744743347,-14.665716171264648,-9.43378734588623, 14.76041316986084
181,2548599508,0.45653388,0.5397238,-0.2690811,0.6541181,6.190301895141602,1.543212890625,1.1613296270370483,-9.82217025756836,-3.59061336517334, 22.118579864501953
182,2548616175,0.45436957,0.5376901,-0.27254125,0.6558652,7.1196441650390625,1.3132703304290771,1.334728717803955,-9.929034233093262,1.0763972997665405, 32.5043830871582
183,2548632842,0.45207518,0.53438044,-0.27887267,0.6574921,7.069757461547852,0.8664118051528931,2.2700626850128174,-26.60881996154785,-2.814222812652588, 45.7252082824707
184,2548649509,0.44996676,0.5290669,-0.28922024,0.65876406,7.722408771514893,1.625156044960022,3.151930809020996,-52.35067367553711,-7.201961517333984, 62.37456512451172
185,2548666176,0.4476648,0.5235644,-0.29277936,0.6631417,9.041024208068848,3.901686429977417,7.605049133300781,-15.308694839477539,25.5325870513916, 48.5593376159668
186,2548682843,0.44219846,0.52329975,-0.2904335,0.6680316,7.5711236000061035,6.286346912384033,9.339154243469238,40.13984298706055,15.143014907836914, 32.84966278076172
187,2548699510,0.4292425,0.5332906,-0.27992257,0.67304957,5.665896892547607,9.150505065917969,7.949021339416504,135.9902801513672,-21.83916664123535, 17.954730987548828
188,2548716177,0.40778542,0.5514757,-0.26135266,0.6791762,2.038245439529419,8.266031265258789,3.111271381378174,230.7370147705078,-48.42844772338867, 15.522407531738281
189,2548732844,0.38485515,0.5723342,-0.24264035,0.68223596,0.4686392545700073,9.573018074035645,-1.1937565803527832,238.92466735839844,-74.79695129394531, 8.715540885925293
190,2548749511,0.37004635,0.5915108,-0.2284867,0.67895114,2.2173187732696533,16.910045623779297,3.245347023010254,170.45994567871094,-90.25318145751953, -25.139963150024414
191,2548766178,0.37928107,0.6016333,-0.22861268,0.66477036,-0.1304434835910797,16.028369903564453,9.195594787597656,-34.23196029663086,-90.9092788696289, -92.29757690429688
192,2548782845,0.39881447,0.6045855,-0.23005065,0.6500001,0.006265167146921158,6.567616939544678,9.562464714050293,-102.47019958496094,-48.16486740112305, -123.76044464111328
193,2548799512,0.42207965,0.6010295,-0.22827941,0.63914067,-2.232042074203491,0.026594161987304688,13.024019241333008,-115.23724365234375,11.500160217285156, -132.66207885742188
194,2548816179,0.44014636,0.5956758,-0.21625018,0.63614273,-0.8958931565284729,-3.0153326988220215,8.834875106811523,-41.42018508911133,73.02323913574219, -126.67815399169922
195,2548832846,0.4571181,0.5852128,-0.20072521,0.6389666,-0.8613014221191406,-5.666362285614014,6.493683338165283,-28.348098754882812,127.89781951904297, -111.19051361083984
196,2548849513,0.4752698,0.5669818,-0.18799995,0.6459926,1.4907008409500122,-7.607893943786621,2.1798887252807617,-63.91911697387695,171.5886993408203, -81.46160125732422
197,2548866180,0.4923448,0.5433168,-0.17613445,0.65679544,5.140293121337891,-7.591637134552002,-3.7752113342285156,-76.3471450805664,206.25015258789062, -54.32181167602539
198,2548882847,0.50688744,0.51651466,-0.16577452,0.66992295,8.733482360839844,-7.334892749786377,-9.117466926574707,-81.47106170654297,221.18746948242188, -25.970163345336914
199,2548899514,0.5161365,0.49219158,-0.15633741,0.6833075,9.891070365905762,-5.794735908508301,-13.852001190185547,-57.995548248291016,201.90557861328125, -0.6145955324172974
200,2548916181,0.51897186,0.47506285,-0.14664496,0.6953265,10.113869667053223,-4.19987678527832,-18.836654663085938,-11.080058097839355,158.14573669433594, 15.765546798706055
201,2548932848,0.52101964,0.4632025,-0.14504975,0.7020987,8.331635475158691,-0.10284407436847687,-21.767744064331055,-33.82558822631836,86.95050811767578, 21.69923973083496
202,2548949515,0.52168316,0.4594241,-0.1464585,0.7037942,6.1317219734191895,0.24140754342079163,-25.414928436279297,-20.250391006469727,20.49278450012207, 11.615239143371582
203,2548966182,0.5163486,0.46846646,-0.14360441,0.7023541,3.4966273307800293,-3.5919857025146484,-21.82400131225586,61.88842010498047,-41.279239654541016, 2.9536819458007812
204,2548982849,0.50847995,0.48572892,-0.14560992,0.69592637,4.174612045288086,-3.3018569946289062,-18.099456787109375,70.70274353027344,-116.0712661743164, 4.840776443481445
205,2548999516,0.5058013,0.503236,-0.16082759,0.681948,5.726792812347412,-0.2344341278076172,-14.402985572814941,-16.689321517944336,-182.84690856933594, -2.6450815200805664
206,2549016183,0.5101856,0.5196551,-0.18716848,0.65927017,5.533478260040283,1.851301670074463,-13.91716194152832,-106.88919067382812,-238.2215576171875, -26.261775970458984
207,2549032850,0.51806784,0.53724056,-0.21915977,0.6284484,15.199877738952637,10.414372444152832,-47.011959075927734,-151.65638732910156,-287.4713439941406, -51.744258880615234
208,2549049517,0.51961815,0.56391627,-0.25316122,0.58983475,25.398706436157227,-6.523016929626465,12.557581901550293,-117.06452941894531,-370.4352111816406, -57.78238296508789
209,2549066184,0.51892364,0.587416,-0.28110397,0.5537522,1.662519097328186,-3.368687391281128,15.759844779968262,-90.4776382446289,-330.3165283203125, -57.81826400756836
210,2549082851,0.5092953,0.6169363,-0.29779366,0.5208905,12.722554206848145,5.636515140533447,-2.425084352493286,16.399660110473633,-318.1357116699219, -69.37348937988281
211,2549099518,0.50679266,0.6355117,-0.31749305,0.48834845,10.76740837097168,-2.4924142360687256,-0.9495818614959717,-62.370704650878906,-273.4737548828125, -58.372108459472656
212,2549116185,0.50059986,0.65269995,-0.33391964,0.46030477,12.410849571228027,-1.7525315284729004,-0.7412799596786499,-30.254777908325195,-245.87232971191406, -41.66755294799805
213,2549132852,0.49370593,0.6681741,-0.34546167,0.43641073,6.261456489562988,-0.13072581589221954,-0.33236879110336304,-8.014425277709961,-206.71902465820312, -43.301143646240234
214,2549149519,0.4866076,0.6816761,-0.35384148,0.41632566,6.815780162811279,1.579828143119812,-1.7556101083755493,4.789717197418213,-173.23133850097656, -39.63302993774414
215,2549166186,0.47783786,0.69419485,-0.35828677,0.40174034,5.028993129730225,2.5589869022369385,-2.296030282974243,34.02581787109375,-135.76754760742188, -32.51728057861328
216,2549182853,0.4674307,0.70576096,-0.36000648,0.39218065,5.7366719245910645,0.7950026988983154,-4.347797870635986,58.702606201171875,-104.48846435546875, -22.150726318359375
217,2549199520,0.45468336,0.7159437,-0.3588267,0.3897834,8.981587409973145,0.05618423968553543,-0.7796596884727478,91.22928619384766,-62.704315185546875, -3.6027870178222656
218,2549216187,0.43919966,0.7260074,-0.35438293,0.3929757,14.47484016418457,2.7863380908966064,0.12330947816371918,127.00508880615234,-31.852895736694336, 5.193897724151611
219,2549232854,0.41778225,0.73645407,-0.34472325,0.4052894,17.157182693481445,1.3070815801620483,9.63680648803711,194.30145263671875,13.40612506866455, 21.578706741333008
220,2549249521,0.39302683,0.745163,-0.33593884,0.42119756,16.667070388793945,-1.317172884941101,13.215108871459961,212.59017944335938,25.14166259765625, 49.50586700439453
221,2549266188,0.36702704,0.75219256,-0.33445108,0.43317443,10.754528999328613,-1.3197638988494873,14.657811164855957,184.46432495117188,-13.6474027633667, 83.5304946899414
222,2549282855,0.34451005,0.7600984,-0.3359543,0.4366899,6.070779800415039,14.822348594665527,15.050318717956543,140.47555541992188,-60.331268310546875, 65.2028579711914
223,2549299522,0.3287062,0.7674651,-0.3443553,0.42938218,0.06703148782253265,8.621065139770508,9.992193222045898,58.687347412109375,-116.7064208984375, 57.25266647338867
224,2549316189,0.31569257,0.781211,-0.36110955,0.399559,9.447035789489746,10.793251037597656,-9.703033447265625,-19.444896697998047,-266.9410400390625, 27.417381286621094
225,2549332856,0.30596286,0.7954826,-0.37487754,0.3647754,19.200986862182617,4.854368686676025,10.636030197143555,-39.99003601074219,-280.1866455078125, -9.48956298828125
226,2549349523,0.27827162,0.81526923,-0.38224712,0.33434758,11.961570739746094,1.9990391731262207,15.921123504638672,97.29280853271484,-303.621337890625, -4.513384819030762
227,2549366190,0.256051,0.832062,-0.38703227,0.30383676,14.80021858215332,3.8268861770629883,24.612709045410156,66.71128845214844,-278.35980224609375, -23.90374183654785
228,2549382857,0.23893069,0.8460656,-0.38882583,0.27549967,9.02096939086914,3.9777603149414062,27.537540435791016,44.825721740722656,-241.92369079589844, -40.427459716796875
229,2549399524,0.2229514,0.8569153,-0.3891016,0.2541431,10.637733459472656,-1.097192645072937,24.913902282714844,54.72451400756836,-190.2962646484375, -31.485363006591797
230,2549416191,0.20602609,0.8648744,-0.38825396,0.24249607,9.96777629852295,-0.9145960807800293,25.273529052734375,83.8448486328125,-129.25555419921875, -13.886058807373047
231,2549432858,0.19211029,0.86854273,-0.38954434,0.23871025,9.373120307922363,-3.640364170074463,22.17051124572754,77.29792022705078,-70.69792175292969, 16.394460678100586
232,2549449525,0.18013933,0.86831236,-0.39281824,0.24347013,8.028401374816895,-2.651848793029785,19.2181453704834,80.06446838378906,-10.92635440826416, 46.74808120727539
233,2549466192,0.17726962,0.8629813,-0.39915252,0.2540002,4.997129917144775,-1.7500677108764648,16.578121185302734,29.74723243713379,52.70145034790039, 70.69815063476562
234,2549482859,0.18639347,0.8529141,-0.40717098,0.2683413,2.613595962524414,-0.3271772563457489,13.298270225524902,-39.80247497558594,114.42025756835938, 77.35407257080078
235,2549499526,0.203123,0.83959466,-0.41326517,0.28815556,1.5716361999511719,3.9029524326324463,9.341712951660156,-69.8041763305664,176.35443115234375, 68.10844421386719
236,2549516193,0.23155494,0.8221586,-0.41658157,0.3112835,1.2123360633850098,6.034109115600586,7.28665018081665,-128.21859741210938,240.94259643554688, 45.209197998046875
237,2549532860,0.2646859,0.80147886,-0.41486788,0.33979097,0.8372602462768555,5.930026531219482,5.037323474884033,-133.74681091308594,299.9590759277344, 24.592082977294922
238,2549549527,0.2997774,0.77739304,-0.40691257,0.37445408,1.4212031364440918,5.3107829093933105,2.799211025238037,-118.5789566040039,359.0265808105469, 6.573938369750977
239,2549566194,0.33172348,0.7512242,-0.3912525,0.41538352,1.5507402420043945,4.75001859664917,-0.20410335063934326,-68.65450286865234,405.20703125, -7.698435306549072
240,2549582861,0.36219501,0.7228559,-0.37055412,0.45714748,2.3321335315704346,2.1134750843048096,-3.731213092803955,-49.420345306396484,423.5853271484375, -21.60136604309082
241,2549599528,0.39143008,0.6917132,-0.3484115,0.49691543,3.766934871673584,-1.1267645359039307,-8.278118133544922,-50.77878189086914,423.12066650390625, -22.759531021118164
242,2549616195,0.4175837,0.65832144,-0.32647127,0.5344654,4.691231727600098,-2.5859036445617676,-13.439908027648926,-48.25370407104492,412.68939208984375, -11.894326210021973
243,2549632862,0.43614793,0.62659097,-0.30197325,0.5709388,6.331573009490967,-2.781501293182373,-20.915517807006836,-2.203901529312134,392.48077392578125, -2.473583459854126
244,2549649529,0.44825292,0.59867865,-0.27576026,0.6038291,7.4899420738220215,0.26835888624191284,-29.315929412841797,36.287845611572266,354.41375732421875, -3.252769947052002
245,2549666196,0.45990807,0.5747348,-0.25791413,0.62581533,8.702071189880371,1.5057358741760254,-37.70276641845703,-5.194437026977539,267.19903564453125, -8.089722633361816
246,2549682863,0.47177753,0.5574369,-0.25227022,0.6348622,8.473026275634766,0.20506368577480316,-43.004451751708984,-60.6580696105957,150.24716186523438, -13.483640670776367
247,2549699530,0.47762305,0.55215913,-0.25527635,0.6339011,7.039999485015869,-1.0131890773773193,-44.68130111694336,-53.87530517578125,21.974454879760742, -7.33451509475708
248,2549716197,0.46828794,0.5648124,-0.2581823,0.62851834,4.631951332092285,-4.475992202758789,-41.158329010009766,55.16352844238281,-98.28373718261719, 12.433666229248047
249,2549732864,0.45206615,0.58744407,-0.26500675,0.6166985,1.4003677368164062,-1.1389942169189453,-29.413328170776367,85.6038818359375,-190.47195434570312, 18.830936431884766
250,2549749531,0.43982923,0.6097835,-0.28037733,0.59674376,-0.9445508718490601,1.9287240505218506,-17.46889877319336,17.4744815826416,-241.00128173828125, 11.675030708312988
251,2549766198,0.44201386,0.62257123,-0.30394724,0.5697763,3.5450901985168457,10.690470695495605,-15.851789474487305,-119.09933471679688,-228.14419555664062, -15.742013931274414
252,2549782865,0.45185357,0.6317421,-0.33148065,0.5355847,8.215018272399902,2.946079969406128,0.9095089435577393,-193.5869903564453,-240.9628143310547, -42.70710754394531
253,2549799532,0.45769083,0.6436318,-0.3498254,0.50386465,1.3014869689941406,6.773676872253418,3.273372173309326,-128.20663452148438,-221.21571350097656, -66.19548797607422
254,2549816199,0.4581657,0.65755975,-0.3585054,0.47872052,9.178694725036621,3.8310210704803467,2.140594720840454,-48.69879913330078,-182.07579040527344, -74.38973236083984
255,2549832866,0.45330653,0.67174035,-0.3634512,0.4595449,8.806489944458008,0.30992552638053894,0.5704917311668396,3.2778844833374023,-157.6737060546875, -55.53319549560547
256,2549849533,0.44932404,0.68170565,-0.3715049,0.44200638,10.731438636779785,-0.8379286527633667,1.886957049369812,-19.576234817504883,-144.5869140625, -28.407835006713867
257,2549866200,0.44518802,0.6892473,-0.37873134,0.4281454,11.400279998779297,2.2434144020080566,2.1068623065948486,-14.363239288330078,-118.13645935058594, -14.39378547668457
258,2549882867,0.43658406,0.6974084,-0.38447425,0.41856357,12.246674537658691,2.2466084957122803,6.118184566497803,24.293941497802734,-107.07479858398438, 3.1374011039733887
259,2549899534,0.42250374,0.7078917,-0.3879407,0.41216752,12.352986335754395,1.4381167888641357,10.1602201461792,72.59405517578125,-106.50102233886719, 11.304978370666504
260,2549916201,0.3972996,0.7236186,-0.38270023,0.4148132,11.309743881225586,-2.1780943870544434,16.10013198852539,190.88177490234375,-82.17784881591797, 12.596796989440918
261,2549932868,0.362665,0.742728,-0.37497133,0.41979286,9.384210586547852,-3.7634048461914062,9.436983108520508,260.4178161621094,-98.78984832763672, 24.404314041137695
262,2549949535,0.32828668,0.7603022,-0.36798638,0.42279404,6.429437160491943,7.728080749511719,18.3331356048584,248.06381225585938,-106.00755310058594, 26.3244571685791
263,2549966202,0.30138874,0.7734638,-0.36640596,0.42031574,4.796058654785156,-0.7875449061393738,21.14525032043457,169.5109405517578,-115.58843994140625, 31.770038604736328
264,2549982869,0.26719877,0.7893637,-0.3631433,0.41669744,1.8336093425750732,5.728695392608643,17.07759666442871,216.03652954101562,-144.97779846191406, 34.6341438293457
265,2549999536,0.25649208,0.8025254,-0.37146342,0.39010248,11.35027027130127,21.442628860473633,5.638885498046875,-6.958688735961914,-224.8292236328125, -5.035573959350586
266,2550016203,0.27661824,0.8046075,-0.38678032,0.35565466,8.18067455291748,1.1866321563720703,25.866565704345703,-235.29185485839844,-172.2782440185547, -34.36809158325195
267,2550032870,0.27454856,0.81352067,-0.38876337,0.33417144,0.015513181686401367,3.3622493743896484,25.15224266052246,-32.26543426513672,-151.48023986816406, -47.4961051940918
268,2550049537,0.2799786,0.8179534,-0.39064577,0.31616476,8.465432167053223,1.252832055091858,22.576641082763672,-73.01985931396484,-101.88359069824219, -46.765106201171875
269,2550066204,0.2807486,0.8220076,-0.3899002,0.30571526,5.270457744598389,0.39873552322387695,18.233722686767578,-21.42970085144043,-66.45106506347656, -35.94172668457031
270,2550082871,0.2736047,0.82522786,-0.38948467,0.30404198,8.08847713470459,-6.232402324676514,12.215024948120117,44.570072174072266,-37.21775817871094, 1.6945372819900513
271,2550099538,0.24907438,0.830513,-0.38527972,0.3158638,6.7138142585754395,-5.292262077331543,13.01356029510498,191.09629821777344,-4.583658695220947, 36.32842254638672
272,2550116205,0.22522286,0.83299214,-0.38159305,0.33133903,3.311612606048584,-3.6424787044525146,13.716229438781738,190.8686065673828,23.110191345214844, 51.54895782470703
273,2550132872,0.21185403,0.8312544,-0.38003805,0.34598428,1.6285057067871094,-1.3150498867034912,13.205430030822754,117.1570053100586,52.04122543334961, 49.71717834472656
274,2550149539,0.21419604,0.8259028,-0.3798754,0.3573506,1.878601312637329,1.5641597509384155,8.898097038269043,10.150872230529785,80.84322357177734, 24.99357795715332
275,2550166206,0.23979664,0.81493354,-0.38280496,0.36309972,1.167831301689148,4.167259216308594,7.447103023529053,-152.49998474121094,118.96796417236328, -8.247392654418945
276,2550182873,0.27452284,0.799169,-0.38488555,0.3712538,0.8959624171257019,0.1756230592727661,4.403456211090088,-203.090576171875,169.91433715820312, -19.298982620239258
277,2550199540,0.305584,0.7810812,-0.38136926,0.38870063,1.0352888107299805,2.277332067489624,2.9094362258911133,-148.46115112304688,227.92433166503906, -17.161787033081055
278,2550216207,0.3343756,0.7603271,-0.37308595,0.41340378,2.9173831939697266,0.5713921785354614,1.024365782737732,-110.10063934326172,278.2751159667969, -14.502093315124512
279,2550232874,0.35669014,0.7386558,-0.35808226,0.44602364,5.187285423278809,-1.034064769744873,-2.2992053031921387,-38.93656921386719,321.3086853027344, -10.694067001342773
280,2550249541,0.37234992,0.71740884,-0.33688217,0.4828982,4.8878960609436035,-1.1417406797409058,-5.728680610656738,25.37204933166504,340.6737976074219, -12.378478050231934
281,2550266208,0.38664952,0.6958088,-0.31374267,0.51760787,4.005439281463623,-1.8785659074783325,-8.525482177734375,32.56684494018555,333.285888671875, -22.144014358520508
282,2550282875,0.40087062,0.6734453,-0.29163954,0.5483799,2.492119789123535,-2.3475794792175293,-10.481484413146973,18.681089401245117,314.6007995605469, -25.737781524658203
283,2550299542,0.41519085,0.6499222,-0.2725775,0.57525605,2.2018697261810303,-2.770820379257202,-12.415888786315918,-4.308856010437012,293.1485595703125, -20.469127655029297
284,2550316209,0.42780942,0.6272126,-0.2549574,0.5988158,2.5501644611358643,-1.1270040273666382,-16.10181999206543,-6.355927467346191,268.22930908203125, -18.327348709106445
285,2550332876,0.4429638,0.60342604,-0.24248616,0.61713916,1.4262614250183105,-1.095055341720581,-19.464242935180664,-50.92461395263672,239.87660217285156, -20.09387969970703
286,2550349543,0.45994046,0.57929003,-0.23720886,0.62976974,0.9874435663223267,-2.536181926727295,-22.986555099487305,-99.66763305664062,199.4132537841797, -14.741626739501953
287,2550366210,0.46971422,0.5624873,-0.23068173,0.6401271,-0.1225212812423706,-0.4627166986465454,-25.394771575927734,-46.17152786254883,151.3944549560547, -7.701497554779053
288,2550382877,0.47284302,0.5545635,-0.2224212,0.6476169,-1.7422661781311035,3.611044406890869,-26.68191146850586,11.158912658691406,96.882080078125, -8.484722137451172
289,2550399544,0.4714519,0.5545584,-0.21365522,0.6515748,-0.3993997275829315,5.647182464599609,-28.597501754760742,50.80839157104492,43.4620475769043, -13.7993745803833
290,2550416211,0.47061133,0.55803126,-0.21094407,0.6500991,-0.5598973035812378,4.745652675628662,-25.09537124633789,24.667919158935547,-11.063095092773438, -15.803393363952637
291,2550432878,0.46758193,0.5679961,-0.21300574,0.6429434,-1.6062636375427246,1.5883408784866333,-22.253944396972656,24.329553604125977,-80.02891540527344, -15.412449836730957
292,2550449545,0.46398276,0.58196515,-0.2198398,0.63064027,-0.11360034346580505,1.9387587308883667,-19.945913314819336,10.678704261779785,-133.6540985107422, -16.620059967041016
293,2550466212,0.46066272,0.59803635,-0.23070088,0.61393785,-0.811863899230957,-2.3248109817504883,-15.418890953063965,-7.938180923461914,-172.51052856445312, -18.85511589050293
294,2550482879,0.45384794,0.618545,-0.24063082,0.5945764,1.6941440105438232,1.8802671432495117,-30.4254150390625,20.177227020263672,-204.61273193359375, -23.397811889648438
295,2550499546,0.45267153,0.64190626,-0.25828692,0.56243485,16.133989334106445,7.473003387451172,-15.262321472167969,-47.819000244140625,-284.8991394042969, -58.079872131347656
296,2550516213,0.45083183,0.6648446,-0.27638596,0.5275827,5.560886383056641,-3.262359380722046,15.891843795776367,-52.82419204711914,-297.6439208984375, -61.043121337890625
297,2550532880,0.4582197,0.6774272,-0.29687664,0.4929416,1.6721833944320679,-2.9015438556671143,3.300339460372925,-135.21621704101562,-249.6869354248047, -63.22287368774414
298,2550549547,0.4535443,0.69730335,-0.31010818,0.46032465,14.539095878601074,0.3007589280605316,-0.09641626477241516,-27.20138931274414,-267.0648498535156, -64.62714385986328
299,2550566214,0.4521568,0.7100681,-0.3228041,0.43261436,10.191377639770508,-2.746062994003296,1.5901777744293213,-52.915870666503906,-212.57901000976562, -47.182979583740234
300,2550582881,0.44564065,0.72275335,-0.33415955,0.4091085,9.013837814331055,-0.5435497760772705,0.09560516476631165,-14.717944145202637,-199.30099487304688, -25.33129119873047
301,2550599548,0.4368906,0.7342362,-0.34228078,0.39098305,7.14455509185791,-2.7455668449401855,0.42996200919151306,14.229165077209473,-164.61402893066406, -15.954521179199219
302,2550616215,0.42729756,0.7440463,-0.34835783,0.3774372,8.530118942260742,-1.446296215057373,-1.7635952234268188,29.790468215942383,-133.04058837890625, -6.451136112213135
303,2550632882,0.413588,0.75374585,-0.35054287,0.37139183,12.729881286621094,-2.3627941608428955,3.6299424171447754,78.629638671875,-92.9619369506836, 6.483034610748291
304,2550649549,0.39874914,0.7613187,-0.35047978,0.37223238,15.226364135742188,-0.9063655734062195,9.004660606384277,100.8542709350586,-48.514251708984375, 22.207300186157227
305,2550666216,0.38312835,0.7660486,-0.35146156,0.37796453,16.992626190185547,-2.9897103309631348,14.691513061523438,106.39948272705078,-20.887102127075195, 49.750064849853516
306,2550682883,0.36268333,0.7703763,-0.35536438,0.385613,9.558286666870117,-3.5301284790039062,12.472509384155273,127.94269561767578,-29.75831413269043, 83.48023223876953
307,2550699550,0.34079596,0.7768913,-0.35978672,0.38839635,2.5535943508148193,3.7724294662475586,11.582099914550781,127.85855102539062,-66.63186645507812, 72.4583511352539
308,2550716217,0.33434486,0.7776878,-0.36809862,0.38460204,1.957777738571167,0.22253534197807312,21.00768280029297,5.42620849609375,-57.7564697265625, 50.855194091796875
309,2550732884,0.31474608,0.7865165,-0.3717503,0.37964305,3.4305601119995117,5.961493492126465,11.548192024230957,103.66424560546875,-108.32748413085938, 37.740257263183594
310,2550749551,0.30061513,0.7961029,-0.38150918,0.36097285,10.56863784790039,5.7133002281188965,-1.2083954811096191,24.81587791442871,-183.98924255371094, 25.044742584228516
311,2550766218,0.28435126,0.8055883,-0.3881343,0.34572184,8.417040824890137,3.2635338306427,17.979949951171875,53.052207946777344,-164.20025634765625, 20.611804962158203
312,2550782885,0.2543869,0.81966,-0.391469,0.33195934,4.367198944091797,-1.6166443824768066,17.022415161132812,149.79600524902344,-197.4899444580078, 25.710613250732422
313,2550799552,0.22909702,0.8319636,-0.3937488,0.3167222,10.779327392578125,7.367839813232422,18.981014251708984,118.80204772949219,-187.6732635498047, 11.300698280334473
314,2550816219,0.21604842,0.83973765,-0.39813894,0.29941458,5.507678031921387,3.5388245582580566,19.937482833862305,31.548603057861328,-160.29510498046875, 5.876664638519287
315,2550832886,0.20469148,0.8472518,-0.3988241,0.28496602,4.617176055908203,5.2441229820251465,18.992300033569336,36.929073333740234,-133.4559783935547, -13.972463607788086
316,2550849553,0.19578707,0.8530161,-0.39898372,0.2735751,4.61433219909668,1.1293294429779053,17.17820167541504,29.697509765625,-105.01971435546875, -12.639302253723145
317,2550866220,0.18471046,0.85786736,-0.39763266,0.26801854,4.923015117645264,0.3457028567790985,14.73499584197998,60.093055725097656,-73.21687316894531, -7.026401996612549
318,2550882887,0.174523,0.86145484,-0.39569432,0.2662021,5.2934722900390625,0.7946531772613525,12.618257522583008,64.56433868408203,-45.803714752197266, -3.888887882232666
319,2550899554,0.16708893,0.86367804,-0.3931536,0.26752946,5.249986171722412,0.270407497882843,11.595337867736816,56.28440475463867,-16.586780548095703, -4.967630386352539
320,2550916221,0.16359766,0.86403424,-0.3903094,0.27265245,5.600944519042969,0.3007793128490448,10.085592269897461,41.54078674316406,20.301029205322266, -4.586115837097168
321,2550932888,0.16618294,0.86200494,-0.38708955,0.28194407,4.734436511993408,1.3015649318695068,8.777441024780273,14.64105224609375,66.19306945800781, -7.106308460235596
322,2550949555,0.1756488,0.8572474,-0.38300774,0.29593843,3.438436985015869,0.49790993332862854,6.748858451843262,-15.068001747131348,118.61773681640625, -12.909931182861328
323,2550966222,0.1870273,0.85047525,-0.37599546,0.31676546,2.583487033843994,1.501955270767212,5.215354919433594,-4.82919454574585,171.600341796875, -20.525131225585938
324,2550982889,0.20138761,0.8413598,-0.36661184,0.34227574,1.4898827075958252,2.388700008392334,3.4764750003814697,-8.0060396194458,214.92660522460938, -28.783281326293945
325,2550999556,0.21971777,0.8296662,-0.35524514,0.37037683,0.3235805928707123,3.1762590408325195,1.7217433452606201,-23.338424682617188,248.86163330078125, -39.47812271118164
326,2551016223,0.24249598,0.8150772,-0.34254852,0.39938128,-0.9103542566299438,3.694620370864868,0.653862714767456,-47.49117660522461,274.436279296875, -49.914764404296875
327,2551032890,0.27186435,0.796937,-0.33015755,0.42658806,-2.2388060092926025,3.702181577682495,-1.0373404026031494,-95.43008422851562,289.3257141113281, -60.90647888183594
328,2551049557,0.31125444,0.7731829,-0.32179737,0.44917178,-3.0044522285461426,1.401682734489441,-2.955871105194092,-183.20904541015625,295.9222106933594, -64.1340103149414
329,2551066224,0.35356727,0.74372125,-0.3163059,0.47097734,-3.487622022628784,-4.2896647453308105,-6.125980854034424,-221.6154327392578,310.02264404296875, -47.0366325378418
330,2551082891,0.38803208,0.71243453,-0.3084988,0.49668598,-4.493338584899902,-6.302100658416748,-8.66778564453125,-169.9713134765625,324.7854309082031, -20.181137084960938
331,2551099558,0.4125916,0.681404,-0.2975872,0.52621186,-4.227804183959961,-5.509127140045166,-10.90261459350586,-102.10957336425781,330.2694091796875, 7.931234359741211
332,2551116225,0.42766485,0.65242606,-0.2839468,0.5575099,-1.8620738983154297,-2.127851724624634,-16.325706481933594,-38.38982009887695,319.89208984375, 30.206504821777344
333,2551132892,0.43640003,0.6258387,-0.26693258,0.5887513,2.4666757583618164,1.1404039859771729,-20.86933708190918,9.80790901184082,308.5656433105469, 34.52784729003906
334,2551149559,0.4427588,0.60303515,-0.25026307,0.61455834,5.374074935913086,2.463672399520874,-23.711936950683594,19.88648223876953,265.096923828125, 22.413864135742188
335,2551166226,0.4501642,0.58497584,-0.23919848,0.6308246,6.640017509460449,2.796006917953491,-28.69338035583496,-10.261937141418457,190.92320251464844, 4.054711818695068
336,2551182893,0.45427325,0.5764883,-0.23140962,0.6385505,5.466432571411133,2.864595651626587,-32.90154266357422,4.189728736877441,100.32479858398438, -10.613540649414062
337,2551199560,0.4544457,0.5774663,-0.228239,0.6386854,1.6184604167938232,1.445366621017456,-30.40705108642578,16.795412063598633,8.898643493652344, -13.757657051086426
338,2551216227,0.4501583,0.58789265,-0.22855979,0.6320603,-0.1964990198612213,3.0581555366516113,-27.49382972717285,37.90827941894531,-76.58988189697266, -16.24159812927246
339,2551232894,0.44618306,0.60248274,-0.23543143,0.61847186,-1.0101319551467896,3.52091383934021,-22.11172866821289,9.948907852172852,-142.02056884765625, -19.14228630065918
340,2551249561,0.4436304,0.6188719,-0.2481237,0.59885263,0.07731246948242188,4.3749895095825195,-22.546737670898438,-25.075830459594727,-189.81924438476562, -22.362037658691406
341,2551266228,0.44751352,0.63519406,-0.27408344,0.5666908,15.64704418182373,7.890557289123535,-42.74573516845703,-128.85069274902344,-272.0809020996094, -30.30081558227539
342,2551282895,0.43216285,0.66685313,-0.28571326,0.5356402,15.487262725830078,-6.6829328536987305,11.254680633544922,60.10502243041992,-318.1771545410156, -43.18388748168945
343,2551299562,0.42463568,0.68945503,-0.2963989,0.50644255,-2.08122181892395,-3.608288526535034,16.777084350585938,4.619791507720947,-258.773193359375, -53.273563385009766
344,2551316229,0.4139162,0.7149101,-0.30583248,0.4733324,14.088567733764648,-1.1635758876800537,-8.50481128692627,24.635774612426758,-290.9244689941406, -65.39590454101562
345,2551332896,0.41316432,0.72819483,-0.31865546,0.44439456,10.157917976379395,-11.350469589233398,-0.21856562793254852,-61.265159606933594,-219.5261993408203, -43.75934600830078
346,2551349563,0.41091833,0.7391166,-0.33122692,0.41849953,5.742311477661133,-2.059255599975586,-4.694065570831299,-52.99882507324219,-199.92031860351562, -26.867870330810547
347,2551366230,0.40646982,0.747968,-0.3392272,0.40031406,7.1042351722717285,-1.9771733283996582,-0.0940554067492485,-16.917001724243164,-147.00302124023438, -17.286710739135742
348,2551382897,0.39776844,0.7568806,-0.34343714,0.38853997,11.234375953674316,5.30388879776001,-0.2873530983924866,30.57090187072754,-113.79159545898438, -7.388922691345215
349,2551399564,0.38294655,0.76559865,-0.3423903,0.38727203,13.952658653259277,8.144495010375977,5.9276580810546875,100.83155822753906,-58.973663330078125, 10.773088455200195
350,2551416231,0.36552274,0.77205807,-0.33942914,0.39383692,17.71042251586914,1.1081405878067017,6.238280773162842,132.2729034423828,-13.298507690429688, 33.54327392578125
351,2551432898,0.33942273,0.77819556,-0.33171776,0.41129953,16.30227279663086,-1.8583884239196777,16.052734375,215.98092651367188,36.601173400878906, 59.75421905517578
352,2551449565,0.30952024,0.78374267,-0.32594123,0.42861074,5.538431644439697,-4.353181838989258,16.36178207397461,229.3103790283203,23.522865295410156, 81.64073181152344
353,2551466232,0.27955806,0.7902558,-0.3243846,0.43831265,1.4766052961349487,5.758145332336426,1.8997191190719604,202.29180908203125,-30.037200927734375, 86.06424713134766
354,2551482899,0.27078977,0.7907331,-0.33065692,0.43826932,2.353740692138672,13.285326957702637,19.974090576171875,30.221893310546875,-32.683414459228516, 59.59217834472656
355,2551499566,0.2524463,0.7992188,-0.3372151,0.42872658,-3.180206537246704,6.0828328132629395,-0.6071033477783203,74.86903381347656,-131.37423706054688, 54.43425369262695
356,2551516233,0.24391241,0.8097556,-0.34912133,0.40362972,12.039231300354004,7.4221649169921875,-5.557895660400391,-27.285755157470703,-209.3776092529297, 23.298372268676758
357,2551532900,0.24398106,0.8187148,-0.36147654,0.37351596,1.4953033924102783,1.1133666038513184,15.649649620056152,-91.07791137695312,-213.0924530029297, -2.590344190597534
358,2551549567,0.22466615,0.83455294,-0.36419633,0.3469982,5.538290977478027,-0.4356039762496948,12.787415504455566,63.348018646240234,-242.9443359375, -18.1156063079834
359,2551566234,0.20822859,0.84774905,-0.36709476,0.32125396,9.548789978027344,0.36517247557640076,15.604476928710938,44.31093978881836,-225.63375854492188, -16.174171447753906
360,2551582901,0.18710718,0.8596312,-0.369165,0.29957014,7.22457218170166,-1.3662974834442139,17.31743621826172,81.87618255615234,-210.19154357910156, -1.5370759963989258
361,2551599568,0.15737027,0.8714792,-0.36854342,0.2827267,9.118746757507324,2.349766731262207,17.534427642822266,150.6330108642578,-200.3706817626953, 6.614978790283203
362,2551616235,0.12892707,0.8809696,-0.3694686,0.26601452,8.834059715270996,5.047237396240234,18.25080108642578,137.72052001953125,-193.8546905517578, 19.591341018676758
363,2551632902,0.10516047,0.8878843,-0.37293434,0.24803784,8.391032218933105,3.7826573848724365,17.569034576416016,99.33438873291016,-187.60641479492188, 32.006736755371094
364,2551649569,0.08729594,0.8924252,-0.37791443,0.23051597,9.590258598327637,2.864574909210205,16.77324867248535,60.217010498046875,-167.1101837158203, 37.69962692260742
365,2551666236,0.07366414,0.8953454,-0.3828345,0.21533266,8.825624465942383,2.5367796421051025,15.53024673461914,39.464229583740234,-139.5083465576172, 36.294639587402344
366,2551682903,0.06388438,0.89773613,-0.38561863,0.203193,7.640961647033691,3.3908212184906006,13.816587448120117,26.669132232666016,-109.04112243652344, 20.414480209350586
367,2551699570,0.05852666,0.89960766,-0.38580137,0.19605695,6.9122185707092285,2.8988330364227295,11.735169410705566,16.081317901611328,-64.75247192382812, 1.7931538820266724
368,2551716237,0.05769508,0.9006467,-0.3835343,0.1959803,5.118210792541504,3.5528931617736816,11.127379417419434,9.813933372497559,-7.093227863311768, -14.38504409790039
369,2551732904,0.067816496,0.9001692,-0.3802956,0.20117609,2.5583953857421875,3.736865282058716,9.307879447937012,-43.3523063659668,56.817020416259766, -29.0640811920166
370,2551749571,0.08663547,0.8975948,-0.3756021,0.2138717,1.4725408554077148,2.801600456237793,7.8947577476501465,-76.49380493164062,129.6064453125, -41.15605163574219
371,2551766238,0.11194367,0.892505,-0.3693883,0.2333575,-0.12318418174982071,3.2742395401000977,6.002668380737305,-98.2476806640625,192.97940063476562, -49.60764694213867
372,2551782905,0.14523521,0.8837287,-0.36306503,0.25712696,-0.7016936540603638,2.6285886764526367,3.962456226348877,-139.01052856445312,245.7147979736328, -50.500858306884766
373,2551799572,0.18053907,0.8709955,-0.35598478,0.28643924,-1.362462043762207,1.067455768585205,2.2719011306762695,-140.01771545410156,292.3726501464844, -43.323219299316406
374,2551816239,0.21605456,0.8541141,-0.34861004,0.3198136,-1.9939378499984741,-0.9399596452713013,0.5903477072715759,-135.9488067626953,325.9829406738281, -30.38234519958496
375,2551832906,0.24947175,0.8339394,-0.34012038,0.35584715,-2.369915246963501,-2.3921988010406494,-1.5402005910873413,-119.75298309326172,345.7196350097656, -20.560710906982422
376,2551849573,0.28173962,0.80996084,-0.3319633,0.39292043,-3.0929160118103027,-6.077845096588135,-4.942958831787109,-118.15464782714844,358.0172424316406, -5.252159118652344
377,2551866240,0.3080995,0.783926,-0.32266673,0.43176502,-5.990342140197754,-5.450096607208252,-8.290850639343262,-82.20809936523438,362.51751708984375, 12.345879554748535
378,2551882907,0.33273995,0.7557131,-0.31315002,0.4691684,-7.826089859008789,-4.290731430053711,-11.916712760925293,-80.20111083984375,358.33404541015625, 17.941837310791016
379,2551899574,0.35275733,0.7265618,-0.30248252,0.50613683,-6.6104278564453125,-4.031855583190918,-15.496240615844727,-55.63954162597656,352.32940673828125, 27.848674774169922
380,2551916241,0.36681148,0.6996094,-0.28933343,0.5406315,-3.653604507446289,0.77717524766922,-19.294462203979492,-17.107173919677734,326.5113525390625, 25.59345054626465
381,2551932908,0.38416237,0.6740723,-0.2802398,0.56525356,0.26363080739974976,7.511631488800049,-28.21822738647461,-64.22987365722656,270.7042236328125, 5.173288822174072
382,2551949575,0.4080902,0.64976716,-0.28065425,0.5766269,5.719151020050049,8.046815872192383,-34.7017936706543,-154.14735412597656,192.91702270507812, -13.506619453430176
383,2551966242,0.42436686,0.63446814,-0.281941,0.58126783,4.741024017333984,0.7889455556869507,-36.59950256347656,-111.35887908935547,110.91777038574219, -15.33688735961914
384,2551982909,0.4285945,0.63307726,-0.28087607,0.58019716,3.4367825984954834,1.5101675987243652,-35.32777786254883,-20.07081413269043,14.965871810913086, -21.009586334228516
385,2551999576,0.42668685,0.641065,-0.283945,0.5712699,3.0046513080596924,3.2223215103149414,-30.458782196044922,2.4270341396331787,-79.7095947265625, -19.75116729736328
386,2552016243,0.42032892,0.65648556,-0.291635,0.55434597,0.31421828269958496,3.8358359336853027,-32.4123649597168,9.930682182312012,-165.6423797607422, -19.784788131713867
387,2552032910,0.40299475,0.68807644,-0.30228052,0.5222765,15.751341819763184,5.02278995513916,-41.133323669433594,64.4334945678711,-325.5067138671875, -40.70736312866211
388,2552049577,0.38445905,0.71673155,-0.31372815,0.48996136,9.10515308380127,-2.639035224914551,16.183834075927734,58.41246032714844,-319.8460998535156, -27.130083084106445
389,2552066244,0.38149402,0.734041,-0.3288489,0.45552668,-5.658926486968994,1.3503077030181885,13.244216918945312,-65.12593841552734,-269.00091552734375, -42.676326751708984
390,2552082911,0.38087943,0.75011706,-0.3419866,0.41868892,16.36698341369629,-7.3589067459106445,-5.577928066253662,-79.35505676269531,-267.38720703125, -63.37395095825195
391,2552099578,0.37829137,0.7618006,-0.35432965,0.38859484,7.204903602600098,-6.001077651977539,1.2394917011260986,-62.50249481201172,-222.7229461669922, -33.94586944580078
392,2552116245,0.38270494,0.76753867,-0.36890516,0.3582321,2.920743942260742,-5.879963397979736,-4.214412212371826,-121.21604919433594,-197.32557678222656, -27.238473892211914
393,2552132912,0.38882715,0.7704155,-0.37964505,0.3333813,1.765961766242981,-3.10248064994812,-6.390615940093994,-114.33013916015625,-146.86578369140625, -29.92670249938965
394,2552149579,0.38810644,0.77423835,-0.38261262,0.3217702,6.780916213989258,3.586336374282837,-4.853438854217529,-23.188032150268555,-76.0160903930664, -22.48215103149414
395,2552166246,0.3809106,0.7783946,-0.37912834,0.32445496,14.791095733642578,9.141753196716309,3.3685576915740967,64.08610534667969,-0.6335777044296265, -5.260770797729492
396,2552182913,0.3655568,0.78312707,-0.37076032,0.3400252,18.66094207763672,4.837770462036133,7.702528953552246,153.89389038085938,58.068363189697266, 18.954633712768555
397,2552199580,0.3378497,0.78933364,-0.35771993,0.36721438,23.06892204284668,-0.12166845798492432,17.30743408203125,264.88507080078125,96.80047607421875, 47.86681365966797
398,2552216247,0.30570126,0.79361767,-0.3511763,0.39165413,8.569889068603516,0.7917402982711792,14.166630744934082,261.5744934082031,59.73317337036133, 92.35379791259766
399,2552232914,0.27476302,0.7994495,-0.34904537,0.4044171,3.5961806774139404,14.303264617919922,16.75421142578125,218.25392150878906,-15.14148998260498, 84.79000091552734
400,2552249581,0.26400837,0.8009359,-0.35658324,0.40205693,0.5175822973251343,6.031304836273193,16.33580780029297,36.04345703125,-56.598819732666016, 63.96696090698242
401,2552266248,0.23875281,0.8142369,-0.36136937,0.38655904,1.2364404201507568,4.773618221282959,-4.2574920654296875,112.84849548339844,-192.66909790039062, 36.22755813598633
402,2552282915,0.23145083,0.8298857,-0.370783,0.34675708,19.955801010131836,19.401166915893555,-4.600342273712158,-56.49687957763672,-297.92205810546875, -31.243120193481445
403,2552299582,0.23394,0.84040886,-0.3798129,0.30777845,9.015010833740234,-2.707465171813965,20.334625244140625,-117.32853698730469,-255.72633361816406, -42.08682632446289
404,2552316249,0.20487879,0.85921085,-0.3771535,0.27845418,10.2825345993042,-1.2087887525558472,15.7012357711792,128.39979553222656,-281.7184143066406, -49.101802825927734
405,2552332916,0.1777721,0.8729117,-0.37660772,0.2541439,15.383072853088379,0.756842851638794,17.538375854492188,118.68910217285156,-240.7127227783203, -20.11780548095703
406,2552349583,0.1507288,0.88346857,-0.37790075,0.23228233,9.212676048278809,-0.6636066436767578,18.309326171875,117.68241119384766,-223.2339324951172, 1.9351089000701904
407,2552366250,0.121078864,0.8927505,-0.37791693,0.21334355,10.640124320983887,1.5545233488082886,19.597259521484375,141.8775634765625,-209.33352661132812, 4.693747043609619
408,2552382917,0.0978564,0.89895934,-0.3795545,0.19553714,10.410264015197754,3.104495048522949,19.32108497619629,100.48002624511719,-182.96914672851562, 14.216235160827637
409,2552399584,0.08254645,0.90315694,-0.38175544,0.17820393,8.948147773742676,3.999009370803833,18.784677505493164,50.758426666259766,-157.47349548339844, 12.689513206481934
410,2552416251,0.07536721,0.9054561,-0.38492268,0.16218515,8.890575408935547,1.0403189659118652,17.184825897216797,1.5230374336242676,-126.51872253417969, 14.491168975830078
411,2552432918,0.069211856,0.9067293,-0.38707742,0.15239069,8.252129554748535,0.14460724592208862,15.010576248168945,12.223688125610352,-83.66539764404297, 12.955551147460938
412,2552449585,0.06771489,0.9070726,-0.38790983,0.14886269,6.178673267364502,0.9974353313446045,13.768977165222168,0.7858579754829407,-30.806673049926758, 5.259028434753418
413,2552466252,0.078307725,0.9060173,-0.38800478,0.14984292,3.0683608055114746,1.7431037425994873,13.745433807373047,-62.487159729003906,31.20299530029297, -5.935922145843506
414,2552482919,0.09975201,0.9030676,-0.38697055,0.1573929,1.155915379524231,-1.0630829334259033,11.691649436950684,-112.4073715209961,103.6107177734375, -15.654465675354004
415,2552499586,0.11971431,0.89858794,-0.3831798,0.17714866,0.12754815816879272,-1.3123056888580322,9.031417846679688,-68.82320404052734,179.06134033203125, -18.841732025146484
416,2552516253,0.14365575,0.891517,-0.37798956,0.20416722,-0.6782962679862976,0.6453623175621033,6.120710372924805,-74.73461151123047,238.8480224609375, -19.608652114868164
417,2552532920,0.17197903,0.8810047,-0.37246716,0.23563163,-1.3310298919677734,-0.11251392960548401,3.5268924236297607,-92.9848861694336,282.8131103515625, -14.500138282775879
418,2552549587,0.19992094,0.8671454,-0.36652595,0.271568,-1.8942785263061523,-1.6003174781799316,0.9084486961364746,-82.52710723876953,315.04034423828125, -2.59771466255188
419,2552566254,0.22773385,0.85046685,-0.35897633,0.30980533,-3.0207114219665527,-0.11229267716407776,-0.8903167247772217,-76.8841781616211,336.1481018066406, -1.728467345237732
420,2552582921,0.2638034,0.82888436,-0.35344154,0.34414753,-2.7996537685394287,-2.9086358547210693,-2.8543739318847656,-146.82504272460938,341.3274230957031, -1.5727574825286865
421,2552599588,0.29930526,0.80355453,-0.34874642,0.37827554,-3.959251880645752,-5.486828327178955,-5.928716659545898,-152.9591064453125,346.3756408691406, 13.145434379577637
422,2552616255,0.32832137,0.7763826,-0.3420106,0.41528788,-5.99992561340332,-3.9805901050567627,-8.627947807312012,-108.7518081665039,356.1371154785156, 28.963502883911133
423,2552632922,0.3504098,0.748645,-0.3323457,0.454192,-6.8019585609436035,-1.8300223350524902,-12.626330375671387,-60.282047271728516,358.640380859375, 38.654109954833984
424,2552649589,0.36604682,0.7216286,-0.31906962,0.49341327,-4.393373012542725,0.47841086983680725,-15.653883934020996,-13.398423194885254,352.5362548828125, 39.36594772338867
425,2552666256,0.37699208,0.6981949,-0.30232865,0.5282029,1.0173792839050293,4.702459812164307,-23.782594680786133,20.850963592529297,317.3873291015625, 19.151987075805664
426,2552682923,0.39189038,0.6763749,-0.2895383,0.55236477,5.5144362449646,7.631669044494629,-30.487060546875,-30.534761428833008,259.2430114746094, -7.020694255828857
427,2552699590,0.41107148,0.6566472,-0.2863364,0.5637786,7.326003074645996,5.575520992279053,-34.45673751831055,-106.82750701904297,175.64683532714844, -17.03583335876465
428,2552716257,0.42243543,0.64751524,-0.2858926,0.5661608,6.0778350830078125,3.853671073913574,-37.34835433959961,-70.27427673339844,71.66837310791016, -20.52361297607422
429,2552732924,0.42324126,0.6506221,-0.28609723,0.56187737,4.1350789070129395,4.751518726348877,-34.286094665527344,-3.5793638229370117,-27.15886688232422, -19.8422908782959
430,2552749591,0.41490018,0.6637767,-0.28793433,0.55168134,1.5133707523345947,2.3825368881225586,-28.361888885498047,48.43095397949219,-114.19813537597656, -14.076693534851074
431,2552766258,0.40302143,0.68245023,-0.29439953,0.5340079,5.099941253662109,11.382256507873535,-53.509437561035156,47.827919006347656,-188.7508087158203, -11.761662483215332
432,2552782925,0.39611354,0.7052253,-0.31273067,0.49794707,18.630985260009766,-4.964235305786133,-5.245171070098877,-45.264854431152344,-311.51318359375, -33.261680603027344
433,2552799592,0.37945023,0.7304466,-0.32157272,0.4680344,-5.583646774291992,-2.327298641204834,25.772798538208008,54.53465270996094,-285.4173889160156, -34.53701400756836
434,2552816259,0.37727365,0.7482933,-0.3367523,0.4293248,7.736636161804199,-3.019752025604248,-10.315053939819336,-77.15061950683594,-291.45654296875, -55.96445083618164
435,2552832926,0.3728435,0.7627275,-0.34792772,0.39771968,14.916990280151367,-9.56910514831543,-0.8438018560409546,-46.1368408203125,-239.63864135742188, -43.55323791503906
436,2552849593,0.3704721,0.77187747,-0.3577237,0.37281287,1.7380856275558472,-2.558878183364868,-3.6103076934814453,-50.618038177490234,-181.9674835205078, -26.835731506347656
437,2552866260,0.36789027,0.7800649,-0.36431143,0.35132992,7.51199197769165,-0.6255728006362915,-0.17222310602664948,-35.29854965209961,-153.81068420410156, -32.22235107421875
438,2552882927,0.36300492,0.78665745,-0.36638495,0.33935192,8.662555694580078,2.652937412261963,-2.4131574630737305,7.784883975982666,-93.63973236083984, -22.89054298400879
439,2552899594,0.35249922,0.7932335,-0.36512157,0.3364686,13.710244178771973,3.2157669067382812,2.6177027225494385,68.89085388183594,-50.50405502319336, -5.146031379699707
440,2552916261,0.33945793,0.79763407,-0.36155638,0.34325713,15.052286148071289,5.088109016418457,5.469354152679443,107.16583251953125,6.0209832191467285, 16.920358657836914
441,2552932928,0.31863314,0.8014452,-0.35470772,0.3610279,16.610801696777344,0.34763336181640625,12.879959106445312,183.693603515625,55.40835952758789, 44.239830017089844
442,2552949595,0.29074213,0.80485076,-0.3495339,0.3814586,9.909019470214844,1.647109031677246,16.67742347717285,224.2703399658203,49.414146423339844, 77.59973907470703
443,2552966262,0.26130837,0.8085401,-0.34964377,0.39462644,4.174841403961182,5.7075276374816895,5.541935443878174,202.2128143310547,-6.523117542266846, 95.60155487060547
444,2552982929,0.25476646,0.80820715,-0.35715315,0.3928574,4.304954528808594,14.056550979614258,19.21967887878418,11.790692329406738,-37.19235610961914, 57.54140090942383
445,2552999596,0.23901665,0.81376743,-0.36492097,0.38403946,-0.9970322251319885,3.42423677444458,5.726639270782471,55.418453216552734,-116.01000213623047, 57.33762741088867
446,2553016263,0.2210562,0.8277694,-0.3725443,0.35657078,13.267436981201172,10.69935131072998,-10.424542427062988,35.29030990600586,-248.14588928222656, 10.60729694366455
447,2553032930,0.22531617,0.8360956,-0.3825056,0.32228345,9.50476360321045,3.392512559890747,18.440853118896484,-122.95635986328125,-219.68856811523438, -26.219635009765625
448,2553049597,0.2059291,0.8514448,-0.3827053,0.29355034,1.6165733337402344,-1.1243398189544678,20.45669937133789,60.2520637512207,-251.0637664794922, -39.800262451171875
449,2553066264,0.1854927,0.8651622,-0.37974486,0.26996452,11.53631591796875,2.712066888809204,18.53367042541504,84.08748626708984,-216.37098693847656, -44.626773834228516
450,2553082931,0.16417506,0.87559056,-0.37729067,0.25306094,5.66094970703125,-0.6971293091773987,19.509361267089844,101.76508331298828,-174.07383728027344, -22.829275131225586
451,2553099598,0.13873301,0.8856999,-0.37250668,0.23984964,4.0946550369262695,3.168332815170288,21.207347869873047,139.94439697265625,-159.8028106689453, -24.66839027404785
452,2553116265,0.12031133,0.89278686,-0.36994717,0.2271479,4.874252796173096,2.2944788932800293,20.293371200561523,92.04752349853516,-136.24319458007812, -14.363174438476562
453,2553132932,0.10646376,0.8975393,-0.36903638,0.21656613,5.069826126098633,0.9072948694229126,17.43893814086914,64.93563842773438,-109.67781066894531, -3.628720283508301
454,2553149599,0.09421166,0.9009917,-0.36778066,0.20994213,5.0790886878967285,2.078671455383301,16.198482513427734,64.73587036132812,-79.30990600585938, -1.901057481765747
455,2553166266,0.08587187,0.9032724,-0.36623865,0.20638365,4.959143161773682,2.0691516399383545,14.289607048034668,47.951637268066406,-48.79857635498047, -4.319845676422119
456,2553182933,0.07999735,0.9050347,-0.36308444,0.20659718,5.16314172744751,1.6204266548156738,10.1979341506958,44.16081237792969,-17.672273635864258, -14.248481750488281
457,2553199600,0.07802296,0.90597856,-0.35848036,0.21120429,5.698652267456055,1.9466296434402466,8.541292190551758,32.498905181884766,21.239709854125977, -24.311534881591797
458,2553216267,0.08388031,0.9054485,-0.35382923,0.21893387,4.6696977615356445,2.4222724437713623,7.2489519119262695,-9.278128623962402,62.048828125, -30.645235061645508
459,2553232934,0.09860964,0.9030819,-0.34902814,0.22999698,4.320409774780273,0.9197344183921814,4.267366409301758,-57.20211410522461,107.17650604248047, -38.55501937866211
460,2553249601,0.11596034,0.89901984,-0.34222418,0.24738543,3.9372496604919434,0.9772862792015076,2.5464439392089844,-56.275856018066406,156.78704833984375, -46.83506393432617
461,2553266268,0.13811217,0.8927171,-0.3344204,0.26859656,3.0791819095611572,1.0768182277679443,1.4430227279663086,-77.04324340820312,196.3724822998047, -52.91399383544922
462,2553282935,0.16244452,0.88413477,-0.3252329,0.29349837,1.9930059909820557,0.7074781656265259,-0.10145343095064163,-81.55119323730469,229.6593017578125, -56.74290466308594
463,2553299602,0.18785664,0.873105,-0.3149122,0.32129088,0.11241523921489716,-0.3861504793167114,-1.2819905281066895,-82.11253356933594,256.00469970703125, -57.154441833496094
464,2553316269,0.21395212,0.85957986,-0.3036093,0.35095334,-1.2696754932403564,-0.9971327185630798,-2.7333242893218994,-83.2575454711914,275.716064453125, -56.800941467285156
465,2553332936,0.24319729,0.8427545,-0.29360944,0.38001812,-2.408583879470825,-3.984792709350586,-4.916273593902588,-111.18631744384766,285.0852966308594, -50.75739669799805
466,2553349603,0.2701066,0.8236523,-0.28407267,0.40980762,-4.191981315612793,-6.310519695281982,-7.228188514709473,-101.2957534790039,290.0888366699219, -36.2812385559082
467,2553366270,0.29520813,0.8022896,-0.27595875,0.4393525,-4.817956924438477,-6.562663555145264,-9.2930326461792,-99.85914611816406,289.3316955566406, -19.320764541625977
468,2553382937,0.31773162,0.77914363,-0.26966792,0.46825325,-4.931928634643555,-7.236663341522217,-11.871299743652344,-96.10778045654297,283.0472717285156, 0.4630633592605591
469,2553399604,0.33403713,0.7562783,-0.26342696,0.49706,-4.443553447723389,-5.012210369110107,-14.433450698852539,-62.63737869262695,270.5224914550781, 19.897327423095703
470,2553416271,0.3464636,0.73456335,-0.25739124,0.5235736,-2.835695743560791,-2.020476818084717,-17.918180465698242,-44.79753875732422,247.72476196289062, 26.793987274169922
471,2553432938,0.358538,0.713833,-0.25378585,0.54542255,-0.7530230283737183,-0.0032043755054473877,-20.8647403717041,-57.816165924072266,214.82545471191406, 27.459457397460938
472,2553449605,0.3708326,0.69556206,-0.25366133,0.5606537,1.1323299407958984,0.6362823843955994,-24.327810287475586,-77.58016204833984,165.59716796875, 23.12013053894043
473,2553466272,0.38081813,0.68268526,-0.25541502,0.5689305,2.8406856060028076,1.311545968055725,-28.309593200683594,-72.31283569335938,103.48379516601562, 13.892074584960938
474,2553482939,0.38816747,0.6768163,-0.2596285,0.56906825,2.307703971862793,2.47282338142395,-28.929622650146484,-65.68865966796875,27.65867805480957, 2.184962272644043
475,2553499606,0.39091638,0.67944384,-0.265915,0.5610969,0.9893994927406311,3.945054292678833,-27.271774291992188,-44.39080810546875,-56.216583251953125, -6.880823612213135
476,2553516273,0.39036167,0.6883461,-0.27560088,0.54574895,-0.16358232498168945,2.637634515762329,-23.428348541259766,-38.890811920166016,-129.3102569580078, -9.404668807983398
477,2553532940,0.38400915,0.7049829,-0.2869521,0.5226804,2.0011844635009766,9.56917953491211,-54.47409439086914,-11.716056823730469,-209.7494354248047, -15.011685371398926
478,2553549607,0.3752668,0.72776395,-0.3069545,0.48509133,19.444286346435547,-9.736834526062012,-12.102006912231445,-44.02708053588867,-328.3038330078125, -14.590704917907715
479,2553566274,0.35165924,0.75227594,-0.31440973,0.45996013,-1.0416306257247925,-4.03978157043457,24.576459884643555,103.10271453857422,-270.6466979980469, 0.42271530628204346
480,2553582941,0.34992096,0.76584494,-0.32974157,0.4269748,3.2117764949798584,-3.6147305965423584,-8.244084358215332,-78.19779968261719,-249.41162109375, -23.39423370361328
481,2553599608,0.3447702,0.77970886,-0.34104487,0.39607617,17.822704315185547,-6.606678009033203,1.0279014110565186,-42.971458435058594,-237.3061065673828, -30.18401336669922
482,2553616275,0.34589818,0.7867111,-0.3512456,0.37157348,6.309072017669678,-3.3030436038970947,-1.8216674327850342,-74.82926940917969,-167.43223571777344, -22.08894920349121
483,2553632942,0.34550348,0.79343665,-0.3595663,0.34899557,8.375297546386719,-0.13752633333206177,1.9269318580627441,-57.780906677246094,-155.73399353027344, -23.123836517333984
484,2553649609,0.34766167,0.7977118,-0.36534745,0.33061865,7.546109199523926,4.159555912017822,-0.6180291771888733,-60.99502944946289,-114.95036315917969, -27.05307388305664
485,2553666276,0.3423771,0.80285376,-0.36661175,0.3221799,9.095873832702637,3.566049098968506,0.6198368072509766,17.18557357788086,-70.59162902832031, -13.270962715148926
486,2553682943,0.32900584,0.80842125,-0.3638904,0.32526028,11.910311698913574,4.657655239105225,4.133183479309082,100.7721176147461,-19.283485412597656, 8.617772102355957
487,2553699610,0.31066436,0.81403804,-0.35587388,0.337911,11.852656364440918,2.3783671855926514,8.779288291931152,164.4254913330078,32.87301254272461, 11.702448844909668
488,2553716277,0.28423056,0.8198922,-0.34738114,0.35541,11.913326263427734,-0.572433590888977,12.05394458770752,223.3573455810547,40.09478759765625, 37.44231033325195
489,2553732944,0.25499767,0.8241814,-0.34463924,0.37003437,9.045090675354004,1.863808512687683,8.514290809631348,215.3009796142578,9.129612922668457, 74.64221954345703
490,2553749611,0.23481444,0.8278967,-0.34611377,0.3737037,6.46061897277832,14.727370262145996,16.48215675354004,126.40200805664062,-37.9260368347168, 57.61788558959961
491,2553766278,0.22809969,0.8290419,-0.3544142,0.3674927,-0.677642822265625,4.878604888916016,12.048018455505371,4.6969451904296875,-67.1776123046875, 52.33407211303711
492,2553782945,0.2092655,0.83959186,-0.36273748,0.34599888,4.9611897468566895,3.7502317428588867,-9.207358360290527,51.30752944946289,-207.97869873046875, 36.3178825378418
493,2553799612,0.19442417,0.8512543,-0.3709117,0.31621185,16.97514533996582,4.7076544761657715,1.4850118160247803,9.534855842590332,-248.22186279296875, 11.307243347167969
494,2553816279,0.18335932,0.8621618,-0.37886247,0.2819923,6.125018119812012,1.9128186702728271,17.585044860839844,-24.322219848632812,-263.04852294921875, -2.1761035919189453
495,2553832946,0.16392249,0.8748075,-0.38249922,0.24806443,11.876875877380371,2.3545541763305664,14.490337371826172,36.72220993041992,-281.60107421875, -15.672883987426758
496,2553849613,0.14926942,0.883026,-0.38846618,0.21697406,11.794227600097656,-0.5451944470405579,18.297649383544922,6.530691623687744,-247.57168579101562, 5.024620532989502
497,2553866280,0.12771712,0.8903663,-0.3928398,0.1913464,8.59265422821045,1.3541221618652344,19.47627067565918,64.54512023925781,-230.47210693359375, 13.552114486694336
498,2553882947,0.10573373,0.89620906,-0.39634514,0.16893862,10.740774154663086,3.1556265354156494,20.326997756958008,75.76739501953125,-209.65370178222656, 15.699959754943848
499,2553899614,0.08745515,0.9000087,-0.39997792,0.14951222,10.397313117980957,3.643604278564453,20.201400756835938,59.50295639038086,-179.39393615722656, 19.984914779663086
500,2553916281,0.07046475,0.9024663,-0.40318793,0.13427211,9.589985847473145,3.6885886192321777,17.939607620239258,62.74015808105469,-148.7459716796875, 22.322486877441406
501,2553932948,0.057439763,0.90379524,-0.40579492,0.123229556,9.656481742858887,4.287153244018555,16.63831901550293,49.835506439208984,-110.71571350097656, 20.16232681274414
502,2553949615,0.048751537,0.9046239,-0.4069418,0.11695071,7.810990810394287,3.7385151386260986,14.048859596252441,37.27583694458008,-68.31748962402344, 10.768255233764648
503,2553966282,0.046331555,0.90517884,-0.40633136,0.11575749,5.595867156982422,4.416312217712402,12.35067367553711,13.890235900878906,-18.54033851623535, -2.674252510070801
504,2553982949,0.055498727,0.90488756,-0.40511158,0.11825144,2.878098249435425,3.2305386066436768,10.993104934692383,-47.644107818603516,37.535518646240234, -12.126445770263672
505,2553999616,0.07363526,0.9034793,-0.4029018,0.12638578,1.669281244277954,2.307785987854004,9.465485572814941,-87.32369995117188,98.88692474365234, -20.364503860473633
506,2554016283,0.09592685,0.900745,-0.39876637,0.14297566,1.3137695789337158,0.5769217014312744,6.891725063323975,-88.68889617919922,165.09378051757812, -28.051286697387695
507,2554032950,0.11861384,0.8965059,-0.39214543,0.16861184,0.6886492967605591,1.1625953912734985,4.937849998474121,-64.88359832763672,225.40548706054688, -33.80220413208008
508,2554049617,0.14628197,0.88956755,-0.38433403,0.19889332,-0.17559592425823212,0.7675719261169434,4.011993885040283,-83.88455200195312,271.6910705566406, -35.87740707397461
509,2554066284,0.17614017,0.8796015,-0.37564963,0.23273048,-1.2103874683380127,-0.7232534289360046,2.5295569896698,-89.74363708496094,304.38580322265625, -32.66732406616211
510,2554082951,0.20914817,0.8657937,-0.3673482,0.2677942,-2.005470037460327,-1.5853512287139893,0.490008682012558,-110.93353271484375,325.801025390625, -24.041292190551758
511,2554099618,0.24759883,0.8469409,-0.3609843,0.30178902,-2.773155450820923,-3.522568941116333,-2.0714118480682373,-156.9346466064453,339.91473388671875, -11.419830322265625
512,2554116285,0.28204554,0.8252321,-0.3539821,0.33784494,-5.1756672859191895,-4.0341997146606445,-5.034879684448242,-132.1007843017578,349.2611999511719, 3.63334059715271
513,2554132952,0.31347105,0.80086166,-0.34570953,0.3752886,-6.818518161773682,-4.507336139678955,-9.49654483795166,-113.87499237060547,358.81317138671875, 12.525745391845703
514,2554149619,0.33585498,0.7761648,-0.33451366,0.4157766,-7.47003698348999,-4.60864782333374,-13.965086936950684,-50.089786529541016,361.733154296875, 27.053131103515625
515,2554166286,0.350297,0.75218934,-0.3211205,0.45649207,-4.208165645599365,-1.6538259983062744,-17.465953826904297,0.6649819016456604,348.3067321777344, 36.883426666259766
516,2554182953,0.3550257,0.73351383,-0.30021572,0.4957669,0.6405050754547119,3.1935341358184814,-23.53852081298828,83.96375274658203,321.5046691894531, 13.393715858459473
517,2554199620,0.36477855,0.7168186,-0.2847701,0.5215497,4.590901851654053,8.488884925842285,-32.4283561706543,16.817495346069336,244.46966552734375, -13.134855270385742
518,2554216287,0.3854617,0.6995957,-0.28259525,0.5311548,4.841556549072266,6.85803747177124,-32.675357818603516,-117.91017150878906,155.73240661621094, -26.29888916015625
519,2554232954,0.39788616,0.6925398,-0.2822986,0.531397,4.0228705406188965,2.716223955154419,-35.344852447509766,-76.53932189941406,53.51948165893555, -31.514469146728516
520,2554249621,0.40082446,0.6952565,-0.28412762,0.5246236,2.2521560192108154,1.5946369171142578,-32.66951370239258,-26.270437240600586,-38.75666427612305, -24.80681037902832
521,2554266288,0.39258587,0.7075355,-0.2862403,0.51316303,0.19566121697425842,2.1767289638519287,-26.94096565246582,43.118934631347656,-117.33385467529297, -14.686568260192871
522,2554282955,0.3799455,0.7261457,-0.29094326,0.49366584,6.256927490234375,12.944355964660645,-56.46696090698242,56.508033752441406,-193.7219696044922, -20.676172256469727
523,2554299622,0.36562338,0.7518956,-0.3050346,0.45598963,21.53726577758789,-9.721796989440918,-1.591467022895813,14.929061889648438,-335.1485290527344, -29.571420669555664
524,2554316289,0.35171494,0.7730661,-0.31673014,0.42231232,-6.831227779388428,-3.2736055850982666,23.061756134033203,17.3310489654541,-293.5541076660156, -23.863542556762695
525,2554332956,0.35255465,0.78826565,-0.33311263,0.37865403,13.468439102172852,-5.646121978759766,-9.707687377929688,-110.69872283935547,-309.3856201171875, -52.8255500793457
526,2554349623,0.35096776,0.79862535,-0.34637186,0.3450301,12.45837116241455,-11.330516815185547,-1.2651276588439941,-78.12747955322266,-240.4326629638672, -28.040605545043945
527,2554366290,0.35042346,0.8056434,-0.357774,0.31644878,4.622035980224609,-2.2609548568725586,-3.5322980880737305,-75.44415283203125,-198.17002868652344, -20.78190803527832
528,2554382957,0.34798136,0.81215644,-0.3636022,0.29513472,8.425063133239746,1.1186716556549072,-1.0961169004440308,-36.117881774902344,-148.20346069335938, -28.762739181518555
529,2554399624,0.341086,0.8184536,-0.36499736,0.28385058,9.651029586791992,3.418846607208252,1.4166061878204346,22.360395431518555,-92.58000946044922, -19.980567932128906
530,2554416291,0.33076912,0.8237814,-0.3640524,0.28185466,14.218908309936523,4.238825798034668,2.5385334491729736,67.31220245361328,-41.899024963378906, -2.3316845893859863
531,2554432958,0.31221604,0.829102,-0.35988906,0.29255936,14.848105430603027,1.3393821716308594,10.457018852233887,152.11508178710938,16.270545959472656, 24.142610549926758
532,2554449625,0.28770286,0.8335589,-0.35518652,0.31024086,15.192797660827637,-3.5379011631011963,12.109789848327637,202.78086853027344,43.521240234375, 49.93986892700195
533,2554466292,0.25794175,0.83708125,-0.3543995,0.32735652,9.077481269836426,-0.003776177763938904,7.263916015625,221.44126892089844,21.006254196166992, 84.46636962890625
534,2554482959,0.242872,0.8383078,-0.3595416,0.33012617,8.524178504943848,16.250322341918945,17.453907012939453,84.57697296142578,-31.553951263427734, 65.5797119140625
535,2554499626,0.23901041,0.83681154,-0.36964262,0.3255532,0.5800366997718811,5.425975322723389,14.022911071777344,-13.775535583496094,-48.95998764038086, 63.49323272705078
536,2554516293,0.2280818,0.84227645,-0.381214,0.30532774,5.944286823272705,1.4808616638183594,-8.859315872192383,-4.66253662109375,-175.3681640625, 44.47710037231445
537,2554532960,0.21937831,0.84932667,-0.3882218,0.28249145,11.775471687316895,7.714139461517334,9.51933765411377,-12.337937355041504,-180.7487335205078, 5.12805700302124
538,2554549627,0.19960032,0.8595325,-0.39271683,0.25910893,2.924037218093872,-3.2080719470977783,16.66025733947754,60.63579559326172,-216.36508178710938, 2.8254878520965576
539,2554566294,0.16708557,0.8730852,-0.39070758,0.2390656,10.99589729309082,5.509295463562012,16.618349075317383,161.16162109375,-228.48098754882812, -17.433420181274414
540,2554582961,0.14594023,0.8815957,-0.3927246,0.21738939,7.448757648468018,3.9965145587921143,21.70578956604004,76.21012115478516,-204.6391143798828, -0.16818846762180328
541,2554599628,0.12593745,0.88877183,-0.39409867,0.19725896,4.784743785858154,3.7873456478118896,22.03936767578125,73.18878173828125,-190.07769775390625, -0.5350122451782227
542,2554616295,0.109498546,0.89439565,-0.39519548,0.1785698,6.872442245483398,4.333583831787109,22.51483917236328,54.444664001464844,-169.67779541015625, -1.5322847366333008
543,2554632962,0.098290704,0.8976417,-0.39771357,0.16248785,6.4173760414123535,2.048117160797119,20.862459182739258,25.92608070373535,-138.02027893066406, 9.284387588500977
544,2554649629,0.088903084,0.8994186,-0.40030485,0.15132284,6.690616607666016,1.4913203716278076,18.30402183532715,27.11359977722168,-101.46642303466797, 15.060998916625977
545,2554666296,0.08236027,0.90001744,-0.4026713,0.14505579,6.8038530349731445,0.8519881367683411,15.637659072875977,22.541807174682617,-62.29046630859375, 16.96184539794922
546,2554682963,0.07582712,0.90006787,-0.40371898,0.14539409,6.126132488250732,0.4455035626888275,12.019316673278809,41.778812408447266,-20.348011016845703, 14.074902534484863
547,2554699630,0.07224235,0.89952,-0.4035624,0.15093805,5.439380168914795,1.8578169345855713,8.324117660522461,38.864864349365234,21.104623794555664, 8.083944320678711
548,2554716297,0.077516496,0.8978427,-0.4029759,0.15962584,4.668673515319824,2.109369993209839,5.818844318389893,-7.309596061706543,66.41077423095703, 0.9628414511680603
549,2554732964,0.09021567,0.8948698,-0.40179202,0.17214125,4.108288764953613,1.476367712020874,4.588033199310303,-42.56967544555664,112.30278778076172, -5.244800090789795
550,2554749631,0.10588383,0.89081234,-0.39857373,0.19073875,3.8186941146850586,1.5448641777038574,2.3939573764801025,-42.302833557128906,160.46115112304688, -14.531889915466309
551,2554766298,0.12475575,0.88559574,-0.39241138,0.21487163,2.953554153442383,2.598963737487793,0.9492683410644531,-43.73553466796875,206.84335327148438, -29.575063705444336
552,2554782965,0.14771612,0.87888306,-0.38358924,0.24208264,1.4980026483535767,2.647523880004883,0.24886906147003174,-57.65696716308594,241.1941375732422, -45.13440704345703
553,2554799632,0.17399622,0.87052834,-0.37184608,0.27136022,0.2714459300041199,2.0593721866607666,-0.7341275215148926,-69.0467758178711,268.27728271484375, -61.882667541503906
554,2554816299,0.20328656,0.8599086,-0.35799366,0.30178234,-0.48255103826522827,-0.12655530869960785,-2.228135347366333,-82.89302825927734,289.7643737792969, -72.9783935546875
555,2554832966,0.23483802,0.8461233,-0.34439632,0.3321412,-1.319675087928772,-3.572171926498413,-4.342477798461914,-101.37738037109375,301.4024658203125, -68.52642059326172
556,2554849633,0.26438394,0.82988584,-0.33036226,0.36366367,-2.567631244659424,-5.278143405914307,-6.432920932769775,-89.95635223388672,310.0238037109375, -58.897499084472656
557,2554866300,0.29323706,0.81072897,-0.3182042,0.3943054,-4.021237373352051,-5.9852471351623535,-10.058855056762695,-98.0624771118164,307.6826171875, -41.561771392822266
558,2554882967,0.31974784,0.7890876,-0.3086269,0.4240891,-6.341460227966309,-4.51180362701416,-13.73653507232666,-98.98001861572266,299.7811584472656, -17.239336013793945
559,2554899634,0.34005252,0.76695824,-0.29923368,0.45453143,-6.226381778717041,-2.3266687393188477,-17.73061752319336,-65.63681030273438,291.7861022949219, 4.289872646331787
560,2554916301,0.35460392,0.74615943,-0.2901178,0.4830465,-4.183502197265625,1.2488296031951904,-21.78793716430664,-37.15664291381836,265.6376953125, 16.48780632019043
561,2554932968,0.36703485,0.7276265,-0.2826696,0.50590837,-2.061779022216797,4.351161956787109,-26.392770767211914,-37.748600006103516,221.53273010253906, 13.843594551086426
562,2554949635,0.37948734,0.7132049,-0.27736267,0.5199983,-0.49860912561416626,6.41566276550293,-30.24480628967285,-52.19302749633789,158.8031463623047, -5.544236183166504
563,2554966302,0.39021128,0.7053205,-0.27322948,0.5249798,0.9140311479568481,7.2366437911987305,-32.978328704833984,-48.483829498291016,85.3161392211914, -29.69853401184082
564,2554982969,0.39816505,0.7048428,-0.27129436,0.5206348,1.029972791671753,6.588808536529541,-32.25404357910156,-40.92952346801758,3.209604263305664, -47.81218719482422
565,2554999636,0.4031942,0.71118647,-0.27300417,0.5070671,0.7297462224960327,6.5491132736206055,-29.37892723083496,-38.63479232788086,-80.4454345703125, -57.47677993774414
566,2555016303,0.4050545,0.7239761,-0.28313634,0.4812727,6.427827835083008,11.838967323303223,-66.09062957763672,-57.85663604736328,-191.266357421875, -51.01865768432617
567,2555032970,0.38804504,0.751187,-0.2953281,0.44488266,23.366302490234375,-15.093925476074219,-16.086633682250977,48.296573638916016,-332.47332763671875, -35.543724060058594
568,2555049637,0.3695527,0.7751929,-0.3009415,0.4146582,-1.5948740243911743,-0.6740796566009521,37.620365142822266,80.1312484741211,-276.1048278808594, -42.46522903442383
569,2555066304,0.37577292,0.7862577,-0.31393266,0.3768821,3.8688926696777344,-5.037928581237793,-8.133005142211914,-120.8336181640625,-248.39830017089844, -65.95787048339844
570,2555082971,0.38128623,0.79364824,-0.3296936,0.3406547,23.48633575439453,-16.8247013092041,-6.364667892456055,-130.3544158935547,-239.19749450683594, -37.093990325927734
571,2555099638,0.38232398,0.7987347,-0.3443155,0.31192696,4.578057289123535,-0.874932050704956,-0.05293360352516174,-92.1976318359375,-200.3022918701172, -8.292675971984863
572,2555116305,0.38700104,0.80183744,-0.35312104,0.28738925,12.139695167541504,-2.833775758743286,1.0032240152359009,-94.93262481689453,-149.3562469482422, -32.246734619140625
573,2555132972,0.38132274,0.8076219,-0.356004,0.27495688,9.692951202392578,3.8377652168273926,-0.573618471622467,10.482604026794434,-97.66094207763672, -18.87161636352539
574,2555149639,0.37099752,0.8136922,-0.3557677,0.27146846,10.87055778503418,3.768317937850952,4.515766143798828,64.9095687866211,-52.02522277832031, -4.731844425201416
575,2555166306,0.35168448,0.8215229,-0.3514851,0.27906406,12.437899589538574,5.477071762084961,6.694200038909912,154.4968719482422,-5.392763614654541, 13.20492172241211
576,2555182973,0.32774162,0.828268,-0.34616193,0.29449946,12.957052230834961,-2.5015358924865723,12.254804611206055,199.15773010253906,31.79680824279785, 37.61116027832031
577,2555199640,0.29546595,0.83505577,-0.34276274,0.3128826,8.131767272949219,-1.7844059467315674,10.812860488891602,250.0431671142578,23.693328857421875, 71.68251037597656
578,2555216307,0.2635977,0.84170634,-0.34300798,0.32309827,6.267847537994385,6.40599250793457,9.292749404907227,220.46316528320312,-29.86231231689453, 75.27133178710938
579,2555232974,0.25466326,0.8431394,-0.34862873,0.3205008,1.9427525997161865,13.264320373535156,19.0148868560791,36.221004486083984,-48.50665283203125, 44.57184982299805
580,2555249641,0.24167441,0.8493687,-0.35801405,0.303303,0.7935842871665955,3.211016893386841,-1.8322360515594482,25.015623092651367,-160.60934448242188, 38.535335540771484
581,2555266308,0.23507553,0.85844564,-0.36774307,0.26939872,11.609271049499512,5.977088928222656,-3.8647379875183105,-49.40643310546875,-248.9840087890625, -7.492252349853516
582,2555282975,0.23188923,0.86642575,-0.3748268,0.23460314,7.391128063201904,-2.083069324493408,17.183622360229492,-68.61805725097656,-239.51844787597656, -28.044715881347656
583,2555299642,0.20540293,0.8798391,-0.37598664,0.20573524,8.534628868103027,-1.151376485824585,15.99793815612793,103.80081939697266,-264.1217346191406, -30.393293380737305
584,2555316309,0.18395194,0.88947,-0.37877214,0.17758515,11.922091484069824,2.5094711780548096,22.908893585205078,67.62085723876953,-244.18316650390625, -16.947587966918945
585,2555332976,0.16590002,0.8961979,-0.3821838,0.15245381,6.283982276916504,-2.915517807006836,24.931737899780273,50.40013122558594,-214.7725372314453, -5.887961387634277
586,2555349643,0.14120054,0.90302765,-0.38225934,0.1359468,8.40837287902832,-1.097658634185791,23.126632690429688,117.70574188232422,-175.85882568359375, -9.944820404052734
587,2555366310,0.11554733,0.90805286,-0.38226333,0.12634803,8.686853408813477,1.6801928281784058,21.876060485839844,140.1674346923828,-134.166748046875, 1.9873545169830322
588,2555382977,0.09469649,0.9109012,-0.3833785,0.11963561,8.25810718536377,2.455609083175659,19.45831298828125,115.15095520019531,-102.92205047607422, 12.86745548248291
589,2555399644,0.079301745,0.9119227,-0.38565227,0.115675755,8.811206817626953,1.678410530090332,15.494141578674316,86.15211486816406,-70.88849639892578, 22.341754913330078
590,2555416311,0.06898499,0.91172457,-0.38824785,0.11516527,8.717194557189941,1.6381539106369019,11.459370613098145,62.56461715698242,-35.29281997680664, 25.509227752685547
591,2555432978,0.06432019,0.9110466,-0.38975573,0.11810133,6.469980239868164,2.240281581878662,8.719179153442383,36.98207092285156,2.0583319664001465, 17.186805725097656
592,2555449645,0.070192695,0.9096382,-0.39047682,0.12312405,3.7930586338043213,1.771209955215454,6.759039402008057,-23.09587860107422,44.17054748535156, 6.610587120056152
593,2555466312,0.08367585,0.90746367,-0.3897302,0.13273457,2.4894773960113525,1.110888957977295,4.936741352081299,-57.49496078491211,94.62166595458984, -4.76270866394043
594,2555482979,0.10043803,0.90452415,-0.38701612,0.14821227,1.7542680501937866,1.5205459594726562,2.7819879055023193,-60.87126159667969,141.87396240234375, -14.647788047790527
595,2555499646,0.1207536,0.9006561,-0.38161018,0.16914743,1.1821893453598022,2.9960148334503174,1.9338452816009521,-66.3288803100586,188.15042114257812, -28.79929542541504
596,2555516313,0.1436869,0.8954098,-0.37372893,0.1947365,0.5963196158409119,2.2142133712768555,1.5867271423339844,-68.54973602294922,227.5955352783203, -39.69244384765625
597,2555532980,0.16598403,0.88864625,-0.3631904,0.22549912,0.0036437921226024628,1.93900465965271,0.4555725157260895,-49.239479064941406,262.5872497558594, -46.16927719116211
598,2555549647,0.18685688,0.8799984,-0.35028976,0.26073864,-0.9071359634399414,0.6967846751213074,-1.14112389087677,-27.81374168395996,292.1528625488281, -48.54176330566406
599,2555566314,0.20986778,0.86895543,-0.33626014,0.29631314,-1.935741662979126,0.2592347264289856,-3.02630352973938,-41.00074768066406,305.2641296386719, -52.97125244140625
600,2555582981,0.2376981,0.85477555,-0.32337543,0.32906973,-2.75323486328125,-2.2492713928222656,-6.055172443389893,-83.20977783203125,304.54595947265625, -52.738075256347656
601,2555599648,0.2705519,0.83676606,-0.3132583,0.35845983,-4.826056957244873,-2.401811361312866,-9.359679222106934,-132.81307983398438,300.39764404296875, -44.909149169921875
602,2555616315,0.30382386,0.8151414,-0.30566356,0.38704735,-7.2642693519592285,-3.6764917373657227,-13.775715827941895,-149.9976043701172,301.3323669433594, -25.19639015197754
603,2555632982,0.3284167,0.79341245,-0.29692143,0.4177044,-7.7231364250183105,-2.9357500076293945,-17.796239852905273,-94.29248046875,297.92694091796875, -4.035927772521973
604,2555649649,0.3454732,0.77314234,-0.28794557,0.44719875,-5.005422592163086,-0.7748337984085083,-20.961814880371094,-51.74967956542969,273.1899108886719, 10.72165584564209
605,2555666316,0.3579254,0.75573945,-0.27985787,0.4716215,-1.8460404872894287,0.9672871828079224,-25.257305145263672,-33.41911697387695,226.8693389892578, 11.89877986907959
606,2555682983,0.36733547,0.74324983,-0.27263466,0.48817506,0.060150980949401855,4.053383827209473,-29.933717727661133,-23.681636810302734,162.82791137695312, -2.5293161869049072
607,2555699650,0.37889326,0.73466635,-0.27097082,0.4932346,0.7948789596557617,5.599578857421875,-33.27544403076172,-65.25421905517578,81.8405532836914, -17.59256362915039
608,2555716317,0.39032137,0.7312852,-0.27425808,0.48749748,-0.007013102062046528,6.287198543548584,-30.91829490661621,-88.24838256835938,-2.5308687686920166, -29.81028175354004
609,2555732984,0.3937846,0.7361582,-0.27775967,0.47524142,-0.25047439336776733,2.337124824523926,-28.115888595581055,-39.344032287597656,-77.72802734375, -34.900291442871094
610,2555749651,0.3915827,0.74569815,-0.2834402,0.45854026,-0.9526156187057495,-1.0659016370773315,-21.61309814453125,-13.869715690612793,-131.46389770507812, -26.191608428955078
611,2555766318,0.38239405,0.7599817,-0.28995878,0.43832275,-0.07314789295196533,3.6233692169189453,-48.54524230957031,25.097034454345703,-179.80712890625, -18.541671752929688
612,2555782985,0.37293306,0.7799372,-0.30068582,0.40274936,17.751890182495117,-3.3655295372009277,-11.025917053222656,-2.235915184020996,-287.5325927734375, -47.22899627685547
613,2555799652,0.3548135,0.80028754,-0.3083955,0.3722091,4.1759843826293945,-7.48513126373291,22.74669075012207,64.04254913330078,-271.8682861328125, -27.482898712158203
614,2555816319,0.3529808,0.81129193,-0.32191527,0.33701783,9.072620391845703,-1.5008550882339478,-4.411434650421143,-72.8648910522461,-254.06068420410156, -28.8463077545166
615,2555832986,0.35425386,0.8193123,-0.33234316,0.30459753,20.16038703918457,-6.370920658111572,1.560656189918518,-84.0789794921875,-217.50477600097656, -39.90537643432617
616,2555849653,0.35422912,0.8247229,-0.34046394,0.28006837,7.371829986572266,-1.8574049472808838,-1.245166301727295,-60.130836486816406,-165.45632934570312, -25.196802139282227
617,2555866320,0.34948558,0.83116454,-0.3447985,0.2610356,9.911615371704102,2.6214239597320557,1.6348402500152588,-10.648613929748535,-138.34324645996094, -26.651145935058594
618,2555882987,0.3468175,0.8350784,-0.34743157,0.24830025,9.243382453918457,2.684816360473633,1.9545234441757202,-10.496919631958008,-89.18228149414062, -19.014022827148438
619,2555899654,0.3371081,0.8399482,-0.34810308,0.24427392,11.179018020629883,3.656991958618164,2.478670358657837,56.47297286987305,-53.307037353515625, 0.14634765684604645
620,2555916321,0.31914124,0.8456254,-0.34478357,0.2533592,10.125324249267578,3.07637357711792,7.71158504486084,144.25497436523438,10.151707649230957, 19.280311584472656
621,2555932988,0.29283568,0.8528128,-0.33887342,0.26855645,11.21560287475586,1.0556743144989014,10.851490020751953,215.2393035888672,28.498437881469727, 28.404985427856445
622,2555949655,0.26355654,0.8580123,-0.33723092,0.28395104,10.766483306884766,0.2958848178386688,12.792989730834961,221.43138122558594,17.2401123046875, 63.77097702026367
623,2555966322,0.2390487,0.86212176,-0.34074023,0.28896022,7.629459857940674,9.845854759216309,8.717601776123047,157.3078155517578,-40.7651481628418, 68.43174743652344
624,2555982989,0.23695421,0.86121345,-0.34959918,0.28274494,-0.03989019989967346,5.057889461517334,19.95541000366211,-20.576711654663086,-54.04396438598633, 49.05720520019531
625,2555999656,0.2224618,0.86592275,-0.356792,0.27090237,1.3015881776809692,0.834806501865387,7.613160133361816,51.84135437011719,-125.8502426147461, 40.73031234741211
626,2556016323,0.21786298,0.872072,-0.36445808,0.24330394,10.453953742980957,3.9892406463623047,-1.8227415084838867,-44.357322692871094,-199.0037384033203, -2.504354238510132
627,2556032990,0.21459705,0.8776305,-0.36889857,0.2182355,8.65502643585205,-4.133455753326416,15.83789348602295,-41.44104766845703,-174.88995361328125, -18.807889938354492
628,2556049657,0.19149409,0.887746,-0.3689397,0.19778958,2.724946975708008,-0.1902725100517273,18.061431884765625,103.3816909790039,-198.1715850830078, -20.447830200195312
629,2556066324,0.16883665,0.8961981,-0.36972797,0.1778336,9.595117568969727,3.449965715408325,18.45791244506836,98.7769775390625,-193.1309356689453, -11.610925674438477
630,2556082991,0.15345775,0.9012055,-0.37322664,0.15805514,6.587704658508301,1.4007132053375244,20.955732345581055,47.18882751464844,-172.9937286376953, 5.195324897766113
631,2556099658,0.13747048,0.9054718,-0.37588668,0.14118093,6.435489654541016,1.601259708404541,20.48349952697754,58.63489532470703,-155.30517578125, 5.641765117645264
632,2556116325,0.11885369,0.90851384,-0.378924,0.12997366,8.273395538330078,0.6574634313583374,19.154163360595703,88.21025085449219,-126.37845611572266, 19.110984802246094
633,2556132992,0.09805749,0.91042954,-0.3818952,0.1251347,7.8766632080078125,2.5051519870758057,17.311891555786133,117.60376739501953,-91.61239624023438, 28.84169578552246
634,2556149659,0.08232007,0.9107582,-0.38535726,0.123461366,7.154065132141113,2.5183379650115967,15.45505428314209,92.80228424072266,-57.816650390625, 33.97347640991211
635,2556166326,0.06894829,0.9102625,-0.38813496,0.12656905,6.53908109664917,2.446333408355713,11.708939552307129,90.79700469970703,-20.795177459716797, 32.68416213989258
636,2556182993,0.060318585,0.9093168,-0.38947836,0.13345973,5.768766403198242,4.43222188949585,9.644674301147461,72.26068878173828,16.41171646118164, 22.689651489257812
637,2556199660,0.06639895,0.907418,-0.39073294,0.13968413,4.667677402496338,4.625175952911377,7.070168495178223,-21.765544891357422,52.4006233215332, 11.000496864318848
638,2556216327,0.085239075,0.90423125,-0.3915663,0.1475672,4.902429103851318,1.8164982795715332,4.861847877502441,-97.06482696533203,98.37215423583984, 0.33235350251197815
639,2556232994,0.10345576,0.9002931,-0.39016503,0.16291222,3.886726140975952,2.2185134887695312,2.3619658946990967,-71.26932525634766,145.0958251953125, -6.602859020233154
640,2556249661,0.124197304,0.89538825,-0.38578132,0.18446624,3.1003899574279785,3.346356153488159,1.2848249673843384,-67.57877349853516,193.52130126953125, -20.916688919067383
641,2556266328,0.1457843,0.88929075,-0.37864593,0.21103585,2.459326982498169,2.48762583732605,0.5014311075210571,-56.97699737548828,230.5591278076172, -31.473392486572266
642,2556282995,0.16712809,0.882096,-0.36798653,0.24199346,1.8609510660171509,2.4764742851257324,-0.5949808955192566,-40.02488327026367,261.97662353515625, -45.40056228637695
643,2556299662,0.18909468,0.87333226,-0.35428497,0.2757107,0.7405951619148254,0.7648929357528687,-1.948848009109497,-33.53733444213867,286.53143310546875, -57.69552993774414
644,2556316329,0.2131571,0.8626303,-0.33915174,0.30888382,-0.8407576084136963,-0.5900664329528809,-4.06696081161499,-47.25580596923828,294.09381103515625, -66.23632049560547
645,2556332996,0.23994295,0.8493706,-0.32449016,0.3401521,-2.287353515625,-3.2580485343933105,-6.9839372634887695,-72.63180541992188,294.15924072265625, -66.07379913330078
646,2556349663,0.2661964,0.8338324,-0.3109119,0.370401,-4.103312969207764,-5.03660774230957,-9.961262702941895,-78.15383911132812,290.9322814941406, -55.18309783935547
647,2556366330,0.29160982,0.8161836,-0.30023348,0.39833152,-5.6672844886779785,-3.7233498096466064,-13.456478118896484,-89.65583801269531,276.3847351074219, -36.24152755737305
648,2556382997,0.314812,0.79735565,-0.2917309,0.4242765,-6.755561828613281,-1.6483452320098877,-16.0233097076416,-89.80826568603516,260.12078857421875, -19.5861759185791
649,2556399664,0.33530557,0.77821076,-0.2852266,0.44788834,-5.7365288734436035,0.14377903938293457,-19.868635177612305,-86.3163833618164,239.1335906982422, -5.1551289558410645
650,2556416331,0.3541767,0.759481,-0.28154844,0.4674163,-3.891028881072998,1.014920711517334,-23.958555221557617,-93.59324645996094,207.0107879638672, 4.7671027183532715
651,2556432998,0.36926055,0.7444477,-0.2785325,0.48152262,-2.541182279586792,2.0035452842712402,-27.492544174194336,-77.65437316894531,158.66116333007812, 0.08110512793064117
652,2556449665,0.38100824,0.73448366,-0.27588427,0.48913667,-0.9903660416603088,3.7143659591674805,-29.201234817504883,-61.605499267578125,102.19024658203125, -13.11121654510498
653,2556466332,0.39027765,0.7306782,-0.2746172,0.48824018,-1.1011643409729004,6.551506519317627,-28.84151840209961,-54.0112190246582,31.065189361572266, -31.669452667236328
654,2556482999,0.39653638,0.7335888,-0.27441883,0.47885376,-0.9483853578567505,6.670888423919678,-27.598499298095703,-40.77743911743164,-41.85375213623047, -51.468971252441406
655,2556499666,0.4001687,0.7416035,-0.27667642,0.46188715,-0.9916859865188599,3.9277706146240234,-24.749897003173828,-36.29139709472656,-107.79581451416016, -60.525413513183594
656,2556516333,0.39898542,0.7539603,-0.28124723,0.4396073,-1.3179054260253906,-0.48178666830062866,-20.28969955444336,-17.4873046875,-163.58448791503906, -56.14105987548828
657,2556533000,0.39003077,0.771092,-0.2874958,0.41308558,-0.6175154447555542,2.2982213497161865,-43.32242965698242,22.481767654418945,-219.16934204101562, -44.75374221801758
658,2556549667,0.37710133,0.79562926,-0.29333138,0.37245873,16.820261001586914,2.057338237762451,-12.72098159790039,36.32840347290039,-320.677001953125, -87.96287536621094
659,2556566334,0.36544365,0.8141874,-0.30336958,0.3339415,8.299715042114258,-6.871150493621826,18.386178970336914,7.368890762329102,-302.1979675292969, -50.688148498535156
660,2556583001,0.3712515,0.8209424,-0.3166376,0.29659164,3.3738186359405518,-1.4737335443496704,-2.9044268131256104,-124.77594757080078,-241.06051635742188, -45.23196029663086
661,2556599668,0.37547663,0.8263376,-0.32689145,0.26329774,23.151365280151367,-12.502584457397461,-2.761202335357666,-104.2701187133789,-211.32334899902344, -45.54081726074219
662,2556616335,0.3700981,0.8327525,-0.3350549,0.23935121,9.617798805236816,0.891973614692688,1.949486255645752,-22.14844512939453,-176.7102508544922, -18.60563087463379
663,2556633002,0.36678046,0.83786875,-0.33970693,0.21919733,12.64712905883789,-0.23161214590072632,0.8827812671661377,-22.598833084106445,-139.55043029785156, -29.5307559967041
664,2556649669,0.35794443,0.84436667,-0.3409928,0.20650586,11.879485130310059,1.3194761276245117,1.6847032308578491,35.294315338134766,-103.4505615234375, -25.189769744873047
665,2556666336,0.343426,0.85169196,-0.34088066,0.2011959,14.263514518737793,2.1625802516937256,4.246824741363525,89.73863220214844,-72.05995178222656, -9.211542129516602
666,2556683003,0.3225137,0.858502,-0.34060735,0.20723455,15.543659210205078,0.11443063616752625,9.721165657043457,152.96832275390625,-20.00499153137207, 26.43484115600586
667,2556699670,0.2975511,0.8635058,-0.33940914,0.22499484,14.776457786560059,-5.060332298278809,12.371318817138672,201.8763427734375,43.67971420288086, 56.66424560546875
668,2556716337,0.26605335,0.86797833,-0.34144437,0.24340294,7.954328536987305,-3.4912428855895996,12.80819320678711,236.30361938476562,25.805320739746094, 88.20445251464844
669,2556733004,0.24380067,0.87086785,-0.34612548,0.2496955,5.488747596740723,10.132757186889648,8.403398513793945,145.4579620361328,-27.51417350769043, 69.90723419189453
670,2556749671,0.23128204,0.8715568,-0.35193402,0.25107756,0.6696100234985352,2.3336405754089355,16.53711700439453,70.02523040771484,-32.25309753417969, 57.1181526184082
671,2556766338,0.21551152,0.8770393,-0.35778803,0.23736987,3.5372660160064697,9.887409210205078,-1.7024649381637573,60.65574645996094,-139.2923583984375, 27.479225158691406
672,2556783005,0.21367376,0.87993616,-0.365578,0.21542752,11.279080390930176,-0.19649967551231384,5.825429439544678,-50.5319938659668,-153.40660095214844, 10.75456714630127
673,2556799672,0.1951785,0.88701624,-0.36882815,0.19767039,1.0513845682144165,-1.2832374572753906,15.737386703491211,73.69722747802734,-169.89584350585938, 3.5213329792022705
674,2556816339,0.16897526,0.89604914,-0.36930338,0.17932793,7.9302568435668945,3.346285343170166,14.317094802856445,125.67400360107422,-192.2486114501953, -8.650801658630371
675,2556833006,0.14903598,0.9022037,-0.37194842,0.15959686,5.914134979248047,1.5690605640411377,18.528453826904297,77.63792419433594,-184.30984497070312, 2.7508013248443604
676,2556849673,0.12786008,0.9077229,-0.37370268,0.14155376,5.410477161407471,2.719632148742676,19.66768455505371,90.04248046875,-175.79827880859375, 1.9801278114318848
677,2556866340,0.10798976,0.9120354,-0.37481102,0.1266742,6.90850830078125,2.0354361534118652,19.301042556762695,89.68892669677734,-151.32009887695312, 2.640810012817383
678,2556883007,0.08482367,0.915593,-0.3749644,0.11788116,6.567213535308838,2.2033746242523193,18.223163604736328,126.39923858642578,-120.64432525634766, 6.067591190338135
679,2556899674,0.060468126,0.9184218,-0.37421703,0.113167755,6.009606838226318,4.399693965911865,16.92347526550293,144.7830810546875,-97.21635437011719, 5.739044189453125
680,2556916341,0.04326736,0.9199743,-0.37392744,0.10933189,6.163489818572998,3.8970837593078613,14.688617706298828,101.057373046875,-72.70500946044922, 6.865276336669922
681,2556933008,0.030463226,0.92079675,-0.37344074,0.10838682,6.569563388824463,3.1058008670806885,11.888347625732422,80.67682647705078,-42.71529006958008, 5.167341709136963
682,2556949675,0.021560626,0.92141914,-0.37186715,0.11062016,6.399731159210205,4.27016544342041,9.510089874267578,64.95533752441406,-12.379371643066406, -3.3398704528808594
683,2556966342,0.022405488,0.9218259,-0.36985493,0.11376527,5.077186107635498,4.123570442199707,7.437597274780273,5.905178070068359,18.394224166870117, -12.76467514038086
684,2556983009,0.03298552,0.92203224,-0.36686528,0.119072564,3.886451482772827,2.5756888389587402,5.1321306228637695,-49.49833679199219,57.06669235229492, -25.707233428955078
685,2556999676,0.0470242,0.9216296,-0.3624859,0.13035251,3.3397231101989746,0.8894550800323486,3.5709168910980225,-55.31927490234375,104.43502807617188, -34.48208236694336
686,2557016343,0.06218212,0.9205992,-0.35598344,0.14800802,2.620309591293335,2.3260154724121094,2.1476829051971436,-44.806243896484375,148.88052368164062, -45.3468132019043
687,2557033010,0.081363805,0.91833264,-0.34790114,0.17032343,2.109902858734131,2.1241819858551025,1.61699640750885,-57.75351333618164,190.20323181152344, -54.426387786865234
688,2557049677,0.10275275,0.9145145,-0.33829415,0.19662757,1.083474040031433,1.6424964666366577,0.5870029330253601,-61.19981384277344,223.40493774414062, -60.684566497802734
689,2557066344,0.12776159,0.9083678,-0.32830745,0.22529846,-0.3895683288574219,0.5884087085723877,-0.21504069864749908,-79.57720947265625,250.23362731933594, -60.88106918334961
690,2557083011,0.15466937,0.89972067,-0.31801152,0.2558295,-2.4356131553649902,0.2206261307001114,-2.088904619216919,-88.97077941894531,270.44586181640625, -58.50493621826172
691,2557099678,0.18875045,0.887414,-0.30994132,0.28426483,-3.7327992916107178,-0.8354078531265259,-4.440191745758057,-145.8013916015625,277.4812927246094, -51.61654281616211
692,2557116345,0.22696975,0.87131137,-0.3043471,0.31092474,-5.788702964782715,-1.6840425729751587,-7.520094871520996,-184.69732666015625,279.9871826171875, -38.904930114746094
693,2557133012,0.26669052,0.8512395,-0.30159295,0.33661485,-8.102489471435547,-3.242277145385742,-12.163093566894531,-208.125732421875,281.79595947265625, -18.405689239501953
694,2557149679,0.2987553,0.83017784,-0.29816455,0.36420876,-10.008918762207031,-1.9730604887008667,-16.15751075744629,-159.7787628173828,281.1509094238281, 0.8364412188529968
695,2557166346,0.32399115,0.8091785,-0.29582855,0.3908271,-8.221357345581055,0.7344924211502075,-19.779273986816406,-125.61467742919922,259.8604736328125, 22.05486488342285
