PacketCounter,SampleTimeFine,Quat_W,Quat_X,Quat_Y,Quat_Z,Acc_X,Acc_Y,Acc_Z,Gyr_X,Gyr_Y,Gyr_Z 
1,2541774721,0.6539049,0.35214183,-0.37680674,0.55355316,-0.05426481366157532,-0.06157143414020538,-0.258750855922699,-0.0869617834687233,0.5293731689453125, -0.06469263881444931
2,2541791388,0.6528971,0.3526836,-0.37862104,0.5531597,14.317643165588379,0.6258702278137207,7.665994167327881,4.131821155548096,3.6369967460632324, 1.6943504810333252
3,2541808055,0.6528962,0.3517729,-0.37881076,0.55361074,15.484695434570312,0.8224058151245117,8.041497230529785,-0.5970448851585388,4.2811431884765625, 0.7048038840293884
4,2541824722,0.6528151,0.3517085,-0.37861645,0.5538804,14.45607852935791,0.6564180254936218,7.787197113037109,0.8587234616279602,4.774137020111084, 3.0684592723846436
5,2541841389,0.6530981,0.35130298,-0.37791076,0.55428565,15.113727569580078,0.5761721730232239,7.928928375244141,0.5845394134521484,4.189347743988037, 0.6853382587432861
6,2541858056,0.65303576,0.35073426,-0.37776113,0.55482113,15.153387069702148,0.7962591648101807,7.885132312774658,0.8444188833236694,3.7526772022247314, 2.8740334510803223
7,2541874723,0.65270436,0.35079065,-0.377342,0.5554603,14.12073040008545,0.7238375544548035,7.536478042602539,2.6681840419769287,3.8386330604553223, 3.0286827087402344
8,2541891390,0.6529281,0.35049877,-0.37702337,0.55559784,15.125849723815918,0.9833482503890991,7.875292778015137,0.17850132286548615,4.11649227142334, 1.6678286790847778
9,2541908057,0.65306985,0.35027102,-0.3768018,0.55572516,14.690756797790527,0.8171559572219849,7.733646869659424,-1.2190107107162476,4.151991367340088, 3.4002974033355713
10,2541924724,0.6532334,0.3501887,-0.37652278,0.55577403,14.713369369506836,0.7162474393844604,7.721916675567627,-0.7415133118629456,3.7338125705718994, 2.265808343887329
11,2541941391,0.65331733,0.350219,-0.37609854,0.5559435,14.80454158782959,0.8528590202331543,7.7325053215026855,1.8396387100219727,4.19342041015625, 2.2315642833709717
12,2541958058,0.6535202,0.35017166,-0.37583172,0.5559152,14.510631561279297,0.8450971245765686,7.7738542556762695,0.8976163268089294,3.8608007431030273, 1.9816868305206299
13,2541974725,0.6539126,0.34970683,-0.37579954,0.5557681,15.112418174743652,0.8109607100486755,7.849280834197998,-2.7988665103912354,4.0832600593566895, 2.236353874206543
14,2541991392,0.6540992,0.3492868,-0.37581804,0.5558004,14.52099323272705,0.8131861686706543,7.693935394287109,-2.8602728843688965,3.8800876140594482, 2.98990535736084
15,2542008059,0.6544203,0.3488686,-0.37578863,0.55570483,14.805439949035645,0.7904472351074219,7.798976421356201,-1.7251946926116943,4.044674396514893, 2.4968605041503906
16,2542024726,0.65469813,0.34822917,-0.37583703,0.5557461,14.867372512817383,0.9537646174430847,7.882876873016357,-4.269509792327881,4.6699323654174805, 2.9029250144958496
17,2542041393,0.65490234,0.34775558,-0.37576213,0.5558524,14.665642738342285,0.6442341804504395,7.690219879150391,-1.718574047088623,4.51453971862793, 3.491107702255249
18,2542058060,0.65487045,0.34764618,-0.3754444,0.55617326,14.145179748535156,0.8005080223083496,7.720854759216309,1.8051769733428955,4.180217266082764, 3.277151584625244
19,2542074727,0.6552628,0.34675947,-0.3757493,0.55605835,15.307543754577637,0.9464981555938721,7.997043609619141,-6.479297637939453,4.014247417449951, 3.002955198287964
20,2542091394,0.6553684,0.34603035,-0.37594035,0.5562589,14.43621826171875,0.581891655921936,7.700045108795166,-4.320261001586914,4.088024139404297, 4.7097086906433105
21,2542108061,0.6553532,0.34582096,-0.37575555,0.556532,14.332435607910156,0.6736993193626404,7.556693077087402,-0.10133666545152664,3.582326650619507, 2.868014335632324
22,2542124728,0.6555629,0.34520617,-0.37592497,0.5565524,14.63291072845459,0.8608312010765076,7.941783428192139,-3.5096957683563232,3.5951461791992188, 3.130749464035034
23,2542141395,0.6557419,0.34452644,-0.37619585,0.5565796,14.546540260314941,0.3420577645301819,7.653939723968506,-4.989713191986084,3.119070053100586, 3.2905213832855225
24,2542158062,0.6557754,0.34434,-0.37614456,0.5566902,14.628397941589355,0.3407464027404785,7.649235248565674,0.39494141936302185,2.620800256729126, 2.4511802196502686
25,2542174729,0.6555999,0.34439722,-0.37589416,0.5570305,14.255088806152344,0.8653551340103149,7.667864799499512,2.4560980796813965,2.64377498626709, 2.3211190700531006
26,2542191396,0.6557439,0.34375602,-0.37615308,0.5570823,14.714921951293945,0.5530391931533813,7.634272575378418,-4.153022766113281,3.0824310779571533, 2.991095781326294
27,2542208063,0.6559017,0.34332085,-0.37618792,0.5571415,14.529943466186523,0.6972885727882385,7.740488529205322,-1.711812138557434,3.4936301708221436, 2.1552767753601074
28,2542224730,0.65580505,0.34311387,-0.375987,0.55751806,14.228303909301758,0.6519322991371155,7.6000800132751465,0.9254060387611389,3.7183938026428223, 3.0438194274902344
29,2542241397,0.6558848,0.34269255,-0.3760112,0.5576672,14.529153823852539,0.7329251170158386,7.729637622833252,-1.7754852771759033,3.4106833934783936, 2.495323896408081
30,2542258064,0.6558739,0.34227857,-0.375969,0.5579625,14.768105506896973,0.5144624710083008,7.780997276306152,-1.2025419473648071,3.2628724575042725, 2.8177621364593506
31,2542274731,0.65572,0.342036,-0.37572223,0.55845815,14.278153419494629,0.3602548837661743,7.528491973876953,1.9059242010116577,3.1353979110717773, 3.2964634895324707
32,2542291398,0.655604,0.3419497,-0.37531826,0.5589186,14.330340385437012,0.8470190763473511,7.641513824462891,2.359102487564087,3.046201705932617, 1.6943248510360718
33,2542308065,0.65566856,0.34140325,-0.375299,0.55919,14.451107025146484,0.798255205154419,7.652588844299316,-1.7662901878356934,3.049941062927246, 2.426130771636963
34,2542324732,0.6557597,0.3407529,-0.37542734,0.5593935,14.533092498779297,0.6057307720184326,7.609989166259766,-2.497904062271118,2.6909408569335938, 2.9252586364746094
35,2542341399,0.6558051,0.3403112,-0.37534872,0.55966187,14.532883644104004,0.5414168834686279,7.483498573303223,-0.447441041469574,2.850724935531616, 2.3822946548461914
36,2542358066,0.6557059,0.3400689,-0.37507796,0.5601068,14.306072235107422,0.7767969965934753,7.601683139801025,1.7013685703277588,2.9812605381011963, 2.6079940795898438
37,2542374733,0.6557094,0.33948365,-0.3750416,0.5604819,14.369940757751465,0.3795682489871979,7.407090187072754,-0.7072178721427917,3.3554368019104004, 3.5909583568573
38,2542391400,0.65552616,0.3390941,-0.37483838,0.5610677,14.148816108703613,0.41218793392181396,7.40859317779541,1.2806541919708252,3.3515560626983643, 4.071183681488037
39,2542408067,0.6556014,0.3385977,-0.37473983,0.5613452,14.270755767822266,0.9178091287612915,7.5289626121521,-0.9513838887214661,3.2400643825531006, 2.230053186416626
40,2542424734,0.6557945,0.3376717,-0.37491474,0.5615607,14.457420349121094,0.3411470353603363,7.531023979187012,-4.313876628875732,3.825500249862671, 3.285968780517578
41,2542441401,0.6557086,0.33736825,-0.3746112,0.5620458,13.883098602294922,0.516200602054596,7.466997146606445,1.4792680740356445,3.482245683670044, 2.741884469985962
42,2542458068,0.6558971,0.33682898,-0.37456807,0.56217813,14.818058013916016,0.618053138256073,7.760842323303223,-2.0037074089050293,3.108351230621338, 1.3780466318130493
43,2542474735,0.6559769,0.33620548,-0.3745997,0.56243694,14.489089965820312,0.42522644996643066,7.540796756744385,-2.1601243019104004,3.1107845306396484, 2.7244551181793213
44,2542491402,0.655723,0.336128,-0.37413675,0.5630871,14.014361381530762,0.5190045237541199,7.396697998046875,3.734747886657715,3.2722208499908447, 3.080484390258789
45,2542508069,0.6556572,0.3357803,-0.3738528,0.5635598,14.70461654663086,0.592677652835846,7.517548084259033,0.949725329875946,3.585566759109497, 2.673344850540161
46,2542524736,0.6555232,0.33534673,-0.37360784,0.56413585,14.143166542053223,0.6273387670516968,7.41774845123291,0.9238309264183044,3.8127517700195312, 3.7671866416931152
47,2542541403,0.65531445,0.33538517,-0.37313175,0.56467015,14.056803703308105,0.6217740178108215,7.464111328125,3.9909393787384033,2.735302209854126, 2.1143863201141357
48,2542558070,0.6552819,0.33496997,-0.3729841,0.565052,14.53023910522461,0.6482197046279907,7.604334831237793,-0.0932302176952362,3.1170332431793213, 2.684985637664795
49,2542574737,0.6551165,0.33466324,-0.3727932,0.5655515,14.122387886047363,0.46534091234207153,7.315248489379883,1.1240708827972412,2.8217318058013916, 3.328287124633789
50,2542591404,0.6549493,0.33473077,-0.3723026,0.56602794,13.923518180847168,0.6048969626426697,7.357362270355225,3.6658496856689453,2.6569271087646484, 1.4328322410583496
51,2542608071,0.65490305,0.33436766,-0.3721234,0.5664138,14.387925148010254,0.6014618277549744,7.452401638031006,0.33549439907073975,3.0375962257385254, 2.5677695274353027
52,2542624738,0.65475637,0.33419752,-0.3717896,0.5669027,13.705564498901367,0.5964541435241699,7.257601737976074,2.1559808254241943,2.9626784324645996, 2.490623712539673
53,2542641405,0.6547023,0.33400357,-0.37147626,0.5672847,14.149984359741211,0.6177323460578918,7.44061279296875,1.392440915107727,2.952894687652588, 1.7055050134658813
54,2542658072,0.6546724,0.3335225,-0.37136668,0.5676739,14.402639389038086,0.6056599617004395,7.3208184242248535,-0.6508699059486389,3.2369391918182373, 2.8937034606933594
55,2542674739,0.6544413,0.33344227,-0.3710371,0.5682027,13.657855987548828,0.7544543147087097,7.312717437744141,2.8661062717437744,2.475346088409424, 2.8007941246032715
56,2542691406,0.6544521,0.3329976,-0.37095255,0.56850636,14.523470878601074,0.6662907600402832,7.491528034210205,-1.0569720268249512,2.892678737640381, 2.225019931793213
57,2542708073,0.6544639,0.33239168,-0.37107763,0.56876576,14.305967330932617,0.7268822193145752,7.390874862670898,-2.367522954940796,2.4903807640075684, 3.118506908416748
58,2542724740,0.65423703,0.3320953,-0.37091118,0.56930804,13.877402305603027,0.29348817467689514,7.203891277313232,1.2324384450912476,2.6300594806671143, 3.7550079822540283
59,2542741407,0.65417945,0.33176473,-0.37073663,0.5696806,14.048148155212402,0.5943307876586914,7.242673397064209,0.4048023521900177,2.847985029220581, 2.4579551219940186
60,2542758074,0.65416294,0.33135125,-0.37063357,0.5700072,14.46158504486084,0.6769368052482605,7.465874195098877,-0.4885367155075073,2.8514299392700195, 2.4485037326812744
61,2542774741,0.6539633,0.33107525,-0.3703487,0.5705815,13.58656120300293,0.2757450044155121,7.082300186157227,1.8006178140640259,3.2255547046661377, 3.464047431945801
62,2542791408,0.65387547,0.33102363,-0.36989853,0.57100385,14.063220977783203,0.6801154613494873,7.246281147003174,2.7623229026794434,3.022944927215576, 1.354918122291565
63,2542808075,0.65378946,0.33062562,-0.36977437,0.57141316,14.098790168762207,0.6512854695320129,7.381408214569092,-0.027879422530531883,2.8922946453094482, 2.9648172855377197
64,2542824742,0.6535926,0.33026543,-0.36964798,0.57192814,13.7145357131958,0.33412227034568787,7.067508220672607,0.6986953020095825,2.710726737976074, 3.7913265228271484
65,2542841409,0.6535458,0.3300087,-0.36945388,0.5722553,14.239468574523926,0.8666598200798035,7.365890026092529,0.449227511882782,2.5622494220733643, 1.839920163154602
66,2542858076,0.65346646,0.32949165,-0.3694693,0.5726336,14.012418746948242,0.6162861585617065,7.248437404632568,-1.202554702758789,2.680311441421509, 3.423527717590332
67,2542874743,0.65339464,0.3291124,-0.36934978,0.57301056,13.821840286254883,0.4959928095340729,7.118393898010254,-0.03521747142076492,2.7617857456207275, 2.7551136016845703
68,2542891410,0.6531411,0.3289442,-0.36899766,0.57362294,13.74720287322998,0.4267255365848541,7.048773288726807,2.341583490371704,3.045497417449951, 3.1678619384765625
69,2542908077,0.6531057,0.32873917,-0.36886522,0.5738659,14.126684188842773,0.7427344918251038,7.280130386352539,0.2673133611679077,1.9258638620376587, 1.470649242401123
70,2542924744,0.65304834,0.32826474,-0.36887044,0.57419914,14.465459823608398,0.523804783821106,7.3608012199401855,-1.2017992734909058,2.521794557571411, 2.9642157554626465
71,2542941411,0.65262264,0.32840356,-0.36833498,0.57494724,13.36409854888916,0.2510916590690613,6.870559215545654,5.4763875007629395,2.5336921215057373, 3.4489495754241943
72,2542958078,0.65241003,0.32854503,-0.3679139,0.57537687,14.232949256896973,0.7145153880119324,7.224960803985596,3.963392734527588,1.832147240638733, 1.5546205043792725
73,2542974745,0.6521834,0.32825536,-0.36780706,0.5758674,14.132492065429688,0.7810814380645752,7.223971843719482,0.6741710901260376,2.233292818069458, 3.5087027549743652
74,2542991412,0.65191007,0.32815632,-0.36760768,0.57636046,13.701553344726562,0.3945629596710205,6.908863544464111,2.0927815437316895,1.7834057807922363, 3.0716986656188965
75,2543008079,0.6516021,0.32804725,-0.36731306,0.57695854,14.150240898132324,0.7879894971847534,7.138340473175049,2.8803980350494385,2.403733015060425, 3.5555107593536377
76,2543024746,0.65125114,0.32776418,-0.36718193,0.5775986,13.684191703796387,0.7701502442359924,6.950594425201416,1.5791574716567993,2.350983142852783, 4.681354999542236
77,2543041413,0.65106934,0.32728907,-0.3672387,0.57803655,14.51783275604248,0.5067816376686096,7.24406623840332,-0.7355199456214905,2.2462148666381836, 4.128902435302734
78,2543058080,0.65028435,0.32733366,-0.36679217,0.57917756,13.46750259399414,0.31798863410949707,6.830837249755859,6.594639301300049,2.4985265731811523, 7.149193286895752
79,2543074747,0.6497673,0.32724577,-0.36659217,0.5799337,14.098203659057617,0.6606798768043518,7.119316577911377,3.2823636531829834,1.735420823097229, 5.145712852478027
80,2543091414,0.64911544,0.32713404,-0.36639658,0.5808495,14.009624481201172,0.6386414766311646,7.215792179107666,3.7796859741210938,1.8347468376159668, 6.419651985168457
81,2543108081,0.64840794,0.32720038,-0.3661428,0.5817617,13.689497947692871,0.4471110701560974,6.8824567794799805,5.146213531494141,1.235345482826233, 6.186306953430176
82,2543124748,0.6478388,0.32725427,-0.3658166,0.58256996,13.778331756591797,0.8572352528572083,6.961093425750732,4.725306987762451,1.7269173860549927, 4.986876964569092
83,2543141415,0.64755845,0.32690662,-0.36583135,0.5830677,13.597043991088867,0.697843074798584,7.035468578338623,0.12171797454357147,1.8479245901107788, 4.2211079597473145
84,2543158082,0.6473279,0.32650736,-0.36579126,0.58357203,14.053062438964844,0.48441407084465027,6.905772686004639,0.048273541033267975,2.4394371509552, 4.080775737762451
85,2543174749,0.6468859,0.3265319,-0.36549222,0.58423555,13.56403636932373,0.4274488389492035,6.922118663787842,3.560619592666626,1.7273269891738892, 3.8136603832244873
86,2543191416,0.6463629,0.32646766,-0.3652359,0.58501,13.698136329650879,0.5851553678512573,6.826382160186768,3.396763324737549,1.9429986476898193, 4.91375207901001
87,2543208083,0.6460629,0.32597297,-0.3653393,0.58555245,13.705951690673828,0.6574039459228516,6.856171131134033,-0.6871888041496277,2.116102457046509, 5.100046157836914
88,2543224750,0.6454546,0.32591474,-0.36497778,0.58648056,13.574528694152832,0.3692358136177063,6.845980167388916,4.779938697814941,2.518977165222168, 5.918295383453369
89,2543241417,0.6447453,0.32595906,-0.36456817,0.58749,13.551291465759277,0.6057770252227783,6.710623741149902,5.96515417098999,2.249800682067871, 6.385983943939209
90,2543258084,0.6442137,0.32581675,-0.3643418,0.5882918,13.468989372253418,0.6602195501327515,6.832406044006348,3.401437759399414,2.1758697032928467, 5.580758571624756
91,2543274751,0.6437603,0.32567394,-0.36422494,0.5889393,13.456488609313965,0.4287097156047821,6.839895725250244,2.4810450077056885,1.5384974479675293, 4.882568836212158
92,2543291418,0.64334977,0.3256287,-0.36415225,0.58945763,13.440545082092285,0.3643170893192291,6.8036956787109375,2.0736875534057617,0.7663768529891968, 3.8377749919891357
93,2543308085,0.64290386,0.3259179,-0.36385748,0.5899661,13.096881866455078,0.398602694272995,6.712985515594482,4.511876106262207,0.2794665992259979, 2.6013734340667725
94,2543324752,0.64254487,0.3262486,-0.36375222,0.59023935,13.147290229797363,0.3796062469482422,6.743940830230713,3.303392171859741,-1.0434104204177856, 1.627399206161499
95,2543341419,0.64225024,0.32643923,-0.36380655,0.5904209,13.333076477050781,0.4731574058532715,6.683382034301758,1.465641975402832,-1.2240822315216064, 1.5435686111450195
96,2543358086,0.64198154,0.32679063,-0.36381292,0.59051496,13.106086730957031,0.5195807218551636,6.620445728302002,2.3915157318115234,-1.8013157844543457, 0.7292513251304626
97,2543374753,0.6417303,0.32716,-0.36386386,0.590552,13.412527084350586,0.28097331523895264,6.6316447257995605,2.232448101043701,-2.158139228820801, 0.5405241847038269
98,2543391420,0.64133555,0.32758772,-0.36389685,0.5907234,13.220820426940918,0.49147284030914307,6.518133163452148,3.083301544189453,-2.3676252365112305, 1.4406311511993408
99,2543408087,0.64091295,0.3281105,-0.36398283,0.59083897,12.972368240356445,0.5253969430923462,6.450778961181641,3.1986489295959473,-3.180265426635742, 1.1834285259246826
100,2543424754,0.6404189,0.32886317,-0.36402586,0.5909299,13.13905143737793,0.4477378726005554,6.352214813232422,4.536040782928467,-4.158926010131836, 0.7267923951148987
101,2543441421,0.63976294,0.3298401,-0.36377978,0.5912472,12.812244415283203,0.530922532081604,6.29396915435791,7.617339611053467,-3.686295509338379, 1.158136010169983
102,2543458088,0.6392335,0.33062086,-0.36360657,0.5914901,13.047237396240234,0.6362962126731873,6.292259693145752,6.001075267791748,-3.060051918029785, 0.9841872453689575
103,2543474755,0.6387171,0.33151445,-0.3633464,0.5917077,12.674084663391113,0.7582237124443054,6.383584499359131,6.773056507110596,-3.1576623916625977, 0.35378190875053406
104,2543491422,0.63836306,0.33212635,-0.36347848,0.5916655,13.021430969238281,0.6355053782463074,6.096157073974609,2.7726712226867676,-3.919294595718384, 0.06375641375780106
105,2543508089,0.6379515,0.33282736,-0.36363328,0.5916204,12.6660795211792,0.5619087815284729,6.088782787322998,3.223505735397339,-4.52589225769043, 0.1341785341501236
106,2543524756,0.6374795,0.33373544,-0.3637218,0.59156317,12.752549171447754,0.5805608630180359,6.2222418785095215,4.60515832901001,-5.254959583282471, -0.2822776734828949
107,2543541423,0.636992,0.3345913,-0.36394957,0.5914649,12.744269371032715,0.7605496644973755,6.003176689147949,3.737053632736206,-5.78400182723999, 0.04861931875348091
108,2543558090,0.6365888,0.33532822,-0.36435774,0.5912302,12.504189491271973,0.7191576361656189,5.882018566131592,2.2491090297698975,-6.192869186401367, 0.009611166082322598
109,2543574757,0.6362425,0.33581305,-0.36501828,0.5909203,12.64686107635498,0.5804636478424072,5.755670070648193,-0.2898974120616913,-6.298778533935547, 0.6105363965034485
110,2543591424,0.63585865,0.33633998,-0.36556798,0.59069395,12.7865571975708,0.6810033917427063,5.891361236572266,0.4162256717681885,-5.876079559326172, 0.6306808590888977
111,2543608091,0.6354925,0.33683953,-0.366021,0.5905228,12.582197189331055,0.7623550295829773,5.701341152191162,0.9181833267211914,-5.167503356933594, 0.7278681397438049
112,2543624758,0.63509536,0.33740437,-0.3663066,0.5904505,12.186405181884766,0.5347495675086975,5.534396648406982,2.1713874340057373,-4.543411731719971, 0.7183018326759338
113,2543641425,0.6345773,0.33815518,-0.36636356,0.59054273,12.426836013793945,0.5131005048751831,5.57378625869751,4.543174743652344,-4.218066692352295, 0.89067542552948
114,2543658092,0.6338413,0.3391755,-0.3661473,0.5908819,12.255109786987305,0.6579501628875732,5.416299819946289,8.20750904083252,-4.093115329742432, 1.6875380277633667
115,2543674759,0.63315904,0.34004614,-0.36591244,0.5912584,12.117035865783691,0.5798378586769104,5.412846565246582,7.6500725746154785,-3.1758344173431396, 1.9974642992019653
116,2543691426,0.6324727,0.3408236,-0.3656503,0.5917074,12.149100303649902,0.9342299103736877,5.570030689239502,7.395750999450684,-2.5115816593170166, 2.411506414413452
117,2543708093,0.6319467,0.3412292,-0.36562952,0.5920483,11.965484619140625,0.8323524594306946,5.314423084259033,4.265878200531006,-1.8983749151229858, 2.8668999671936035
118,2543724760,0.6315121,0.34155092,-0.36552733,0.5923899,11.637463569641113,0.21270330250263214,5.386399745941162,3.884416103363037,-0.9644206762313843, 2.4430482387542725
119,2543741427,0.630673,0.34236795,-0.36516145,0.59303725,12.022942543029785,0.09099363535642624,5.382044792175293,8.816707611083984,-2.1345503330230713, 3.539823532104492
120,2543758094,0.6297597,0.34335852,-0.36490366,0.5935932,11.674068450927734,0.12280774116516113,5.1892008781433105,9.353741645812988,-3.713407039642334, 3.4184064865112305
121,2543774761,0.6287503,0.34449112,-0.36479896,0.5940714,11.435564994812012,0.4790910482406616,5.053125381469727,9.278414726257324,-5.379706382751465, 3.41164493560791
122,2543791428,0.6279892,0.34526816,-0.3651475,0.5942111,11.271431922912598,0.7757614254951477,5.1708550453186035,4.192063331604004,-6.064371585845947, 2.745457649230957
123,2543808095,0.6274166,0.3459519,-0.36586732,0.5939754,11.243871688842773,0.7569468021392822,4.978681564331055,1.0529062747955322,-7.713893413543701, 1.573228359222412
124,2543824762,0.6267863,0.3471144,-0.36646047,0.593597,11.088218688964844,0.5095433592796326,4.943416595458984,3.4865875244140625,-9.612129211425781, -0.2679857611656189
125,2543841429,0.6259653,0.34901142,-0.36659575,0.5932673,10.98554801940918,0.31872665882110596,4.879887104034424,9.038504600524902,-11.003582954406738, -2.2608091831207275
126,2543858096,0.6248343,0.3514183,-0.36666906,0.5929934,10.756656646728516,0.38486742973327637,4.776381492614746,12.494240760803223,-13.468363761901855, -2.127598285675049
127,2543874763,0.6237663,0.35406584,-0.36689174,0.59240484,10.794792175292969,0.7109841108322144,4.736825466156006,12.03195858001709,-15.695330619812012, -3.95542573928833
128,2543891430,0.62283564,0.35638022,-0.36757964,0.5915693,10.77296257019043,0.8912578225135803,4.625288963317871,7.468191146850586,-16.588300704956055, -3.7557358741760254
129,2543908097,0.6220973,0.35846126,-0.3686854,0.59039956,10.527969360351562,0.9202865958213806,4.604747295379639,3.8240509033203125,-17.762645721435547, -4.1523613929748535
130,2543924764,0.6215194,0.3603145,-0.37025735,0.58889455,10.835641860961914,1.040064811706543,4.557036876678467,-0.25549980998039246,-19.253631591796875, -4.491987228393555
131,2543941431,0.62073654,0.36260635,-0.37172332,0.58738804,10.495450973510742,1.0543357133865356,4.168235778808594,2.5720763206481934,-21.101070404052734, -5.034196853637695
132,2543958098,0.6198665,0.36505055,-0.37304488,0.5859535,10.204501152038574,0.9652952551841736,4.614817142486572,4.347321510314941,-21.13926124572754, -5.051204681396484
133,2543974765,0.61868984,0.36747518,-0.37437266,0.5848333,10.363174438476562,1.0372638702392578,4.2435526847839355,5.796144008636475,-21.08973503112793, -2.423708200454712
134,2543991432,0.6171961,0.37036875,-0.3755202,0.58384985,10.257107734680176,1.2880041599273682,3.6549153327941895,9.710480690002441,-22.678518295288086, -2.2067692279815674
135,2544008099,0.6151717,0.37359285,-0.3764545,0.5833305,10.03368091583252,0.2148899883031845,3.5064992904663086,14.316954612731934,-23.28097915649414, 0.3998345136642456
136,2544024766,0.612598,0.37739018,-0.37706918,0.5831974,10.350513458251953,0.9259373545646667,3.4362199306488037,20.654420852661133,-24.646589279174805, 2.0161304473876953
137,2544041433,0.6098634,0.38149157,-0.37761456,0.5830421,9.657564163208008,0.5507212281227112,3.3197224140167236,22.678852081298828,-26.03664779663086, 1.6415822505950928
138,2544058100,0.60655344,0.38656902,-0.3774716,0.5832432,9.615806579589844,-0.06834713369607925,3.1424758434295654,31.985923767089844,-27.6160945892334, 1.1045739650726318
139,2544074767,0.60266584,0.39255905,-0.3769608,0.58360255,9.925664901733398,0.22557896375656128,3.480756998062134,39.41013717651367,-30.806970596313477, 0.7944552302360535
140,2544091434,0.5990304,0.39837983,-0.37698296,0.5833867,8.800297737121582,0.06308376044034958,2.912308692932129,34.27189636230469,-33.23430633544922, -0.8008387088775635
141,2544108101,0.59578216,0.40342215,-0.37736753,0.5829993,9.5214262008667,0.6605117917060852,2.8962604999542236,28.35066032409668,-31.05961036682129, 0.02764267660677433
142,2544124768,0.5932767,0.4074749,-0.37855625,0.58196396,10.066234588623047,1.6882894039154053,2.0977160930633545,17.383176803588867,-30.24811553955078, -0.7974292635917664
143,2544141435,0.5913679,0.41081634,-0.38017002,0.580504,9.844466209411621,2.2608585357666016,2.732194423675537,9.973432540893555,-28.750295639038086, -1.8793506622314453
144,2544158102,0.5897076,0.41360027,-0.38172904,0.5791915,9.813103675842285,1.886540412902832,2.3673155307769775,7.614040374755859,-25.23097801208496, -0.9495419859886169
145,2544174769,0.5879239,0.41623014,-0.38288468,0.5783576,9.325417518615723,1.5505098104476929,1.9941121339797974,10.264727592468262,-21.9312801361084, 0.7707837820053101
146,2544191436,0.5862865,0.41861686,-0.38359588,0.57782555,9.359580993652344,1.3629378080368042,2.0425171852111816,11.319889068603516,-17.911680221557617, 0.7403170466423035
147,2544208103,0.5850084,0.4204055,-0.38427645,0.57737017,9.533926010131836,0.7569336891174316,1.7386152744293213,8.274364471435547,-14.230365753173828, 1.1361356973648071
148,2544224770,0.58400357,0.4220469,-0.3849624,0.57673264,8.858203887939453,0.552056610584259,1.871301293373108,6.485722541809082,-13.453194618225098, -0.2585347890853882
149,2544241437,0.58252275,0.42442814,-0.38464117,0.5766971,8.35763931274414,0.040660493075847626,1.6527609825134277,16.57158660888672,-11.841534614562988, -0.8034586906433105
150,2544258104,0.5810775,0.42696404,-0.3839925,0.5767152,8.44933795928955,0.7645272612571716,2.062702178955078,18.441282272338867,-10.88802719116211, -2.14984393119812
151,2544274771,0.57948565,0.4298015,-0.38302183,0.5768545,8.2021484375,0.4170137643814087,1.9082659482955933,21.793682098388672,-10.820171356201172, -2.7970151901245117
152,2544291438,0.5776992,0.43308702,-0.38184753,0.57696766,7.684344291687012,0.7146783471107483,2.2601823806762695,23.50234603881836,-12.447061538696289, -4.365657806396484
153,2544308105,0.57700735,0.43591082,-0.38100302,0.57609135,7.639608860015869,1.8211777210235596,3.1328134536743164,14.5037202835083,-12.008727073669434, -10.444952964782715
154,2544324772,0.5765781,0.43854266,-0.38060635,0.5747842,7.648767471313477,0.1712859719991684,2.4083566665649414,10.046704292297363,-13.656673431396484, -11.328218460083008
155,2544341439,0.5762945,0.4413329,-0.38025075,0.57316625,7.739649772644043,1.1655887365341187,1.642460823059082,9.265161514282227,-15.012566566467285, -13.44179916381836
156,2544358106,0.5761124,0.44422016,-0.38012862,0.57119656,7.690680980682373,0.6879560947418213,1.8638627529144287,7.49851131439209,-17.114532470703125, -14.774449348449707
157,2544374773,0.5757546,0.44780225,-0.37963456,0.5690849,7.805140018463135,1.0507310628890991,1.9020066261291504,11.87844181060791,-19.262956619262695, -17.602930068969727
158,2544391440,0.57494175,0.4524279,-0.37830976,0.56712705,7.299026966094971,0.9036352634429932,2.0021400451660156,21.060440063476562,-20.771635055541992, -20.492876052856445
159,2544408107,0.57344306,0.45856392,-0.37545973,0.56560785,7.8639607429504395,1.9489072561264038,1.7471323013305664,36.2528076171875,-21.057491302490234, -24.75900650024414
160,2544424774,0.57197744,0.46524638,-0.37159538,0.56418484,7.937958717346191,1.2818082571029663,1.8632491827011108,42.487892150878906,-18.790929794311523, -29.09824562072754
161,2544441441,0.57105476,0.47092998,-0.36781716,0.5628782,9.721685409545898,-0.42375797033309937,1.9333299398422241,36.78450012207031,-13.495377540588379, -27.919071197509766
162,2544458108,0.57020634,0.47648662,-0.36435172,0.5613138,10.832087516784668,-1.270211935043335,3.835035562515259,34.19406509399414,-14.86809253692627, -27.92928695678711
163,2544474775,0.5713899,0.4778949,-0.36574942,0.55799407,12.595102310180664,-3.6326141357421875,7.7438063621521,-11.867867469787598,-18.6115665435791, -16.39516830444336
164,2544491442,0.5761507,0.4722361,-0.37645215,0.5507516,13.49735164642334,-5.953393936157227,8.106287956237793,-96.89754486083984,-32.050357818603516, 2.6942923069000244
165,2544508109,0.5816496,0.46426532,-0.3942424,0.53917944,12.711799621582031,-2.2214224338531494,4.080599784851074,-146.44436645507812,-63.61311721801758, 11.568514823913574
166,2544524776,0.58739144,0.45303914,-0.41926748,0.5233946,8.106363296508789,-9.13365650177002,0.3133355379104614,-198.4854278564453,-93.26573181152344, 25.67083168029785
167,2544541443,0.574104,0.45513058,-0.43328768,0.52490246,5.510494709014893,-20.024473190307617,6.936927795410156,5.061227798461914,-97.5705337524414, 91.23528289794922
168,2544558110,0.55206496,0.463219,-0.43108767,0.5429695,-2.1990368366241455,-1.705418348312378,16.927642822265625,164.48545837402344,-29.617042541503906, 119.12702178955078
169,2544574777,0.5473503,0.45189595,-0.42975223,0.55813164,-1.3143125772476196,9.771578788757324,19.366579055786133,23.211288452148438,81.143310546875, 103.69741821289062
170,2544591444,0.55925,0.4226372,-0.43066952,0.568455,0.31476208567619324,8.503432273864746,13.137510299682617,-120.83133697509766,175.0770721435547, 81.79553985595703
171,2544608111,0.57462317,0.38859326,-0.42584935,0.58090967,2.701427698135376,3.816037654876709,4.635122776031494,-121.43964385986328,232.144775390625, 73.91798400878906
172,2544624778,0.58417463,0.36195764,-0.41017148,0.59957176,7.422688007354736,1.7369391918182373,-1.1295156478881836,-15.018158912658691,245.03236389160156, 70.98503875732422
173,2544641445,0.5858835,0.34742677,-0.38606074,0.6220872,9.266946792602539,2.589590311050415,-6.143405437469482,99.08492279052734,216.6608123779297, 63.7457389831543
174,2544658112,0.5843481,0.34011656,-0.35982686,0.64294857,9.298295021057129,6.194189071655273,-9.977014541625977,140.7428741455078,182.08444213867188, 46.80709457397461
175,2544674779,0.5866479,0.32872492,-0.3425486,0.656083,9.988935470581055,6.098541736602783,-11.849739074707031,56.87279510498047,155.94674682617188, 30.08908462524414
176,2544691446,0.5920646,0.31332862,-0.33368164,0.6632807,9.369219779968262,3.1412384510040283,-13.617997169494629,-17.351848602294922,134.3871612548828, 21.15361976623535
177,2544708113,0.59737664,0.296801,-0.33275986,0.6665745,8.446500778198242,-0.19561800360679626,-14.96308708190918,-66.94859313964844,99.017578125, 25.533061981201172
178,2544724780,0.6000987,0.28460774,-0.33615103,0.66774434,9.26062297821045,-1.2623295783996582,-15.48837661743164,-68.4381103515625,51.63569641113281, 27.58257293701172
179,2544741447,0.59941167,0.27803698,-0.3445255,0.6668607,10.204345703125,-1.7332669496536255,-14.92171573638916,-66.11114501953125,-6.171446323394775, 31.53017234802246
180,2544758114,0.5936023,0.27965033,-0.35662848,0.6650174,10.887558937072754,-2.839423418045044,-14.925592422485352,-41.85602569580078,-72.60575103759766, 38.808204650878906
181,2544774781,0.58140796,0.2898813,-0.3713641,0.6633419,11.609739303588867,-2.184044361114502,-14.532090187072754,-5.898223876953125,-137.72625732421875, 52.583560943603516
182,2544791448,0.5648486,0.30591735,-0.38811955,0.660851,12.16176986694336,1.6901030540466309,-11.591940879821777,14.838613510131836,-184.76356506347656, 58.39457321166992
183,2544808115,0.54683524,0.32298097,-0.40944928,0.65498537,11.189867973327637,3.0780727863311768,-9.938506126403809,-7.860595703125,-218.02447509765625, 58.82352828979492
184,2544824782,0.5273391,0.3420317,-0.43204057,0.64673704,9.255078315734863,3.18631911277771,-7.8680419921875,-9.464484214782715,-241.13417053222656, 53.827667236328125
185,2544841449,0.5067599,0.36072868,-0.45527792,0.6370174,6.2657880783081055,2.3817806243896484,-11.953564643859863,-15.425528526306152,-248.6348419189453, 55.9434928894043
186,2544858116,0.4871632,0.37966964,-0.47777972,0.62469965,7.5162248611450195,5.226493835449219,-8.68114948272705,-21.875659942626953,-250.5038604736328, 40.01905059814453
187,2544874783,0.46697968,0.39689475,-0.5043941,0.60826904,4.6372270584106445,1.293578028678894,-8.507818222045898,-57.2637825012207,-269.67047119140625, 45.248291015625
188,2544891450,0.4427709,0.42014188,-0.52212983,0.59566367,4.435247898101807,3.9487252235412598,5.177860736846924,23.5154972076416,-269.9648742675781, 29.212356567382812
189,2544908117,0.41456407,0.444487,-0.5354727,0.5863761,4.637713432312012,-1.3452026844024658,-2.9901368618011475,68.26383972167969,-266.2680358886719, 39.05436325073242
190,2544924784,0.3846506,0.4678419,-0.54553527,0.57927495,14.050009727478027,1.2944554090499878,-1.9264605045318604,91.94646453857422,-252.68675231933594, 45.64790344238281
191,2544941451,0.36106744,0.4852756,-0.5604881,0.5656776,11.837971687316895,2.7761242389678955,1.3416290283203125,12.053871154785156,-239.35174560546875, 41.211936950683594
192,2544958118,0.34266037,0.49694073,-0.5781048,0.54902536,11.397459030151367,-1.0351189374923706,-0.5285258293151855,-44.354209899902344,-213.00523376464844, 45.357547760009766
193,2544974785,0.3233705,0.50723547,-0.5920913,0.5362572,13.524675369262695,-1.7381798028945923,-2.469498872756958,-12.799761772155762,-190.71304321289062, 50.19675064086914
194,2544991452,0.30703494,0.51578736,-0.60738397,0.5203633,18.411964416503906,1.7405987977981567,2.146575450897217,-44.531585693359375,-186.2159423828125, 43.9996337890625
195,2545008119,0.29643705,0.52056956,-0.6258534,0.49943963,20.48121452331543,0.15769195556640625,1.7661073207855225,-105.24019622802734,-173.5966796875, 39.9818000793457
196,2545024786,0.2965899,0.52114415,-0.64223343,0.477472,23.649656295776367,-3.057871103286743,11.636224746704102,-149.64749145507812,-112.64248657226562, 11.658279418945312
197,2545041453,0.3055843,0.5158735,-0.6586064,0.45467645,15.556836128234863,-4.537542819976807,13.458246231079102,-197.02163696289062,-57.87682342529297, 6.758591175079346
198,2545058120,0.3155483,0.5134203,-0.6805452,0.41675794,13.18181324005127,-5.188587188720703,3.1156678199768066,-280.62030029296875,-128.1112518310547, -21.16317367553711
199,2545074787,0.3199426,0.5097426,-0.69917625,0.38594288,18.493059158325195,-18.883180618286133,25.43271255493164,-220.91757202148438,-118.57593536376953, 4.138975143432617
200,2545091454,0.31613308,0.5124125,-0.7140996,0.35714895,1.893131971359253,-5.517961502075195,21.06908416748047,-158.9424591064453,-160.26998901367188, -13.54296588897705
201,2545108121,0.315616,0.515771,-0.7286717,0.32156566,4.504082202911377,-4.237572193145752,10.707635879516602,-201.65432739257812,-169.2736358642578, -41.18142318725586
202,2545124788,0.31122643,0.5196583,-0.7372808,0.29918298,9.12789249420166,-4.203989505767822,20.04324722290039,-107.46194458007812,-130.17611694335938, -27.873079299926758
203,2545141455,0.3040499,0.52575415,-0.7401248,0.28870678,0.9902615547180176,3.3901495933532715,25.109697341918945,-20.618549346923828,-94.3076400756836, -28.505521774291992
204,2545158122,0.30545607,0.5268048,-0.74421805,0.27443203,4.65358304977417,-7.3723649978637695,15.735517501831055,-83.95834350585938,-57.2496337890625, -23.229738235473633
205,2545174789,0.29198015,0.5350943,-0.7385936,0.28792593,5.785626411437988,-7.861900329589844,14.062344551086426,145.4959716796875,-26.23195457458496, -9.143159866333008
206,2545191456,0.27610335,0.5439591,-0.72976375,0.30874023,6.155911445617676,-4.594480991363525,13.459961891174316,198.93051147460938,-6.348930835723877, -4.3758368492126465
207,2545208123,0.26289275,0.55390227,-0.71632004,0.33311483,7.963556289672852,1.129341959953308,12.39608097076416,218.63931274414062,26.676618576049805, -25.82408905029297
208,2545224790,0.2632099,0.5595144,-0.7041428,0.34906638,8.676963806152344,2.233673095703125,11.093708038330078,114.9370346069336,68.71739196777344, -45.681907653808594
209,2545241457,0.27353486,0.5614136,-0.69183,0.36244297,7.6755242347717285,0.8888232707977295,8.974761962890625,57.648990631103516,116.30421447753906, -56.77111053466797
210,2545258124,0.29325667,0.55810755,-0.67941374,0.37538496,7.138856410980225,-1.583865761756897,6.877185344696045,9.836030960083008,172.45558166503906, -56.60145568847656
211,2545274791,0.31630665,0.5500997,-0.6650245,0.3938059,8.224604606628418,-5.415766716003418,3.470798969268799,18.300193786621094,225.1892547607422, -39.78548049926758
212,2545291458,0.34089786,0.5374924,-0.6479053,0.41846102,8.854310989379883,-5.660038948059082,1.7547401189804077,38.36408233642578,274.33929443359375, -19.795595169067383
213,2545308125,0.36669892,0.51968735,-0.62920934,0.44671303,10.160684585571289,-5.966838359832764,-1.4812612533569336,42.270973205566406,311.84783935546875, 2.3912997245788574
214,2545324792,0.39149305,0.4975305,-0.6089166,0.47793028,11.012818336486816,-5.3641276359558105,-3.936897039413452,52.645511627197266,335.7171325683594, 25.99922752380371
215,2545341459,0.4127331,0.47239518,-0.5869621,0.5118299,11.374490737915039,-5.863813877105713,-7.210770606994629,73.51136779785156,344.5550842285156, 51.635833740234375
216,2545358126,0.4278917,0.44796863,-0.5611422,0.54895586,10.1077880859375,-3.088238000869751,-9.048938751220703,121.96691131591797,339.3114013671875, 66.74002075195312
217,2545374793,0.44239336,0.42283124,-0.53392947,0.58345646,8.594586372375488,0.9247959852218628,-10.258622169494629,117.08982849121094,335.8403015136719, 59.965911865234375
218,2545391460,0.46065438,0.39503962,-0.51081264,0.6089432,6.9095659255981445,4.708062171936035,-14.015871047973633,48.6009635925293,321.9825134277344, 39.18789291381836
219,2545408127,0.48172328,0.36645508,-0.4922929,0.6255406,4.671104431152344,3.5202882289886475,-19.490758895874023,-11.961149215698242,296.87677001953125, 14.662638664245605
220,2545424794,0.50141704,0.34178802,-0.47610253,0.6364654,2.7302398681640625,-1.1845020055770874,-24.732553482055664,-24.6522216796875,253.85299682617188, -5.531896114349365
221,2545441461,0.5126948,0.32708228,-0.46114287,0.64614904,2.0262770652770996,-6.938467979431152,-29.120521545410156,20.17574691772461,176.0882110595703, -2.725403070449829
222,2545458128,0.5137937,0.32380968,-0.44873327,0.65559286,0.5732280015945435,-7.020589828491211,-31.227554321289062,71.50296783447266,84.08099365234375, 10.985346794128418
223,2545474795,0.509609,0.3259061,-0.44501394,0.6603382,-0.9392030835151672,-2.075585126876831,-30.787187576293945,48.789451599121094,2.984440565109253, 20.82202911376953
224,2545491462,0.5050606,0.32650423,-0.45459595,0.6570018,-1.2222338914871216,-0.19561384618282318,-28.768856048583984,-40.60676956176758,-55.54843521118164, 28.495317459106445
225,2545508129,0.49895355,0.3284589,-0.47262448,0.64790905,-1.0006564855575562,0.3664851188659668,-23.8210506439209,-88.43085479736328,-108.3951416015625, 30.294208526611328
226,2545524796,0.48956588,0.33398268,-0.49378875,0.63635963,-1.033881664276123,0.8829644322395325,-20.569135665893555,-90.64909362792969,-150.98536682128906, 32.01346206665039
227,2545541463,0.47479483,0.34570512,-0.51295215,0.62604964,-1.4873509407043457,-0.012082606554031372,-16.851303100585938,-44.390865325927734,-186.6098175048828, 34.12845230102539
228,2545558130,0.45427954,0.36320153,-0.5278737,0.61892176,-0.47659367322921753,-0.08746419847011566,-15.201473236083984,17.652658462524414,-210.211669921875, 38.7473030090332
229,2545574797,0.42948064,0.38314316,-0.5482094,0.60680664,2.601437568664551,-0.26241764426231384,-40.47710037231445,-5.116844177246094,-265.48504638671875, 45.9769287109375
230,2545591464,0.4030593,0.40792194,-0.5684881,0.5898848,24.653913497924805,9.272238731384277,7.4939703941345215,-4.228052616119385,-303.6314697265625, 20.080299377441406
231,2545608131,0.37664014,0.42970052,-0.5849989,0.5755658,9.099003791809082,3.749680757522583,11.93776798248291,12.726079940795898,-274.1298828125, 28.769145965576172
232,2545624798,0.3419996,0.45621815,-0.5906951,0.5709473,11.917484283447266,-1.851728916168213,-8.704582214355469,130.97740173339844,-269.84814453125, 35.45118713378906
233,2545641465,0.311514,0.47918114,-0.59328157,0.5668877,8.87191104888916,7.840491771697998,1.3639007806777954,124.05309295654297,-229.9661865234375, 25.02349281311035
234,2545658132,0.29231566,0.49361452,-0.60218406,0.55522144,9.148548126220703,1.7731316089630127,-0.22528895735740662,12.863141059875488,-189.50779724121094, 20.496118545532227
235,2545674799,0.27914223,0.50342596,-0.61012733,0.54441404,6.7317657470703125,-2.3990731239318848,-2.647451639175415,-9.709427833557129,-142.28419494628906, 15.184661865234375
236,2545691466,0.26878834,0.5097368,-0.6168265,0.5361403,7.126247882843018,-4.0323920249938965,-0.07521510869264603,-10.943278312683105,-106.33296966552734, 19.854461669921875
237,2545708133,0.26253492,0.51441544,-0.62309957,0.527446,10.997794151306152,-1.3292347192764282,1.9758163690567017,-28.61634063720703,-83.80693817138672, 9.359198570251465
238,2545724800,0.26337406,0.51528734,-0.63351196,0.5135912,12.640703201293945,-0.3482123613357544,3.5586960315704346,-97.77057647705078,-65.60334014892578, 5.364323616027832
239,2545741467,0.27240548,0.5136618,-0.6480561,0.49190485,14.626566886901855,3.2777178287506104,6.479557037353516,-180.11634826660156,-56.64064025878906, -12.082905769348145
240,2545758134,0.2871485,0.5102416,-0.6659582,0.46227592,16.116283416748047,-3.278515100479126,8.694001197814941,-250.5080108642578,-59.87239456176758, -26.189937591552734
241,2545774801,0.29241347,0.50899094,-0.67588973,0.44564107,10.20988941192627,-10.900861740112305,13.164396286010742,-128.22232055664062,-49.292388916015625, -8.25402545928955
242,2545791468,0.2807706,0.52206814,-0.67845845,0.43394327,6.94058084487915,-5.081565856933594,14.030653953552246,5.067448616027832,-140.13967895507812, -39.07679748535156
243,2545808135,0.26197803,0.5366397,-0.68581194,0.41598955,7.165456295013428,-2.597419023513794,7.6397705078125,-9.972872734069824,-210.05397033691406, -19.70296287536621
244,2545824802,0.2330885,0.5519206,-0.6945243,0.39835855,18.26772117614746,-6.301052093505859,11.444233894348145,26.14582633972168,-261.1991271972656, 11.411996841430664
245,2545841469,0.2024887,0.56688774,-0.7037469,0.37732893,19.08135414123535,3.9969613552093506,19.97089385986328,14.385661125183105,-282.6763916015625, 14.090775489807129
246,2545858136,0.18004349,0.57871145,-0.71428066,0.34997234,14.744206428527832,-0.13616186380386353,26.82086181640625,-55.83451461791992,-262.13311767578125, 4.643164157867432
247,2545874803,0.16920277,0.5844265,-0.7259119,0.3207304,7.081902503967285,0.8644205331802368,30.3121395111084,-121.59221649169922,-199.88320922851562, 8.774141311645508
248,2545891470,0.16817766,0.5839519,-0.7373984,0.29489043,5.359549045562744,-3.8949966430664062,28.17582130432129,-151.05218505859375,-123.84426879882812, 21.322175979614258
249,2545908137,0.16830918,0.5825509,-0.7437336,0.2813663,5.007331848144531,-3.153909683227539,24.379240036010742,-84.03776550292969,-61.00815200805664, 17.06586265563965
250,2545924804,0.1707873,0.580753,-0.746084,0.27733833,5.015682220458984,-1.3271842002868652,18.884326934814453,-37.742733001708984,-5.807979583740234, 9.481725692749023
251,2545941471,0.17764848,0.57765794,-0.7451088,0.28207326,6.162053108215332,-0.6451238393783569,13.837342262268066,-5.520960807800293,57.929779052734375, 4.750118255615234
252,2545958138,0.18864495,0.5729205,-0.7411342,0.29478082,6.497354507446289,0.023528501391410828,10.865462303161621,22.704803466796875,117.5744400024414, 2.9674904346466064
253,2545974805,0.20387454,0.56671286,-0.73393863,0.31401592,7.039846420288086,1.3979535102844238,8.736953735351562,43.93422317504883,172.00460815429688, -2.317054033279419
254,2545991472,0.22488436,0.5573591,-0.7250234,0.33633164,6.715397834777832,0.9875527620315552,6.569208145141602,36.30097198486328,222.39344787597656, -1.2545298337936401
255,2546008139,0.25095272,0.54433024,-0.71373373,0.36236957,4.348381519317627,1.074609398841858,5.353987216949463,35.31045913696289,274.10784912109375, 2.052417755126953
256,2546024806,0.2810981,0.5279347,-0.6989835,0.3920344,2.463298797607422,2.532543420791626,2.5193166732788086,40.69230270385742,322.1807556152344, 1.7329527139663696
257,2546041473,0.31588882,0.5074139,-0.68140244,0.42241725,0.8896065354347229,4.375834941864014,0.042384132742881775,26.97871971130371,363.9146728515625, 0.16679774224758148
258,2546058140,0.3514168,0.4840927,-0.6602031,0.45419434,0.8614163398742676,2.4197092056274414,-6.009641647338867,35.42417526245117,388.48321533203125, 1.5953936576843262
259,2546074807,0.38147426,0.4632073,-0.6319979,0.4904032,0.5594722032546997,1.3340551853179932,-11.482171058654785,101.60601043701172,388.08087158203125, -4.962100028991699
260,2546091474,0.40633893,0.44560483,-0.59774894,0.52822465,0.4595370888710022,-0.5123776197433472,-16.858675003051758,154.24734497070312,375.90081787109375, -16.710220336914062
261,2546108141,0.4270813,0.43039387,-0.56070995,0.563886,2.2798967361450195,-1.6289873123168945,-22.242061614990234,174.92076110839844,352.0038757324219, -26.16503143310547
262,2546124808,0.44705027,0.41303107,-0.5302254,0.5902648,4.497997760772705,-4.679378986358643,-25.614501953125,109.7690200805664,311.25811767578125, -22.78173065185547
263,2546141475,0.4628657,0.39607725,-0.50738186,0.6094603,5.046375274658203,-7.893929958343506,-29.332733154296875,65.75686645507812,251.2390594482422, -7.918899059295654
264,2546158142,0.47241902,0.3826049,-0.4930599,0.622355,3.12843918800354,-9.845270156860352,-30.440492630004883,36.40011215209961,171.27191162109375, 9.136777877807617
265,2546174809,0.47749606,0.37021962,-0.48975137,0.6285529,0.2721376419067383,-6.652683734893799,-29.292163848876953,-17.875967025756836,98.79952239990234, 31.6009464263916
266,2546191476,0.4793846,0.36039817,-0.496278,0.6277038,-3.333252191543579,-3.3461263179779053,-27.814498901367188,-67.3492431640625,27.416921615600586, 38.51785659790039
267,2546208143,0.47715023,0.35606095,-0.5089662,0.62169254,-3.418752670288086,-3.7285940647125244,-23.889514923095703,-83.0733413696289,-42.85798263549805, 35.80559158325195
268,2546224810,0.46960738,0.35812762,-0.5243519,0.61340725,-1.5047482252120972,0.8291010856628418,-20.274633407592773,-68.39582824707031,-102.79486083984375, 35.173553466796875
269,2546241477,0.45819792,0.36552507,-0.541372,0.6027956,-1.0074349641799927,3.1798088550567627,-14.94247817993164,-56.85677719116211,-149.89915466308594, 28.812503814697266
270,2546258144,0.4452253,0.37301794,-0.5664483,0.5846097,-2.3287508487701416,-1.5600526332855225,-41.03013610839844,-114.19756317138672,-200.38035583496094, 31.43189239501953
271,2546274811,0.4129138,0.402838,-0.58459646,0.57050043,20.932600021362305,9.282517433166504,-12.76075553894043,47.75843048095703,-333.0327453613281, 16.78242301940918
272,2546291478,0.38442183,0.4266254,-0.5973073,0.5598523,13.669086456298828,13.071219444274902,19.117589950561523,55.22745132446289,-268.897216796875, 21.030242919921875
273,2546308145,0.35935917,0.44572318,-0.6144443,0.5428168,4.824106216430664,2.831977367401123,-7.052065372467041,-10.777326583862305,-268.06201171875, 23.542572021484375
274,2546324812,0.32811406,0.46979067,-0.613983,0.5428288,7.47949743270874,7.5758819580078125,-1.155412197113037,158.17662048339844,-217.09593200683594, 13.755765914916992
275,2546341479,0.3051986,0.48654175,-0.6192285,0.53543156,5.174045562744141,2.391132116317749,-0.20878328382968903,62.10462951660156,-191.6785888671875, 15.351239204406738
276,2546358146,0.28722677,0.49895558,-0.6245015,0.52777106,2.7808194160461426,-2.5241148471832275,-1.398348093032837,35.17735290527344,-155.86618041992188, 15.1677827835083
277,2546374813,0.2749681,0.5074889,-0.6303011,0.5191996,0.9832793474197388,-5.401126384735107,-2.637162923812866,2.0253984928131104,-121.62420654296875, 11.019463539123535
278,2546391480,0.27000326,0.51163876,-0.6359866,0.5107299,4.520867347717285,-4.529345989227295,-1.2887920141220093,-30.9339542388916,-73.94149780273438, 3.649860143661499
279,2546408147,0.27302802,0.51172155,-0.6430351,0.5001027,10.709264755249023,-2.6388638019561768,2.3313517570495605,-80.89250946044922,-35.04323196411133, -5.851778984069824
280,2546424814,0.28436482,0.5070139,-0.65388346,0.48426244,12.590852737426758,-2.0238804817199707,6.376031875610352,-155.3537139892578,-7.6313934326171875, -9.547309875488281
281,2546441481,0.2991942,0.5021266,-0.6660294,0.4634185,15.386601448059082,0.21289709210395813,9.080763816833496,-194.83013916015625,-11.74643611907959, -25.475130081176758
282,2546458148,0.3135856,0.5005562,-0.67529356,0.44168583,11.770913124084473,-0.5094882845878601,7.800947666168213,-181.498291015625,-21.974952697753906, -50.862613677978516
283,2546474815,0.31958294,0.5021753,-0.6815024,0.42572466,9.593226432800293,-4.528587818145752,16.41775131225586,-109.73204040527344,-44.594478607177734, -38.16463088989258
284,2546491482,0.32261917,0.5043542,-0.68661726,0.41243246,1.0155929327011108,-0.6148295402526855,20.561279296875,-82.70872497558594,-49.05527114868164, -30.08951759338379
285,2546508149,0.32063404,0.50791603,-0.6925881,0.3994207,-0.9819691181182861,-1.2341623306274414,17.24890899658203,-63.439090728759766,-78.13004302978516, -18.82598304748535
286,2546524816,0.307126,0.5183879,-0.7019349,0.3797834,-0.15488798916339874,-8.997314453125,0.8563642501831055,-48.866939544677734,-182.94972229003906, -22.967205047607422
287,2546541483,0.26549038,0.5474446,-0.6955624,0.3821154,13.722162246704102,-8.439918518066406,3.51904559135437,237.74476623535156,-255.7758331298828, -49.047218322753906
288,2546558150,0.23100029,0.56938744,-0.69326913,0.37658313,7.022878646850586,0.0738629400730133,22.781145095825195,149.401123046875,-240.1572723388672, -32.813968658447266
289,2546574817,0.1996981,0.58688563,-0.6953467,0.36356425,8.449299812316895,-3.6590747833251953,17.50269889831543,82.76911163330078,-250.24005126953125, -14.535933494567871
290,2546591484,0.17042366,0.60403997,-0.6932734,0.35420835,12.406427383422852,1.6695150136947632,18.4829044342041,101.92050170898438,-219.5998992919922, -29.628707885742188
291,2546608151,0.15664202,0.61535466,-0.69658107,0.33403108,10.423589706420898,0.23444679379463196,20.59881591796875,-33.9731559753418,-183.22933959960938, -29.701866149902344
292,2546624818,0.15405701,0.6221396,-0.7022472,0.309932,8.054375648498535,-2.618668794631958,19.550947189331055,-110.45693969726562,-138.7801971435547, -27.957042694091797
293,2546641485,0.15747698,0.62723494,-0.70615226,0.28831643,6.097411632537842,-1.5540399551391602,17.449661254882812,-122.24422454833984,-94.04450988769531, -37.61705017089844
294,2546658152,0.16592659,0.630672,-0.7077342,0.271723,6.47775936126709,-1.7316821813583374,15.88868522644043,-116.75237274169922,-42.408138275146484, -44.245147705078125
295,2546674819,0.17626907,0.6318446,-0.7073458,0.26336977,4.773927211761475,-2.80991792678833,13.911927223205566,-83.7618408203125,8.799431800842285, -36.02457046508789
296,2546691486,0.18416163,0.6312573,-0.70350516,0.2695913,3.465567111968994,-2.4157326221466064,11.109504699707031,1.8668463230133057,67.44141387939453, -20.45022964477539
297,2546708153,0.19319853,0.6279582,-0.69678974,0.28779683,4.0944647789001465,0.12141449004411697,11.696463584899902,56.75282669067383,133.61085510253906, -6.771246910095215
298,2546724820,0.20974058,0.61943424,-0.6901419,0.30986196,4.192235946655273,-0.7671141028404236,8.353606224060059,35.77739715576172,196.4091339111328, 8.877464294433594
299,2546741487,0.22795837,0.6069388,-0.68085927,0.34072128,3.4931790828704834,-2.686619281768799,4.879403591156006,70.25106811523438,254.0785369873047, 25.649681091308594
300,2546758154,0.24697013,0.59129703,-0.6674162,0.37937978,2.428036689758301,-1.8246392011642456,2.251255512237549,108.23792266845703,304.3426818847656, 33.40593338012695
301,2546774821,0.27202043,0.5703742,-0.6520988,0.41886213,2.345416784286499,0.9142448902130127,0.39050614833831787,83.35979461669922,352.5611877441406, 35.69561767578125
302,2546791488,0.30523083,0.54113024,-0.63966125,0.4525989,2.59618878364563,0.7408368587493896,-4.757503986358643,1.6991742849349976,385.4305725097656, 50.07724380493164
303,2546808155,0.33700177,0.51008594,-0.62459743,0.48592225,2.3210675716400146,1.7786362171173096,-9.037820816040039,9.646212577819824,389.00958251953125, 51.80978012084961
304,2546824822,0.36411884,0.48166752,-0.6036634,0.5205809,2.6169793605804443,1.6894690990447998,-12.857646942138672,57.4687614440918,378.9627685546875, 38.59672546386719
305,2546841489,0.38755924,0.45629492,-0.57832986,0.55419093,3.167748212814331,1.469247817993164,-15.649348258972168,88.75438690185547,360.8512878417969, 21.949424743652344
306,2546858156,0.40804353,0.43273678,-0.55360866,0.58288676,3.14223051071167,-0.011326894164085388,-20.74350357055664,81.07260131835938,325.675048828125, 14.852710723876953
307,2546874823,0.42331278,0.41343057,-0.53025776,0.60721356,2.314864158630371,-2.1128485202789307,-26.01523780822754,86.5240249633789,272.5940246582031, 11.36519718170166
308,2546891490,0.43055904,0.40093812,-0.507067,0.6298813,1.0630061626434326,-5.157797813415527,-28.231603622436523,122.63198852539062,210.48916625976562, 15.55309009552002
309,2546908157,0.43513817,0.39123613,-0.49097797,0.64539117,0.35676583647727966,-1.8331739902496338,-29.76714324951172,82.75110626220703,149.12562561035156, 15.577839851379395
310,2546924824,0.4443312,0.37829083,-0.4912183,0.6466612,0.8249412178993225,0.9294210076332092,-28.483509063720703,-59.69179153442383,92.70289611816406, 7.287390232086182
311,2546941491,0.45312598,0.36562032,-0.5056017,0.63668334,-1.7594938278198242,-3.5920329093933105,-27.871238708496094,-158.53660583496094,18.364147186279297, 10.608757972717285
312,2546958158,0.4524878,0.36256552,-0.52003264,0.6271901,-2.280625820159912,-4.287752628326416,-24.485157012939453,-103.17520904541016,-54.83586120605469, 20.071866989135742
313,2546974825,0.44345894,0.36839998,-0.5331631,0.6191631,-1.9996922016143799,-1.3911911249160767,-19.308454513549805,-43.5640983581543,-114.99175262451172, 25.697071075439453
314,2546991492,0.42901278,0.38065037,-0.5450418,0.6115416,-2.072441339492798,1.749868392944336,-14.615920066833496,-3.355036973953247,-157.0213165283203, 23.229537963867188
315,2547008159,0.41356575,0.39464808,-0.55798906,0.6015518,-1.7677289247512817,3.9808123111724854,-9.301432609558105,-8.916318893432617,-177.31414794921875, 16.675077438354492
316,2547024826,0.4004037,0.40749913,-0.5726088,0.58799726,-1.8638839721679688,6.399290561676025,-5.713129997253418,-39.00460433959961,-178.21937561035156, 6.079318523406982
317,2547041493,0.39534277,0.41082317,-0.5996824,0.56152445,-3.407442569732666,-8.120305061340332,-37.87431335449219,-189.23614501953125,-178.38540649414062, 10.376715660095215
318,2547058160,0.35961187,0.4333569,-0.60754704,0.5601498,20.65536117553711,-10.344084739685059,-1.540802240371704,127.62853240966797,-255.0910186767578, 63.25733184814453
319,2547074827,0.3355913,0.44769466,-0.6163466,0.5541346,1.1461623907089233,5.702566623687744,7.595320224761963,49.39951705932617,-191.01806640625, 43.479827880859375
320,2547091494,0.31218132,0.46243382,-0.6281669,0.54231364,11.32386302947998,-1.231884479522705,-4.486821174621582,12.186429023742676,-215.2935791015625, 35.452354431152344
321,2547108161,0.30069605,0.46887347,-0.63987035,0.52943903,7.576804161071777,5.439286708831787,1.6717966794967651,-47.708221435546875,-136.0836639404297, 24.276926040649414
322,2547124828,0.29599702,0.4726746,-0.65477943,0.51012594,13.978726387023926,2.1703646183013916,-2.790611743927002,-115.12285614013672,-124.31246185302734, 8.477927207946777
323,2547141495,0.29607344,0.47401485,-0.6672478,0.49237278,12.973213195800781,1.3474096059799194,3.0337071418762207,-120.11579132080078,-84.36772918701172, -1.6702922582626343
324,2547158162,0.29955375,0.47540164,-0.6784408,0.4732643,16.756175994873047,2.6635379791259766,4.475246429443359,-133.1168975830078,-71.11149597167969, -20.083633422851562
325,2547174829,0.30539948,0.47975704,-0.68738073,0.45174348,13.676199913024902,4.2211432456970215,9.554160118103027,-138.7694549560547,-73.44092559814453, -53.68061447143555
326,2547191496,0.31413394,0.48649904,-0.6941578,0.42753187,13.011678695678711,0.631889283657074,11.313591003417969,-149.4189910888672,-72.09003448486328, -86.47017669677734
327,2547208163,0.3219024,0.49435502,-0.6988673,0.40444583,9.5001859664917,-2.0499491691589355,6.709031581878662,-132.45962524414062,-72.32420349121094, -93.3172378540039
328,2547224830,0.3244936,0.5013855,-0.70133066,0.3891684,5.823376655578613,-8.347248077392578,17.212081909179688,-72.99752807617188,-63.77064895629883, -65.31439971923828
329,2547241497,0.32362387,0.5084806,-0.6993795,0.38416606,-0.6645589470863342,-7.375706195831299,19.230409622192383,0.27402740716934204,-35.94569778442383, -48.862667083740234
330,2547258164,0.31737974,0.5154803,-0.70078254,0.37743083,-0.41466352343559265,-9.904922485351562,8.855828285217285,1.516875982284546,-75.56358337402344, -26.551685333251953
331,2547274831,0.29215324,0.5344381,-0.7003554,0.37218952,0.9711071848869324,-10.107366561889648,-9.015593528747559,106.7461929321289,-188.9944610595703, -38.38899612426758
332,2547291498,0.25921813,0.556742,-0.6970265,0.3701329,8.274971008300781,-1.5529483556747437,13.457613945007324,164.53321838378906,-216.90841674804688, -39.26598358154297
333,2547308165,0.23771308,0.5690632,-0.7052395,0.34971023,3.508986711502075,-3.339195489883423,13.873451232910156,-14.501753807067871,-228.0426025390625, -9.008622169494629
334,2547324832,0.21842141,0.5805355,-0.7130894,0.32676324,8.952326774597168,-2.7745611667633057,13.127041816711426,-36.00032043457031,-224.89453125, -15.811895370483398
335,2547341499,0.20776568,0.58888614,-0.72283703,0.29589415,6.487305641174316,-2.3584794998168945,17.61244010925293,-118.3393783569336,-210.42025756835938, -24.259862899780273
336,2547358166,0.20324045,0.59419376,-0.733086,0.26117483,6.027528762817383,-6.058472156524658,18.60032844543457,-167.738037109375,-190.48052978515625, -25.162628173828125
337,2547374833,0.19782512,0.5990221,-0.7401753,0.23276243,6.214470863342285,-7.418724536895752,17.988258361816406,-127.40218353271484,-164.27980041503906, -25.4191951751709
338,2547391500,0.18819767,0.604893,-0.7431301,0.21550831,6.494229793548584,-7.146507263183594,17.380464553833008,-45.33865737915039,-136.11537170410156, -25.98882484436035
339,2547408167,0.17583816,0.61097085,-0.7433769,0.20781429,7.149501323699951,-5.408194065093994,16.019996643066406,19.052228927612305,-107.40774536132812, -21.971363067626953
340,2547424834,0.16279812,0.61696905,-0.74109924,0.20884953,7.603302478790283,-3.4847307205200195,14.164216995239258,69.97943115234375,-71.31927490234375, -20.63556480407715
341,2547441501,0.15374544,0.62113553,-0.73778373,0.21500768,7.559269428253174,-2.569396495819092,11.408496856689453,78.59210205078125,-25.710376739501953, -15.627032279968262
342,2547458168,0.14972086,0.62224853,-0.7344158,0.2258848,7.002516269683838,-1.8616098165512085,9.83140754699707,77.90547943115234,24.3488826751709, -2.7236416339874268
343,2547474835,0.15196604,0.6203966,-0.7307649,0.24082568,5.409901142120361,-0.4434523582458496,8.942694664001465,68.99334716796875,78.17436218261719, 5.561671733856201
344,2547491502,0.16188627,0.6157258,-0.7262111,0.25940698,4.461042404174805,-0.019803576171398163,6.7576117515563965,53.119651794433594,137.82687377929688, 7.038265228271484
345,2547508169,0.18013848,0.6072566,-0.72106737,0.28080475,4.479100704193115,-1.477183222770691,4.157507419586182,28.76081085205078,198.80467224121094, 11.823339462280273
346,2547524836,0.20331444,0.59524786,-0.7139863,0.30751702,4.119407653808594,-3.2709591388702393,2.2552919387817383,33.91565704345703,254.71139526367188, 18.35057258605957
347,2547541503,0.2280569,0.58044785,-0.7037114,0.34038314,3.6375162601470947,-3.483020782470703,0.29480889439582825,60.56039810180664,298.07427978515625, 24.238405227661133
348,2547558170,0.2542953,0.56229806,-0.69059235,0.37714332,3.398603916168213,-1.4583525657653809,-0.8606860041618347,74.83646392822266,333.32220458984375, 31.672645568847656
349,2547574837,0.28409368,0.5393918,-0.676903,0.41249198,2.7401721477508545,0.3716893494129181,-3.1239213943481445,47.54290771484375,358.2873840332031, 40.35318374633789
350,2547591504,0.31357035,0.5133197,-0.66152567,0.4478396,2.2251946926116943,0.8532754778862,-6.627249717712402,47.37267303466797,369.30670166015625, 49.75700378417969
351,2547608171,0.339611,0.48755622,-0.6417902,0.4848289,1.2884018421173096,2.178489923477173,-8.039960861206055,81.1217041015625,368.2492980957031, 47.12322235107422
352,2547624838,0.36248443,0.46427685,-0.61652464,0.5224456,0.8254530429840088,2.539076805114746,-10.904533386230469,118.83163452148438,361.37701416015625, 29.714509963989258
353,2547641505,0.38356438,0.4423722,-0.5885643,0.55747414,0.9048170447349548,1.0979357957839966,-14.303010940551758,126.78074645996094,347.72119140625, 15.3508882522583
354,2547658172,0.40136382,0.4228912,-0.5596682,0.5889326,1.205579400062561,-0.17780213057994843,-18.82956886291504,132.39584350585938,317.2648620605469, 5.882262706756592
355,2547674839,0.4159402,0.4049882,-0.5331607,0.61540073,2.4047939777374268,-2.4919488430023193,-23.80443572998047,117.3838119506836,277.9757080078125, 6.009702205657959
356,2547691506,0.42684993,0.38902888,-0.51152945,0.6362337,1.9263582229614258,-3.3062922954559326,-27.345138549804688,92.05131530761719,227.40457153320312, 11.764448165893555
357,2547708173,0.43684185,0.37442192,-0.5005096,0.64689094,1.187337040901184,0.2648516297340393,-29.467601776123047,16.501073837280273,160.70631408691406, 9.411223411560059
358,2547724840,0.44813022,0.3582377,-0.5064662,0.64369017,-0.4799145460128784,-0.9407086968421936,-30.47812843322754,-114.54832458496094,86.36991119384766, 11.136338233947754
359,2547741507,0.45454273,0.3467993,-0.52162355,0.63326937,-2.6861777305603027,-2.3573594093322754,-29.2407283782959,-153.5297088623047,3.093268632888794, 16.618268966674805
360,2547758174,0.45193422,0.34473845,-0.53900546,0.621598,-2.2630274295806885,-2.4810867309570312,-27.026365280151367,-116.6109619140625,-79.28015899658203, 23.645828247070312
361,2547774841,0.4401169,0.35288948,-0.55441636,0.6118732,-2.347264289855957,-0.5748170614242554,-23.15883445739746,-47.16562271118164,-145.68109130859375, 26.468666076660156
362,2547791508,0.4210785,0.36953905,-0.5665068,0.604321,-2.3485941886901855,2.302593231201172,-18.054542541503906,18.504981994628906,-193.17684936523438, 22.856536865234375
363,2547808175,0.4010529,0.38726923,-0.5792525,0.59468126,-2.426741123199463,6.158822536468506,-12.590479850769043,13.366284370422363,-208.42478942871094, 18.27898406982422
364,2547824842,0.3882524,0.3980797,-0.5988038,0.57639116,-3.9143190383911133,7.566577434539795,-25.954265594482422,-87.25772857666016,-193.03671264648438, 10.648061752319336
365,2547841509,0.36862057,0.40977374,-0.61843145,0.56013143,7.5450358390808105,-10.871963500976562,-22.45020294189453,-57.99656295776367,-218.79791259765625, 39.84196472167969
366,2547858176,0.34298265,0.42616802,-0.6238641,0.5581553,18.230430603027344,3.671142101287842,13.207247734069824,86.43301391601562,-185.8643035888672, 38.86298370361328
367,2547874843,0.3210811,0.44024456,-0.63434947,0.5483545,9.029681205749512,-2.240347385406494,-2.525831937789917,16.78797149658203,-196.6035919189453, 31.000715255737305
368,2547891510,0.3051128,0.4508443,-0.64241755,0.53939366,16.111570358276367,2.1192526817321777,3.760460138320923,3.845946788787842,-149.9883270263672, 18.3135986328125
369,2547908177,0.29781726,0.45575264,-0.6512498,0.52864736,17.306861877441406,1.9583439826965332,1.5146125555038452,-45.857017517089844,-98.19187927246094, 10.158387184143066
370,2547924844,0.29461077,0.46118373,-0.65233797,0.52437514,15.619192123413086,2.4949488639831543,2.504958391189575,-0.5997264981269836,-46.04969787597656, -17.792295455932617
371,2547941511,0.2922271,0.4690671,-0.65932006,0.5097809,11.231409072875977,2.7885382175445557,0.6129235029220581,-65.93468475341797,-96.281982421875, -33.72606658935547
372,2547958178,0.29613942,0.4745961,-0.66735184,0.49163142,13.571582794189453,4.526320457458496,4.757133483886719,-110.87914276123047,-73.36962890625, -48.65347671508789
373,2547974845,0.30898505,0.47565416,-0.6784415,0.46690324,10.62912368774414,3.62870717048645,9.338214874267578,-189.8095245361328,-45.42229461669922, -61.43702697753906
374,2547991512,0.3303261,0.47364616,-0.6906607,0.43535239,8.098844528198242,-0.17366722226142883,12.772124290466309,-259.75408935546875,-21.23849105834961, -84.95590209960938
375,2548008179,0.35032657,0.47046322,-0.70342,0.40141764,4.329803943634033,-12.880364418029785,4.111323356628418,-271.164306640625,-33.723392486572266, -78.91891479492188
376,2548024846,0.35044342,0.47351852,-0.7100354,0.3857712,1.2300363779067993,-20.150146484375,6.905124187469482,-86.46986389160156,-73.43083953857422, -30.31432342529297
377,2548041513,0.33711937,0.48890653,-0.7097482,0.3789177,-3.4721062183380127,-10.78611946105957,4.637778282165527,48.07609939575195,-126.78498840332031, -56.68181228637695
378,2548058180,0.3073908,0.5112411,-0.7082687,0.3774908,-0.12663455307483673,-9.719788551330566,2.1492254734039307,148.83741760253906,-204.0792999267578, -39.59022521972656
379,2548074847,0.27029383,0.5314798,-0.70984566,0.3749528,2.180081844329834,-7.045609951019287,14.758732795715332,156.8763885498047,-245.0070037841797, -2.100137948989868
380,2548091514,0.23378398,0.5472842,-0.71516144,0.36656427,4.430081367492676,-5.85392951965332,14.759417533874512,108.1280517578125,-259.5001525878906, 20.70585060119629
381,2548108181,0.19971424,0.56105113,-0.71978396,0.35671708,8.901200294494629,-1.1655824184417725,18.15439224243164,90.08051300048828,-247.19309997558594, 19.58089256286621
382,2548124848,0.1763664,0.5709946,-0.72825927,0.33540806,8.816946983337402,2.346982717514038,22.106325149536133,-22.849382400512695,-234.8348846435547, 11.437993049621582
383,2548141515,0.16539109,0.57820404,-0.7390859,0.30344382,8.741297721862793,1.0217535495758057,21.33823585510254,-133.61691284179688,-211.8921661376953, -6.971948623657227
384,2548158182,0.16265209,0.58343226,-0.74937624,0.26755694,8.454483032226562,-0.9416515827178955,20.439926147460938,-187.5093231201172,-181.453369140625, -20.67082977294922
385,2548174849,0.16301487,0.5871565,-0.7573296,0.23478836,7.966526031494141,-3.1050267219543457,18.771251678466797,-181.32452392578125,-148.0680389404297, -24.602392196655273
386,2548191516,0.16119936,0.5912414,-0.7609271,0.21316275,7.801593780517578,-2.95763897895813,15.407553672790527,-107.11970520019531,-110.52642059326172, -28.186447143554688
387,2548208183,0.1583524,0.5954383,-0.7614728,0.20133828,7.902632236480713,-2.8720622062683105,13.10831069946289,-47.0841178894043,-73.18589782714844, -28.875638961791992
388,2548224850,0.15566461,0.598664,-0.76022613,0.19856085,6.6856689453125,-3.308466911315918,10.086344718933105,1.034303903579712,-32.300167083740234, -21.526308059692383
389,2548241517,0.15130074,0.6017827,-0.75574124,0.20933503,5.783138751983643,-1.3717972040176392,8.189841270446777,83.05435943603516,18.137798309326172, -17.477991104125977
390,2548258184,0.15095876,0.602704,-0.7497242,0.22775695,6.021067142486572,-1.3803858757019043,8.360787391662598,106.09518432617188,75.31183624267578, -10.120326042175293
391,2548274851,0.15633824,0.6002073,-0.7427442,0.25227115,5.479247093200684,-2.8256547451019287,7.702152252197266,111.7649917602539,136.2925567626953, 0.9915826320648193
392,2548291518,0.166537,0.59410346,-0.7336396,0.2847447,5.082343578338623,-4.290536403656006,5.769705772399902,132.3155517578125,202.23805236816406, 10.935582160949707
393,2548308185,0.1791854,0.58485,-0.7204836,0.3267211,5.046767234802246,-3.215177297592163,3.64461612701416,174.54335021972656,264.2464599609375, 16.445924758911133
394,2548324852,0.20087898,0.57022005,-0.7062536,0.3683784,3.5208051204681396,1.1393345594406128,2.312544822692871,132.33456420898438,321.24603271484375, 18.134443283081055
395,2548341519,0.23710111,0.54664934,-0.69770956,0.39769226,0.5504062175750732,3.1177213191986084,-1.675081491470337,-11.367454528808594,358.326904296875, 30.036481857299805
396,2548358186,0.2764868,0.5177927,-0.69065636,0.4224211,-1.1674522161483765,2.448784828186035,-8.637904167175293,-57.93492889404297,368.5807800292969, 44.81705856323242
397,2548374853,0.31065133,0.48998493,-0.6783646,0.45081288,-3.588118076324463,1.6290289163589478,-12.1751127243042,-4.6463623046875,364.208984375, 43.234153747558594
398,2548391520,0.33574897,0.46860626,-0.65385926,0.49005008,-1.376573085784912,3.3255181312561035,-14.89193058013916,128.2555389404297,365.2359619140625, 23.336021423339844
399,2548408187,0.35890064,0.4494033,-0.62651294,0.52603114,0.3671714663505554,1.4506441354751587,-18.67338752746582,134.62269592285156,345.8233947753906, 3.5103814601898193
400,2548424854,0.37698233,0.4335684,-0.59963673,0.55708057,-0.6740926504135132,-0.266055703163147,-25.179061889648438,135.80435180664062,296.0461730957031, -3.352252960205078
401,2548441521,0.38844684,0.42181486,-0.5755976,0.58298284,-0.2962329387664795,-2.8567354679107666,-29.44171905517578,134.226318359375,231.26332092285156, 0.2260698527097702
402,2548458188,0.39145923,0.4150165,-0.5549284,0.6054548,-0.19683504104614258,-2.918987274169922,-32.906368255615234,145.14808654785156,159.9345703125, 14.957015037536621
403,2548474855,0.39280632,0.4108645,-0.5425303,0.6185098,0.2461249828338623,2.5415544509887695,-29.662973403930664,86.94142150878906,94.42430877685547, 9.860426902770996
404,2548491522,0.39967266,0.4029433,-0.5496555,0.61300683,-0.6048992872238159,0.7304480075836182,-27.09235954284668,-90.86994934082031,26.74323081970215, 5.4809393882751465
405,2548508189,0.4020811,0.39903644,-0.56347597,0.6013282,-3.553422212600708,-4.0143280029296875,-24.230653762817383,-118.85508728027344,-41.79399108886719, 10.712186813354492
406,2548524856,0.39676976,0.40135384,-0.57679105,0.5905939,-2.7502875328063965,-1.8998918533325195,-19.65680694580078,-74.50614166259766,-92.8362808227539, 19.64336395263672
407,2548541523,0.38615802,0.40887287,-0.5885954,0.5807414,-1.4015955924987793,2.3131203651428223,-14.908543586730957,-35.90999221801758,-127.98978424072266, 18.702409744262695
408,2548558190,0.37337646,0.41917628,-0.60027087,0.5696984,-1.8500367403030396,3.503901958465576,-13.166438102722168,-26.65692710876465,-150.62913513183594, 12.592612266540527
409,2548574857,0.35803023,0.43014982,-0.6163762,0.5539547,2.927447557449341,-6.971774101257324,-41.37871170043945,-54.25815963745117,-188.56661987304688, 20.620147705078125
410,2548591524,0.33316818,0.4496049,-0.6251873,0.5440548,21.7750301361084,4.827243804931641,4.156571388244629,47.63888931274414,-224.910888671875, 13.433496475219727
411,2548608191,0.31416348,0.46254125,-0.6382394,0.5291575,0.6347596049308777,4.384861469268799,8.419306755065918,-22.93499755859375,-201.02076721191406, 21.484159469604492
412,2548624858,0.28918046,0.47687775,-0.6488541,0.51763946,11.240615844726562,-3.7914998531341553,-4.342208385467529,22.676006317138672,-216.85606384277344, 36.714900970458984
413,2548641525,0.26783746,0.48771808,-0.65474087,0.51157486,7.54856014251709,6.929612636566162,-2.1924657821655273,44.915199279785156,-161.07086181640625, 34.63123321533203
414,2548658192,0.2601784,0.49261722,-0.67025626,0.49029812,9.914371490478516,1.2725502252578735,0.23155994713306427,-114.2961654663086,-147.5360565185547, 17.774757385253906
415,2548674859,0.25639248,0.49612257,-0.6858275,0.46665412,11.553707122802734,-2.3600194454193115,2.9714341163635254,-141.07400512695312,-133.42300415039062, 7.342350959777832
416,2548691526,0.2557256,0.49992865,-0.6943308,0.45008945,16.810731887817383,-2.959907293319702,6.762489318847656,-95.22352600097656,-83.48074340820312, -15.554678916931152
417,2548708193,0.26420084,0.5017796,-0.700353,0.43349856,15.34562873840332,1.9612362384796143,11.20809555053711,-122.70826721191406,-30.113243103027344, -42.89891815185547
418,2548724860,0.27851343,0.50485456,-0.70620406,0.4108872,10.95030689239502,2.188143253326416,11.882256507873535,-169.28977966308594,-26.810142517089844, -77.44778442382812
419,2548741527,0.28978607,0.5106489,-0.7114686,0.38610154,8.421878814697266,-3.9994730949401855,3.8701021671295166,-162.5736541748047,-56.313682556152344, -88.07284545898438
420,2548758194,0.2896662,0.5171873,-0.7107143,0.37880874,6.814872741699219,-10.67183780670166,20.833120346069336,-19.623762130737305,-40.93638610839844, -47.78481674194336
421,2548774861,0.28434414,0.523927,-0.7084711,0.37778,-2.8120415210723877,-9.204789161682129,14.295283317565918,33.540287017822266,-42.401519775390625, -28.279619216918945
422,2548791528,0.2679056,0.5382882,-0.70785743,0.3706894,-0.3770291805267334,-7.360882759094238,1.3945038318634033,54.582523345947266,-141.7348175048828, -42.782657623291016
423,2548808195,0.2452379,0.5576338,-0.70678437,0.35966498,6.181961536407471,-2.995166778564453,5.500083923339844,68.78492736816406,-198.51019287109375, -60.309688568115234
424,2548824862,0.22669639,0.5718923,-0.7110419,0.3405396,4.139443397521973,-0.9783564209938049,18.806364059448242,-8.21731948852539,-206.18994140625, -39.03755569458008
425,2548841529,0.21261737,0.582706,-0.71961045,0.31210357,6.765387535095215,-7.719566822052002,15.041755676269531,-86.83045196533203,-220.19862365722656, -30.215087890625
426,2548858196,0.19302799,0.59435123,-0.724019,0.2920333,8.684216499328613,-7.307339668273926,19.110260009765625,-13.343581199645996,-210.10960388183594, -27.083545684814453
427,2548874863,0.17499113,0.60389346,-0.72774804,0.27399606,6.691707611083984,-6.084349155426025,20.94970703125,-11.13828182220459,-189.5150604248047, -19.90627670288086
428,2548891530,0.15950221,0.61115557,-0.73064613,0.25923833,7.827062606811523,-5.3944854736328125,20.007190704345703,-6.6187567710876465,-158.3567657470703, -12.875113487243652
429,2548908197,0.14810531,0.61603034,-0.7328729,0.24792938,8.533992767333984,-3.6681249141693115,19.910594940185547,-8.027910232543945,-118.78610229492188, -7.264049530029297
430,2548924864,0.14259425,0.6181758,-0.7355387,0.23771517,7.997321128845215,-3.1496217250823975,16.532678604125977,-31.056137084960938,-80.73511505126953, -0.5960744023323059
431,2548941531,0.13866939,0.61965495,-0.7358018,0.23535961,9.420459747314453,-2.6833460330963135,11.558601379394531,5.155944347381592,-36.20985412597656, -2.3470821380615234
432,2548958198,0.14015251,0.61840236,-0.73596466,0.23725916,9.897343635559082,-2.2469706535339355,9.768570899963379,1.1645270586013794,13.515043258666992, 6.358850479125977
433,2548974865,0.14827178,0.6137219,-0.737028,0.24114518,7.453501224517822,-2.2475078105926514,6.612831115722656,-21.80122947692871,60.01974105834961, 18.612890243530273
434,2548991532,0.16106369,0.6057767,-0.7380906,0.24963139,5.527283191680908,-2.4452247619628906,4.149393081665039,-21.569242477416992,108.42002868652344, 32.052825927734375
435,2549008199,0.17642134,0.59596384,-0.737026,0.26551032,5.421018600463867,-1.3024319410324097,2.1103603839874268,6.810169219970703,157.79681396484375, 36.406253814697266
436,2549024866,0.19541574,0.5830192,-0.73500276,0.28578404,5.882224082946777,-1.8565973043441772,0.5010010600090027,12.118064880371094,201.16329956054688, 47.03022766113281
437,2549041533,0.21474622,0.5673523,-0.73074174,0.31306928,4.86420202255249,-2.5683681964874268,-0.6706891655921936,46.92799377441406,239.4000244140625, 60.57369613647461
438,2549058200,0.23366179,0.54971904,-0.7231766,0.34673747,3.89620304107666,0.1107228472828865,-1.9137122631072998,84.80529022216797,271.4610595703125, 67.89441680908203
439,2549074867,0.25641957,0.52928877,-0.713751,0.38034457,2.327409505844116,3.209638833999634,-3.4211130142211914,69.92423248291016,300.1784362792969, 65.5761947631836
440,2549091534,0.2824514,0.5058406,-0.7037887,0.4111302,-0.3049420714378357,4.287353515625,-6.5144572257995605,40.28004455566406,315.06903076171875, 64.98198699951172
441,2549108201,0.3081767,0.48269102,-0.69122666,0.4407294,-2.5396485328674316,6.963631629943848,-8.97677230834961,43.60689926147461,314.0346374511719, 53.12393569946289
442,2549124868,0.33302027,0.46134177,-0.67525965,0.4693461,-4.506683349609375,6.572357654571533,-13.129068374633789,56.108699798583984,308.8059997558594, 33.97000503540039
443,2549141535,0.35584944,0.44348332,-0.65421927,0.49868906,-5.625114917755127,5.822093963623047,-16.41678810119629,90.38911437988281,302.7042541503906, 9.92724609375
444,2549158202,0.37597704,0.42852336,-0.6308713,0.52631783,-4.6552934646606445,3.59859037399292,-19.316713333129883,106.08670806884766,281.6971130371094, -5.007871150970459
445,2549174869,0.39201322,0.41667688,-0.6077911,0.5507231,-3.2797210216522217,1.1862640380859375,-23.34036636352539,111.41204071044922,243.1943817138672, -11.237580299377441
446,2549191536,0.40180624,0.40916732,-0.58478546,0.5737246,-2.352851390838623,-1.060182809829712,-26.282672882080078,135.0458526611328,197.25592041015625, -9.341836929321289
447,2549208203,0.40706262,0.4040137,-0.5658368,0.59236985,-1.3560752868652344,0.007723212242126465,-27.277189254760742,121.02825164794922,147.10763549804688, -1.669739007949829
448,2549224870,0.4119425,0.39853758,-0.55740917,0.6006383,-0.6088947057723999,0.829555094242096,-25.96489143371582,38.169090270996094,89.53215789794922, 1.1977218389511108
449,2549241537,0.4159966,0.39375117,-0.56016773,0.5984305,-0.7120833396911621,-0.5124908685684204,-25.639387130737305,-43.754695892333984,23.913843154907227, 2.9048573970794678
450,2549258204,0.41592675,0.392945,-0.570072,0.5895908,-1.765950322151184,-2.048969268798828,-24.53321075439453,-75.94651794433594,-45.993900299072266, 4.89145040512085
451,2549274871,0.408914,0.39920646,-0.58180636,0.578727,-1.4791821241378784,-1.6332857608795166,-21.705690383911133,-52.1314697265625,-111.88932037353516, 4.419689655303955
452,2549291538,0.39564905,0.41141555,-0.59355325,0.56735694,-1.6266237497329712,0.420871764421463,-17.586671829223633,-20.171579360961914,-161.44972229003906, 4.023920059204102
453,2549308205,0.3791849,0.42692128,-0.6046683,0.55527794,-2.241394519805908,3.4734573364257812,-11.260055541992188,-2.500352144241333,-187.27725219726562, -0.7439360618591309
454,2549324872,0.36527187,0.43863398,-0.6215661,0.5365001,-2.3593173027038574,-3.2160942554473877,-33.97833251953125,-69.81082916259766,-196.77796936035156, 4.835326194763184
455,2549341539,0.3413989,0.45682472,-0.63206214,0.5246483,20.8533992767334,0.43758490681648254,-3.6253445148468018,29.943504333496094,-225.39134216308594, 11.76701545715332
456,2549358206,0.31890458,0.47140768,-0.6424189,0.51319855,8.619256019592285,2.676516056060791,8.88149356842041,19.296220779418945,-205.09181213378906, 23.092838287353516
457,2549374873,0.29134616,0.48822665,-0.65338945,0.49983448,10.255724906921387,-2.781557083129883,-2.728656530380249,29.84559440612793,-243.55227661132812, 28.961009979248047
458,2549391540,0.26936966,0.4995742,-0.66021156,0.4919211,5.529539585113525,3.040172815322876,0.09879425168037415,38.8343505859375,-173.30422973632812, 31.29314422607422
459,2549408207,0.25544322,0.5068279,-0.6704636,0.47786295,10.21469497680664,2.543679714202881,-1.9584691524505615,-35.944576263427734,-150.66754150390625, 23.1540470123291
460,2549424874,0.24776082,0.5114149,-0.6811835,0.4615825,9.337922096252441,0.3487296998500824,-0.9715983867645264,-74.20933532714844,-121.97177124023438, 12.876813888549805
461,2549441541,0.24348837,0.5156631,-0.6916487,0.443201,10.211418151855469,-0.22396831214427948,0.23872341215610504,-95.8676986694336,-112.18402862548828, -0.6542881727218628
462,2549458208,0.24261563,0.51968205,-0.69947624,0.4263818,14.311946868896484,-0.03283855319023132,3.723538398742676,-92.91426849365234,-85.70901489257812, -16.4859561920166
463,2549474875,0.24947235,0.52189624,-0.70563537,0.40922686,14.754091262817383,0.4890022277832031,8.607141494750977,-120.3829345703125,-42.174015045166016, -36.766876220703125
464,2549491542,0.2628219,0.5236028,-0.71044254,0.38991848,10.327903747558594,-0.608203649520874,7.336723804473877,-151.3484344482422,-15.30260181427002, -60.89425277709961
465,2549508209,0.27658305,0.5273409,-0.7156472,0.36505127,9.318650245666504,-5.020557880401611,6.57629919052124,-177.5144805908203,-39.98994827270508, -80.41380310058594
466,2549524876,0.28110787,0.5292182,-0.71634966,0.35742098,6.944087505340576,-12.957696914672852,14.835746765136719,-51.55828094482422,-10.158693313598633, -31.655359268188477
467,2549541543,0.27817297,0.53481895,-0.7142385,0.35560083,-1.7440154552459717,-6.627109527587891,13.117329597473145,18.101051330566406,-30.0741024017334, -30.95717430114746
468,2549558210,0.27091193,0.5440881,-0.71411556,0.3472951,-0.03444231301546097,-3.3768057823181152,5.140477180480957,4.19416618347168,-88.28620147705078, -43.67818069458008
469,2549574877,0.25243995,0.557849,-0.7139057,0.33973148,3.120215892791748,-6.903513431549072,0.2942166328430176,58.30182647705078,-151.2727508544922, -37.998016357421875
470,2549591544,0.233267,0.5692879,-0.71693766,0.327869,4.572620391845703,-3.1436569690704346,16.1312198638916,28.211519241333008,-171.48655700683594, -20.135122299194336
471,2549608211,0.21872528,0.57547593,-0.7264381,0.30540827,2.336717128753662,-8.612550735473633,15.032317161560059,-65.26541137695312,-189.19459533691406, 3.588020086288452
472,2549624878,0.19840871,0.5835494,-0.7322504,0.28967836,5.100271701812744,-6.4945807456970215,15.964766502380371,1.6242252588272095,-190.20733642578125, 1.6539524793624878
473,2549641545,0.17930086,0.5908037,-0.7369904,0.275041,4.707557201385498,-2.70711350440979,19.34345054626465,3.1480400562286377,-177.09144592285156, 0.47293320298194885
474,2549658212,0.16520981,0.595996,-0.7422837,0.25789475,5.138651371002197,-3.072758197784424,18.01940155029297,-33.63711929321289,-159.11740112304688, 0.5781901478767395
475,2549674879,0.1556539,0.6001803,-0.7462457,0.24222457,5.798710823059082,-2.917046070098877,18.432647705078125,-43.56955337524414,-127.03951263427734, -6.129444599151611
476,2549691546,0.15124579,0.60259515,-0.74976647,0.22771516,6.516855239868164,-3.231569528579712,16.753896713256836,-60.10211944580078,-92.83010864257812, -6.245017051696777
477,2549708213,0.14934067,0.6035133,-0.7524111,0.21759309,7.497567176818848,-4.330147743225098,12.659122467041016,-48.117916107177734,-58.87199783325195, -1.5766730308532715
478,2549724880,0.14815246,0.6029296,-0.7540511,0.21432178,8.027057647705078,-4.750463008880615,8.321930885314941,-15.775331497192383,-23.77482795715332, 7.925111293792725
479,2549741547,0.14664404,0.6005521,-0.75487405,0.21908456,7.308124542236328,-4.288623809814453,6.512365818023682,26.49727439880371,11.095351219177246, 22.457698822021484
480,2549758214,0.14617887,0.5963252,-0.7550731,0.2299844,5.772295951843262,-2.657088279724121,5.321836471557617,53.03934860229492,45.07847213745117, 34.10029220581055
481,2549774881,0.14983305,0.59042865,-0.75463855,0.24385375,5.25899076461792,-1.4113770723342896,2.97627592086792,50.84280014038086,81.81004333496094, 36.677162170410156
482,2549791548,0.15699722,0.58267355,-0.7532935,0.26151937,5.22236967086792,-1.6191810369491577,0.8955322504043579,55.8875846862793,119.45167541503906, 40.70174026489258
483,2549808215,0.16704212,0.57283163,-0.75024426,0.28477117,4.689259052276611,-1.4331549406051636,0.923297643661499,74.08283996582031,162.36041259765625, 45.58243942260742
484,2549824882,0.18129411,0.55989987,-0.7463088,0.31091464,3.135303020477295,0.18524840474128723,0.8790446519851685,70.60478973388672,202.56314086914062, 53.16238021850586
485,2549841549,0.2004548,0.54380625,-0.74175966,0.33746922,1.3504445552825928,1.7958524227142334,-0.9085016250610352,51.194366455078125,236.9580841064453, 57.08726501464844
486,2549858216,0.22411504,0.52501625,-0.73639,0.3631255,-0.6720712184906006,3.9699320793151855,-2.220547676086426,28.011417388916016,264.1249084472656, 56.12260437011719
487,2549874883,0.25140363,0.50374013,-0.73093206,0.38572094,-2.7412543296813965,5.013073444366455,-4.631870269775391,-4.129871845245361,278.0541687011719, 54.645172119140625
488,2549891550,0.27842346,0.48310873,-0.72276527,0.40828496,-4.305027961730957,5.839082717895508,-6.902808666229248,5.049249172210693,279.91851806640625, 42.70268630981445
489,2549908217,0.30308726,0.46491256,-0.7094252,0.4344082,-6.065873146057129,6.443794250488281,-9.741312026977539,49.890350341796875,283.5285949707031, 26.901731491088867
490,2549924884,0.3257401,0.44963163,-0.6909436,0.46294922,-6.321151256561279,6.071300506591797,-12.63658332824707,89.71680450439453,283.97125244140625, 7.371906280517578
491,2549941551,0.34596798,0.43671212,-0.6701445,0.4904032,-5.0973219871521,4.243585586547852,-16.184585571289062,104.89161682128906,267.32159423828125, -5.650306701660156
492,2549958218,0.36296213,0.42621145,-0.64814615,0.5162451,-2.5003929138183594,1.8270939588546753,-20.917869567871094,117.1509017944336,242.8956756591797, -13.286981582641602
493,2549974885,0.37536404,0.4186333,-0.6270187,0.53916204,-0.09425854682922363,1.0439887046813965,-23.373422622680664,121.97486114501953,202.0172576904297, -14.769937515258789
494,2549991552,0.38342035,0.41326937,-0.6122535,0.5543854,1.6923128366470337,0.6198427081108093,-27.785640716552734,83.63850402832031,137.245361328125, -9.776644706726074
495,2550008219,0.38823637,0.40953213,-0.60853213,0.5578929,2.422720193862915,-0.39008569717407227,-29.200490951538086,5.95040225982666,55.858612060546875, -3.8121471405029297
496,2550024886,0.38897198,0.40867606,-0.61606234,0.5496835,0.38453325629234314,-1.669162631034851,-28.88675880432129,-66.80825805664062,-34.41318130493164, 0.16439197957515717
497,2550041553,0.3821495,0.41460973,-0.62736344,0.53709924,-0.666496753692627,-1.5370341539382935,-25.906757354736328,-59.95832443237305,-113.63455200195312, -1.1866157054901123
498,2550058220,0.36785072,0.4271341,-0.6393363,0.5229643,-1.2924704551696777,0.3391973376274109,-20.36197280883789,-30.305078506469727,-175.71253967285156, -4.248727321624756
499,2550074887,0.3495333,0.44198328,-0.6522637,0.5069807,-3.666469097137451,0.44111934304237366,-29.23231315612793,-24.06231689453125,-209.0926513671875, -1.9547847509384155
500,2550091554,0.32631654,0.46251687,-0.6597005,0.49435925,10.18443775177002,7.172358512878418,-11.892178535461426,38.885135650634766,-226.69863891601562, -19.13915252685547
501,2550108221,0.30751693,0.47884998,-0.6684547,0.47885764,6.689599990844727,7.265987873077393,6.111319541931152,-2.161238670349121,-204.4110107421875, -17.21277618408203
502,2550124888,0.28581798,0.49506238,-0.6749215,0.46658584,5.294286251068115,0.9513141512870789,-6.081432342529297,29.379728317260742,-202.33888244628906, -7.6415629386901855
503,2550141555,0.26024237,0.51268405,-0.67381686,0.46411207,7.04091739654541,4.717692852020264,-1.7829166650772095,115.08345794677734,-176.6950225830078, -8.351203918457031
504,2550158222,0.23952149,0.52589333,-0.6756448,0.457788,9.77115535736084,0.659841775894165,-0.8676605224609375,62.82907485961914,-159.166748046875, 0.07307416945695877
505,2550174889,0.22574374,0.533758,-0.68061084,0.4482311,12.575010299682617,-0.5053156614303589,2.903740882873535,3.9707024097442627,-127.24593353271484, 9.117435455322266
506,2550191556,0.21970324,0.53820366,-0.68782854,0.4346945,15.614641189575195,1.2810550928115845,3.0923056602478027,-55.376747131347656,-99.05618286132812, 3.4971437454223633
507,2550208223,0.22478278,0.5371594,-0.69685644,0.4187167,14.288596153259277,1.4293261766433716,7.48028564453125,-121.84892272949219,-42.33858871459961, -0.48669543862342834
508,2550224890,0.23778713,0.5342639,-0.7046866,0.4017915,15.132171630859375,2.263453483581543,9.444160461425781,-155.17750549316406,-1.2959864139556885, -20.036136627197266
509,2550241557,0.2560215,0.53354114,-0.7106811,0.38041997,11.254012107849121,1.3930747509002686,6.754825115203857,-187.44000244140625,4.033261775970459, -58.741737365722656
510,2550258224,0.26889318,0.5375209,-0.7146215,0.35788855,12.297781944274902,-11.285749435424805,11.94716739654541,-159.87074279785156,-35.62932205200195, -77.10026550292969
511,2550274891,0.26752755,0.5410659,-0.7117279,0.35933325,-0.15340542793273926,-12.586335182189941,20.213945388793945,26.378528594970703,-3.9144301414489746, -21.05286407470703
512,2550291558,0.25783512,0.54875344,-0.711091,0.35600653,-3.7876243591308594,-8.098491668701172,4.621405601501465,35.838584899902344,-77.37144470214844, -21.466808319091797
513,2550308225,0.23741108,0.5646687,-0.71182007,0.3436532,5.362144470214844,-7.815631866455078,-6.400987148284912,43.35316848754883,-186.52597045898438, -46.519378662109375
514,2550324892,0.20995593,0.5821884,-0.7119341,0.3318512,8.331419944763184,-2.9520950317382812,13.664322853088379,77.37560272216797,-221.55531311035156, -39.40959930419922
515,2550341559,0.1868302,0.59423435,-0.7191894,0.30780938,3.806487560272217,-3.953850746154785,16.66278648376465,-24.162429809570312,-247.7238311767578, -11.58120346069336
516,2550358226,0.16119169,0.60625166,-0.72446334,0.2857082,10.455336570739746,-5.77461051940918,15.263933181762695,-0.2459106147289276,-250.07737731933594, -11.788134574890137
517,2550374893,0.13744268,0.6167105,-0.7280506,0.26593268,9.423728942871094,-2.7292513847351074,20.52871322631836,4.924045085906982,-226.5907440185547, -12.229851722717285
518,2550391560,0.12053917,0.6242749,-0.7328461,0.24225609,8.088939666748047,-2.7201788425445557,20.712154388427734,-48.67768096923828,-205.30458068847656, -8.820043563842773
519,2550408227,0.108258,0.63018525,-0.73695433,0.21919188,10.13885498046875,-3.568444013595581,19.255186080932617,-65.75285339355469,-176.5605010986328, -10.663393020629883
520,2550424894,0.0984984,0.6356562,-0.73952895,0.19833364,10.091804504394531,-3.954440116882324,17.17669677734375,-63.606040954589844,-152.91522216796875, -17.299123764038086
521,2550441561,0.08846328,0.64022756,-0.7405968,0.18384652,11.433398246765137,-4.717329502105713,15.576310157775879,-28.640243530273438,-124.6432113647461, -14.67215633392334
522,2550458228,0.079922624,0.6429966,-0.74109036,0.17593482,11.19420337677002,-3.9287302494049072,12.776350021362305,-2.195539712905884,-85.87226104736328, -5.947808742523193
523,2550474895,0.075904325,0.6432193,-0.741907,0.17344084,9.375017166137695,-3.8914973735809326,10.765144348144531,3.555001735687256,-36.31779861450195, 5.951746463775635
524,2550491562,0.07544311,0.64062613,-0.7428578,0.17907864,6.115875244140625,-3.3420732021331787,8.858804702758789,27.593429565429688,20.834877014160156, 20.90655517578125
525,2550508229,0.080776595,0.63461185,-0.7440089,0.19285695,3.372725248336792,-1.7211943864822388,8.850430488586426,41.5449104309082,90.29478454589844, 36.353126525878906
526,2550524896,0.09490827,0.62518805,-0.7451486,0.211863,1.6533708572387695,-1.3395408391952515,7.079372406005859,27.955821990966797,162.63816833496094, 44.9810791015625
527,2550541563,0.116153374,0.6117738,-0.7455302,0.23754187,1.4699716567993164,-1.7017669677734375,5.207393169403076,30.0097713470459,234.16123962402344, 56.129913330078125
528,2550558230,0.14012702,0.59487045,-0.74333733,0.27192506,2.6278414726257324,-1.8584022521972656,2.8720152378082275,64.52181243896484,292.6408996582031, 65.6499252319336
529,2550574897,0.1666654,0.5754599,-0.7369723,0.31295457,2.8499464988708496,2.323869228363037,1.1974374055862427,93.3563461303711,341.7671203613281, 63.00103759765625
530,2550591564,0.20203821,0.5516995,-0.73020273,0.34872967,1.5236029624938965,5.379998683929443,-0.5202367305755615,27.658666610717773,375.6937255859375, 58.44770431518555
531,2550608231,0.24118255,0.5234871,-0.72339845,0.38011456,1.0385905504226685,4.324529647827148,-5.679546356201172,-14.754289627075195,388.8861083984375, 65.55720520019531
532,2550624898,0.27699035,0.49561155,-0.7120054,0.41315174,0.036261409521102905,6.498484134674072,-8.279157638549805,18.11324119567871,385.2618103027344, 58.82185745239258
533,2550641565,0.3103023,0.4690728,-0.6953407,0.44741997,-0.7338368892669678,5.338041305541992,-12.488641738891602,50.285362243652344,383.8709411621094, 43.82902908325195
534,2550658232,0.3413203,0.44459233,-0.67272633,0.4829882,-0.6571990847587585,5.819782257080078,-16.27873992919922,86.7452392578125,383.9806823730469, 24.704744338989258
535,2550674899,0.3716391,0.42062324,-0.6491792,0.5133488,0.6080760955810547,3.4956555366516113,-20.601613998413086,69.240234375,365.9106750488281, 9.679593086242676
536,2550691566,0.39725143,0.39919558,-0.6257566,0.53968775,3.031367301940918,0.2181169092655182,-26.010412216186523,71.13743591308594,324.6683044433594, 5.0755133628845215
537,2550708233,0.41415167,0.38356775,-0.6024488,0.56427795,4.264972686767578,-1.3801004886627197,-30.01958656311035,103.17867279052734,261.3824462890625, 7.979599952697754
538,2550724900,0.42419705,0.37160367,-0.58658046,0.581284,4.440358638763428,-1.4306292533874512,-33.93242645263672,71.68458557128906,178.53176879882812, 17.368518829345703
539,2550741567,0.42896974,0.3655183,-0.58173734,0.5864838,3.5741302967071533,1.2902843952178955,-36.22647476196289,10.951067924499512,72.52508544921875, 8.404731750488281
540,2550758234,0.43181157,0.36090857,-0.59273237,0.576153,0.08557209372520447,-3.0916526317596436,-33.82778549194336,-105.49744415283203,-25.760387420654297, 4.316103935241699
541,2550774901,0.42663217,0.36303568,-0.6110839,0.5592554,0.19759005308151245,-3.712066173553467,-30.404542922973633,-121.1582260131836,-122.28075408935547, 7.360008716583252
542,2550791568,0.4112408,0.37464872,-0.6294857,0.5424638,1.7565500736236572,-1.3834662437438965,-24.87360382080078,-67.28526306152344,-200.71533203125, 7.135833740234375
543,2550808235,0.38676932,0.3936857,-0.6447027,0.528942,1.2813091278076172,-0.714625895023346,-18.74627113342285,3.343238115310669,-249.67044067382812, 9.808602333068848
544,2550824902,0.3573939,0.41821077,-0.6470577,0.52790684,5.71494197845459,5.946277141571045,-7.115743160247803,133.4781036376953,-222.9756317138672, 1.4544624090194702
545,2550841569,0.33856282,0.43272513,-0.66754436,0.5025024,7.9737043380737305,8.363790512084961,-2.222673177719116,-95.78248596191406,-254.38600158691406, 0.02885381504893303
546,2550858236,0.30577502,0.4572501,-0.6788981,0.48633483,12.913456916809082,2.372027635574341,-2.1179771423339844,42.93859100341797,-304.5229797363281, -3.16754150390625
547,2550874903,0.27332616,0.4798424,-0.68395966,0.47670048,9.302572250366211,2.9318501949310303,-2.5395312309265137,89.25923919677734,-262.95721435546875, -1.342918872833252
548,2550891570,0.24748604,0.49737585,-0.6872092,0.46809366,6.645671367645264,2.9784138202667236,-1.1132532358169556,68.63752746582031,-208.70957946777344, -3.2875912189483643
549,2550908237,0.23208144,0.5072853,-0.695285,0.45318726,9.410232543945312,1.2011654376983643,-1.2348014116287231,-25.395238876342773,-164.8556671142578, 4.991552829742432
550,2550924904,0.22476475,0.51179147,-0.70430046,0.43762022,11.241445541381836,0.4302874207496643,-0.9605669975280762,-68.37065887451172,-113.44729614257812, 7.99772310256958
551,2550941571,0.2238761,0.5130914,-0.7129068,0.42235127,12.066274642944336,0.8286003470420837,-1.165374994277954,-93.32794189453125,-71.32898712158203, 3.4044203758239746
552,2550958238,0.22703972,0.5127502,-0.717829,0.41262776,16.99223518371582,0.9431810975074768,5.61032772064209,-72.32611846923828,-21.813175201416016, -4.558281898498535
553,2550974905,0.23530844,0.51214,-0.71907413,0.40654036,14.869528770446777,3.5119524002075195,5.564898490905762,-62.4986572265625,22.094207763671875, -24.746261596679688
554,2550991572,0.25129777,0.51492465,-0.72509,0.3820297,10.055140495300293,6.974269866943359,11.220968246459961,-188.7577362060547,-22.373088836669922, -75.8307113647461
555,2551008239,0.27420652,0.5161336,-0.7337124,0.34653005,7.31998872756958,-3.314279556274414,2.4524989128112793,-277.77532958984375,-27.78282356262207, -95.59915161132812
556,2551024906,0.2836116,0.5187755,-0.7384484,0.3242388,6.863692283630371,-18.84734344482422,14.014260292053223,-151.29623413085938,-45.45658493041992, -59.51651382446289
557,2551041573,0.27689987,0.5272167,-0.7365685,0.3206806,-3.0228288173675537,-15.33026123046875,9.527647972106934,27.102588653564453,-61.083831787109375, -40.52782440185547
558,2551058240,0.25311828,0.54513973,-0.73216915,0.32044122,-2.1865687370300293,-8.941584587097168,5.506109237670898,129.2193145751953,-151.84181213378906, -54.147396087646484
559,2551074907,0.2150345,0.5659116,-0.7298489,0.31752962,3.6757025718688965,-8.986539840698242,-4.211338520050049,169.66995239257812,-243.91009521484375, -34.089900970458984
560,2551091574,0.17086804,0.5873033,-0.72627336,0.31369767,9.831602096557617,-1.9151805639266968,8.705361366271973,192.30404663085938,-277.5539855957031, -30.36906623840332
561,2551108241,0.13608219,0.60174114,-0.7283667,0.29811317,9.18492317199707,-3.7275359630584717,20.38606834411621,75.2220458984375,-270.2418518066406, -6.745670795440674
562,2551124908,0.102347665,0.6141922,-0.7312042,0.27862826,8.718647003173828,-4.213527202606201,19.266454696655273,47.803016662597656,-278.3894348144531, 0.49427834153175354
563,2551141575,0.0734723,0.62552184,-0.73240125,0.2586754,12.481152534484863,-0.6605029106140137,18.74811553955078,27.12869644165039,-253.17568969726562, -10.42158031463623
564,2551158242,0.056405075,0.6345941,-0.73545873,0.23067181,12.817712783813477,-0.42606231570243835,19.71746253967285,-68.73765563964844,-225.86111450195312, -16.031835556030273
565,2551174909,0.04781993,0.6419041,-0.73882234,0.19953462,12.034950256347656,-4.4984235763549805,19.053504943847656,-122.8306655883789,-194.55203247070312, -20.428613662719727
566,2551191576,0.037796583,0.6483983,-0.73897094,0.17909008,13.177003860473633,-4.805454730987549,17.57168197631836,-58.1312370300293,-152.9875030517578, -25.05042266845703
567,2551208243,0.029027067,0.6537358,-0.737121,0.1686409,12.576817512512207,-2.320012092590332,15.737601280212402,-10.878698348999023,-100.60344696044922, -27.056076049804688
568,2551224910,0.027186722,0.6568649,-0.73560643,0.16331732,9.838133811950684,-1.4167908430099487,13.20108699798584,-16.918813705444336,-40.38398361206055, -21.356266021728516
569,2551241577,0.031960335,0.65731883,-0.7348629,0.16397321,6.6134514808654785,-1.630821943283081,11.175535202026367,-17.936323165893555,22.631088256835938, -10.662908554077148
570,2551258244,0.041005787,0.6545814,-0.73457575,0.17389686,3.6612157821655273,-2.2675461769104004,8.115851402282715,8.328723907470703,89.43441009521484, 4.716142654418945
571,2551274911,0.053076047,0.648768,-0.73335224,0.19615695,1.2314304113388062,0.02229665219783783,7.1827192306518555,57.22169876098633,164.15672302246094, 15.886388778686523
572,2551291578,0.07446652,0.6389125,-0.73284733,0.22176678,0.027562588453292847,-1.03178071975708,4.989484786987305,30.069868087768555,231.36209106445312, 28.12775421142578
573,2551308245,0.094466284,0.6251771,-0.7301133,0.25916123,0.7388728857040405,-2.359830379486084,1.67718505859375,96.94318389892578,283.33831787109375, 46.0372428894043
574,2551324912,0.11330103,0.60911995,-0.72355807,0.3043021,-0.18858283758163452,2.1866750717163086,-0.1449320912361145,146.10317993164062,317.5806884765625, 48.40007400512695
575,2551341579,0.14095934,0.5895795,-0.7168463,0.3444676,-1.9674813747406006,5.608205795288086,-1.007193922996521,81.99833679199219,348.2519836425781, 42.8109245300293
576,2551358246,0.17596483,0.56549066,-0.71228856,0.3766988,-2.9106526374816895,3.9337878227233887,-4.208128929138184,3.6200857162475586,361.2340393066406, 48.90882873535156
577,2551374913,0.20947614,0.54042655,-0.7047544,0.40912133,-3.7201859951019287,4.1183366775512695,-6.450584411621094,16.948925018310547,361.1071472167969, 46.18125915527344
578,2551391580,0.2409145,0.5157751,-0.69238687,0.44332457,-5.3043365478515625,4.149585723876953,-9.580650329589844,47.558170318603516,363.8644714355469, 34.59955596923828
579,2551408247,0.27323556,0.49120033,-0.6762189,0.4762276,-4.580151557922363,6.09821891784668,-12.313693046569824,50.0606803894043,369.9997253417969, 15.890992164611816
580,2551424914,0.30745354,0.46554098,-0.6610419,0.5017646,-2.717358350753784,3.6601204872131348,-18.71773910522461,4.241669178009033,356.12799072265625, 4.255032539367676
581,2551441581,0.33917454,0.4394763,-0.6466154,0.5231729,0.8368921279907227,-0.3708339035511017,-25.009960174560547,-9.806859016418457,332.0088195800781, 8.374519348144531
582,2551458248,0.36186266,0.41784415,-0.6322759,0.5428529,3.606210231781006,-1.9956910610198975,-30.22930145263672,20.05999183654785,271.2262878417969, 17.33683967590332
583,2551474915,0.37207165,0.40606937,-0.61734945,0.56173855,4.913094520568848,0.24162724614143372,-34.28279495239258,79.46024322509766,180.2484588623047, 17.33443260192871
584,2551491582,0.37650838,0.40183237,-0.61053616,0.56922567,5.393336296081543,2.628016948699951,-34.9468879699707,35.44489669799805,75.06758880615234, 1.1046192646026611
585,2551508249,0.37883285,0.4004938,-0.61876035,0.55966604,1.0012006759643555,-1.2390546798706055,-32.77702331542969,-81.33621978759766,-30.144298553466797, -5.315045356750488
586,2551524916,0.37325662,0.40538535,-0.6340329,0.5425354,1.2658233642578125,-1.684688687324524,-29.305883407592773,-102.40296936035156,-126.01947784423828, -1.7443355321884155
587,2551541583,0.35535115,0.41932562,-0.6504928,0.52416676,4.8092522621154785,-8.923850059509277,-51.06396484375,-54.39557647705078,-219.26910400390625, 4.8885321617126465
588,2551558250,0.3249413,0.44429195,-0.6599713,0.5113275,21.499439239501953,5.74716854095459,1.5843212604522705,58.936302185058594,-280.5912170410156, -6.339905261993408
589,2551574917,0.29966417,0.46445584,-0.671739,0.4932027,3.3244667053222656,8.20034122467041,20.432161331176758,0.31039226055145264,-262.0650939941406, -7.207648754119873
590,2551591584,0.2691555,0.48577365,-0.6852981,0.47111127,0.0723884105682373,-4.544034004211426,-10.54108715057373,-5.246306419372559,-307.35906982421875, 2.9086694717407227
591,2551608251,0.23665516,0.50527346,-0.6880762,0.4639443,8.723902702331543,4.998720169067383,-4.218021869659424,103.32576751708984,-240.8794403076172, 9.260525703430176
592,2551624918,0.21573241,0.5177286,-0.69608456,0.44819975,0.3674784004688263,3.6811976432800293,-2.153611421585083,-5.657113075256348,-202.08644104003906, 9.943947792053223
593,2551641585,0.20772548,0.52268326,-0.7096451,0.42433038,3.5645198822021484,-0.4877505302429199,-1.7957098484039307,-118.77010345458984,-154.40846252441406, 13.85456371307373
594,2551658252,0.2023404,0.5250596,-0.72090155,0.40456387,7.123527526855469,-4.468945503234863,-3.858351230621338,-105.15562438964844,-116.21663665771484, 16.483428955078125
595,2551674919,0.19614701,0.52788496,-0.7273237,0.39225534,14.086343765258789,-2.593949794769287,0.8655399680137634,-51.246063232421875,-88.00537109375, 9.468103408813477
596,2551691586,0.19647403,0.52919304,-0.72986114,0.38555863,17.440046310424805,-0.6418042778968811,4.4078450202941895,-38.51084518432617,-26.139144897460938, -6.9337968826293945
597,2551708253,0.20760672,0.52828044,-0.73199254,0.37683737,16.783008575439453,2.918027400970459,7.358922004699707,-90.03441619873047,26.57230567932129, -28.424123764038086
598,2551724920,0.22440061,0.5299883,-0.73540837,0.35767528,10.906136512756348,2.6802968978881836,8.922924995422363,-162.8661651611328,7.892935752868652, -66.2148666381836
599,2551741587,0.23849218,0.5355982,-0.7385456,0.33287662,9.40149211883545,-5.409409523010254,6.306811332702637,-174.93141174316406,-36.018375396728516, -88.80437469482422
600,2551758254,0.24041083,0.5416018,-0.7380127,0.32281217,8.0156888961792,-14.8889741897583,17.63884162902832,-46.35956573486328,-38.88356399536133, -52.332557678222656
601,2551774921,0.2320085,0.5497363,-0.7340388,0.32426712,-2.1765568256378174,-8.44215202331543,17.54338264465332,61.41813278198242,-48.05460739135742, -34.3156852722168
602,2551791588,0.22169906,0.5596151,-0.73508024,0.31198996,-2.5438027381896973,-3.836378335952759,6.913623332977295,-9.247727394104004,-121.86640930175781, -42.04167175292969
603,2551808255,0.1958049,0.5750944,-0.73683864,0.29664096,6.093035697937012,-11.037569046020508,-3.3201632499694824,42.13041305541992,-225.69932556152344, -38.961700439453125
604,2551824922,0.16169699,0.5905908,-0.7366024,0.2871827,12.212737083435059,-6.032940864562988,16.870410919189453,108.43121337890625,-241.4688262939453, -22.443359375
605,2551841589,0.13344646,0.60223526,-0.7397498,0.26884007,6.520194053649902,-3.9183690547943115,16.403791427612305,28.51987648010254,-244.69174194335938, -10.660022735595703
606,2551858256,0.10790709,0.6134212,-0.7415216,0.24943241,11.18858528137207,-3.5407721996307373,15.757452964782715,13.876004219055176,-233.6549530029297, -20.026933670043945
607,2551874923,0.085593864,0.6231618,-0.74238443,0.23067,10.497784614562988,-2.331333875656128,18.595565795898438,3.941406011581421,-211.8614044189453, -21.51456069946289
608,2551891590,0.068774976,0.6307662,-0.7436609,0.21064843,9.009735107421875,-2.3010950088500977,18.34638023376465,-28.030569076538086,-186.58209228515625, -18.26036834716797
609,2551908257,0.056259334,0.6369339,-0.74442166,0.19231907,9.379584312438965,-2.9031670093536377,16.65597915649414,-38.05393981933594,-155.3424835205078, -18.585853576660156
610,2551924924,0.046618097,0.64119303,-0.7449033,0.17837436,9.259344100952148,-4.1000165939331055,15.679571151733398,-28.64912986755371,-119.17832946777344, -12.156577110290527
611,2551941591,0.038453832,0.64435565,-0.74388206,0.17310917,8.460431098937988,-1.442269206047058,13.413397789001465,10.685916900634766,-71.86392211914062, -12.213774681091309
612,2551958258,0.03925672,0.6454181,-0.74396807,0.1685404,7.117923259735107,-1.2873506546020508,10.90662670135498,-27.387371063232422,-20.981258392333984, -7.04823637008667
613,2551974925,0.045419708,0.6434914,-0.74491966,0.17014892,5.615819931030273,-2.479968309402466,8.704314231872559,-21.418224334716797,36.88762283325195, 7.513298034667969
614,2551991592,0.055441655,0.6386654,-0.74598163,0.18040042,3.0261595249176025,-1.390146255493164,7.584400177001953,4.678396224975586,98.13777923583984, 20.991167068481445
615,2552008259,0.07061797,0.63105273,-0.74649245,0.19883329,1.792715311050415,-0.8185194730758667,6.139787197113037,23.584362030029297,164.1598358154297, 29.559532165527344
616,2552024926,0.09103212,0.6204982,-0.7461718,0.22343439,1.2084007263183594,-0.6871254444122314,3.943976640701294,32.19314956665039,222.2855682373047, 36.862735748291016
617,2552041593,0.11207823,0.6062846,-0.7443769,0.25643837,1.6847937107086182,-2.353787899017334,1.0233714580535889,72.56159973144531,268.0221862792969, 53.628597259521484
618,2552058260,0.13211937,0.58968055,-0.7388828,0.29811692,0.8857031464576721,2.1153600215911865,0.12853366136550903,125.80127716064453,306.2371520996094, 58.902809143066406
619,2552074927,0.15903004,0.5698684,-0.73277044,0.33616546,-0.518407940864563,5.570798873901367,-1.3607054948806763,77.86116790771484,333.7011413574219, 55.38254928588867
620,2552091594,0.19045633,0.5469313,-0.7265526,0.3697485,-1.7806826829910278,5.458276748657227,-4.663445472717285,34.54097366333008,346.4976806640625, 55.467864990234375
621,2552108261,0.22309735,0.5229374,-0.7183657,0.40089244,-3.2078166007995605,5.653398513793945,-6.121331691741943,21.480121612548828,348.9494934082031, 47.09132766723633
622,2552124928,0.25359797,0.49977165,-0.7056428,0.43357185,-4.497677326202393,4.0976409912109375,-9.875822067260742,50.636451721191406,348.9220886230469, 34.976905822753906
623,2552141595,0.28117236,0.47997934,-0.6847696,0.47079995,-3.4697704315185547,6.498215198516846,-12.663032531738281,113.08965301513672,354.9847412109375, 7.2688751220703125
624,2552158262,0.30974185,0.46123627,-0.6613663,0.5039005,-1.4367334842681885,5.08882474899292,-15.628583908081055,100.72901153564453,348.0401611328125, -17.12971305847168
625,2552174929,0.33845434,0.44222406,-0.6397422,0.52973264,1.5653446912765503,-0.5913653373718262,-21.97734832763672,60.61457443237305,323.3037414550781, -26.17206382751465
626,2552191596,0.36092332,0.424359,-0.6201816,0.55229414,3.9963042736053467,-4.958467960357666,-27.081823348999023,60.549259185791016,277.58697509765625, -9.856884002685547
627,2552208263,0.37317452,0.41236597,-0.60230684,0.57264453,5.146790981292725,-2.7254655361175537,-29.369369506835938,89.35142517089844,201.89720153808594, 3.2022719383239746
628,2552224930,0.3786081,0.4058715,-0.5930635,0.5832669,6.441174030303955,-0.8489251136779785,-33.13050079345703,48.78129196166992,103.1776351928711, 6.697676658630371
629,2552241597,0.37962517,0.40438116,-0.59578604,0.5808611,1.19880211353302,-3.725525379180908,-32.37636184692383,-26.68256378173828,-1.3860477209091187, 3.449098825454712
630,2552258264,0.37390435,0.4088523,-0.60669625,0.5700482,-0.042420029640197754,-4.308688163757324,-28.976667404174805,-59.2148323059082,-96.56932830810547, 6.635930061340332
631,2552274931,0.3604902,0.41944164,-0.6213231,0.5550436,1.1838454008102417,-2.7030060291290283,-23.51569938659668,-53.6444206237793,-173.16249084472656, 10.799088478088379
632,2552291598,0.34061742,0.434583,-0.6371767,0.53770214,1.2710381746292114,-4.278649806976318,-32.44594955444336,-38.21438980102539,-227.31187438964844, 13.637336730957031
633,2552308265,0.3137408,0.45394897,-0.6467016,0.52656823,11.322359085083008,0.546140193939209,-6.585501670837402,43.46155548095703,-239.3895263671875, 16.401460647583008
634,2552324932,0.28778002,0.47211948,-0.66409355,0.5032551,11.334405899047852,2.720081090927124,11.036847114562988,-44.68510437011719,-286.0910339355469, 16.711448669433594
635,2552341599,0.25458705,0.49389216,-0.6758124,0.48428693,7.372908592224121,0.7558255791664124,0.6152303218841553,25.200836181640625,-306.92266845703125, 15.600411415100098
636,2552358266,0.21711539,0.51469344,-0.68150604,0.47275904,10.187474250793457,3.0534393787384033,-5.398660182952881,92.59342956542969,-288.048095703125, 26.869203567504883
637,2552374933,0.18830141,0.5307248,-0.6871872,0.4589638,2.249412775039673,5.648821830749512,0.1556074619293213,44.21373748779297,-240.117431640625, 17.67501449584961
638,2552391600,0.1687765,0.5411259,-0.6955546,0.44147584,2.749981164932251,1.236151099205017,-3.6224119663238525,-22.932064056396484,-195.5953826904297, 20.074554443359375
639,2552408267,0.15538242,0.54777116,-0.7041763,0.42419198,4.403277397155762,-0.9284147024154663,-2.7782278060913086,-49.90587615966797,-154.5090789794922, 20.670700073242188
640,2552424934,0.14558886,0.551681,-0.7119516,0.4093618,10.374454498291016,-2.577479124069214,-1.2746176719665527,-52.06668472290039,-119.11724090576172, 22.9100399017334
641,2552441601,0.14373858,0.5524734,-0.71894056,0.39653113,13.560493469238281,-0.7168962955474854,2.6851744651794434,-73.3799819946289,-63.42112731933594, 14.964092254638672
642,2552458268,0.15148546,0.55011505,-0.7260152,0.38383275,16.933826446533203,1.011635422706604,6.509912490844727,-112.61907196044922,-7.467782497406006, 5.075660228729248
643,2552474935,0.1675149,0.54680175,-0.7302236,0.37379178,14.106169700622559,4.722146987915039,9.143064498901367,-124.22980499267578,48.782188415527344, -19.769445419311523
644,2552491602,0.1865333,0.54869556,-0.7359035,0.35012078,7.013608932495117,5.1208038330078125,1.5885698795318604,-201.80491638183594,-3.171250343322754, -63.4334716796875
645,2552508269,0.20163135,0.551788,-0.74152666,0.32405746,11.0095796585083,-8.557286262512207,13.22169017791748,-197.45565795898438,-35.14105987548828, -63.11665344238281
646,2552524936,0.20521922,0.5549739,-0.7403283,0.3190663,4.274769306182861,-9.768023490905762,18.041475296020508,-31.233352661132812,-5.278447151184082, -34.70628356933594
647,2552541603,0.20085436,0.5608095,-0.7378871,0.31728998,-1.6345707178115845,-5.468723297119141,17.119098663330078,21.701940536499023,-38.109336853027344, -31.170978546142578
648,2552558270,0.18951915,0.5707201,-0.7401234,0.30096245,0.08698637783527374,-10.184149742126465,-0.47724756598472595,-29.97545051574707,-145.3023223876953, -38.866355895996094
649,2552574937,0.15691328,0.5879245,-0.7360086,0.2966722,9.114079475402832,-8.949836730957031,3.7893989086151123,137.29638671875,-213.14866638183594, -41.441410064697266
650,2552591604,0.12664425,0.60146105,-0.7344176,0.28781354,6.910284996032715,-2.3844704627990723,20.94049072265625,95.47465515136719,-215.34239196777344, -22.47184181213379
651,2552608271,0.10191419,0.6114321,-0.73741716,0.2682913,5.970593452453613,-3.925990581512451,17.798274993896484,6.389828681945801,-228.99681091308594, -5.711370468139648
652,2552624938,0.07682377,0.62068385,-0.7378601,0.253796,10.6161470413208,-3.6664493083953857,17.1746826171875,37.466094970703125,-207.0157470703125, -8.641422271728516
653,2552641605,0.05820518,0.62749237,-0.7393313,0.23718116,9.941386222839355,-1.1160733699798584,20.02284049987793,-4.127472400665283,-180.0364532470703, -4.232534885406494
654,2552658272,0.04761358,0.6319707,-0.7424806,0.21695355,9.24930477142334,-2.470977306365967,20.21811294555664,-60.89731216430664,-152.2085418701172, 0.35051098465919495
655,2552674939,0.04252867,0.6351365,-0.745465,0.197674,7.41865873336792,-3.839632272720337,17.489179611206055,-80.29517364501953,-118.4288558959961, -1.6108860969543457
656,2552691606,0.038518507,0.63824177,-0.7459103,0.18649934,8.623583793640137,-1.8858656883239746,14.430816650390625,-40.140628814697266,-77.03962707519531, -11.554086685180664
657,2552708273,0.041119017,0.640763,-0.74566096,0.17810619,8.999696731567383,0.5422194004058838,13.141919136047363,-54.20566940307617,-30.32373809814453, -19.37873077392578
658,2552724940,0.05059144,0.641696,-0.74572605,0.17192917,7.266557693481445,0.33020156621932983,9.526199340820312,-73.94302368164062,16.214263916015625, -17.67371368408203
659,2552741607,0.06439274,0.63979274,-0.74639106,0.17152108,5.456214904785156,-0.864861249923706,6.893113136291504,-65.1435546875,66.80104064941406, -3.661076307296753
660,2552758274,0.07915594,0.6349423,-0.7466264,0.18202142,3.738419532775879,-0.9924817085266113,4.535263538360596,-14.206006050109863,123.28335571289062, 13.201094627380371
661,2552774941,0.097068794,0.62762696,-0.7458265,0.20101005,3.3796443939208984,0.40450119972229004,4.013816833496094,15.555649757385254,180.1497344970703, 21.975889205932617
662,2552791608,0.11930838,0.61641,-0.7454029,0.22400688,2.351742744445801,-2.7022430896759033,0.706043541431427,14.312798500061035,224.79586791992188, 40.300682067871094
663,2552808275,0.13640589,0.6024504,-0.7418826,0.26087824,1.468712568283081,-3.7885892391204834,-1.6047742366790771,109.69347381591797,264.1308898925781, 60.52665710449219
664,2552824942,0.15292132,0.5857965,-0.7354034,0.30436718,-0.4275873303413391,0.5301657915115356,-1.8128795623779297,148.58131408691406,296.3722229003906, 69.29591369628906
665,2552841609,0.17501743,0.5653383,-0.72838956,0.34526837,-2.311413049697876,2.3874568939208984,-4.2772932052612305,110.11370086669922,322.9269714355469, 72.04975128173828
666,2552858276,0.2005994,0.5428057,-0.7197939,0.3834307,-3.2470455169677734,4.285433769226074,-6.281672477722168,84.12785339355469,336.8997802734375, 64.76121520996094
667,2552874943,0.22784154,0.51992065,-0.70897365,0.41848215,-4.396612644195557,4.03341007232666,-9.26590633392334,67.9835205078125,337.889892578125, 49.57939910888672
668,2552891610,0.2545852,0.49797612,-0.69397295,0.45344022,-3.96359920501709,4.366915702819824,-11.889753341674805,82.9384994506836,339.4437561035156, 31.34867286682129
669,2552908277,0.28290257,0.47690096,-0.67653924,0.48458886,-1.9135388135910034,5.854806423187256,-13.799012184143066,68.6253662109375,335.9721984863281, 7.3170928955078125
670,2552924944,0.3141715,0.45472386,-0.66165566,0.5066896,-0.23560959100723267,3.417051315307617,-17.052148818969727,6.358442783355713,319.2574768066406, -6.5599517822265625
671,2552941611,0.3436994,0.43242264,-0.64995605,0.52195644,1.3195114135742188,-0.13458433747291565,-22.088314056396484,-30.485443115234375,284.096435546875, -4.716296672821045
672,2552958278,0.36457646,0.41458142,-0.6378852,0.53694403,2.490689277648926,-2.1439762115478516,-26.97715950012207,6.083967685699463,230.17909240722656, 4.5996904373168945
673,2552974945,0.37505487,0.4049084,-0.6241555,0.5530036,2.6047897338867188,0.21561312675476074,-28.47968864440918,67.29670715332031,162.485595703125, 5.056249141693115
674,2552991612,0.37847683,0.40184885,-0.61445516,0.5636648,2.090487480163574,1.4974207878112793,-27.607467651367188,65.78406524658203,82.53328704833984, 0.7715168595314026
675,2553008279,0.37712955,0.40332368,-0.6121731,0.5659924,0.2890699505805969,-0.1070551872253418,-27.313905715942383,27.057071685791016,3.335902452468872, -1.1065353155136108
676,2553024946,0.37178838,0.4087121,-0.61736494,0.5599896,-0.20832444727420807,0.4327648878097534,-24.552658081054688,-15.61469841003418,-70.36692810058594, -2.978273391723633
677,2553041613,0.3617903,0.41841632,-0.6278612,0.5475636,0.9488335847854614,0.38759833574295044,-22.392614364624023,-38.98078155517578,-137.66880798339844, -4.921629905700684
678,2553058280,0.34562436,0.43346685,-0.63945097,0.5326848,1.0847713947296143,-0.27400243282318115,-21.948305130004883,-22.482181549072266,-193.6173858642578, -7.7784423828125
679,2553074947,0.32187456,0.44949752,-0.6542397,0.5160615,8.268430709838867,-13.001349449157715,-35.92000198364258,-16.778797149658203,-242.82620239257812, 20.990135192871094
680,2553091614,0.29003927,0.4714673,-0.67035764,0.49418256,15.820646286010742,3.505014419555664,7.9558258056640625,-6.743630886077881,-318.6217041015625, 15.043899536132812
681,2553108281,0.26040566,0.48941782,-0.6832858,0.47516298,3.2288389205932617,-3.1097068786621094,14.961039543151855,1.9392595291137695,-279.7872619628906, 21.621387481689453
682,2553124948,0.22642668,0.50600076,-0.6938172,0.45968685,5.4890594482421875,-6.376578330993652,-10.707687377929688,38.380157470703125,-280.22637939453125, 40.397056579589844
683,2553141615,0.20005625,0.51864123,-0.70099896,0.44675437,6.7115092277526855,6.892875671386719,-0.865079402923584,28.479860305786133,-217.32510375976562, 27.24675750732422
684,2553158282,0.18628956,0.52628136,-0.71277523,0.42458883,4.148402690887451,4.803412914276123,-4.068392276763916,-81.98197937011719,-180.7013702392578, 16.549070358276367
685,2553174949,0.18104777,0.5303228,-0.724068,0.40212557,5.786710262298584,1.4597265720367432,-2.989265203475952,-117.4660873413086,-128.97288513183594, 7.412572860717773
686,2553191616,0.17401546,0.5342239,-0.7305248,0.38814554,10.536579132080078,0.18805710971355438,-4.298811435699463,-55.513301849365234,-100.72296905517578, 6.162998199462891
687,2553208283,0.16761395,0.5391198,-0.73372704,0.3780215,15.819936752319336,2.4020743370056152,2.8230016231536865,-28.61420249938965,-82.41055297851562, -7.700102806091309
688,2553224950,0.16666828,0.54346395,-0.7357108,0.36823654,18.76158905029297,1.7648659944534302,4.400888919830322,-44.671226501464844,-51.34767532348633, -22.96639060974121
689,2553241617,0.1736154,0.54715383,-0.7363948,0.35805464,16.261091232299805,3.9340579509735107,11.3898286819458,-73.73869323730469,-10.413402557373047, -44.66006851196289
690,2553258284,0.18895319,0.551444,-0.7400617,0.33543274,10.714950561523438,3.0835628509521484,6.039003849029541,-175.05996704101562,-20.530942916870117, -71.684814453125
691,2553274951,0.20182945,0.55751455,-0.7454583,0.30452323,8.86473274230957,-7.268905162811279,13.830939292907715,-209.6547393798828,-71.3454818725586, -79.07925415039062
692,2553291618,0.20493916,0.56280124,-0.74602985,0.29102266,4.138760089874268,-11.869182586669922,16.892162322998047,-74.15062713623047,-46.956764221191406, -49.05683898925781
693,2553308285,0.19747865,0.5720836,-0.74344236,0.28463367,-0.17505215108394623,-8.008482933044434,16.721275329589844,14.914580345153809,-77.73580932617188, -50.883583068847656
694,2553324952,0.17976213,0.58201295,-0.7459314,0.26931936,0.016585998237133026,-14.331801414489746,-1.7570613622665405,0.3938702344894409,-173.8213348388672, -26.490568161010742
695,2553341619,0.13354293,0.6021488,-0.73983383,0.26875478,10.517346382141113,-8.51169204711914,-2.5676426887512207,218.4899444580078,-269.3182373046875, -42.51597595214844
696,2553358286,0.09311367,0.616146,-0.7369148,0.26201278,12.935128211975098,-4.710352420806885,20.1460018157959,151.41635131835938,-257.2299499511719, -14.555052757263184
