PacketCounter,SampleTimeFine,Quat_W,Quat_X,Quat_Y,Quat_Z,Acc_X,Acc_Y,Acc_Z,Gyr_X,Gyr_Y,Gyr_Z 
1,2696974375,0.7197269,0.30183202,-0.48187622,0.39835423,-0.09912201762199402,-0.10858932882547379,0.012441381812095642,-0.2165401726961136,0.5308188796043396, -0.2723594009876251
2,2696991042,0.7210201,0.29951805,-0.48017797,0.39981022,14.013519287109375,0.7022299766540527,5.301704406738281,0.06980100274085999,3.1216695308685303, 1.6425745487213135
3,2697007709,0.7213102,0.29849344,-0.47985357,0.40044224,14.121916770935059,0.6022434234619141,5.549773693084717,0.4465254247188568,3.0897562503814697, 1.8464131355285645
4,2697024376,0.7213903,0.2975284,-0.47951424,0.40142173,14.090822219848633,0.7760805487632751,5.448755741119385,0.5809919834136963,2.4853856563568115, 1.932433009147644
5,2697041043,0.72143835,0.29730585,-0.4791739,0.40190637,14.04254150390625,0.7668323516845703,5.358158588409424,0.7568746209144592,2.375802516937256, 1.915644645690918
6,2697057710,0.7214257,0.29736292,-0.4790008,0.40209296,13.855595588684082,0.8122572302818298,5.388980388641357,0.4394947290420532,2.552568197250366, 1.8679147958755493
7,2697074377,0.721369,0.2976552,-0.47871935,0.4023136,13.7617826461792,0.6662233471870422,5.123396873474121,1.0291887521743774,2.0405831336975098, 2.092512845993042
8,2697091044,0.7212652,0.29775977,-0.47879764,0.4023291,13.928850173950195,0.593674898147583,5.3714070320129395,0.5530869960784912,2.214057683944702, 2.2367758750915527
9,2697107711,0.7212009,0.29765356,-0.47882184,0.40249398,13.748305320739746,1.140405297279358,5.356054782867432,0.28612586855888367,2.900862216949463, 2.1986260414123535
10,2697124378,0.72137177,0.29755944,-0.47861776,0.40250006,13.869637489318848,0.9587051272392273,5.23721170425415,-0.7473912835121155,3.7315330505371094, 2.9894049167633057
11,2697141045,0.72148496,0.2974055,-0.47838387,0.40268883,13.665400505065918,1.0501879453659058,5.288445472717285,-1.6322463750839233,4.530855655670166, 4.143527507781982
12,2697157712,0.7216339,0.2971092,-0.4781915,0.40286922,13.825240135192871,0.7377134561538696,5.252109050750732,-2.1659762859344482,4.508545875549316, 5.322722434997559
13,2697174379,0.72162986,0.2967942,-0.4780354,0.40329397,13.768752098083496,0.8553100824356079,5.461991310119629,-0.7531927824020386,4.503385543823242, 6.327304840087891
14,2697191046,0.72167444,0.29628158,-0.4779461,0.4036964,13.843852043151855,0.7774619460105896,5.495355606079102,-1.4105815887451172,4.26815938949585, 6.864442825317383
15,2697207713,0.72173536,0.29567397,-0.4778773,0.4041143,13.64673137664795,0.6300063729286194,5.372816562652588,-1.8701374530792236,4.121795177459717, 6.83647346496582
16,2697224380,0.72175366,0.29501542,-0.47790295,0.40453228,13.9205961227417,0.28921088576316833,5.339780807495117,-2.115622043609619,3.5012502670288086, 6.748696804046631
17,2697241047,0.721714,0.29432407,-0.47797477,0.40502155,13.932586669921875,0.4625474512577057,5.640152931213379,-1.7163844108581543,3.4875478744506836, 6.4107770919799805
18,2697257714,0.7217162,0.29363337,-0.478029,0.4054546,13.736856460571289,0.7127848267555237,5.328667640686035,-1.9614077806472778,3.2290122509002686, 5.4798054695129395
19,2697274381,0.7217995,0.29294068,-0.47810364,0.40571937,13.89909839630127,0.3361213207244873,5.296122074127197,-2.1214487552642822,3.180002450942993, 4.839731216430664
20,2697291048,0.7218079,0.2923764,-0.47806326,0.40615892,13.754365921020508,0.4065345525741577,5.46975040435791,-0.8470248579978943,3.680103302001953, 4.629783630371094
21,2697307715,0.72190046,0.29175946,-0.47812852,0.4063611,13.76063060760498,0.3072923421859741,5.304984092712402,-1.4025131464004517,3.0166189670562744, 3.7562620639801025
22,2697324382,0.72189546,0.2914028,-0.47805354,0.40671402,13.889968872070312,0.24225890636444092,5.49942684173584,0.4331171214580536,3.040118455886841, 3.1502532958984375
23,2697341049,0.72196,0.29102433,-0.47790372,0.4070463,13.584178924560547,0.4543914496898651,5.247654914855957,-0.13053514063358307,3.5778188705444336, 2.3174819946289062
24,2697357716,0.7220326,0.2906268,-0.47777656,0.40735072,13.746590614318848,0.135341614484787,5.189082145690918,-0.38930022716522217,3.5596976280212402, 2.2984771728515625
25,2697374383,0.7220605,0.2902864,-0.4776132,0.4077353,13.863224029541016,0.2672208249568939,5.493188381195068,0.24606762826442719,3.7445321083068848, 2.252271890640259
26,2697391050,0.7221416,0.2899614,-0.4774862,0.40797168,13.755939483642578,0.5193908214569092,5.371870517730713,0.25590288639068604,3.3567683696746826, 1.5517774820327759
27,2697407717,0.7221618,0.2897667,-0.47728744,0.40830678,13.826129913330078,0.37555521726608276,5.279532432556152,0.638031542301178,3.322946786880493, 1.4128926992416382
28,2697424384,0.7222222,0.28947374,-0.4771653,0.40855047,13.977301597595215,0.2961028218269348,5.418872356414795,0.24196958541870117,3.2723748683929443, 1.615233063697815
29,2697441051,0.72217506,0.28937963,-0.47693318,0.40897137,14.0486478805542,0.5779266953468323,5.602563381195068,1.654202938079834,3.2615151405334473, 1.6083306074142456
30,2697457718,0.7222135,0.28926903,-0.47659183,0.4093793,14.087189674377441,0.7619563937187195,5.476902008056641,1.4083845615386963,3.6158151626586914, 1.3035646677017212
31,2697474385,0.72237027,0.28893352,-0.47630593,0.40967235,14.082682609558105,0.5556299090385437,5.4431376457214355,0.2757911682128906,3.7292537689208984, 1.757703423500061
32,2697491052,0.72251093,0.2885652,-0.47601503,0.410022,14.059812545776367,0.5854561924934387,5.433823108673096,0.3348155915737152,3.7523694038391113, 2.1851539611816406
33,2697507719,0.72258985,0.28824124,-0.4757154,0.41045815,13.964356422424316,0.5664491653442383,5.554725170135498,0.6698424816131592,3.582057237625122, 2.4952597618103027
34,2697524386,0.72261554,0.28796268,-0.4754183,0.4109527,13.94794750213623,0.5529617071151733,5.446020603179932,1.193468689918518,3.3607003688812256, 2.792124032974243
35,2697541053,0.7226249,0.28765577,-0.47517765,0.41142908,14.166699409484863,0.38584116101264954,5.3910441398620605,0.9966094493865967,3.0690996646881104, 3.0044915676116943
36,2697557720,0.72273976,0.28723294,-0.47485185,0.41189855,13.86314582824707,0.6909680962562561,5.738132476806641,0.500145673751831,4.153810501098633, 2.906177520751953
37,2697574387,0.7228173,0.28677937,-0.474647,0.41231444,13.821667671203613,0.3244328200817108,5.154301643371582,0.02378779649734497,3.4062139987945557, 3.140456438064575
38,2697591054,0.7228314,0.28637415,-0.47445476,0.41279247,13.954126358032227,0.24489232897758484,5.53438138961792,0.5266932249069214,3.127791166305542, 3.4791464805603027
39,2697607721,0.72291106,0.28589624,-0.47421327,0.4132614,13.727267265319824,0.5983271598815918,5.528585910797119,0.24815507233142853,3.7744736671447754, 3.427229404449463
40,2697624388,0.72286576,0.28560463,-0.4740855,0.41368863,14.077641487121582,0.20322737097740173,5.336513996124268,0.6934190988540649,2.1823368072509766, 3.08476185798645
41,2697641055,0.72282165,0.28550115,-0.473753,0.4142178,13.990565299987793,0.6384923458099365,5.848385334014893,2.559176445007324,2.873777151107788, 2.576388120651245
42,2697657722,0.7228522,0.2853499,-0.47349754,0.4145605,14.06617546081543,0.4572059214115143,5.235851287841797,1.2473706007003784,2.4958102703094482, 1.7079893350601196
43,2697674389,0.7228752,0.28523213,-0.47320047,0.41494054,14.096421241760254,0.3201739490032196,5.6672797203063965,1.6973216533660889,2.6644060611724854, 1.7365732192993164
44,2697691056,0.7229571,0.28506926,-0.47283664,0.41532424,13.961516380310059,0.5941454172134399,5.493356227874756,1.7557824850082397,3.3251750469207764, 1.6832857131958008
45,2697707723,0.72307235,0.2848065,-0.47255027,0.4156297,14.11418628692627,0.389987975358963,5.376923561096191,0.8729128837585449,3.1849842071533203, 1.745985746383667
46,2697724390,0.7231496,0.28453338,-0.47224423,0.41603002,14.1209135055542,0.47083237767219543,5.603438854217529,1.0487953424453735,3.374415397644043, 2.230193853378296
47,2697741057,0.7231739,0.28431016,-0.47188574,0.4165471,14.094822883605957,0.630155622959137,5.617087364196777,1.8186746835708618,3.5460212230682373, 2.651369571685791
48,2697757724,0.72321135,0.28401464,-0.47161,0.41699556,14.159029960632324,0.5872976779937744,5.576253414154053,1.114146113395691,3.2523584365844727, 2.733765125274658
49,2697774391,0.723232,0.28361732,-0.47142735,0.4174363,14.245321273803711,0.4297765791416168,5.5806965827941895,0.27590641379356384,3.0116496086120605, 3.22643780708313
50,2697791058,0.72318,0.2833442,-0.47119284,0.41797626,14.093850135803223,0.5518297553062439,5.834462642669678,1.8289070129394531,2.8778369426727295, 3.562784433364868
51,2697807725,0.7231826,0.2830005,-0.47106382,0.41834995,14.125399589538574,0.6008413434028625,5.4507222175598145,0.3458547294139862,2.4023244380950928, 2.936105728149414
52,2697824392,0.7231643,0.28270793,-0.47092015,0.4187411,14.13075065612793,0.4100872278213501,5.629079818725586,0.6065534949302673,2.2967867851257324, 2.8347432613372803
53,2697841059,0.72311604,0.28248107,-0.4707459,0.41917303,14.212738037109375,0.3775912821292877,5.637592315673828,1.1244937181472778,2.241028070449829, 2.8121914863586426
54,2697857726,0.7231343,0.28218475,-0.47058257,0.4195245,14.360318183898926,0.48970505595207214,5.431756496429443,0.5127854347229004,2.4487595558166504, 2.5329742431640625
55,2697874393,0.72318894,0.281875,-0.4702926,0.41996336,14.228251457214355,0.49732062220573425,5.593257427215576,0.8976930379867554,3.40946626663208, 2.606649160385132
56,2697891060,0.7233074,0.28142175,-0.47005698,0.420327,14.222336769104004,0.35405030846595764,5.286471366882324,-0.03204149007797241,3.6182491779327393, 2.7551136016845703
57,2697907727,0.7233872,0.28102922,-0.4697054,0.4208449,14.32044792175293,0.3215780556201935,5.648594379425049,1.130602240562439,4.199029445648193, 3.1913745403289795
58,2697924394,0.7234774,0.28058416,-0.46936864,0.42136213,14.395145416259766,0.5165475606918335,5.545348644256592,0.6387360095977783,4.307563304901123, 3.2825944423675537
59,2697941061,0.72353363,0.28020814,-0.4689505,0.42198095,14.472612380981445,0.6049869060516357,5.713578224182129,1.2797578573226929,4.598421573638916, 3.363645553588867
60,2697957728,0.72364163,0.27977192,-0.46858966,0.42248577,14.319387435913086,0.606485903263092,5.636713027954102,0.7750595211982727,4.4370222091674805, 3.1451051235198975
61,2697974395,0.72369003,0.27935603,-0.46827465,0.4230271,14.3020601272583,0.16670651733875275,5.641343116760254,1.0267300605773926,4.025529384613037, 3.547698974609375
62,2697991062,0.7236443,0.27915266,-0.46791595,0.4236359,14.374892234802246,0.38563451170921326,5.724958896636963,2.5938169956207275,3.448819875717163, 3.375605821609497
63,2698007729,0.72372127,0.27880666,-0.467654,0.42402145,14.42963981628418,0.5956593751907349,5.7312235832214355,0.6531942486763,3.3465487957000732, 2.554245710372925
64,2698024396,0.723813,0.2784436,-0.46742454,0.42435625,14.463547706604004,0.3722214698791504,5.745445728302002,0.3411932587623596,3.184190511703491, 2.4063966274261475
65,2698041063,0.72389764,0.27810067,-0.46721977,0.4246621,14.556281089782715,0.3246729075908661,5.764835834503174,-0.07873343676328659,2.922940731048584, 2.097917079925537
66,2698057730,0.7240058,0.27778164,-0.46697223,0.42495903,14.329586029052734,0.43385985493659973,5.654109001159668,0.30364495515823364,3.125408887863159, 1.9214197397232056
67,2698074397,0.72410995,0.2774411,-0.46674126,0.42525768,14.376388549804688,0.2700563967227936,5.531840801239014,0.2625109851360321,3.096799612045288, 2.090463638305664
68,2698091064,0.7242069,0.27710548,-0.46650255,0.42557326,14.363594055175781,0.46531713008880615,5.621196269989014,0.5376554727554321,3.1334645748138428, 2.237276315689087
69,2698107731,0.72429496,0.27679977,-0.46621668,0.4259353,14.449069023132324,0.5419843792915344,5.713076591491699,0.9299138188362122,3.3418102264404297, 2.284287929534912
70,2698124398,0.72441477,0.27633178,-0.4660257,0.42624417,14.419570922851562,0.36403822898864746,5.634279251098633,-0.34653982520103455,3.3459086418151855, 2.6498706340789795
71,2698141065,0.72447926,0.2759919,-0.46572188,0.42668658,14.442401885986328,0.6351349353790283,5.760125637054443,0.8701210618019104,3.6117942333221436, 2.720459461212158
72,2698157732,0.7245546,0.27553055,-0.46547544,0.42712545,14.42320728302002,0.44539597630500793,5.763314247131348,0.0799180269241333,3.710620164871216, 3.1811673641204834
73,2698174399,0.72465676,0.27503553,-0.46525338,0.42751303,14.317065238952637,0.5218434929847717,5.520411968231201,-0.1284220814704895,3.6760566234588623, 3.116572618484497
74,2698191066,0.72473896,0.2745205,-0.46502742,0.42795047,14.401078224182129,0.2728007435798645,5.672683238983154,-0.004943251609802246,3.7879583835601807, 3.490377187728882
75,2698207733,0.72483504,0.2739463,-0.4648332,0.42836663,14.311279296875,0.33979135751724243,5.795464992523193,-0.5296963453292847,3.8101391792297363, 3.571608066558838
76,2698224400,0.7249735,0.27337182,-0.46462286,0.4287273,14.363785743713379,0.45259252190589905,5.605906963348389,-0.697485089302063,3.9209530353546143, 3.161741018295288
77,2698241067,0.7250907,0.2728553,-0.4643625,0.42914006,14.222085952758789,0.29669028520584106,5.721828937530518,-0.17434565722942352,4.0336222648620605, 3.151649236679077
78,2698257734,0.72520494,0.27231535,-0.46417522,0.42949218,14.234004974365234,0.11380954086780548,5.5123443603515625,-0.6166770458221436,3.615072727203369, 3.1073009967803955
79,2698274401,0.7253022,0.2718818,-0.46394148,0.42985523,14.353790283203125,0.3054198920726776,5.733862400054932,0.16491377353668213,3.5020437240600586, 2.8054423332214355
80,2698291068,0.7254238,0.27143702,-0.46369895,0.43019277,14.179288864135742,0.43003156781196594,5.627892971038818,-0.036523714661598206,3.611333131790161, 2.6067516803741455
81,2698307735,0.72555023,0.27099177,-0.4634802,0.43049568,14.314393997192383,0.22931937873363495,5.542026042938232,-0.2670379877090454,3.447437286376953, 2.4515388011932373
82,2698324402,0.72563726,0.27063587,-0.46319532,0.4308795,14.336038589477539,0.25592437386512756,5.77464485168457,0.8051352500915527,3.5413787364959717, 2.6121113300323486
83,2698341069,0.7257657,0.27022475,-0.46295467,0.43117958,14.392363548278809,0.5563395023345947,5.686043739318848,0.015642955899238586,3.461472988128662, 2.3123722076416016
84,2698357736,0.72586906,0.26982215,-0.46267405,0.43155885,14.479995727539062,0.441443532705307,5.7914323806762695,0.3180393576622009,3.7094173431396484, 2.610645294189453
85,2698374403,0.726005,0.2693351,-0.46240607,0.43192124,14.270668029785156,0.4277791380882263,5.758087158203125,0.05439497530460358,3.965198040008545, 2.878246545791626
86,2698391070,0.7261281,0.2688381,-0.4622069,0.4322372,14.3637113571167,0.3106893002986908,5.560180187225342,-0.37368935346603394,3.526491641998291, 2.822859048843384
87,2698407737,0.7262264,0.2683766,-0.46196052,0.432622,14.233619689941406,0.4412776529788971,5.7960076332092285,0.07730553299188614,3.7137715816497803, 2.976663589477539
88,2698424404,0.7263043,0.26796046,-0.4617211,0.43300474,14.399446487426758,0.31750422716140747,5.621123790740967,0.4246777892112732,3.4737930297851562, 2.9552254676818848
89,2698441071,0.7263987,0.26755697,-0.46143866,0.43339643,14.303764343261719,0.3533823490142822,5.8107404708862305,0.5898926258087158,3.7257585525512695, 2.821681261062622
90,2698457738,0.72651845,0.2671208,-0.46119618,0.43372297,14.371286392211914,0.32078975439071655,5.664554119110107,0.06588227301836014,3.583030939102173, 2.604856491088867
91,2698474405,0.7266159,0.2666833,-0.46097866,0.43405998,14.398388862609863,0.2380259782075882,5.626467704772949,0.041588619351387024,3.410836696624756, 2.765230178833008
92,2698491072,0.72676355,0.2662809,-0.46067438,0.43438312,14.380120277404785,0.5122378468513489,5.87188720703125,0.4108469486236572,3.8712384700775146, 2.3095295429229736
93,2698507739,0.7268871,0.26587275,-0.46046194,0.43465123,14.528560638427734,0.3628788888454437,5.646731853485107,0.04432918503880501,3.245532512664795, 2.3300065994262695
94,2698524406,0.7270167,0.26546207,-0.46017328,0.43499127,14.428869247436523,0.4849497675895691,5.963627338409424,0.23863990604877472,3.7934648990631104, 2.4200353622436523
95,2698541073,0.72710496,0.26506507,-0.45999527,0.4352741,14.563423156738281,0.33149605989456177,5.622150421142578,-0.0345771498978138,2.9571595191955566, 2.467278003692627
96,2698557740,0.7271819,0.26473033,-0.45972237,0.43563724,14.468941688537598,0.41643235087394714,5.887544631958008,0.9358112812042236,3.3553919792175293, 2.584872007369995
97,2698574407,0.7272742,0.26434946,-0.45947826,0.4359718,14.379962921142578,0.4431449770927429,5.6610798835754395,0.3477116525173187,3.3501479625701904, 2.5172481536865234
98,2698591074,0.7274139,0.26384518,-0.4592775,0.43625587,14.32341480255127,0.3355802595615387,5.699863910675049,-0.38143715262413025,3.553781509399414, 2.7307941913604736
99,2698607741,0.72754043,0.26336145,-0.4590481,0.4365785,14.424516677856445,0.3827209770679474,5.746143817901611,-0.2222670167684555,3.671830654144287, 2.7564072608947754
100,2698624408,0.7276404,0.26291665,-0.45881298,0.43692708,14.508179664611816,0.3112345039844513,5.748474597930908,0.22284972667694092,3.5437800884246826, 2.888927459716797
101,2698641075,0.7277175,0.26253945,-0.45855612,0.4372945,14.462029457092285,0.33702653646469116,5.870563983917236,0.5666489601135254,3.4213762283325195, 2.7165534496307373
102,2698657742,0.7278465,0.26214695,-0.45831624,0.43756682,14.412650108337402,0.4597576856613159,5.698276519775391,0.2365013062953949,3.3668601512908936, 2.266141414642334
103,2698674409,0.72792643,0.26172835,-0.4581115,0.43789876,14.57289981842041,0.24830932915210724,5.848817825317383,0.14082501828670502,3.2316887378692627, 2.790971040725708
104,2698691076,0.7280044,0.26134205,-0.457893,0.4382283,14.359166145324707,0.5303349494934082,5.8809814453125,0.3067184388637543,3.196932077407837, 2.641136407852173
105,2698707743,0.7281229,0.2609143,-0.45766556,0.43852386,14.168196678161621,0.4688096046447754,5.593236923217773,0.0500280037522316,3.429367780685425, 2.524919271469116
106,2698724410,0.728224,0.26038635,-0.45755634,0.43878376,14.240715980529785,0.12042239308357239,5.512688636779785,-0.8912579417228699,3.0249686241149902, 2.930509328842163
107,2698741077,0.72822976,0.2600388,-0.45735148,0.43919334,14.403666496276855,0.34916388988494873,5.800487518310547,0.7535703778266907,2.9433538913726807, 3.124755620956421
108,2698757744,0.72825134,0.25968093,-0.45710394,0.43962717,14.326930046081543,0.6074070930480957,5.9196248054504395,0.8091757297515869,3.2878575325012207, 3.119684934616089
109,2698774411,0.7283541,0.25915056,-0.45699224,0.4398858,14.364031791687012,0.26504021883010864,5.540071487426758,-0.9942721724510193,3.0626065731048584, 2.8810508251190186
110,2698791078,0.7284247,0.25869146,-0.4567815,0.4402581,14.235669136047363,0.33157292008399963,5.8266754150390625,0.019817830994725227,3.455390453338623, 3.117469310760498
111,2698807745,0.72843796,0.2583268,-0.45658123,0.44065785,14.19106674194336,0.27688220143318176,5.708469867706299,0.8917382955551147,2.9733469486236572, 3.2872560024261475
112,2698824412,0.7285094,0.25791308,-0.45640776,0.4409616,14.274188041687012,0.391886442899704,5.560434341430664,0.005090523511171341,3.013570785522461, 2.748325824737549
113,2698841079,0.72858083,0.25749806,-0.45618072,0.4413208,14.18964958190918,0.4066089391708374,5.816035270690918,0.06261664628982544,3.4065592288970947, 2.7896647453308105
114,2698857746,0.728647,0.25710583,-0.45598966,0.44163752,14.364835739135742,0.2472706437110901,5.626713275909424,0.18213830888271332,3.053283214569092, 2.722789764404297
115,2698874413,0.7287361,0.25672844,-0.45571563,0.44199282,14.294631958007812,0.561625063419342,5.8007965087890625,0.5458130836486816,3.574092149734497, 2.631199359893799
116,2698891080,0.7288128,0.2562526,-0.45559186,0.44226965,14.566216468811035,0.3022049069404602,5.609728813171387,-0.6552368402481079,2.9486169815063477, 2.8436179161071777
117,2698907747,0.7288812,0.2558699,-0.4553547,0.44262275,14.34768295288086,0.6130974888801575,5.971813201904297,0.5447757244110107,3.341874599456787, 2.839186906814575
118,2698924414,0.7289495,0.25543407,-0.45516413,0.44295812,14.377516746520996,0.40415847301483154,5.490795135498047,-0.03598584607243538,3.2482988834381104, 2.942150115966797
119,2698941081,0.7289856,0.25503126,-0.4550038,0.44329512,14.400367736816406,0.36289674043655396,5.616819381713867,0.10781025141477585,2.9079442024230957, 3.009037494659424
120,2698957748,0.72907305,0.25462827,-0.4547775,0.4436152,14.208245277404785,0.5537720322608948,5.664203643798828,0.23646286129951477,3.3702409267425537, 2.696549892425537
121,2698974415,0.7291295,0.25420448,-0.45464882,0.44389716,14.533734321594238,0.15261724591255188,5.481693267822266,-0.1531127542257309,2.7743232250213623, 2.8850340843200684
122,2698991082,0.7292132,0.25374022,-0.4544593,0.44421962,14.466568946838379,0.38057371973991394,5.967504501342773,-0.16581661999225616,3.3681278228759766, 2.977008819580078
123,2699007749,0.7293,0.2532922,-0.45430025,0.44449538,14.495619773864746,0.4649065136909485,5.590672016143799,-0.3706413805484772,3.0911519527435303, 2.7115073204040527
124,2699024416,0.7293456,0.25292477,-0.45407778,0.44485673,14.540529251098633,0.3814316689968109,5.741516590118408,0.4973922669887543,3.1897480487823486, 2.8661956787109375
125,2699041083,0.7293878,0.25251886,-0.45385483,0.44524562,14.480949401855469,0.4069282114505768,5.705759048461914,0.24225133657455444,3.3597781658172607, 3.0420398712158203
126,2699057750,0.72943276,0.25210506,-0.4536615,0.44560322,14.3522310256958,0.3444415330886841,5.679625034332275,0.2231186479330063,3.171025276184082, 3.0807275772094727
127,2699074417,0.72951895,0.2516345,-0.45348886,0.44590375,14.273752212524414,0.3184751272201538,5.57874059677124,-0.3128207325935364,3.2653696537017822, 2.918330430984497
128,2699091084,0.7295277,0.25124878,-0.4533168,0.44628173,14.319114685058594,0.20511527359485626,5.545278549194336,0.3938528597354889,2.9050114154815674, 3.2263100147247314
129,2699107751,0.7295572,0.25084075,-0.4531819,0.44659984,14.507169723510742,0.27222517132759094,5.736658096313477,0.0959259569644928,2.7374019622802734, 3.0856704711914062
130,2699124418,0.72962934,0.25045282,-0.45301396,0.44687033,14.374056816101074,0.5928745269775391,5.823757171630859,0.05271734669804573,2.8960988521575928, 2.5840976238250732
131,2699141085,0.7296799,0.25009567,-0.45287842,0.44712514,14.385626792907715,0.40469124913215637,5.508910655975342,-0.012511802837252617,2.555180311203003, 2.4743340015411377
132,2699157752,0.7297312,0.24966796,-0.45277494,0.44738492,14.20953369140625,0.14649248123168945,5.598196029663086,-0.24259071052074432,2.6075587272644043, 2.9032320976257324
133,2699174419,0.7296903,0.2493203,-0.45273733,0.4476833,14.296148300170898,0.2563856840133667,5.525597095489502,0.050911642611026764,1.8317627906799316, 3.130864381790161
134,2699191086,0.7296464,0.24912135,-0.452542,0.44806305,14.2615327835083,0.5912800431251526,5.678117752075195,1.6473129987716675,2.2896411418914795, 2.883535861968994
135,2699207753,0.7296487,0.2487814,-0.45241383,0.44837773,14.321815490722656,0.3349185883998871,5.429848670959473,0.30998408794403076,2.437746286392212, 2.890194892883301
136,2699224420,0.7297137,0.24843942,-0.45222792,0.44864887,14.173568725585938,0.5504063963890076,5.59604549407959,0.22529569268226624,2.8627378940582275, 2.3840363025665283
137,2699241087,0.72978616,0.24804617,-0.4520868,0.44889095,14.071242332458496,0.3461433947086334,5.418416976928711,-0.20597094297409058,2.7664406299591064, 2.5017848014831543
138,2699257754,0.7298156,0.24772468,-0.45197573,0.44913226,14.102621078491211,0.35859522223472595,5.457343578338623,0.13986453413963318,2.264565944671631, 2.468468427658081
139,2699274421,0.7298058,0.24741167,-0.4518617,0.44943517,13.98043441772461,0.4061007499694824,5.5013508796691895,0.377755343914032,2.2513372898101807, 2.825894355773926
140,2699291088,0.72977185,0.24714608,-0.45178017,0.4497187,14.043923377990723,0.4147557318210602,5.477774143218994,0.7191981673240662,1.811554193496704, 2.8600738048553467
141,2699307755,0.7297432,0.24689472,-0.45166302,0.45002088,14.080078125,0.6316487193107605,5.563696384429932,0.8808143734931946,2.00866961479187, 2.7956454753875732
142,2699324422,0.7297108,0.24662,-0.4515995,0.4502876,14.181784629821777,0.3739705979824066,5.388570785522461,0.32403266429901123,1.7661429643630981, 2.6942832469940186
143,2699341089,0.72964424,0.24636813,-0.4515126,0.4506201,14.178524017333984,0.3300207853317261,5.616674423217773,0.748742401599884,1.8306996822357178, 3.0092296600341797
144,2699357756,0.7295858,0.24617128,-0.45134914,0.45098585,14.180152893066406,0.5964488387107849,5.480108261108398,1.4734283685684204,2.115551710128784, 2.9345436096191406
145,2699374423,0.7296373,0.24582559,-0.4511847,0.45125562,14.18538761138916,0.6836386919021606,5.357519626617432,0.17460818588733673,2.778369665145874, 2.5374438762664795
146,2699391090,0.7297152,0.24539535,-0.45104623,0.45150247,14.121175765991211,0.42701205611228943,5.4353179931640625,-0.3570155203342438,2.951857805252075, 2.7184107303619385
147,2699407757,0.7297795,0.24500158,-0.45086816,0.45179012,14.002699851989746,0.5888846516609192,5.366201877593994,0.1977236270904541,3.0583674907684326, 2.8591136932373047
148,2699424424,0.72980607,0.24458073,-0.45072478,0.45211786,14.036152839660645,0.48480427265167236,5.345864772796631,-0.06642653048038483,2.957286834716797, 3.191924810409546
149,2699441091,0.72981095,0.2441685,-0.45060068,0.45245638,14.042098045349121,0.46935924887657166,5.383157730102539,0.11180582642555237,2.776576519012451, 3.4117844104766846
150,2699457758,0.7297916,0.2436758,-0.4505397,0.4528141,14.06906509399414,0.47868695855140686,5.381721019744873,-0.48409292101860046,2.6881234645843506, 3.8805742263793945
151,2699474425,0.72976506,0.24318688,-0.45046848,0.45319015,14.01950740814209,0.437808632850647,5.367589473724365,-0.3482942581176758,2.736402988433838, 3.98030948638916
152,2699491092,0.7297521,0.24267429,-0.45044369,0.4535106,14.142790794372559,0.4212588965892792,5.222983360290527,-0.5876706838607788,2.4922380447387695, 3.960768222808838
153,2699507759,0.7297423,0.2421288,-0.45039383,0.45386708,14.083720207214355,0.40630456805229187,5.451608657836914,-0.752052903175354,2.8215527534484863, 4.065305709838867
154,2699524426,0.72975427,0.24152291,-0.45037836,0.45418605,14.148829460144043,0.3939482271671295,5.3358540534973145,-1.3412476778030396,2.8437209129333496, 4.034852504730225
155,2699541093,0.7297362,0.24096125,-0.4503241,0.45456678,14.185005187988281,0.4327699542045593,5.321938991546631,-0.7828523516654968,2.913963794708252, 4.218752384185791
156,2699557760,0.72972846,0.24042486,-0.45021036,0.45497596,14.048084259033203,0.46768900752067566,5.380098819732666,-0.38001567125320435,3.21028995513916, 4.16723108291626
157,2699574427,0.7296328,0.23996335,-0.45012382,0.4554584,14.155049324035645,0.2511909008026123,5.218906879425049,0.25503209233283997,2.692349433898926, 4.606194496154785
158,2699591094,0.72957146,0.23947966,-0.450025,0.45590857,14.202555656433105,0.49232977628707886,5.494418621063232,0.08163408935070038,2.870934009552002, 4.42335844039917
159,2699607761,0.7295097,0.23900083,-0.44997707,0.4563055,14.206515312194824,0.45486533641815186,5.341183662414551,-0.2367382049560547,2.514277219772339, 4.218469619750977
160,2699624428,0.72945344,0.23854668,-0.44994995,0.45666006,14.193485260009766,0.3681747615337372,5.295546531677246,-0.3127439022064209,2.2824056148529053, 3.9555299282073975
161,2699641095,0.729435,0.23803705,-0.44992805,0.45697665,14.133994102478027,0.2656823396682739,5.3144049644470215,-0.7149273157119751,2.4759480953216553, 3.8824567794799805
162,2699657762,0.72939885,0.23758072,-0.44995376,0.45724645,14.172329902648926,0.3469078540802002,5.267071723937988,-0.9501670598983765,1.9888708591461182, 3.4451704025268555
163,2699674429,0.72940356,0.23716395,-0.44994074,0.45746818,14.120384216308594,0.38940128684043884,5.277773857116699,-0.6513180732727051,2.0742764472961426, 3.0376851558685303
164,2699691096,0.7293671,0.23684663,-0.44988254,0.45774794,14.017600059509277,0.3914017379283905,5.255956172943115,0.10495443642139435,1.9879103899002075, 2.9859604835510254
165,2699707763,0.72930837,0.23647185,-0.44993863,0.45797992,14.098832130432129,0.25351017713546753,5.171629428863525,-0.7722228765487671,1.4795366525650024, 3.098566770553589
166,2699724430,0.72929305,0.23610574,-0.44989315,0.4582379,14.040447235107422,0.6412879824638367,5.502131462097168,-0.21610715985298157,2.1079702377319336, 3.041501760482788
167,2699741097,0.7292502,0.23572832,-0.4499048,0.4584889,14.126907348632812,0.568577766418457,5.1195292472839355,-0.43353334069252014,1.763158917427063, 3.2325851917266846
168,2699757764,0.7291705,0.23541467,-0.44984865,0.458832,14.231488227844238,0.5054435133934021,5.351963520050049,0.29848405718803406,1.9802782535552979, 3.404306173324585
169,2699774431,0.7290946,0.23511864,-0.44974884,0.45920187,14.006523132324219,0.6901120543479919,5.329681396484375,0.6807278990745544,2.1884448528289795, 3.4729344844818115
170,2699791098,0.7290023,0.23472759,-0.44978693,0.4595113,14.069563865661621,0.36598917841911316,5.042341709136963,-0.3409818708896637,1.6427536010742188, 3.792632579803467
171,2699807765,0.72886723,0.23436147,-0.44978553,0.4599132,14.062092781066895,0.48435020446777344,5.280252933502197,0.19808225333690643,1.8072260618209839, 4.206521511077881
172,2699824432,0.72873217,0.2338948,-0.44986033,0.46029192,13.890007972717285,0.6591224074363708,5.0347185134887695,-0.5874016284942627,1.706849455833435, 4.558824062347412
173,2699841099,0.728637,0.23328176,-0.4500259,0.46059155,14.012883186340332,0.5306465029716492,5.155106067657471,-1.9856120347976685,1.739672303199768, 4.596039295196533
174,2699857766,0.72841793,0.23280624,-0.45010933,0.46109667,13.90158748626709,0.605310320854187,5.140820503234863,-0.23064236342906952,1.679853916168213, 5.450351238250732
175,2699874433,0.7281939,0.23229793,-0.45031804,0.4615032,14.0471830368042,0.5133170485496521,5.189568042755127,-1.2326240539550781,1.030200481414795, 5.174630165100098
176,2699891100,0.7279664,0.23171552,-0.45051333,0.4619641,13.882922172546387,0.5988232493400574,5.178520679473877,-1.3811906576156616,1.4191550016403198, 5.682479381561279
177,2699907767,0.7276817,0.23129651,-0.45056558,0.46257108,13.863619804382324,0.40173420310020447,5.015467643737793,0.5606428384780884,1.6471335887908936, 5.978087425231934
178,2699924434,0.7273895,0.23091397,-0.45054463,0.46324193,13.699138641357422,0.3120371103286743,5.042539119720459,1.1315115690231323,2.0044307708740234, 6.05815315246582
179,2699941101,0.7271008,0.23045509,-0.45060933,0.46386012,13.521910667419434,0.21715804934501648,4.923006534576416,0.3006739616394043,1.7609950304031372, 6.157275199890137
180,2699957768,0.7267874,0.22999395,-0.45077485,0.46441913,13.69301986694336,0.16499942541122437,4.860947132110596,-0.2409130483865738,1.1224701404571533, 6.056693077087402
181,2699974435,0.726521,0.22947584,-0.45098245,0.46489048,13.733152389526367,0.35166096687316895,5.155686378479004,-0.877170979976654,1.07156503200531, 5.817022800445557
182,2699991102,0.7262864,0.22897895,-0.45117703,0.4653129,13.652461051940918,0.335102379322052,4.955490589141846,-1.0222285985946655,1.1162335872650146, 5.311953067779541
183,2700007769,0.72604936,0.22856922,-0.45137894,0.46568835,13.57568645477295,0.14430004358291626,4.933680534362793,-0.8078245520591736,0.7376521229743958, 4.780271053314209
184,2700024436,0.7257701,0.22844121,-0.4513614,0.466203,13.492250442504883,0.11001715064048767,4.9470062255859375,1.9474555253982544,0.9713041186332703, 4.5109663009643555
185,2700041103,0.7252587,0.22921412,-0.45073044,0.46722916,13.47386646270752,0.06195637583732605,4.716580867767334,10.158162117004395,1.2923214435577393, 3.8693833351135254
186,2700057770,0.7247081,0.23030557,-0.44994017,0.4683069,13.373588562011719,0.38073664903640747,4.86998176574707,12.625395774841309,0.9794492721557617, 3.130622625350952
187,2700074437,0.7243352,0.2309874,-0.44934246,0.46912122,13.563352584838867,0.40711453557014465,4.80718469619751,8.93632984161377,1.4471242427825928, 2.879899024963379
188,2700091104,0.72402227,0.23139621,-0.44892928,0.46979803,13.68734073638916,0.4841296970844269,5.003879547119141,6.321681976318359,1.426262378692627, 3.0198588371276855
189,2700107771,0.7238655,0.23152047,-0.4485967,0.47029606,13.347954750061035,0.6621986031532288,4.808894157409668,3.9684252738952637,2.099031448364258, 2.747596263885498
190,2700124438,0.72374904,0.23128864,-0.44853708,0.47064593,13.320191383361816,0.3211970329284668,4.541836261749268,0.8841184377670288,1.7482656240463257, 3.505681276321411
191,2700141105,0.7236026,0.23084064,-0.4486425,0.47099048,13.293907165527344,0.29345571994781494,4.831411838531494,-0.6220555901527405,1.5064939260482788, 4.571910858154297
192,2700157772,0.7233918,0.23033895,-0.44891116,0.47130376,13.228178024291992,0.5568176507949829,4.8486809730529785,-1.6644158363342285,0.7134225964546204, 4.8257341384887695
193,2700174439,0.72314644,0.22986001,-0.44930115,0.47154245,13.228438377380371,0.36704763770103455,4.818455696105957,-2.015117645263672,-0.226851686835289, 4.794179439544678
194,2700191106,0.7228759,0.2293464,-0.4499514,0.47158724,13.2258882522583,0.17718465626239777,4.778591156005859,-3.5413150787353516,-1.8088204860687256, 4.481461048126221
195,2700207773,0.7225729,0.22895642,-0.45064282,0.47158083,13.06657600402832,0.2879168689250946,4.818070888519287,-3.273956537246704,-2.548835277557373, 3.919185161590576
196,2700224440,0.7222517,0.22867475,-0.45138365,0.47150108,13.052451133728027,0.22455601394176483,4.605131149291992,-3.2290444374084473,-3.2611114978790283, 3.238950252532959
197,2700241107,0.7219613,0.22842772,-0.452067,0.47141084,13.037755966186523,0.1645822525024414,4.534026622772217,-2.863743543624878,-3.0365521907806396, 2.975062847137451
198,2700257774,0.7216963,0.22827971,-0.45264426,0.47133458,13.066630363464355,0.20941832661628723,4.5195136070251465,-2.1204497814178467,-2.6811115741729736, 2.403655767440796
199,2700274441,0.72146493,0.2281481,-0.45310435,0.47131032,12.875764846801758,0.23793242871761322,4.341679096221924,-1.464700698852539,-1.9924633502960205, 2.403655767440796
200,2700291108,0.7211972,0.22818476,-0.45341554,0.47140327,12.786591529846191,0.3310588300228119,4.342586517333984,0.308011919260025,-1.731828212738037, 2.3837802410125732
201,2700307775,0.7209314,0.22820918,-0.4537262,0.4714989,12.66971492767334,0.3673759400844574,4.325001239776611,0.19530323147773743,-1.6435668468475342, 2.383639335632324
202,2700324442,0.72068536,0.22826242,-0.45398137,0.47160357,12.560275077819824,0.35758671164512634,4.314528942108154,0.5810561776161194,-1.406290888786316, 2.261159658432007
203,2700341109,0.7204419,0.22825924,-0.45429495,0.47167528,12.490382194519043,0.2975068688392639,4.301950454711914,0.047159384936094284,-1.5676252841949463, 2.408919334411621
204,2700357776,0.7201845,0.22818694,-0.4546842,0.4717284,12.409696578979492,0.27170273661613464,4.222276210784912,-0.6570681929588318,-1.7456718683242798, 2.6311604976654053
205,2700374443,0.7199068,0.22811858,-0.4550714,0.47181192,12.337392807006836,0.3008202612400055,4.195374488830566,-0.5891177654266357,-1.714539647102356, 2.76120924949646
206,2700391110,0.71956664,0.22815983,-0.45541066,0.47198337,12.36819839477539,0.21191221475601196,4.20860481262207,0.6290543079376221,-1.9506375789642334, 3.131696939468384
207,2700407777,0.7192209,0.22827773,-0.45571247,0.47216195,12.251148223876953,0.4073496162891388,4.276313304901123,1.1483391523361206,-2.003873825073242, 2.8833303451538086
208,2700424444,0.71881384,0.22840841,-0.45611966,0.47232538,12.227598190307617,0.2057413011789322,4.047896385192871,0.8158604502677917,-2.724998950958252, 3.050363302230835
209,2700441111,0.7183759,0.22863114,-0.4565009,0.47251573,12.047914505004883,0.3778175413608551,4.288557052612305,1.4423727989196777,-2.9137518405914307, 2.919393301010132
210,2700457778,0.7179224,0.22887091,-0.45694083,0.4726637,12.168686866760254,0.2677171230316162,3.934267044067383,1.1726454496383667,-3.3445446491241455, 2.759979486465454
211,2700474445,0.7175785,0.22902702,-0.4573079,0.472755,11.962397575378418,0.426672101020813,3.9954071044921875,0.768169641494751,-2.5123112201690674, 2.3942301273345947
212,2700491112,0.7172886,0.22901256,-0.45774087,0.47278297,11.697908401489258,0.3695564568042755,3.7403132915496826,-0.5126252770423889,-2.2444024085998535, 2.609492063522339
213,2700507779,0.7169306,0.22899485,-0.4581806,0.47290865,11.729853630065918,0.11852940917015076,3.811980962753296,-0.23965808749198914,-2.2726664543151855, 3.234955072402954
214,2700524446,0.7165829,0.22889477,-0.458607,0.47307056,11.529985427856445,0.30214110016822815,3.8615822792053223,-0.44639092683792114,-1.8805993795394897, 3.6673476696014404
215,2700541113,0.7162177,0.22869056,-0.45913345,0.47321162,11.504766464233398,0.2697582542896271,3.661318778991699,-1.431814193725586,-2.0682387351989746, 4.0002241134643555
216,2700557780,0.71580577,0.22849922,-0.45970485,0.47337264,11.469463348388672,0.4071071743965149,3.9081709384918213,-1.300446629524231,-2.4914374351501465, 4.353641033172607
217,2700574447,0.71534264,0.22836906,-0.460287,0.47356972,11.442558288574219,0.3548767864704132,3.858701467514038,-0.8889400959014893,-2.828218698501587, 4.476787090301514
218,2700591114,0.71486026,0.22833054,-0.46088502,0.47373554,11.474020957946777,0.1765158772468567,3.7471323013305664,-0.5467800498008728,-3.32657790184021, 4.133909702301025
219,2700607781,0.71431947,0.22858824,-0.46126318,0.47405842,11.333571434020996,0.16169656813144684,3.6838231086730957,2.0949461460113525,-3.079773426055908, 3.6932170391082764
220,2700624448,0.7137866,0.22916214,-0.4613783,0.4744721,11.203859329223633,0.11615921556949615,3.582578420639038,4.965362548828125,-2.759922742843628, 2.873431921005249
221,2700641115,0.71323955,0.22993091,-0.4613327,0.47496703,11.072786331176758,0.13525162637233734,3.5242159366607666,6.6274733543396,-2.4624054431915283, 2.3467578887939453
222,2700657782,0.7127399,0.23059492,-0.46138102,0.4753477,10.948198318481445,0.11932393908500671,3.3482179641723633,5.458163261413574,-2.6632089614868164, 2.195821762084961
223,2700674449,0.71224195,0.23115218,-0.4615245,0.47568426,10.863229751586914,0.1564134657382965,3.487705945968628,4.412165641784668,-2.7966761589050293, 2.3931162357330322
224,2700691116,0.71179545,0.23147736,-0.46181056,0.47591665,10.70844554901123,0.32623788714408875,3.36483097076416,2.5316429138183594,-2.8215723037719727, 2.8092589378356934
225,2700707783,0.7112344,0.2317227,-0.4623355,0.47612607,10.77226734161377,0.1767779290676117,3.3408896923065186,1.2879410982131958,-4.01395845413208, 3.535161018371582
226,2700724450,0.71060514,0.23196422,-0.4628557,0.47644264,10.593277931213379,0.5761634707450867,3.546222448348999,1.8628184795379639,-4.1019768714904785, 4.414458274841309
227,2700741117,0.70991784,0.23195955,-0.4636132,0.4767331,10.63806438446045,0.43348321318626404,3.0834929943084717,-0.25210580229759216,-4.5915117263793945, 5.5142669677734375
228,2700757784,0.70910144,0.23193257,-0.4644361,0.47716007,10.684488296508789,0.26707080006599426,3.446471929550171,-0.040250372141599655,-4.952050685882568, 6.687292098999023
229,2700774451,0.7080945,0.23229322,-0.46496692,0.4779624,10.555695533752441,0.33797383308410645,3.510807991027832,4.441493511199951,-4.894383907318115, 7.573159217834473
230,2700791118,0.7068361,0.23351814,-0.4649682,0.47922522,10.357144355773926,0.4129825532436371,3.3528285026550293,12.397483825683594,-5.315638542175293, 7.171337604522705
231,2700807785,0.705424,0.23482677,-0.46508595,0.48055023,10.317154884338379,0.248899906873703,3.1689422130584717,12.818867683410645,-6.515338897705078, 7.863945007324219
232,2700824452,0.70396745,0.23580548,-0.46557385,0.4817332,10.275430679321289,0.3543635606765747,3.3521151542663574,9.578973770141602,-7.559876918792725, 8.945391654968262
233,2700841119,0.7024786,0.23671697,-0.4662157,0.48283744,10.227154731750488,0.2581639289855957,3.179996967315674,8.566359519958496,-8.327156066894531, 9.167336463928223
234,2700857786,0.7006615,0.23888998,-0.46528384,0.48530027,10.57800579071045,-0.5520509481430054,3.452197313308716,24.75221824645996,-3.733854055404663, 10.19991683959961
235,2700874453,0.69847506,0.2416439,-0.4638026,0.48849565,9.63992691040039,0.023098554462194443,2.750164747238159,32.41741943359375,-3.051215171813965, 12.259781837463379
236,2700891120,0.696196,0.24381188,-0.46338287,0.49106354,9.469990730285645,0.1344800889492035,2.4705734252929688,24.21201515197754,-7.518872261047363, 13.205388069152832
237,2700907787,0.6940041,0.24546346,-0.463533,0.49319735,9.739762306213379,0.21490132808685303,2.741518497467041,18.400760650634766,-9.018123626708984, 13.543940544128418
238,2700924454,0.6918918,0.2469623,-0.4636341,0.4953171,9.818049430847168,-0.14420555531978607,2.6709251403808594,17.653913497924805,-8.020350456237793, 13.611607551574707
239,2700941121,0.6896464,0.24872808,-0.4639448,0.49727005,9.240063667297363,-0.0817166343331337,2.2819771766662598,17.969093322753906,-10.665022850036621, 12.833148956298828
240,2700957788,0.6873062,0.25045434,-0.46466288,0.49897012,8.883875846862793,-0.3996279537677765,2.0631301403045654,15.720165252685547,-13.158525466918945, 12.75140380859375
241,2700974455,0.6849607,0.25208423,-0.4654808,0.5006095,8.592809677124023,-0.3018433451652527,2.5313048362731934,14.74444580078125,-13.403395652770996, 12.952630996704102
242,2700991122,0.68278134,0.25341186,-0.46624994,0.50219834,8.902502059936523,-0.09106580168008804,2.605727434158325,13.058507919311523,-11.699682235717773, 13.03298568725586
243,2701007789,0.6806636,0.25458023,-0.46704364,0.5037424,8.974242210388184,0.12392440438270569,2.168851375579834,11.957313537597656,-11.128364562988281, 13.146756172180176
244,2701024456,0.6786252,0.2556537,-0.4680849,0.5049808,8.795065879821777,0.4201100766658783,2.4160687923431396,9.6699800491333,-12.329318046569824, 12.312714576721191
245,2701041123,0.67664766,0.25645685,-0.4693015,0.5060969,8.80793571472168,0.47983717918395996,2.8315670490264893,7.1193976402282715,-12.084508895874023, 12.562294960021973
246,2701057790,0.6747229,0.25684953,-0.47086334,0.5070162,8.865005493164062,0.5950034260749817,2.9151341915130615,3.129843235015869,-12.328929901123047, 13.283690452575684
247,2701074457,0.6727959,0.25726488,-0.47270876,0.50764877,8.855548858642578,0.6138220429420471,2.6686172485351562,1.313753604888916,-14.241521835327148, 12.413081169128418
248,2701091124,0.670756,0.25782546,-0.47456297,0.50833315,8.953112602233887,0.3940395712852478,2.2183384895324707,2.3146932125091553,-15.06295108795166, 12.614815711975098
249,2701107791,0.6688098,0.25806993,-0.47663245,0.5088369,8.759490013122559,0.4095379412174225,1.6745293140411377,-0.6539186835289001,-14.951559066772461, 12.888922691345215
250,2701124458,0.66686964,0.25824064,-0.478836,0.50922793,8.593949317932129,0.06868355721235275,1.923336148262024,-1.7593644857406616,-15.53683853149414, 12.921829223632812
251,2701141125,0.66468155,0.25881174,-0.48110238,0.50966215,7.919776439666748,-0.7053304314613342,1.8224053382873535,0.348198801279068,-17.871341705322266, 12.714926719665527
252,2701157792,0.6619828,0.26040027,-0.4827133,0.510841,7.483429908752441,-0.8040984272956848,1.8439030647277832,10.696714401245117,-18.81312370300293, 13.38071346282959
253,2701174459,0.6591379,0.26195583,-0.4843115,0.51220965,8.324492454528809,-0.016691140830516815,1.9970579147338867,11.461742401123047,-18.750627517700195, 14.801403045654297
254,2701191126,0.6562901,0.2632537,-0.48630652,0.51330996,8.984638214111328,0.7916715741157532,2.343813180923462,8.029208183288574,-20.142934799194336, 15.197516441345215
255,2701207793,0.6533494,0.2644214,-0.4885323,0.51434624,8.545928001403809,0.40340813994407654,1.9490621089935303,6.417720794677734,-21.00210952758789, 16.010866165161133
256,2701224460,0.6503066,0.2653082,-0.49086487,0.5155237,7.865955829620361,-0.02850855328142643,1.4790730476379395,5.591504096984863,-20.708011627197266, 18.291210174560547
257,2701241127,0.64714533,0.26581225,-0.49326754,0.516947,7.419921398162842,-0.2748262286186218,1.456388235092163,4.637365818023682,-19.556968688964844, 21.209217071533203
258,2701257794,0.643836,0.26630414,-0.4954447,0.5187407,7.383726119995117,-0.4451398253440857,0.9716898202896118,6.8432159423828125,-18.24964141845703, 22.964500427246094
259,2701274461,0.64068806,0.26654008,-0.49743348,0.52061045,7.327517509460449,-0.30950483679771423,0.979387104511261,6.360387802124023,-15.791861534118652, 23.257888793945312
260,2701291128,0.63773793,0.26635233,-0.4993775,0.52246445,7.240901947021484,-0.801840603351593,0.9832502603530884,4.102787017822266,-13.258845329284668, 23.75909996032715
261,2701307795,0.63481414,0.26629424,-0.5009651,0.5245307,7.282815456390381,-0.6096893548965454,1.5492706298828125,6.664205551147461,-11.67654037475586, 23.508085250854492
262,2701324462,0.63202727,0.26606768,-0.50245166,0.5265852,7.1623854637146,-0.7220348715782166,1.4867470264434814,6.044950008392334,-10.20815658569336, 23.386810302734375
263,2701341129,0.6290899,0.26620612,-0.5035588,0.5289698,6.85060977935791,-1.2435637712478638,1.3595322370529175,10.34639835357666,-9.697453498840332, 23.361804962158203
264,2701357796,0.62616634,0.26692316,-0.5041775,0.53148174,6.645196437835693,-0.8210697770118713,1.097292184829712,14.970794677734375,-9.299943923950195, 20.89925193786621
265,2701374463,0.6235696,0.26766515,-0.5050135,0.53336453,6.9535417556762695,-0.26986345648765564,0.96934574842453,11.521465301513672,-10.340007781982422, 17.315710067749023
266,2701391130,0.6211379,0.26851428,-0.5061454,0.5347007,6.8204193115234375,-0.5629101395606995,1.186025619506836,8.755478858947754,-12.479629516601562, 14.598129272460938
267,2701407797,0.6186979,0.26953772,-0.5075095,0.5357205,6.506269931793213,-0.9494720697402954,1.7509081363677979,7.403650283813477,-14.510820388793945, 13.023789405822754
268,2701424464,0.6161181,0.2708481,-0.50912875,0.5364959,6.291089057922363,-1.0158931016921997,1.6709542274475098,7.182037830352783,-17.706680297851562, 12.022717475891113
269,2701441131,0.6132253,0.2728112,-0.51074135,0.53728217,6.15752649307251,-1.360406756401062,1.8183317184448242,10.580881118774414,-21.145370483398438, 10.91788101196289
270,2701457798,0.6099179,0.27535257,-0.5123491,0.5382191,5.558219909667969,-1.704397201538086,2.210336685180664,14.289595603942871,-24.36465835571289, 11.003308296203613
271,2701474465,0.6059762,0.27890962,-0.5133601,0.53987396,5.115532875061035,-2.106309652328491,1.867556095123291,24.583728790283203,-26.641380310058594, 11.667561531066895
272,2701491132,0.601532,0.28320533,-0.5139466,0.5420453,5.08126163482666,-2.242060422897339,1.335328221321106,32.13932800292969,-28.558692932128906, 12.2628755569458
273,2701507799,0.5967746,0.28833944,-0.51416665,0.5443832,5.3582634925842285,-1.3085658550262451,1.0936977863311768,38.120849609375,-30.86133575439453, 10.359973907470703
274,2701524466,0.5921776,0.29354867,-0.5146588,0.5461511,5.084970474243164,-2.009033679962158,1.166408658027649,35.17299270629883,-32.93977355957031, 7.714667320251465
275,2701541133,0.5872697,0.2998438,-0.51415175,0.54850334,5.056062698364258,-1.865617275238037,0.4441887438297272,46.0999870300293,-32.935935974121094, 5.375007629394531
276,2701557800,0.58304036,0.3056943,-0.51359564,0.5503041,6.196753978729248,1.3159252405166626,-0.5464496612548828,41.29033660888672,-29.970190048217773, 2.0691983699798584
277,2701574467,0.57934844,0.31069303,-0.51393515,0.5510861,7.60636043548584,1.7824081182479858,-0.5100643634796143,29.745365142822266,-30.510520935058594, 0.9252839088439941
278,2701591134,0.57607514,0.3149311,-0.5147931,0.5513111,6.865053653717041,1.2880713939666748,-0.8923310041427612,21.946928024291992,-29.438068389892578, 1.053436040878296
279,2701607801,0.5733249,0.31787634,-0.5157639,0.5515806,5.731410026550293,0.9763623476028442,-1.3827109336853027,15.479058265686035,-23.048664093017578, 4.1709818840026855
280,2701624468,0.5714353,0.31887153,-0.51702464,0.5517867,5.69482946395874,0.411513090133667,-0.9937545657157898,4.518589973449707,-13.699015617370605, 8.251208305358887
281,2701641135,0.5702608,0.3187492,-0.5181228,0.55204195,6.164708614349365,0.3968057632446289,-0.4643358290195465,-0.7202549576759338,-5.990799427032471, 9.375025749206543
282,2701657802,0.5700846,0.31754035,-0.51948285,0.5516423,5.954321384429932,-0.2800825536251068,-0.05172443389892578,-10.50561809539795,-0.710791289806366, 7.514853477478027
283,2701674469,0.5711861,0.3149612,-0.52171093,0.5498759,5.239040374755859,-0.490317165851593,-0.0458962582051754,-26.907926559448242,2.7997894287109375, 4.120716571807861
284,2701691136,0.57300496,0.31187588,-0.5245848,0.5470007,5.599047660827637,-0.5390156507492065,0.18180684745311737,-36.94028854370117,2.487511157989502, 0.28402701020240784
285,2701707803,0.57514477,0.3091887,-0.5280469,0.5429342,5.506106853485107,-0.9385644793510437,0.8193017840385437,-42.64645767211914,-2.5870275497436523, -5.7623443603515625
286,2701724470,0.5768313,0.30842105,-0.5306929,0.53898734,4.732792854309082,-2.7220749855041504,0.3138042092323303,-30.723854064941406,-7.750178337097168, -12.283670425415039
287,2701741137,0.5787459,0.30894276,-0.53273,0.53460854,4.571625232696533,-1.8567956686019897,0.6002737283706665,-25.43475341796875,-10.133999824523926, -20.8962459564209
288,2701757804,0.580472,0.31070584,-0.53397596,0.5304563,4.490176200866699,-1.7336692810058594,0.40137115120887756,-16.241405487060547,-11.958881378173828, -25.563793182373047
289,2701774471,0.5817559,0.31361157,-0.5345363,0.5267626,4.822296142578125,-1.0659089088439941,0.3233216404914856,-6.679239273071289,-13.82806396484375, -27.796062469482422
290,2701791138,0.5827856,0.3169459,-0.5349683,0.52317816,5.18087100982666,-0.4659906029701233,0.1748906373977661,-3.390007495880127,-15.834663391113281, -28.318084716796875
291,2701807805,0.5835421,0.3204811,-0.53546053,0.5196658,5.293728351593018,0.2918402850627899,-0.4024539589881897,-1.8882265090942383,-17.73271369934082, -27.644609451293945
292,2701824472,0.5840151,0.32403213,-0.53596854,0.51639855,4.6495561599731445,0.15389768779277802,-0.2229699194431305,-0.37349843978881836,-18.3057918548584, -25.616886138916016
293,2701841139,0.5843766,0.32766342,-0.5360897,0.5135646,4.456360816955566,-0.1339988112449646,-0.4082329273223877,3.3484933376312256,-16.75876235961914, -24.657323837280273
294,2701857806,0.5844059,0.3317681,-0.5357052,0.5112922,4.965595245361328,-0.7512183785438538,-1.359395980834961,9.926983833312988,-16.441152572631836, -24.119260787963867
295,2701874473,0.58390355,0.33646667,-0.5347791,0.50976276,4.896300792694092,-0.7075589895248413,-0.8226672410964966,18.221181869506836,-16.60586929321289, -22.719528198242188
296,2701891140,0.58291477,0.3415375,-0.5334426,0.5089218,4.531647205352783,-0.6060763001441956,0.04889308288693428,24.95821189880371,-16.61741828918457, -20.641908645629883
297,2701907807,0.58145714,0.34652573,-0.5319376,0.50879264,4.512746810913086,0.13486003875732422,1.0633764266967773,28.97982406616211,-15.758761405944824, -16.28615379333496
298,2701924474,0.5798934,0.3507767,-0.5311409,0.5084967,4.015958786010742,0.8260562419891357,1.6332378387451172,23.36191749572754,-17.089086532592773, -12.26312255859375
299,2701941141,0.5787376,0.35422957,-0.5304002,0.50819296,2.6585121154785156,0.8910539746284485,1.2894160747528076,19.047460556030273,-13.249506950378418, -10.680431365966797
300,2701957808,0.57795185,0.35725734,-0.52899516,0.5084322,2.435208320617676,0.46383121609687805,0.022345401346683502,20.790477752685547,-6.585165977478027, -9.8833589553833
301,2701974475,0.57703507,0.36008346,-0.5273987,0.5091376,2.8743321895599365,0.9659339189529419,0.03658818453550339,22.71415138244629,-4.530755043029785, -7.340192794799805
302,2701991142,0.5757367,0.3627322,-0.5262244,0.5099417,3.374850273132324,0.9497524499893188,0.688510537147522,21.873485565185547,-6.815425395965576, -3.9404702186584473
303,2702007809,0.57415324,0.36509463,-0.52567667,0.51060563,3.579258680343628,1.1420865058898926,1.113700032234192,18.79340362548828,-9.814070701599121, -0.9246326088905334
304,2702024476,0.57260025,0.3667624,-0.5258378,0.5109883,2.883211374282837,1.4092152118682861,1.5418806076049805,12.427592277526855,-10.807402610778809, 2.1679439544677734
305,2702041143,0.57147706,0.36766475,-0.5264642,0.5109522,2.2043535709381104,1.1674981117248535,1.3439048528671265,4.40023136138916,-8.453922271728516, 3.4169721603393555
306,2702057810,0.5705874,0.36802638,-0.52751297,0.5106044,2.522106409072876,0.3762851655483246,-0.2890360355377197,-0.9372713565826416,-8.263082504272461, 4.406122207641602
307,2702074477,0.56972003,0.36817127,-0.5286316,0.5103113,2.863957405090332,0.2649722993373871,-0.12373454868793488,-1.095314621925354,-8.733562469482422, 4.946383953094482
308,2702091144,0.5686234,0.36854914,-0.52945286,0.51041037,3.084578514099121,0.5951891541481018,0.347313791513443,2.923633575439453,-8.33362102508545, 5.595871448516846
309,2702107811,0.56685704,0.36931542,-0.52988464,0.51137215,3.4119415283203125,-0.06450816243886948,0.18431857228279114,10.62352180480957,-8.442797660827637, 8.893613815307617
310,2702124478,0.5647118,0.37017855,-0.5301516,0.51284295,3.1064677238464355,0.8952520489692688,1.1343063116073608,14.353793144226074,-8.197406768798828, 11.411389350891113
311,2702141145,0.5630564,0.3697718,-0.53090936,0.5141707,3.4772143363952637,1.2447360754013062,-0.276164174079895,6.005011558532715,-4.413136005401611, 14.913897514343262
312,2702157812,0.56125504,0.36874685,-0.53236187,0.5153731,3.9862124919891357,0.14748384058475494,-1.5302807092666626,0.23123818635940552,-4.53682279586792, 19.66109848022461
313,2702174479,0.5592503,0.3675518,-0.5336854,0.5170345,3.615968942642212,0.0254498440772295,-0.4815131723880768,2.8154611587524414,-3.8535521030426025, 21.912870407104492
314,2702191146,0.5574547,0.36600012,-0.5350368,0.51867545,3.5282459259033203,-0.13158458471298218,-0.7135757803916931,0.7896345257759094,-2.0573692321777344, 22.383277893066406
315,2702207813,0.55565125,0.36449713,-0.53635913,0.5203003,2.3301830291748047,-0.1947435438632965,-0.08529458940029144,1.14456307888031,-2.345743179321289, 21.95207405090332
316,2702224480,0.553818,0.36374304,-0.5371276,0.52198714,2.0383036136627197,-1.2750828266143799,-0.21092770993709564,6.089804649353027,-2.5773324966430664, 18.290571212768555
317,2702241147,0.5519965,0.36388457,-0.5373012,0.52363664,2.394336223602295,-1.4652737379074097,-0.07646659761667252,11.54971981048584,-3.7200052738189697, 13.147660255432129
318,2702257814,0.5503753,0.36463866,-0.5370228,0.52510214,2.163020372390747,-0.17020830512046814,0.11437680572271347,14.233227729797363,-3.800826072692871, 8.35217571258545
319,2702274481,0.54896224,0.3652603,-0.5368725,0.52630156,1.800637125968933,0.25699713826179504,1.0773646831512451,11.770408630371094,-3.7478833198547363, 7.364099025726318
320,2702291148,0.54750764,0.3654678,-0.5368048,0.52773994,1.9863309860229492,0.7556413412094116,1.2176976203918457,10.87763786315918,-2.1662724018096924, 10.144460678100586
321,2702307815,0.5461869,0.36461273,-0.53662324,0.52988017,2.8431320190429688,1.3847407102584839,-0.9371475577354431,9.560022354125977,4.264923095703125, 15.905755043029785
322,2702324482,0.5457976,0.36142102,-0.53675157,0.53233254,4.391091346740723,1.2538846731185913,-1.3888225555419922,-1.5528764724731445,15.884788513183594, 23.137224197387695
323,2702341149,0.5475378,0.3544781,-0.5374259,0.5345288,5.884969234466553,-1.1664695739746094,-0.4661898612976074,-23.957860946655273,34.98544692993164, 29.730525970458984
324,2702357816,0.5515247,0.34606543,-0.53730875,0.53605825,5.195949077606201,-3.0515520572662354,-1.4079244136810303,-34.7006950378418,50.391761779785156, 22.673999786376953
325,2702374483,0.5579386,0.3377726,-0.53567517,0.5363454,5.674599647521973,-2.55582594871521,-1.3387901782989502,-39.1962890625,62.10930252075195, 5.13670539855957
326,2702391150,0.5668283,0.32903177,-0.53309226,0.53502965,6.044174671173096,-2.080564260482788,0.9820701479911804,-49.18751525878906,73.05599975585938, -10.610405921936035
327,2702407817,0.57907283,0.31613296,-0.5330819,0.52967757,9.688813209533691,-1.9610265493392944,6.360798358917236,-97.36039733886719,81.63021087646484, -17.523239135742188
328,2702424484,0.5920549,0.30343172,-0.53800005,0.5176447,10.433871269226074,-6.01999044418335,10.655790328979492,-141.03720092773438,49.850093841552734, -36.35055923461914
329,2702441151,0.6024225,0.29514953,-0.5438886,0.504142,11.357941627502441,-4.501871109008789,17.649089813232422,-126.698974609375,17.36928367614746, -47.219669342041016
330,2702457818,0.60941035,0.2828815,-0.5567377,0.48850822,2.123828411102295,-7.7175703048706055,7.705725193023682,-168.7594757080078,-14.821749687194824, -15.029450416564941
331,2702474485,0.612891,0.2690424,-0.5734867,0.47232836,-0.7068513631820679,-8.565732955932617,0.9376373291015625,-183.89544677734375,-40.36186981201172, 8.197980880737305
332,2702491152,0.60969156,0.25866297,-0.58586586,0.46704504,-3.5656607151031494,-14.09697151184082,5.5167765617370605,-98.42615509033203,-40.991573333740234, 51.98227310180664
333,2702507819,0.6023217,0.25090075,-0.59051806,0.47491682,-7.165781497955322,-6.508152961730957,10.057894706726074,-2.1886768341064453,-10.541071891784668, 95.81037139892578
334,2702524486,0.59616244,0.24076922,-0.59021115,0.48813054,-8.781973838806152,-1.6235865354537964,8.811738967895508,23.739179611206055,31.5650634765625, 114.86869049072266
335,2702541153,0.5956432,0.2215614,-0.58958584,0.4985061,-11.27413558959961,3.8424878120422363,10.179244041442871,-33.328609466552734,81.28372955322266, 120.56962585449219
336,2702557820,0.60185057,0.19553384,-0.58551395,0.50667137,-11.163061141967773,6.034064292907715,9.249895095825195,-68.77792358398438,142.42471313476562, 110.92218780517578
337,2702574487,0.6127797,0.16532992,-0.57660335,0.51448596,-6.526947975158691,5.208912372589111,3.5244123935699463,-77.09028625488281,195.34324645996094, 103.41645812988281
338,2702591154,0.6249881,0.14113879,-0.55875677,0.52655566,-2.5558254718780518,7.962158203125,-2.9913618564605713,-4.768002510070801,221.62281799316406, 82.91707611083984
339,2702607821,0.63607955,0.12952271,-0.5331734,0.5425431,4.2947258949279785,1.9651857614517212,-9.091230392456055,93.42670440673828,209.0182342529297, 48.205711364746094
340,2702624488,0.6460544,0.12945528,-0.5033555,0.5590065,9.74953842163086,3.5415220260620117,-12.07088565826416,162.61557006835938,181.15213012695312, 8.512861251831055
341,2702641155,0.65327185,0.1315451,-0.48091495,0.56978303,13.999157905578613,-0.6491361260414124,-17.47247314453125,126.7154312133789,125.95341491699219, -6.80047607421875
342,2702657822,0.65374166,0.1342097,-0.47026336,0.5774619,15.244776725769043,-5.822392463684082,-23.597700119018555,79.1718978881836,46.287513732910156, 14.635507583618164
343,2702674489,0.64518183,0.14141355,-0.47037905,0.58522326,13.283529281616211,-7.315119743347168,-30.033592224121094,65.76348114013672,-48.46981430053711, 46.12635040283203
344,2702691156,0.62656784,0.15886784,-0.4789304,0.5939693,12.797541618347168,-7.111618995666504,-32.08427810668945,90.68006134033203,-157.87435913085938, 65.91118621826172
345,2702707823,0.6006858,0.18383232,-0.49546534,0.59991395,9.60956859588623,0.10072171688079834,-28.921125411987305,89.56893157958984,-249.16294860839844, 67.35458374023438
346,2702724490,0.572449,0.20884214,-0.51762176,0.6006287,6.503023147583008,5.182201385498047,-23.187602996826172,51.964481353759766,-286.58160400390625, 62.353031158447266
347,2702741157,0.5460787,0.23153758,-0.5406561,0.59655654,2.504988431930542,6.788416385650635,-16.362279891967773,19.60791015625,-280.2638244628906, 45.3403205871582
348,2702757824,0.5228075,0.25264773,-0.5603058,0.59067667,-2.6449623107910156,6.456581115722656,-9.970735549926758,15.897161483764648,-252.17515563964844, 26.41049575805664
349,2702774491,0.50311977,0.27301803,-0.5720205,0.5874728,-5.865403652191162,4.950616836547852,-6.338920593261719,49.5033073425293,-202.1602783203125, 10.552287101745605
350,2702791158,0.48698285,0.2921302,-0.57518685,0.588785,-2.954070806503296,5.970950603485107,-2.334475517272949,90.32503509521484,-142.7951202392578, 1.7692409753799438
351,2702807825,0.47391942,0.3029155,-0.5813496,0.5879417,6.744542598724365,-2.96522855758667,-25.16362190246582,35.50052261352539,-110.9884033203125, 21.263938903808594
352,2702824492,0.45043322,0.32575625,-0.580345,0.5951407,26.82238006591797,2.2681424617767334,-0.6668109893798828,157.89556884765625,-160.63693237304688, 26.326210021972656
353,2702841159,0.4342252,0.3335969,-0.5916352,0.5917174,14.172595977783203,12.423617362976074,17.04351806640625,2.406553268432617,-131.84963989257812, 51.36139678955078
354,2702857826,0.41485608,0.3428186,-0.6028882,0.5889785,14.171003341674805,5.297470569610596,0.6466588973999023,16.68177604675293,-152.6109161376953, 59.69340133666992
355,2702874493,0.3971641,0.35088548,-0.61423266,0.5846866,8.789534568786621,6.314913749694824,3.6816964149475098,2.608795166015625,-141.5212860107422, 55.168731689453125
356,2702891160,0.38078907,0.3567737,-0.62595797,0.57955927,6.142663478851318,-0.013311243616044521,2.41296648979187,-11.50340461730957,-130.3417510986328, 58.025047302246094
357,2702907827,0.36862323,0.3605733,-0.638415,0.57142806,5.108554840087891,-1.7833436727523804,3.1724660396575928,-43.04430389404297,-113.17362976074219, 44.34384536743164
358,2702924494,0.3595389,0.3617573,-0.6525397,0.56040657,3.7991247177124023,-3.8145368099212646,5.372226715087891,-76.50963592529297,-101.10142517089844, 40.568023681640625
359,2702941161,0.35456854,0.36056805,-0.6697633,0.54377306,5.590404987335205,-1.5825823545455933,5.919371604919434,-129.69873046875,-95.188232421875, 29.405033111572266
360,2702957828,0.35065284,0.35981613,-0.6872765,0.5246199,5.474662780761719,0.23298102617263794,8.660758018493652,-143.92694091796875,-99.18653106689453, 18.301311492919922
361,2702974495,0.34719938,0.35912478,-0.70355266,0.50546587,5.9184393882751465,1.4547048807144165,5.734679222106934,-141.2956085205078,-98.72913360595703, 11.154767036437988
362,2702991162,0.34360725,0.35918626,-0.71746254,0.48802337,6.839263439178467,1.7016173601150513,6.486173629760742,-122.73273468017578,-92.42314910888672, 6.33315896987915
363,2703007829,0.33523676,0.3635321,-0.7284587,0.47414023,8.33094310760498,-0.3277025520801544,9.634764671325684,-73.55103302001953,-114.9928207397461, 2.5346779823303223
364,2703024496,0.32092538,0.37254423,-0.7428406,0.4543192,9.793157577514648,-3.549492835998535,15.082589149475098,-88.84428405761719,-182.99769592285156, -6.659122467041016
365,2703041163,0.2996892,0.3874908,-0.75854975,0.429697,10.78341293334961,-5.293761730194092,18.03554916381836,-86.86682891845703,-252.6746063232422, -22.57804298400879
366,2703057830,0.2764276,0.40553057,-0.773095,0.40181705,19.53383445739746,-3.2124085426330566,19.132394790649414,-88.85675048828125,-279.24786376953125, -42.62260055541992
367,2703074497,0.25671595,0.4212257,-0.7853077,0.37410954,15.386658668518066,-2.6773641109466553,30.871919631958008,-96.00193786621094,-249.66494750976562, -46.07125473022461
368,2703091164,0.23965126,0.43388125,-0.79441774,0.35101998,14.45303726196289,-2.1748647689819336,27.83250617980957,-76.35101318359375,-209.54368591308594, -37.2916145324707
369,2703107831,0.22536412,0.44483972,-0.7995864,0.3346497,14.906996726989746,-4.698715686798096,23.90879249572754,-41.39310836791992,-164.43902587890625, -35.39980697631836
370,2703124498,0.21479324,0.45501968,-0.800134,0.32650682,14.677959442138672,-3.673112392425537,21.110393524169922,1.7286666631698608,-110.47479248046875, -41.0684928894043
371,2703141165,0.21387191,0.46273258,-0.7984249,0.3203984,12.94754409790039,-1.4490925073623657,18.37864875793457,-15.957385063171387,-42.64628219604492, -53.208248138427734
372,2703157832,0.22218107,0.46608606,-0.7940891,0.32065874,8.306994438171387,-1.8508734703063965,14.992510795593262,-11.032191276550293,41.3682861328125, -48.600486755371094
373,2703174499,0.2424294,0.46348822,-0.7873315,0.3263676,6.050722122192383,1.217592716217041,11.268743515014648,-23.34574317932129,140.63662719726562, -41.94932174682617
374,2703191166,0.27125302,0.45451668,-0.777557,0.33947256,4.949878215789795,-1.744768500328064,6.0406084060668945,-14.484391212463379,229.90615844726562, -24.033971786499023
375,2703207833,0.3039219,0.44088262,-0.76254606,0.36301196,3.238645315170288,-4.181241035461426,3.281870126724243,32.77939224243164,303.8300476074219, -5.088498592376709
376,2703224500,0.3394742,0.4238951,-0.74056804,0.39576408,2.8189496994018555,-3.838937759399414,0.3266104459762573,82.67794036865234,370.0390930175781, 3.3033111095428467
377,2703241167,0.37886634,0.40242654,-0.7116004,0.43374887,3.879911184310913,-2.5106091499328613,-2.350616455078125,106.68030548095703,433.6875305175781, 7.419140338897705
378,2703257834,0.42100084,0.37582433,-0.6764623,0.47319466,3.649749755859375,-2.166785717010498,-7.007213115692139,111.287109375,482.91351318359375, 11.035111427307129
379,2703274501,0.4630901,0.34422293,-0.63885057,0.5088499,3.8008317947387695,-1.4922724962234497,-11.76401138305664,87.37373352050781,496.7522277832031, 16.997867584228516
380,2703291168,0.50352573,0.30802384,-0.6004223,0.53951484,4.973623275756836,-3.8545947074890137,-19.18358039855957,57.64707565307617,496.87408447265625, 25.074953079223633
381,2703307835,0.5388716,0.2712884,-0.5640626,0.563785,7.847925662994385,-3.309028387069702,-26.659650802612305,31.39861488342285,462.51068115234375, 32.36615753173828
382,2703324502,0.566534,0.23609805,-0.53677326,0.57894003,7.420039653778076,-6.184096813201904,-36.3221435546875,-19.015640258789062,376.15399169921875, 38.40140151977539
383,2703341169,0.58282816,0.2140294,-0.516183,0.5899643,2.335756778717041,-3.723593235015869,-37.79227066040039,10.483171463012695,246.11802673339844, 26.58175277709961
384,2703357836,0.5930471,0.19799165,-0.5092885,0.59137106,-1.4872419834136963,-1.221214771270752,-33.54645919799805,-45.6850700378418,132.04786682128906, 11.34901237487793
385,2703374503,0.5988292,0.18308078,-0.5161698,0.5843404,-4.406338691711426,4.127150535583496,-27.490793228149414,-120.27307891845703,45.08346176147461, 9.772781372070312
386,2703391170,0.5976116,0.17348392,-0.5327671,0.5735182,-5.318755626678467,2.816056489944458,-25.08898162841797,-141.87628173828125,-45.309452056884766, 15.763474464416504
387,2703407837,0.58742213,0.1771802,-0.5495182,0.56707346,-4.691051006317139,-0.6202570199966431,-18.855928421020508,-60.915828704833984,-125.5245361328125, 20.653188705444336
388,2703424504,0.5695799,0.19214499,-0.56498295,0.56520236,-3.890225887298584,0.8661608695983887,-15.005721092224121,16.398542404174805,-187.30242919921875, 24.701351165771484
389,2703441171,0.54632276,0.21724708,-0.5774766,0.5664415,-2.4267802238464355,2.6850006580352783,-9.53284740447998,86.99654388427734,-231.79208374023438, 14.464544296264648
390,2703457838,0.52232647,0.24290165,-0.58925146,0.5665305,-4.644536972045898,5.236450672149658,-1.477717638015747,88.40797424316406,-235.81463623046875, 9.631178855895996
391,2703474505,0.5042924,0.26011714,-0.60102314,0.5628494,-7.127565383911133,5.804811954498291,-2.554949998855591,31.97857093811035,-181.10055541992188, 10.387313842773438
392,2703491172,0.4725723,0.2715315,-0.6336957,0.5489772,5.322771072387695,-37.40797424316406,-90.10186767578125,-85.99706268310547,-310.20928955078125, 86.0702896118164
393,2703507839,0.4193568,0.32674626,-0.621878,0.575017,24.393667221069336,15.894255638122559,24.723739624023438,439.7322692871094,-343.04052734375, 25.407634735107422
394,2703524506,0.39358312,0.33061856,-0.6558924,0.552801,6.075656414031982,-6.066272258758545,1.7822597026824951,-158.04075622558594,-262.15045166015625, 101.78727722167969
395,2703541173,0.36787948,0.34535006,-0.6677163,0.5473145,17.587448120117188,-1.7123169898986816,3.955699920654297,31.272878646850586,-206.03646850585938, 46.89802551269531
396,2703557840,0.3467439,0.3586039,-0.67815816,0.5396976,19.942150115966797,8.970952987670898,-3.7468454837799072,12.328298568725586,-180.84744262695312, 28.326595306396484
397,2703574507,0.33024776,0.3700663,-0.6909518,0.5259021,14.85940933227539,3.8752658367156982,-0.9534798860549927,-40.6462287902832,-173.37939453125, 11.196855545043945
398,2703591174,0.31912938,0.37697494,-0.7026262,0.51221377,15.628846168518066,2.546124219894409,-1.5091159343719482,-61.810630798339844,-135.7167510986328, 6.264980316162109
399,2703607841,0.3135178,0.37978145,-0.71487385,0.49641517,16.63275718688965,0.6090437769889832,1.804521083831787,-97.34882354736328,-101.62698364257812, 3.877681255340576
400,2703624508,0.31465688,0.37823167,-0.72906953,0.47580424,17.59621810913086,5.032909393310547,8.6182861328125,-154.7636260986328,-70.68362426757812, -2.7243807315826416
401,2703641175,0.32476246,0.36971453,-0.7446409,0.45094448,19.106853485107422,1.695408821105957,10.51474666595459,-219.0945281982422,-17.511157989501953, -2.3104922771453857
402,2703657842,0.32943064,0.36795518,-0.759243,0.42383337,5.450596332550049,2.006096124649048,4.869522571563721,-198.8518829345703,-70.48411560058594, -27.229286193847656
403,2703674509,0.32877144,0.3691789,-0.77547204,0.39275873,1.253577470779419,-7.939570903778076,11.559967994689941,-204.11424255371094,-121.00639343261719, -32.05083084106445
404,2703691176,0.31823644,0.37961563,-0.78333443,0.3755062,0.495506227016449,-7.367945671081543,11.416585922241211,-62.10001754760742,-144.88916015625, -44.72663879394531
405,2703707843,0.30559474,0.39239043,-0.7871044,0.36484036,2.6947028636932373,-3.4213929176330566,14.542093276977539,-5.6272172927856445,-136.4181365966797, -48.3698616027832
406,2703724510,0.29472902,0.4029571,-0.7892252,0.3576087,0.18150615692138672,-2.5044519901275635,24.22882652282715,7.509953498840332,-108.9157943725586, -38.19523620605469
407,2703741177,0.28641847,0.41094902,-0.7921241,0.3487478,4.035054683685303,-4.946233749389648,17.72978973388672,-15.74600601196289,-95.35000610351562, -31.735254287719727
408,2703757844,0.27844572,0.4190273,-0.79368734,0.34197164,5.388584136962891,-4.019730567932129,16.458389282226562,-2.1481494903564453,-85.62257385253906, -32.77803039550781
409,2703774511,0.27089038,0.42680266,-0.7965591,0.33158982,6.181014060974121,-4.487940788269043,15.703607559204102,-26.819988250732422,-95.92808532714844, -35.296913146972656
410,2703791178,0.26298216,0.43561742,-0.7995112,0.31915504,7.401766300201416,-3.2958619594573975,15.389488220214844,-35.39784240722656,-106.78590393066406, -43.83904266357422
411,2703807845,0.2575313,0.44286022,-0.8034786,0.30327314,8.317730903625488,-2.209238052368164,15.271993637084961,-66.86299133300781,-102.37138366699219, -43.82448959350586
412,2703824512,0.25606865,0.44654325,-0.80834526,0.28566784,8.094584465026855,-0.9885038137435913,13.62463665008545,-96.7627182006836,-80.13569641113281, -32.83340835571289
413,2703841179,0.25837958,0.44643235,-0.8133281,0.2691395,8.342683792114258,-1.5397202968597412,8.550811767578125,-109.29582977294922,-48.932899475097656, -16.961307525634766
414,2703857846,0.26020417,0.44559228,-0.8151478,0.26320216,7.973201751708984,-3.6599292755126953,4.737649440765381,-44.0330924987793,-12.384818077087402, -2.9301657676696777
415,2703874513,0.26129895,0.44453683,-0.8129279,0.27066255,6.278960704803467,-3.723048210144043,3.9364511966705322,40.1668586730957,32.07114791870117, 11.155252456665039
416,2703891180,0.26457605,0.44164908,-0.8078253,0.28699112,4.537136554718018,-3.8060519695281982,3.120166063308716,85.08100128173828,79.90569305419922, 24.4697208404541
417,2703907847,0.27173573,0.43711022,-0.7987946,0.31148297,3.7337465286254883,-3.5737617015838623,1.8507397174835205,123.32569122314453,136.67176818847656, 28.931922912597656
418,2703924514,0.2843279,0.4300449,-0.7859403,0.34134594,2.8918633460998535,-3.6262378692626953,1.2797919511795044,139.927001953125,195.2697296142578, 29.758974075317383
419,2703941181,0.3023586,0.42042986,-0.7688275,0.37513015,1.3784778118133545,-2.434821367263794,0.7139992117881775,150.01609802246094,250.66754150390625, 25.871490478515625
420,2703957848,0.3256976,0.4067853,-0.74796987,0.41108176,-1.212058186531067,-2.1647396087646484,0.26419782638549805,147.40533447265625,303.3311767578125, 27.183246612548828
421,2703974515,0.3537062,0.38835004,-0.7234021,0.44806916,-2.4594836235046387,-0.5220974087715149,-1.492824912071228,139.43528747558594,352.316162109375, 30.538036346435547
422,2703991182,0.38780838,0.3641399,-0.698231,0.47904104,-3.8432350158691406,2.4281766414642334,-3.7132327556610107,81.06838989257812,386.0740966796875, 24.197389602661133
423,2704007849,0.42394215,0.33560055,-0.67370033,0.5037592,-3.8900411128997803,2.0531182289123535,-7.448599815368652,32.35824203491211,393.0013732910156, 23.181196212768555
424,2704024516,0.4586601,0.30668968,-0.6495595,0.52311075,-2.130402088165283,3.042085647583008,-11.306744575500488,8.4356689453125,374.5392761230469, 14.992361068725586
425,2704041183,0.48972863,0.27987447,-0.62553775,0.53901666,0.30765336751937866,1.7791177034378052,-17.10936164855957,7.0680460929870605,343.4549560546875, 8.127904891967773
426,2704057850,0.51457167,0.25801226,-0.6021303,0.5532494,-0.24384725093841553,-1.4487650394439697,-21.792678833007812,26.454145431518555,293.5575866699219, 5.441259384155273
427,2704074517,0.5323191,0.24285424,-0.58113825,0.56562954,0.5222212076187134,-5.68629789352417,-24.90018653869629,46.16425323486328,227.47703552246094, 2.331345796585083
428,2704091184,0.5438584,0.23256716,-0.5645143,0.5757208,0.5270807147026062,-0.339827299118042,-25.52910614013672,48.54799270629883,164.61634826660156, 5.7662034034729
429,2704107851,0.5509582,0.22084346,-0.5620115,0.5760352,-1.238081693649292,-2.0244929790496826,-29.608932495117188,-43.3033447265625,85.31652069091797, 14.919817924499512
430,2704124518,0.55271745,0.21442018,-0.5659909,0.57287145,-3.6981749534606934,2.4218640327453613,-24.34832763671875,-53.90653991699219,14.603472709655762, 12.193520545959473
431,2704141185,0.5513469,0.20771597,-0.5824629,0.560007,-4.2371907234191895,4.688727855682373,-21.681549072265625,-137.12188720703125,-57.69650650024414, 7.21696138381958
432,2704157852,0.5430571,0.21128106,-0.5990618,0.5491579,-3.3779592514038086,1.732392430305481,-20.332258224487305,-80.58423614501953,-122.10076904296875, 0.6515401005744934
433,2704174519,0.5267738,0.22333059,-0.6149346,0.5426679,-1.8935198783874512,-1.9218533039093018,-20.094017028808594,-16.443796157836914,-177.62310791015625, 11.077260971069336
434,2704191186,0.4909883,0.24696867,-0.644888,0.53109,16.196584701538086,-13.87745475769043,-70.91246032714844,-18.412851333618164,-361.88946533203125, 37.872528076171875
435,2704207853,0.45301652,0.2892493,-0.6559071,0.52999717,21.07707977294922,19.978626251220703,32.25440979003906,164.64747619628906,-356.1243896484375, -34.177738189697266
436,2704224520,0.42088598,0.30698106,-0.68507016,0.50921184,3.655865430831909,-0.8437765836715698,-0.3195124864578247,-79.13380432128906,-329.34857177734375, 39.325225830078125
437,2704241187,0.38575032,0.33307797,-0.69298744,0.5099257,12.549424171447754,1.502685546875,-5.587942123413086,127.0733871459961,-273.85687255859375, 19.04058265686035
438,2704257854,0.35976616,0.3482412,-0.70547915,0.5015933,4.841069221496582,1.0483883619308472,-1.8670347929000854,17.89942741394043,-224.83274841308594, 25.568992614746094
439,2704274521,0.33705467,0.3576626,-0.7120375,0.5014722,7.218801498413086,1.9293811321258545,-3.0505950450897217,56.11041259765625,-154.9718017578125, 48.24148178100586
440,2704291188,0.3234704,0.36108655,-0.72334117,0.49169198,8.36048412322998,-3.060812473297119,0.5076627135276794,-43.90208053588867,-124.51144409179688, 35.52560806274414
441,2704307855,0.31209448,0.36375618,-0.7295702,0.48785868,10.259547233581543,0.11844897270202637,-3.967893362045288,-4.404297351837158,-85.17528533935547, 32.487789154052734
442,2704324522,0.3092887,0.3653493,-0.737095,0.47702357,11.626409530639648,-2.13824725151062,0.6161096096038818,-67.63967895507812,-59.0128059387207, -2.471554756164551
443,2704341189,0.3110531,0.366542,-0.7431853,0.46536943,13.745439529418945,-2.0210187435150146,0.7647421360015869,-79.51913452148438,-33.81281280517578, -20.606225967407227
444,2704357856,0.31837913,0.36576703,-0.7495778,0.45053586,15.078184127807617,-0.36430680751800537,7.265564441680908,-115.06800842285156,-8.048473358154297, -34.174495697021484
445,2704374523,0.32877544,0.36294258,-0.7563922,0.4336478,13.313210487365723,3.046279191970825,5.499837875366211,-139.3335723876953,7.557997226715088, -36.294124603271484
446,2704391190,0.33965993,0.36036417,-0.7641561,0.41332126,10.45505142211914,0.8876184225082397,9.527732849121094,-160.8157958984375,-1.7782461643218994, -44.136348724365234
447,2704407857,0.3459928,0.3564488,-0.7699304,0.40055066,7.015997409820557,-3.9204366207122803,17.5772647857666,-107.42922973632812,0.998340904712677, -11.29625415802002
448,2704424524,0.34302306,0.35975444,-0.7750794,0.39008206,1.417305827140808,-4.963448524475098,16.835966110229492,-53.754207611083984,-61.61569595336914, -19.997726440429688
449,2704441191,0.3248458,0.37610406,-0.77871203,0.38292134,1.3159984350204468,-6.840146064758301,5.2037177085876465,36.14615249633789,-166.37022399902344, -44.81928634643555
450,2704457858,0.28120932,0.40695074,-0.7747863,0.39372447,9.463541984558105,-10.488811492919922,-2.1653828620910645,250.47259521484375,-277.75543212890625, -35.02684020996094
451,2704474525,0.23476769,0.43552125,-0.77143896,0.4001095,9.824506759643555,6.998782634735107,19.95747184753418,228.7383575439453,-300.0943603515625, -22.379968643188477
452,2704491192,0.20537734,0.4503909,-0.7838534,0.37488952,12.27847957611084,-1.469613790512085,21.11665916442871,-55.58686828613281,-292.5981750488281, -0.1457049548625946
453,2704507859,0.18074147,0.46253487,-0.79534274,0.3475977,14.012627601623535,-3.8388330936431885,22.16307258605957,-83.08757019042969,-265.7106628417969, -3.444119930267334
454,2704524526,0.16386832,0.4709204,-0.8067064,0.31718436,12.540334701538086,-0.49149131774902344,23.16490364074707,-129.39889526367188,-224.7250213623047, -5.734403610229492
455,2704541193,0.1545957,0.47648972,-0.8176646,0.28369424,11.012226104736328,-3.7708568572998047,21.440185546875,-173.488037109375,-186.56834411621094, -11.49974250793457
456,2704557860,0.14790568,0.48232174,-0.8247667,0.25543994,10.61256217956543,-2.1579349040985107,20.73493194580078,-144.84263610839844,-151.8203125, -25.230087280273438
457,2704574527,0.14667389,0.48699757,-0.8294266,0.23102382,10.05000114440918,-1.0814588069915771,16.88827133178711,-138.1414031982422,-104.07825469970703, -32.58840560913086
458,2704591194,0.14904928,0.4900426,-0.83063674,0.2183701,8.48707103729248,-2.802170991897583,12.524646759033203,-79.31961059570312,-38.39622497558594, -28.808818817138672
459,2704607861,0.15215024,0.49233994,-0.82642514,0.22687742,5.996822357177734,0.7181897163391113,12.489950180053711,46.42255401611328,43.51070785522461, -22.25412940979004
460,2704624528,0.16588126,0.49084663,-0.8206006,0.24117978,4.146811008453369,2.7161145210266113,12.845026016235352,41.940677642822266,131.0017852783203, -16.633756637573242
461,2704641195,0.18865733,0.48450914,-0.81222785,0.26447165,1.9736191034317017,-3.0398104190826416,7.460755825042725,60.87263488769531,223.25503540039062, -2.567107915878296
462,2704657862,0.21308482,0.47710925,-0.7962517,0.30486885,1.1844360828399658,-2.8965578079223633,6.067817211151123,163.31820678710938,301.3941345214844, -2.75278902053833
463,2704674529,0.24444124,0.4663843,-0.7751605,0.3490854,1.2591493129730225,-2.6709163188934326,3.868929862976074,167.30210876464844,366.49822998046875, -10.196094512939453
464,2704691196,0.28155893,0.45130265,-0.7491934,0.3946643,1.5449731349945068,-3.0674543380737305,1.552738904953003,160.4284210205078,420.435791015625, -14.11224365234375
465,2704707863,0.32188118,0.43115297,-0.7185161,0.44072044,2.7022993564605713,-3.2933621406555176,-3.899796724319458,155.87921142578125,461.5361022949219, -10.392739295959473
466,2704724530,0.36374608,0.40782884,-0.6831583,0.48441654,2.8172805309295654,0.6363562941551208,-6.86508321762085,146.79751586914062,482.4525451660156, -18.5173397064209
467,2704741197,0.4103092,0.37572983,-0.65231997,0.51473516,1.9130022525787354,-0.4875763952732086,-9.273940086364746,33.72055435180664,485.24102783203125, -13.734375953674316
468,2704757864,0.4562637,0.33876842,-0.6245147,0.53576225,3.613771438598633,-2.8528151512145996,-15.149714469909668,-30.82965660095215,467.5192565917969, -8.28032398223877
469,2704774531,0.49685374,0.3020221,-0.6018813,0.54741037,7.13012170791626,-2.816572904586792,-24.894914627075195,-80.03762817382812,418.0286865234375, 5.394874572753906
470,2704791198,0.5281599,0.27142394,-0.5807363,0.5568855,7.757091045379639,-0.7981135845184326,-31.081228256225586,-54.805110931396484,345.6205749511719, 8.38576889038086
471,2704807865,0.5491626,0.25071338,-0.5643526,0.56308913,5.504247188568115,-2.0476276874542236,-35.18866729736328,-31.116331100463867,243.11050415039062, 4.122513771057129
472,2704824532,0.56067806,0.23875248,-0.55785215,0.56341684,0.9522479176521301,-2.0237927436828613,-35.77890396118164,-43.00806427001953,126.05213928222656, 1.6501178741455078
473,2704841199,0.56510824,0.23006545,-0.5657335,0.55467856,-1.5566322803497314,0.46686044335365295,-33.326045989990234,-108.98865509033203,16.527372360229492, 5.027456760406494
474,2704857866,0.55914617,0.23241478,-0.5795439,0.5454062,-1.7037447690963745,-1.1316146850585938,-30.95442008972168,-73.55534362792969,-89.92676544189453, 8.486284255981445
475,2704874533,0.5420711,0.24673462,-0.59565693,0.53895634,-1.5553629398345947,-1.0852985382080078,-24.926136016845703,-6.63867712020874,-182.53575134277344, 17.374713897705078
476,2704891200,0.51779675,0.2689715,-0.61244553,0.53334,-0.9831125140190125,2.444471597671509,-15.421915054321289,36.25786209106445,-240.66073608398438, 17.273454666137695
477,2704907867,0.49365944,0.29012445,-0.6297573,0.52491325,-1.5605257749557495,4.308299541473389,-5.589397430419922,18.84640884399414,-241.74249267578125, 13.579314231872559
478,2704924534,0.46378294,0.3028522,-0.65742445,0.51086134,4.598214149475098,-28.145244598388672,-50.83935546875,-59.15546417236328,-282.2619323730469, 73.11104583740234
479,2704941201,0.41757357,0.34176162,-0.65347874,0.5308455,15.76352310180664,6.967742443084717,10.818800926208496,326.4917297363281,-285.8323974609375, 41.00567626953125
480,2704957868,0.39635536,0.3477445,-0.67920357,0.51054746,7.000979423522949,-3.5585389137268066,0.31384503841400146,-116.8261947631836,-223.28395080566406, 63.022457122802734
481,2704974535,0.37412885,0.35711285,-0.69995993,0.492498,11.126150131225586,1.2684406042099,2.1542882919311523,-76.42626953125,-220.33892822265625, 46.62192916870117
482,2704991202,0.3528134,0.36978954,-0.71145374,0.48229894,16.28910255432129,9.927596092224121,-4.897735595703125,-1.8879114389419556,-195.57571411132812, 12.687501907348633
483,2705007869,0.33600438,0.3816081,-0.7212626,0.4703794,13.923763275146484,6.005363941192627,-1.4745880365371704,-18.3205509185791,-171.16632080078125, -6.093308925628662
484,2705024536,0.3208028,0.39215708,-0.7287988,0.46059853,13.999433517456055,2.740415096282959,-2.510390281677246,-7.58809757232666,-148.4928436279297, -5.700743675231934
485,2705041203,0.3113782,0.40062955,-0.7360382,0.4480931,13.729296684265137,0.9381874203681946,1.6060822010040283,-40.51737976074219,-119.89928436279297, -20.152442932128906
486,2705057870,0.30829626,0.40527323,-0.7427639,0.43475154,13.933262825012207,0.006189987063407898,2.608579397201538,-68.92282104492188,-77.54476165771484, -23.28141212463379
487,2705074537,0.3123912,0.4046098,-0.7520374,0.41610393,13.813648223876953,2.2138352394104004,7.178617477416992,-134.97320556640625,-45.58140563964844, -21.53431510925293
488,2705091204,0.32155806,0.4005583,-0.76301646,0.3923768,9.753000259399414,1.6741294860839844,5.083049297332764,-187.60435485839844,-27.943174362182617, -24.386905670166016
489,2705107871,0.32861248,0.3988359,-0.7721785,0.36970854,6.70733642578125,-0.5885143280029297,9.786588668823242,-166.23712158203125,-38.748531341552734, -33.361488342285156
490,2705124538,0.33356428,0.39668894,-0.7779986,0.3550929,2.985935688018799,-4.865488529205322,15.691202163696289,-110.26573944091797,-19.62120246887207, -16.6411075592041
491,2705141205,0.33217883,0.39960143,-0.7816916,0.3448687,0.6513969898223877,-5.036895275115967,12.359053611755371,-52.8339729309082,-49.489070892333984, -24.02056884765625
492,2705157872,0.32351732,0.40833342,-0.78753,0.3292372,0.999846875667572,-6.147017002105713,4.083928108215332,-53.813873291015625,-122.48162078857422, -44.60208511352539
493,2705174539,0.29709944,0.4269988,-0.792329,0.31877714,8.32343864440918,-11.049211502075195,-7.906461715698242,48.4267692565918,-224.42202758789062, -49.750091552734375
494,2705191206,0.26234508,0.45109287,-0.7923241,0.31608993,8.596657752990723,0.3492516875267029,10.865928649902344,136.8109893798828,-249.08013916015625, -59.471946716308594
495,2705207873,0.23524503,0.46708655,-0.8007645,0.29200366,7.746892929077148,-1.8050695657730103,16.439546585083008,-36.53122329711914,-271.7897033691406, -44.29119110107422
496,2705224540,0.20952952,0.47919363,-0.81047916,0.2638076,11.666557312011719,-8.757893562316895,15.036368370056152,-72.51005554199219,-272.1079406738281, -28.19710350036621
497,2705241207,0.1821416,0.49054366,-0.81760967,0.24022055,10.710989952087402,-5.229331016540527,16.811283111572266,-37.84346008300781,-261.6260986328125, -22.89124298095703
498,2705257874,0.15785009,0.49874094,-0.82433116,0.2163775,11.449780464172363,-5.254454135894775,19.217700958251953,-53.085758209228516,-239.82662963867188, -11.998662948608398
499,2705274541,0.13815862,0.504298,-0.83022606,0.19318572,9.929357528686523,-4.082578182220459,19.261655807495117,-66.8962173461914,-207.1758575439453, -6.0342583656311035
500,2705291208,0.12233224,0.50876653,-0.8342885,0.17364965,10.725611686706543,-2.494281053543091,16.844449996948242,-58.09944152832031,-169.65431213378906, -7.870970726013184
501,2705307875,0.11305478,0.511267,-0.83712363,0.15826847,11.251204490661621,-2.554173469543457,14.645268440246582,-57.393306732177734,-114.54200744628906, -5.21827507019043
502,2705324542,0.11004731,0.5117596,-0.838619,0.15069841,9.154903411865234,-1.5240812301635742,12.670159339904785,-34.602901458740234,-48.109397888183594, 0.8538802266120911
503,2705341209,0.111796744,0.5103558,-0.83829784,0.15586984,5.779049873352051,-1.1065541505813599,9.821494102478027,22.55834197998047,27.240224838256836, 10.115750312805176
504,2705357876,0.11985695,0.5079642,-0.83496517,0.17447068,3.847959041595459,0.9555880427360535,8.345820426940918,80.27479553222656,114.00030517578125, 8.852967262268066
505,2705374543,0.13949597,0.5024771,-0.8300042,0.19786552,2.1794490814208984,1.1603989601135254,7.412968158721924,66.77960205078125,202.24156188964844, 11.080684661865234
506,2705391210,0.16799058,0.4930792,-0.8234042,0.22507289,1.4315321445465088,-3.2997350692749023,4.610542297363281,56.42430114746094,272.881591796875, 19.40481185913086
507,2705407877,0.19714594,0.48278558,-0.8111669,0.26468834,1.3788542747497559,-3.272794246673584,2.6018898487091064,132.07965087890625,326.7099304199219, 18.683290481567383
508,2705424544,0.23005593,0.46962523,-0.7952379,0.3067952,1.0322543382644653,-2.7544314861297607,1.1445744037628174,136.28671264648438,366.2760009765625, 18.99310874938965
509,2705441211,0.26379943,0.45367464,-0.7751449,0.35176677,0.7356253862380981,-2.828497886657715,-0.3593381345272064,153.58981323242188,392.7120666503906, 23.60730743408203
510,2705457878,0.29807296,0.43471104,-0.7511312,0.39746827,1.356805443763733,-0.5653987526893616,-2.3620948791503906,159.802490234375,412.3952941894531, 27.493009567260742
511,2705474545,0.3343743,0.41297486,-0.7246876,0.43871835,0.7491879463195801,5.013763904571533,-2.8643457889556885,131.67257690429688,422.302978515625, 19.911439895629883
512,2705491212,0.3738245,0.3874863,-0.69872445,0.47105604,0.03871254622936249,5.5074639320373535,-4.671511173248291,68.21769714355469,423.0681457519531, 10.072282791137695
513,2705507879,0.4150795,0.3599893,-0.67266536,0.4956189,0.7520437240600586,3.956967830657959,-5.959876537322998,21.19586181640625,417.9931945800781, -6.331193923950195
514,2705524546,0.4562418,0.329683,-0.64945793,0.51123106,3.2034904956817627,-0.0451788455247879,-15.326192855834961,-37.7141227722168,397.06353759765625, -11.541118621826172
515,2705541213,0.4910495,0.30349287,-0.6259524,0.5243532,5.103710174560547,-3.928415536880493,-22.483684539794922,-20.343185424804688,349.9492492675781, -16.201980590820312
516,2705557880,0.51630265,0.28411433,-0.60463065,0.5358475,5.168416976928711,-1.0986337661743164,-29.4326229095459,7.935762882232666,274.140625, -12.19024658203125
517,2705574547,0.5319348,0.2721139,-0.5931286,0.53962743,3.6177473068237305,-2.3788187503814697,-34.51327896118164,-21.164901733398438,168.51776123046875, -2.2239465713500977
518,2705591214,0.53893596,0.26213467,-0.5976924,0.53253853,-1.4430395364761353,-1.2680190801620483,-36.25593566894531,-101.26332092285156,46.8913459777832, 10.902981758117676
519,2705607881,0.5355785,0.2598908,-0.6124445,0.52011967,-3.4434452056884766,-0.778049886226654,-34.78133773803711,-112.40473175048828,-71.23738861083984, 15.136621475219727
520,2705624548,0.5230686,0.2687291,-0.62987524,0.5073867,-4.363128662109375,2.7727391719818115,-27.606958389282227,-65.44510650634766,-159.161376953125, 5.195572376251221
521,2705641215,0.50503755,0.28316912,-0.6457356,0.49777314,-6.828039169311523,4.979684352874756,-16.423545837402344,-10.658428192138672,-199.25486755371094, -4.362851619720459
522,2705657882,0.48838994,0.29504713,-0.65995544,0.4887551,-7.562714576721191,1.5533946752548218,-15.353432655334473,-13.939496994018555,-177.16061401367188, 1.1081736087799072
523,2705674549,0.44873598,0.3213122,-0.6714562,0.49451104,22.07765769958496,-32.736351013183594,-70.00988006591797,157.34793090820312,-290.6260681152344, 57.03190994262695
524,2705691216,0.4239466,0.34050363,-0.67762095,0.4951329,9.205863952636719,20.133214950561523,31.06800651550293,97.60633087158203,-191.02418518066406, 10.425864219665527
525,2705707883,0.4011251,0.34368002,-0.7055659,0.47239766,25.17530632019043,-10.77416706085205,0.2856295108795166,-137.1250762939453,-246.7283172607422, 61.93422317504883
526,2705724550,0.37589884,0.36042404,-0.71346456,0.46878886,12.51145076751709,15.905519485473633,1.672182321548462,63.78030014038086,-202.26498413085938, 9.339444160461426
527,2705741217,0.35743055,0.3729924,-0.7242022,0.45678383,11.22858715057373,6.115896224975586,-6.5453410148620605,-14.220358848571777,-184.15170288085938, -6.197726726531982
528,2705757884,0.3442609,0.3804571,-0.7332712,0.44615072,11.058253288269043,-1.7819387912750244,-0.33153000473976135,-28.310579299926758,-134.21206665039062, 1.8948315382003784
529,2705774551,0.3395677,0.3837014,-0.739898,0.43591064,11.401570320129395,-0.7227779626846313,-1.0861104726791382,-51.078975677490234,-71.96228790283203, -8.169025421142578
530,2705791218,0.33998847,0.38506758,-0.7448218,0.4258774,9.48074722290039,-1.0912787914276123,-0.7284218668937683,-62.864776611328125,-36.024940490722656, -17.78958511352539
531,2705807885,0.3433872,0.38584659,-0.75097936,0.41138524,11.278230667114258,2.6130259037017822,1.327107310295105,-98.64022827148438,-33.953609466552734, -30.512657165527344
532,2705824552,0.35272405,0.38262388,-0.7600001,0.3893389,10.942532539367676,2.4180452823638916,4.547589302062988,-171.02418518066406,-19.069698333740234, -36.61798858642578
533,2705841219,0.36288866,0.37912625,-0.769256,0.3644455,9.668333053588867,1.5196247100830078,7.740987777709961,-189.46078491210938,-22.44744873046875, -43.416500091552734
534,2705857886,0.36953187,0.3775412,-0.7775146,0.34114504,6.783289432525635,-1.6970703601837158,9.882877349853516,-164.66259765625,-39.665985107421875, -43.13263702392578
535,2705874553,0.3701134,0.37927496,-0.7809119,0.33067098,2.326314687728882,-5.420760154724121,14.907196044921875,-60.6004638671875,-34.63529968261719, -26.624910354614258
536,2705891220,0.3603378,0.38970122,-0.78241295,0.32576042,-0.3297367990016937,-5.086040496826172,10.373934745788574,22.5986270904541,-91.12620544433594, -40.616756439208984
537,2705907887,0.3430772,0.40413424,-0.7861988,0.31759256,1.1676067113876343,-6.252176761627197,3.53822922706604,29.86709976196289,-155.03155517578125, -47.4667854309082
538,2705924554,0.31311503,0.42571044,-0.78907526,0.31319332,5.094615936279297,-2.42824387550354,0.4844818115234375,104.33139038085938,-226.80865478515625, -52.12703323364258
539,2705941221,0.28386128,0.44427752,-0.7951897,0.2995231,6.721705436706543,-1.3161230087280273,12.927391052246094,38.48244857788086,-250.7036590576172, -47.84644317626953
540,2705957888,0.26024365,0.45672634,-0.80640006,0.270912,5.902517318725586,-3.2278003692626953,17.485759735107422,-82.9142074584961,-263.3168640136719, -39.569541931152344
541,2705974555,0.23914535,0.46584222,-0.81778914,0.23879166,6.525453567504883,-6.3814897537231445,18.43230628967285,-116.637451171875,-254.96539306640625, -31.52676010131836
542,2705991222,0.21712938,0.4747473,-0.82576513,0.21349879,6.847039699554443,-3.6974096298217773,18.326709747314453,-70.11946105957031,-232.7504425048828, -28.627696990966797
543,2706007889,0.19999605,0.48147267,-0.8325419,0.18724264,6.727482318878174,-3.1391494274139404,19.849851608276367,-93.06301879882812,-203.61607360839844, -28.823177337646484
544,2706024556,0.18492272,0.48695982,-0.8375932,0.16465543,7.37108039855957,-5.527266979217529,18.634946823120117,-78.38626861572266,-176.1293487548828, -25.112430572509766
545,2706041223,0.16852205,0.49350858,-0.839644,0.15181431,8.136661529541016,-4.278961181640625,15.39764404296875,-13.119958877563477,-148.89964294433594, -27.45211410522461
546,2706057890,0.1559226,0.4988834,-0.8403185,0.14376575,9.322528839111328,-4.482386589050293,12.829811096191406,1.6959476470947266,-108.19325256347656, -23.78862953186035
547,2706074557,0.14847118,0.50289595,-0.8394719,0.14261506,8.845528602600098,-3.8227932453155518,10.886116027832031,23.903480529785156,-52.11044692993164, -18.84334945678711
548,2706091224,0.14615175,0.5059847,-0.836797,0.1496334,6.614237308502197,-2.804140567779541,8.295975685119629,54.1371955871582,8.28078842163086, -16.50982666015625
549,2706107891,0.14986545,0.5082071,-0.83163595,0.1662766,5.499964237213135,-1.5364069938659668,7.003015518188477,90.20594024658203,79.72451782226562, -16.656497955322266
550,2706124558,0.16358735,0.5083648,-0.8244957,0.1871136,4.527029037475586,-0.3591307997703552,6.627220630645752,79.36267852783203,155.92164611816406, -18.811376571655273
551,2706141225,0.18776035,0.50432265,-0.81632286,0.2098139,4.261483669281006,-3.355604887008667,4.327997207641602,50.015445709228516,228.20542907714844, -9.894299507141113
552,2706157892,0.21661128,0.4970703,-0.8047677,0.24155684,3.6262712478637695,-4.482925891876221,3.4295907020568848,85.25619506835938,294.8489685058594, 1.3426473140716553
553,2706174559,0.2507753,0.48592165,-0.790136,0.27690655,3.263484477996826,-2.890073299407959,2.2780330181121826,86.30335998535156,347.7010803222656, 8.94406509399414
554,2706191226,0.28903306,0.47012362,-0.77283293,0.31332585,2.718496799468994,-2.4116718769073486,-0.2788132429122925,75.45392608642578,387.06475830078125, 19.347291946411133
555,2706207893,0.33102283,0.44836476,-0.75385475,0.34798872,2.6680960655212402,-1.4438278675079346,-2.2785468101501465,45.754119873046875,417.5369873046875, 34.06804275512695
556,2706224560,0.37002313,0.42387828,-0.7313062,0.38548854,2.3485536575317383,-0.23485848307609558,-5.403738021850586,71.97911834716797,425.6098937988281, 50.803348541259766
557,2706241227,0.4052357,0.40014756,-0.7054937,0.42183483,2.3026621341705322,3.971438407897949,-6.180170059204102,87.769287109375,409.7110290527344, 44.5946044921875
558,2706257894,0.4382928,0.37767622,-0.67769694,0.45385805,3.030156135559082,2.1430583000183105,-9.852646827697754,81.97835540771484,389.44720458984375, 27.3050537109375
559,2706274561,0.46941587,0.35581312,-0.64946103,0.4808809,3.542175769805908,-0.05219484120607376,-14.672844886779785,66.90831756591797,367.18597412109375, 14.308328628540039
560,2706291228,0.4980877,0.33295596,-0.62640256,0.4986673,3.0284006595611572,-0.745874285697937,-19.10442352294922,11.369206428527832,320.6377868652344, 9.634751319885254
561,2706307895,0.5211086,0.31313428,-0.6080776,0.51052386,1.2343766689300537,-1.9060603380203247,-26.163108825683594,-6.955617904663086,256.6522216796875, 6.349308490753174
562,2706324562,0.53614277,0.30207834,-0.59407866,0.5180449,0.08202660083770752,-2.9195961952209473,-28.474594116210938,1.3165496587753296,177.61322021484375, 5.434671878814697
563,2706341229,0.54494596,0.29138374,-0.59151304,0.51792085,-2.36492919921875,-1.3106716871261597,-30.388498306274414,-54.946876525878906,91.5751724243164, 18.260618209838867
564,2706357896,0.54635257,0.284772,-0.59890485,0.5115828,-3.921072006225586,-1.6211594343185425,-31.185977935791016,-86.00297546386719,-1.478637456893921, 25.61147117614746
565,2706374563,0.5396256,0.2855011,-0.6131321,0.5013606,-3.816162586212158,-0.3453924357891083,-28.926834106445312,-81.89852905273438,-93.6884765625, 22.567846298217773
566,2706391230,0.52465767,0.29475695,-0.63127065,0.48923436,-3.12823224067688,-0.6507298946380615,-24.831954956054688,-54.76899719238281,-175.69000244140625, 15.625425338745117
567,2706407897,0.50197995,0.3119688,-0.6468289,0.48197946,-4.260221004486084,2.6646945476531982,-14.996809959411621,25.152299880981445,-222.94491577148438, 7.293275356292725
568,2706424564,0.47794655,0.32752085,-0.66115487,0.47662508,-4.587040424346924,-1.4186577796936035,-15.169817924499512,34.89654541015625,-214.8540496826172, 22.964813232421875
569,2706441231,0.4366529,0.35581538,-0.6729233,0.4794831,18.855852127075195,-15.640063285827637,-58.73041915893555,161.4456787109375,-307.9984130859375, 42.55430603027344
570,2706457898,0.4047896,0.38128206,-0.6765819,0.48270756,9.917866706848145,20.509450912475586,20.109485626220703,158.55752563476562,-228.39694213867188, 5.002300262451172
571,2706474565,0.3829708,0.38830453,-0.6989546,0.46261805,18.506303787231445,-5.553516387939453,-0.505759596824646,-90.02985382080078,-234.54843139648438, 42.18559646606445
572,2706491232,0.35308194,0.40609965,-0.70666546,0.45939127,17.343788146972656,5.886268138885498,7.959827423095703,87.46186065673828,-224.2446746826172, 21.393985748291016
573,2706507899,0.32998726,0.421781,-0.71588236,0.44802004,13.711825370788574,7.600863456726074,-4.831960678100586,18.847400665283203,-211.51431274414062, -5.092653274536133
574,2706524566,0.31098872,0.4319588,-0.724928,0.43723807,11.024893760681152,1.9173952341079712,2.0517842769622803,-2.1465189456939697,-172.5002899169922, 10.470734596252441
575,2706541233,0.29766586,0.4372249,-0.73476964,0.42466834,9.422701835632324,0.7622643709182739,-2.8350415229797363,-40.87892532348633,-136.76785278320312, 16.623449325561523
576,2706557900,0.2892035,0.43857792,-0.74621063,0.40887737,6.138434886932373,0.8886778354644775,-0.5289726257324219,-84.46863555908203,-113.91673278808594, 20.576574325561523
577,2706574567,0.2860998,0.4376079,-0.7567944,0.3923118,7.623260974884033,0.21560083329677582,-3.928968906402588,-106.83358001708984,-80.69873046875, 13.464629173278809
578,2706591234,0.28837582,0.43731275,-0.764433,0.37581816,9.462328910827637,0.1995479315519333,4.342991352081299,-113.38872528076172,-48.63810729980469, -13.125375747680664
579,2706607901,0.29628018,0.4355275,-0.77328193,0.35294372,11.26202392578125,-1.1843311786651611,6.877351760864258,-169.99884033203125,-37.13066101074219, -28.642658233642578
580,2706624568,0.30468836,0.4351038,-0.78202,0.3260287,11.207619667053223,-3.1658337116241455,7.883475303649902,-190.0281982421875,-50.050880432128906, -45.47278594970703
581,2706641235,0.3063789,0.4382734,-0.78603184,0.3101655,7.4317145347595215,-5.270883560180664,15.463068008422852,-92.44253540039062,-51.68891143798828, -40.60468292236328
582,2706657902,0.30285278,0.44192582,-0.7871714,0.30552092,3.010026216506958,-4.83548641204834,15.2940092086792,-9.040441513061523,-41.56120300292969, -17.08791160583496
583,2706674569,0.2940648,0.44979402,-0.7891555,0.2973972,4.808724880218506,-0.4408683180809021,11.768071174621582,-4.954648971557617,-91.62650299072266, -33.546607971191406
584,2706691236,0.2807991,0.45883486,-0.7951803,0.27984092,4.1346025466918945,-5.764031887054443,2.6737821102142334,-48.202632904052734,-156.026611328125, -37.28221130371094
585,2706707903,0.25274584,0.475585,-0.79715127,0.27292573,13.088842391967773,-6.2763752937316895,5.358942985534668,79.2838363647461,-210.44703674316406, -43.290931701660156
586,2706724570,0.22767535,0.48718375,-0.80292475,0.25715357,4.860776424407959,-2.7137062549591064,20.313684463500977,4.851237773895264,-220.35044860839844, -23.601333618164062
587,2706741237,0.20683767,0.49320337,-0.81237596,0.23240937,6.869699954986572,-7.860194206237793,18.73273277282715,-74.13563537597656,-223.38302612304688, -1.9872292280197144
588,2706757904,0.18602274,0.49876267,-0.8192275,0.2133022,5.850551605224609,-4.688512325286865,17.999195098876953,-39.30083084106445,-200.1038360595703, -0.30504074692726135
589,2706774571,0.16873492,0.5025618,-0.82490015,0.19621469,5.349834442138672,-1.8480606079101562,19.072513580322266,-40.58865737915039,-169.56332397460938, 2.9584107398986816
590,2706791238,0.15548855,0.50456405,-0.82985187,0.18051192,4.847767353057861,-3.2759952545166016,18.03862190246582,-47.82806396484375,-138.925048828125, 6.815860748291016
591,2706807905,0.14289385,0.5074748,-0.8321485,0.17198753,5.617559909820557,-2.4491519927978516,15.73523998260498,-4.897852420806885,-108.86222839355469, -0.7267778515815735
592,2706824572,0.13474017,0.51063526,-0.8325388,0.16726063,7.2616777420043945,-2.3181121349334717,13.362422943115234,3.819283962249756,-68.86918640136719, -10.316217422485352
593,2706841239,0.13214166,0.5140324,-0.8309378,0.166889,7.798967361450195,-1.2726970911026,11.432705879211426,11.755790710449219,-20.455488204956055, -20.993038177490234
594,2706857906,0.1350339,0.5168963,-0.82752615,0.17258273,6.7826361656188965,-1.648038625717163,10.226472854614258,28.618928909301758,34.37331008911133, -25.09318733215332
595,2706874573,0.14181976,0.51946723,-0.8210929,0.189334,5.611678600311279,-0.06639759242534637,8.662211418151855,81.02812957763672,98.80096435546875, -28.456697463989258
596,2706891240,0.15821368,0.51959383,-0.81282425,0.2104934,5.336307048797607,1.9051873683929443,8.487566947937012,71.6373291015625,173.64089965820312, -29.32935905456543
597,2706907907,0.18499912,0.51491565,-0.80377537,0.23362859,5.387452125549316,-1.0180951356887817,6.335599422454834,41.491546630859375,246.4748077392578, -18.05400848388672
598,2706924574,0.21654819,0.5058775,-0.7921872,0.2638834,5.156350135803223,-2.2346537113189697,3.9708104133605957,62.4871826171875,308.1966857910156, -1.481570839881897
599,2706941241,0.25222233,0.49281508,-0.7772156,0.2990872,4.5789713859558105,-0.9143354296684265,2.607675552368164,75.18701934814453,360.2350769042969, 8.610088348388672
600,2706957908,0.29200947,0.4748888,-0.7596469,0.33488485,4.769723892211914,-1.302659034729004,-0.5216803550720215,61.250850677490234,398.7790832519531, 18.434986114501953
601,2706974575,0.3319896,0.45319042,-0.73823756,0.37337255,4.74714994430542,-0.5940188765525818,-3.775717258453369,75.85835266113281,425.0784606933594, 30.589611053466797
602,2706991242,0.3705646,0.4297507,-0.7132743,0.4113832,4.621160507202148,3.4963386058807373,-6.189267635345459,82.87654113769531,429.20147705078125, 30.892662048339844
603,2707007909,0.40717307,0.4062371,-0.6850737,0.44705245,4.8227152824401855,3.819309711456299,-9.004505157470703,86.10577392578125,421.2911071777344, 21.344207763671875
604,2707024576,0.44291377,0.38232124,-0.65635484,0.4762944,6.580838680267334,2.4434618949890137,-13.45121955871582,58.65213394165039,402.1902160644531, 6.4840779304504395
605,2707041243,0.47657534,0.35727665,-0.6314534,0.49648365,7.0883636474609375,-1.3250216245651245,-19.32354164123535,7.289632320404053,361.42059326171875, 0.7973833084106445
606,2707057910,0.50423044,0.33358142,-0.6139011,0.50754374,5.575796127319336,-4.0026535987854,-27.611291885375977,-39.06427764892578,285.8646545410156, 5.408101558685303
607,2707074577,0.52350855,0.316631,-0.6010014,0.51427734,2.245418071746826,-3.382850408554077,-29.73226547241211,-32.346923828125,203.263671875, 4.301943302154541
608,2707091244,0.5365532,0.30225322,-0.5972271,0.51388085,-1.0504634380340576,-0.945053219795227,-30.293392181396484,-70.98442077636719,120.58961486816406, 9.175867080688477
609,2707107911,0.54363316,0.29080737,-0.60318017,0.5060315,-3.3244194984436035,0.645767331123352,-30.51506233215332,-113.91658782958984,36.325355529785156, 12.99606704711914
610,2707124578,0.54183716,0.28658253,-0.6165286,0.49414146,-3.8652546405792236,-1.48038911819458,-29.97970199584961,-112.26272583007812,-59.93718338012695, 15.12550163269043
611,2707141245,0.53145576,0.29115924,-0.6341434,0.48025334,-2.3748693466186523,0.752142608165741,-26.71277618408203,-85.08233642578125,-145.4447479248047, 8.146417617797852
612,2707157912,0.5138196,0.3020442,-0.6538236,0.46612626,-1.1596856117248535,1.8933227062225342,-22.045045852661133,-50.76021957397461,-209.20144653320312, -0.664463460445404
613,2707174579,0.4927509,0.31219658,-0.67724407,0.44840896,-0.20299553871154785,-2.6165223121643066,-22.218605041503906,-74.25044250488281,-242.4557647705078, 8.640335083007812
614,2707191246,0.4524684,0.33721855,-0.6977617,0.441231,13.488770484924316,-13.91129207611084,-45.21185302734375,75.53944396972656,-344.9012756347656, 27.90532112121582
615,2707207913,0.41660514,0.36347234,-0.7089214,0.43790248,10.805184364318848,18.369997024536133,16.41202163696289,116.17571258544922,-288.2992248535156, -1.7314445972442627
616,2707224580,0.38729396,0.37671325,-0.7303078,0.41802058,13.483434677124023,-2.297879695892334,-6.104917526245117,-49.25965118408203,-288.6385192871094, 20.467491149902344
617,2707241247,0.35991645,0.3900055,-0.74466866,0.40475252,9.480537414550781,5.446346759796143,2.4711568355560303,-0.8003851771354675,-243.32191467285156, 14.089749336242676
618,2707257914,0.33589327,0.4026419,-0.7552818,0.39319816,14.28983211517334,4.717672348022461,-3.9408493041992188,7.68399715423584,-210.78831481933594, 2.447927236557007
619,2707274581,0.31773803,0.412341,-0.7650841,0.37903014,11.214519500732422,2.142516613006592,0.34107673168182373,-26.789749145507812,-177.98377990722656, -6.281554698944092
620,2707291248,0.3049523,0.41805583,-0.7739023,0.36511457,10.128416061401367,0.6686971783638,-0.6421279311180115,-46.891632080078125,-136.78604125976562, -1.394842267036438
621,2707307915,0.2972661,0.42184234,-0.78105813,0.35161108,10.727015495300293,0.44432854652404785,-1.8856967687606812,-59.27553176879883,-100.39604949951172, -7.71168851852417
622,2707324582,0.2960535,0.42459607,-0.78660506,0.3366354,10.201324462890625,0.9746636152267456,2.8382749557495117,-84.2217788696289,-64.35450744628906, -25.343122482299805
623,2707341249,0.30006376,0.42589146,-0.791568,0.31937203,11.827927589416504,0.9361552596092224,2.3083202838897705,-113.5173110961914,-38.558753967285156, -35.727394104003906
624,2707357916,0.3085773,0.4267871,-0.79559684,0.29943067,10.46117115020752,2.5059401988983154,6.077243804931641,-140.10887145996094,-19.440784454345703, -51.51738357543945
625,2707374583,0.31611848,0.42773756,-0.7985617,0.2817964,8.14575481414795,-2.1375057697296143,6.82913875579834,-122.36793518066406,-16.261917114257812, -47.8615608215332
626,2707391250,0.31942573,0.4309218,-0.7982667,0.2739417,5.100566864013672,-5.264925479888916,16.644023895263672,-45.10287857055664,-8.352256774902344, -40.18659591674805
627,2707407917,0.317009,0.4355941,-0.79740024,0.2718754,1.9312437772750854,-7.706693172454834,12.911598205566406,7.888269424438477,-24.667579650878906, -26.54460334777832
628,2707424584,0.30697393,0.4453108,-0.7983466,0.2647792,2.1928422451019287,-6.070575714111328,9.504593849182129,10.657105445861816,-95.20700073242188, -45.552005767822266
629,2707441251,0.28530997,0.45902786,-0.8014974,0.25591737,1.4196796417236328,-5.62025260925293,-1.080075979232788,40.95268630981445,-176.6395263671875, -43.366512298583984
630,2707457918,0.25539795,0.47626245,-0.8029963,0.25128293,9.789651870727539,-2.979261875152588,5.974196434020996,100.06297302246094,-211.7027587890625, -45.23776626586914
631,2707474585,0.23165056,0.48777592,-0.8096679,0.2298934,4.589276313781738,-1.7212153673171997,17.495576858520508,-31.64181900024414,-232.06597900390625, -36.75238800048828
632,2707491252,0.21097927,0.49486881,-0.81846327,0.20176892,5.472179889678955,-9.182619094848633,18.92983055114746,-89.86146545410156,-234.35403442382812, -20.57773208618164
633,2707507919,0.18872644,0.50193876,-0.82426554,0.18173182,4.824872016906738,-4.170432090759277,19.790935516357422,-34.90596389770508,-211.7469024658203, -16.762113571166992
634,2707524586,0.17331748,0.50603724,-0.8295752,0.16028915,4.325427055358887,-2.046971321105957,19.803241729736328,-69.74916076660156,-173.8292999267578, -12.010236740112305
635,2707541253,0.16467847,0.5080005,-0.83409524,0.13820966,3.832047462463379,-5.23895263671875,19.61945152282715,-98.60497283935547,-134.46942138671875, -10.821533203125
636,2707557920,0.15536402,0.51044625,-0.8363761,0.12562618,4.224241256713867,-6.15244197845459,17.307220458984375,-39.13777160644531,-103.36813354492188, -10.072503089904785
637,2707574587,0.1459695,0.51423633,-0.8363713,0.121396035,7.3564629554748535,-3.4978907108306885,13.428486824035645,12.55252456665039,-73.45940399169922, -16.866605758666992
638,2707591254,0.14279282,0.51763386,-0.8350158,0.12005829,10.518357276916504,-4.232454776763916,11.8690824508667,7.943421363830566,-26.060213088989258, -21.661773681640625
639,2707607921,0.14487417,0.5198904,-0.8328343,0.12293268,10.485249519348145,-4.600108623504639,8.747710227966309,12.985918998718262,20.548145294189453, -18.244922637939453
640,2707624588,0.1490994,0.5227737,-0.82805806,0.13710256,9.693037033081055,-2.1927711963653564,5.0716328620910645,72.8279800415039,74.9866714477539, -21.63300895690918
641,2707641255,0.1610513,0.52423567,-0.8215884,0.15566702,8.846368789672852,0.255372554063797,5.138187885284424,70.2481689453125,137.65170288085938, -22.32375717163086
642,2707657922,0.18300255,0.52179605,-0.8149486,0.17348705,7.606296539306641,-1.4900050163269043,2.480430841445923,25.905288696289062,195.64755249023438, -12.337723731994629
643,2707674589,0.20924994,0.51560354,-0.807089,0.1974211,6.025872707366943,-5.019165515899658,-0.2198348045349121,41.48216247558594,247.59400939941406, 6.936532020568848
644,2707691256,0.23617601,0.50654215,-0.7966095,0.2303247,4.6381072998046875,-4.3177313804626465,-0.9642534255981445,88.22003936767578,290.8712463378906, 25.59210777282715
645,2707707923,0.265923,0.4928573,-0.7845284,0.2662558,3.140141010284424,-2.7927167415618896,-1.3280082941055298,89.9178466796875,326.8929748535156, 45.84178924560547
646,2707724590,0.29850113,0.47419617,-0.77092016,0.30284855,3.012014389038086,-1.1992249488830566,-2.7177939414978027,77.48564910888672,356.4542236328125, 63.58000564575195
647,2707741257,0.33299392,0.4515569,-0.75412154,0.34133893,2.569018840789795,0.9176677465438843,-5.160849571228027,79.68355560302734,387.81072998046875, 74.20670318603516
648,2707757924,0.36656904,0.42741993,-0.734459,0.3788264,1.872675895690918,4.828344345092773,-6.164535045623779,80.53882598876953,390.2191162109375, 72.95964813232422
649,2707774591,0.39953476,0.4033002,-0.7128939,0.41170788,1.0853142738342285,6.207595348358154,-9.251883506774902,64.0001449584961,378.56072998046875, 57.294403076171875
650,2707791258,0.43097222,0.38059437,-0.6896077,0.4402866,1.5724472999572754,3.581695556640625,-13.322027206420898,55.87443542480469,360.1509704589844, 38.10866165161133
651,2707807925,0.4602427,0.35939565,-0.66727203,0.46234158,1.7137327194213867,1.458893895149231,-18.17959976196289,32.21187973022461,325.8100891113281, 20.614789962768555
652,2707824592,0.48405302,0.3414436,-0.648087,0.47863594,2.488938331604004,-2.117133855819702,-25.883148193359375,19.6175537109375,266.7493896484375, 12.507606506347656
653,2707841259,0.50158983,0.32843307,-0.632272,0.49068505,-0.2602648138999939,-0.44454264640808105,-27.99703598022461,20.971782684326172,202.1083984375, 4.7073073387146
654,2707857926,0.5146054,0.31718087,-0.6240935,0.49506053,-0.9278561472892761,2.022948980331421,-29.10027313232422,-21.650249481201172,133.67434692382812, 2.906954050064087
655,2707874593,0.52253777,0.30845207,-0.6252153,0.49083376,-2.468475103378296,2.0750722885131836,-30.768930435180664,-74.79275512695312,55.889686584472656, 8.08559799194336
656,2707891260,0.52271354,0.30390784,-0.6349179,0.48092613,-4.153909683227539,0.25347310304641724,-29.111021041870117,-96.06694793701172,-34.04777526855469, 13.276969909667969
657,2707907927,0.51339334,0.30710572,-0.6489863,0.4700323,-3.0893425941467285,-0.02764888107776642,-26.93337059020996,-62.47639846801758,-121.03143310546875, 8.013798713684082
658,2707924594,0.49577576,0.31958213,-0.66395056,0.45961225,-1.3181195259094238,2.3242862224578857,-22.498254776000977,-12.800627708435059,-189.49258422851562, -3.163327217102051
659,2707941261,0.47342458,0.3360214,-0.680036,0.4477835,-1.5167999267578125,3.12385892868042,-15.659502029418945,1.2365237474441528,-229.99949645996094, -8.7714262008667
660,2707957928,0.45127574,0.3426719,-0.70485,0.4267468,-0.7073794007301331,-9.334439277648926,-30.3447322845459,-101.00772094726562,-248.28390502929688, 26.533004760742188
661,2707974595,0.4040419,0.37508166,-0.71264964,0.433814,20.876480102539062,-7.045899868011475,-18.270809173583984,224.42527770996094,-325.78228759765625, 21.94761085510254
662,2707991262,0.37512368,0.38854268,-0.7271999,0.42367116,4.718141078948975,7.690030097961426,10.339361190795898,19.92959976196289,-242.41128540039062, 29.446025848388672
663,2708007929,0.3453254,0.4005762,-0.7458876,0.40489638,16.369321823120117,-0.7597934007644653,-0.16026920080184937,-36.803977966308594,-276.9675598144531, 28.145610809326172
664,2708024596,0.3189421,0.41273394,-0.7567463,0.3940327,10.339959144592285,6.403761386871338,-0.7387049198150635,16.3309268951416,-219.7673797607422, 15.343626976013184
665,2708041263,0.29714996,0.42450464,-0.7654431,0.38156888,13.970498085021973,6.459080219268799,-2.7056310176849365,-0.10337389260530472,-194.94700622558594, -4.558543682098389
666,2708057930,0.28007162,0.43306145,-0.7739907,0.36736408,10.801841735839844,0.5788601040840149,-1.2928049564361572,-29.263294219970703,-166.81488037109375, -3.7782680988311768
667,2708074597,0.26679483,0.43860087,-0.7815038,0.3545441,9.003791809082031,0.1626565009355545,-1.1381595134735107,-36.47538375854492,-133.13516235351562, 2.4070897102355957
668,2708091264,0.25763568,0.44303954,-0.7868818,0.34373972,9.212878227233887,-0.3743553161621094,-2.793591022491455,-34.9254150390625,-98.5903091430664, -4.332183837890625
669,2708107931,0.2553581,0.44617507,-0.7908013,0.3321953,8.710111618041992,0.6398046612739563,0.25967100262641907,-58.79438400268555,-58.17586898803711, -19.179201126098633
670,2708124598,0.2593761,0.4478127,-0.7940648,0.3188248,11.950563430786133,1.0205262899398804,1.7555301189422607,-89.21438598632812,-25.256160736083984, -30.475242614746094
671,2708141265,0.27001214,0.44773254,-0.79735523,0.3014195,11.76498031616211,2.5841803550720215,5.939579486846924,-134.79441833496094,1.7907674312591553, -42.51164627075195
672,2708157932,0.28238133,0.4469672,-0.8012254,0.2802127,9.621902465820312,0.36670154333114624,6.695349216461182,-163.49342346191406,-0.5363591313362122, -47.396148681640625
673,2708174599,0.29004928,0.44770214,-0.80361456,0.26389027,7.640888690948486,-3.1870720386505127,12.272406578063965,-116.40808868408203,-11.86379337310791, -41.53136444091797
674,2708191266,0.29179475,0.45000818,-0.80429953,0.2558332,2.236191511154175,-3.9429759979248047,16.34515953063965,-46.34328079223633,-19.074098587036133, -28.1734619140625
675,2708207933,0.28665203,0.45503455,-0.80607873,0.24700458,2.010404109954834,-3.6676523685455322,13.23847484588623,-25.824899673461914,-66.95777130126953, -29.261323928833008
676,2708224600,0.27472258,0.46292084,-0.8101473,0.23214903,0.5047181248664856,-8.533278465270996,4.105305194854736,-36.286712646484375,-133.1353302001953, -38.31757736206055
677,2708241267,0.24186485,0.48096594,-0.8107066,0.23006086,9.600530624389648,-9.512133598327637,-0.09271149337291718,126.19636535644531,-218.75991821289062, -48.659461975097656
678,2708257934,0.20683694,0.49850407,-0.8107845,0.22658506,6.680796146392822,0.339724063873291,17.53038787841797,125.50125885009766,-234.0360565185547, -46.35459899902344
679,2708274601,0.18102469,0.5080665,-0.8170062,0.20396005,5.974496841430664,-4.743091106414795,20.152790069580078,-33.75572967529297,-245.0742645263672, -22.331510543823242
680,2708291268,0.15829526,0.5150064,-0.82287174,0.18053557,7.613198757171631,-6.031896591186523,18.219270706176758,-51.80556106567383,-226.85665893554688, -14.158044815063477
681,2708307935,0.13940413,0.52029246,-0.82734853,0.15923904,6.414056777954102,-1.365256905555725,18.345264434814453,-53.46247482299805,-194.4326171875, -12.187891960144043
682,2708324602,0.12850276,0.52253073,-0.83198863,0.13506949,5.809840202331543,-1.3054617643356323,19.37755584716797,-101.47399139404297,-156.43206787109375, -5.779151439666748
683,2708341269,0.12044393,0.52364314,-0.8354676,0.1152619,5.411075115203857,-3.701929807662964,17.21495819091797,-86.63324737548828,-122.7418212890625, -2.3393683433532715
684,2708357936,0.112999275,0.52548456,-0.83698684,0.10271475,7.543728351593018,-3.421903133392334,13.562992095947266,-44.994354248046875,-92.26951599121094, -8.111126899719238
685,2708374603,0.109823674,0.52733076,-0.8370193,0.09622805,8.854950904846191,-3.0455524921417236,12.441123008728027,-24.489717483520508,-44.909114837646484, -11.845617294311523
686,2708391270,0.11148785,0.52857107,-0.83612996,0.09523717,8.489556312561035,-2.742938995361328,8.889923095703125,-10.24750804901123,3.6919260025024414, -10.76579475402832
687,2708407937,0.1157471,0.5293717,-0.83399475,0.10402388,7.851383209228516,-3.0808205604553223,5.650380611419678,37.01655578613281,55.164669036865234, -6.953700542449951
688,2708424604,0.12395248,0.5306001,-0.829416,0.12316041,6.276765823364258,0.4687974750995636,6.181873798370361,84.09235382080078,116.94334411621094, -12.82490348815918
689,2708441271,0.14240667,0.52941924,-0.8242652,0.14150149,5.7553935050964355,0.05497319996356964,3.8835556507110596,40.628665924072266,174.8909149169922, -10.43634033203125
690,2708457938,0.16609864,0.52550894,-0.8177593,0.16589665,4.795668125152588,-3.6769771575927734,0.6284191608428955,54.53145980834961,230.52891540527344, 1.0087828636169434
691,2708474605,0.19122091,0.5201284,-0.8082537,0.19906582,3.4049458503723145,-2.386471748352051,0.2698356509208679,100.3972396850586,275.4192810058594, 6.892449855804443
692,2708491272,0.22011568,0.5113502,-0.7970286,0.2341277,1.7451732158660889,-2.357611656188965,-0.7808240652084351,95.24850463867188,310.15106201171875, 17.041196823120117
693,2708507939,0.2513276,0.49886626,-0.7840869,0.27050832,0.3416377902030945,-1.7007381916046143,-1.9050573110580444,91.39862060546875,336.202880859375, 29.640029907226562
694,2708524606,0.2833332,0.48328683,-0.7686272,0.30881834,-0.5627886056900024,0.11851897835731506,-3.81614351272583,98.32377624511719,357.4203186035156, 39.589195251464844
695,2708541273,0.31632015,0.46578467,-0.7506572,0.34568787,-1.0313197374343872,4.386017799377441,-4.49315881729126,88.9502182006836,367.0391540527344, 36.541259765625
