Acc_X,Acc_Y,Acc_Z
4.369326591491699,3.4693968296051025,2.8862011432647705
7.344290256500244,2.7678091526031494,0.8526497483253479
4.401225090026856,1.2506502866744995,1.6244211196899414
0.641730785369873,0.8398503661155701,2.5728437900543213
-3.8692686557769775,4.675356388092041,-0.6754428744316101
0.6980185508728027,0.6429523825645447,-2.9020047187805176
3.545540332794189,-2.0096325874328613,-0.5762879252433777
3.590489149093628,-2.0108320713043213,1.215568780899048
-0.1578450351953506,-2.289212703704834,5.094555854797363
-2.594639539718628,2.5466785430908203,0.119700938463211
-0.7566671371459961,1.0418157577514648,-1.5055958032608032
2.577486991882324,-0.1787431389093399,1.950342297554016
3.245635271072388,-3.213773727416992,5.969844341278076
-2.7513208389282227,7.0353827476501465,7.817157745361328
-2.0914883613586426,4.573606967926025,-5.302483081817627
2.6008427143096924,0.0356421135365963,-6.171755313873291
4.052924633026123,-2.487991571426392,-0.2319564968347549
0.08283431828022,-1.6248292922973633,6.355556488037109
-1.816992998123169,2.182414531707764,-1.1411631107330322
3.299936056137085,-2.6346325874328613,-6.991405010223389
5.582967758178711,-2.9100921154022217,-2.3164312839508057
4.402007579803467,-0.708630383014679,1.2446030378341677
1.1758298873901367,2.419927835464477,0.8886659145355225
3.6037614345550537,-0.1678514033555984,-3.279151201248169
3.4747257232666016,-2.43338942527771,-5.237947940826416
3.4359092712402344,-2.042956113815308,-6.720859050750732
1.0847446918487549,1.180098533630371,-6.859353065490723
0.4920712411403656,5.576524257659912,-10.517244338989258
-1.6709414720535278,-3.9023051261901855,-15.486679077148438
-3.5406854152679443,-1.2398966550827026,-11.088464736938477
-6.680906295776367,-1.2202531099319458,-0.201788455247879
-10.950233459472656,-8.710338592529297,5.631576061248779
-14.9805269241333,-4.852866172790527,12.516711235046388
-8.261063575744629,-4.664388656616211,34.945526123046875
7.778892040252685,30.610963821411133,-8.498394966125488
6.3549675941467285,0.1635459810495376,15.850349426269531
21.123699188232425,-1.2242094278335571,5.925187110900879
14.989011764526367,-7.034336566925049,8.512212753295898
5.589150905609131,-2.5398640632629395,-7.571366310119629
-3.706663846969605,4.967414855957031,-7.580236911773682
-5.981775283813477,5.145254611968994,-8.996362686157227
-2.3450188636779785,3.767065286636353,-5.497018337249756
3.9780004024505615,2.4319210052490234,-2.565227031707764
6.768014907836914,-1.0333746671676636,-0.9117156863212584
6.533478260040283,-1.7877955436706543,0.9972279667854308
3.805798292160034,-3.1758410930633545,-1.199604868888855
2.560183525085449,-1.2558804750442505,-0.3681788444519043
3.191377639770508,0.2931514084339142,3.875460386276245
-0.6695805191993713,2.52782678604126,8.227672576904297
-9.30980110168457,2.5958709716796875,8.081951141357422
-10.50172233581543,4.276557445526123,7.138831615447998
-6.428193092346191,1.5671356916427612,3.2054998874664307
-4.020970344543457,-0.932325541973114,-0.2605937719345093
-3.347780227661133,-2.6101393699646,-1.8768683671951292
-4.977462768554688,-3.092386245727539,1.3672406673431396
-7.088059425354004,-5.921163082122803,-9.362425804138184
-6.185381889343262,-2.430279493331909,-12.944435119628906
-3.1382720470428467,5.585404396057129,-1.5405484437942505
7.173296451568604,10.03001880645752,6.364734649658203
8.636698722839355,6.892354965209961,-2.5130417346954346
12.74870777130127,-9.322427749633787,0.2042575478553772
8.627074241638184,-7.152517318725586,5.529869079589844
1.7535020112991333,-4.933958530426025,-6.5019965171813965
0.7239799499511719,-3.238809823989868,-12.444219589233398
6.047637462615967,5.527223110198975,-4.496399879455566
10.195070266723633,4.607564926147461,0.4724427461624145
10.769733428955078,3.0963149070739746,4.033413887023926
8.083940505981445,0.1487025320529937,7.544443607330322
-1.5584831237792969,-0.7531412839889526,3.873594522476196
-8.033835411071777,4.912386417388916,-8.005285263061523
-6.684015274047852,5.710672378540039,-17.919601440429688
-10.851473808288574,2.8999271392822266,-8.511610984802246
-11.878667831420898,3.979750871658325,0.344710111618042
-14.462830543518066,-12.452723503112791,8.487285614013672
-16.28716468811035,-10.946524620056152,18.09791755676269
-14.137458801269531,-5.526830673217773,17.211076736450195
-12.742035865783691,-0.3615043759346008,-8.435577392578125
13.25397491455078,14.31434440612793,-35.12244415283203
1.177760124206543,-2.630776882171631,28.936767578125
23.035171508789062,8.280617713928223,5.097456455230713
15.078049659729004,-8.768013954162598,-0.2902646660804748
17.26026725769043,-1.742308497428894,-2.605499029159546
7.881021976470947,-2.2089667320251465,-4.806617736816406
3.3655717372894287,0.9266003370285034,-9.089707374572754
4.288518905639648,4.796201705932617,-5.471232891082764
9.066426277160645,6.35084867477417,0.4616916477680206
9.489097595214844,2.4227726459503174,4.358162879943848
4.9579925537109375,-1.6661310195922852,5.298965930938721
0.0583066791296005,-3.2725014686584477,8.944604873657227
-6.09496545791626,0.7111091613769531,5.086489200592041
-10.684233665466309,5.619016170501709,-3.662494659423828
-7.170910835266113,-0.7168005704879761,-4.772009372711182
-13.975509643554688,-10.744355201721191,8.818552017211914
-20.622020721435547,-6.6427764892578125,12.965044021606444
-17.93341064453125,-7.561578273773193,16.60733413696289
-10.758048057556152,-0.6976685523986816,-2.8653249740600586
-8.352972984313965,4.5101823806762695,-26.688425064086918
14.27537727355957,15.520833969116213,-42.29776763916016
2.984991788864136,-3.988030910491944,35.261043548583984
26.593053817749023,6.907357692718506,2.1725873947143555
12.09751033782959,-10.295333862304688,-1.2868489027023315
16.0654296875,3.0686919689178467,1.0001943111419678
-1.5414668321609497,2.4188578128814697,-3.783085823059082
-7.913597583770752,-0.8844416737556458,-16.409975051879883
-2.48445725440979,4.345783710479736,-10.257607460021973
7.866859436035156,6.8976216316223145,-1.3394745588302612
12.11264991760254,2.419971227645874,3.9629933834075928
9.523534774780272,-2.272523880004883,4.630769729614258
5.931582927703857,-4.661675453186035,6.350332736968994
-5.064870834350586,-1.0902098417282104,0.7062939405441284
-9.790966033935549,1.27138090133667,-6.228527069091797
-9.706114768981934,-0.9402974247932434,-8.290434837341309
-12.253228187561035,-3.100151777267456,-3.1021716594696045
-13.561197280883787,-3.518810987472534,0.7481719851493835
-12.601913452148438,0.2608371675014496,3.558433532714844
-11.653775215148926,-0.1185907274484634,1.0417234897613523
-11.126846313476562,3.77360200881958,0.4915065765380859
0.7583051323890686,4.940282344818115,-9.701231956481934
7.395174026489258,4.462512016296387,8.51957893371582
11.4689302444458,0.1615811586380005,5.262310981750488
23.50710678100586,-1.771908402442932,5.54713773727417
15.371824264526367,-5.814505577087402,-2.8217055797576904
4.344732284545898,-0.6543073654174805,-8.873686790466309
1.655263066291809,1.0854884386062622,-6.49763822555542
3.2089550495147705,3.458190679550171,-4.630183696746826
5.251804828643799,4.228538036346436,-3.884101152420044
6.818925857543945,3.464128255844116,-0.1720835566520691
4.782390594482422,0.461169958114624,3.313784122467041
-3.058659553527832,-2.1575369834899902,2.591415405273437
-8.833389282226562,-0.4912383556365967,0.0048027485609054
-8.092948913574219,-1.5095486640930176,-9.48132610321045
-8.580511093139648,4.038655281066895,-10.814641952514648
-9.15708065032959,-1.524632215499878,-5.35205602645874
-7.548398017883301,-6.351833820343018,0.9776595830917358
-8.769129753112793,-5.122127056121826,7.291580200195312
-10.868037223815918,0.3274393677711487,24.967514038085938
-2.373141288757324,-0.9580377340316772,-18.958518981933597
10.684645652770996,8.952780723571777,4.797131061553955
11.345892906188965,8.997681617736816,8.674826622009277
18.55706787109375,0.7500447630882263,2.8932480812072754
9.838262557983398,-4.590392589569092,-5.5496978759765625
7.685840129852295,-5.101656436920166,-5.953837871551514
8.432991027832031,-1.467516541481018,-1.556999683380127
6.92125940322876,2.893808603286743,-0.7155261635780334
5.841402053833008,2.3731656074523926,-0.6939029693603516
2.7620694637298584,4.297165870666504,1.9889402389526367
0.1022021248936653,3.7835073471069336,3.593510389328003
-6.010299205780029,4.234167575836182,0.1902755200862884
-8.067412376403809,2.318809032440185,-5.05963134765625
-9.833368301391602,0.8907845616340637,-7.326706886291504
-11.366226196289062,-3.7113194465637207,-1.646153688430786
-13.83991241455078,-4.320516109466553,1.5844050645828247
-13.066264152526855,-6.5755696296691895,8.065648078918457
-11.028733253479004,-5.804990768432617,5.082029342651367
-9.98651123046875,3.898627996444702,-11.114049911499023
6.722221851348877,2.848140239715576,-13.439620018005373
3.9864485263824463,-2.3393096923828125,12.523150444030762
13.894396781921388,-0.8971224427223206,-0.3434560894966125
14.067266464233398,1.0505374670028689,4.1756205558776855
17.31326675415039,-3.734522581100464,1.3332064151763916
10.222890853881836,0.4262401163578033,-2.970428228378296
3.0957179069519043,1.0862157344818115,-6.31983757019043
1.994505524635315,4.372004508972168,-7.587854385375977
6.857839584350586,5.932996273040772,-2.382453203201294
10.941558837890623,1.8658344745635984,0.9827245473861694
9.821139335632324,-1.5238090753555298,4.271944522857666
5.595156669616699,-4.147996425628662,5.270318031311035
-0.3958800435066223,-4.492410182952881,6.553531169891357
-9.94489288330078,2.3544130325317383,0.7137208580970764
-9.49201488494873,-1.7403268814086914,-5.6912841796875
-9.308595657348633,-1.6052846908569336,-5.848922729492188
-11.86423110961914,-6.535282135009766,0.5387497544288635
-15.078381538391112,-3.375988483428955,5.753279685974121
-13.18673324584961,-4.028689384460449,13.38694190979004
-12.78485870361328,-0.4186057448387146,-0.014239378273487
-10.808660507202148,7.736182689666748,-25.934375762939453
9.74423599243164,10.410608291625977,-16.428041458129883
0.0133580267429351,5.279499053955078,17.80618667602539
14.640949249267578,3.68438458442688,3.94469165802002
13.66484832763672,-1.8631621599197388,-0.6508035659790039
17.180618286132812,-4.176909923553467,-0.35606849193573
9.346933364868164,2.232296228408813,-3.376441478729248
4.772834777832031,0.0788349062204361,-8.216551780700684
6.826661109924316,2.658935785293579,-5.105127811431885
10.561649322509766,3.920705795288086,0.9444831609725952
9.57501983642578,1.6317405700683594,4.269986152648926
5.24422550201416,0.0556769929826259,5.385811805725098
-3.975703001022339,-0.3616327345371246,1.6889628171920776
-8.897907257080078,1.078293800354004,-4.207635879516602
-11.340887069702148,-1.384136199951172,-8.677440643310547
-11.41308879852295,-1.9815692901611328,-2.152393579483032
-14.456487655639648,-5.261168479919434,1.4978883266448977
-14.648125648498535,-2.7460267543792725,6.190557479858398
-11.770171165466309,-2.117938041687012,-0.1965624392032623
-11.680171966552734,1.1270456314086914,-5.295717239379883
-7.969237804412842,8.826394081115723,-17.17087745666504
7.111433029174805,-0.291155606508255,0.8801702260971069
4.969887733459473,-2.1118476390838623,8.258220672607422
12.801558494567873,3.4729933738708496,6.399473190307617
15.428722381591797,-3.1724133491516118,1.8629357814788816
18.49776840209961,-1.3053241968154907,1.3544024229049685
10.566576957702637,1.0343286991119385,-3.731439113616944
4.613276958465576,2.007497310638428,-6.841923713684082
3.5067625045776367,2.494231700897217,-7.08369255065918
6.80952262878418,3.2342100143432617,-2.0270984172821045
8.429994583129883,2.916203260421753,2.1537184715271
5.962997913360596,1.224184513092041,6.251627445220947
-2.8061411380767822,1.2650786638259888,2.9036035537719727
-7.021795749664307,0.6841566562652588,-4.218748092651367
-9.5341796875,-0.6638367772102356,-12.05432415008545
-10.20103359222412,-0.3761139512062073,-5.50064754486084
-12.823892593383787,-3.2485134601593018,-2.433765649795532
-13.081880569458008,-3.138307571411133,1.4223761558532717
-11.935674667358398,-6.571471691131592,5.863465309143066
-10.880179405212402,-8.617111206054688,2.395027875900269
-11.260083198547363,1.6337815523147583,-0.5365816354751587
-4.057981014251709,9.78400993347168,-16.504623413085938
9.22309398651123,3.858955383300781,6.313436985015869
7.317478656768799,-1.517894625663757,5.606423854827881
15.25064182281494,5.540602684020996,8.946128845214844
15.354284286499023,-8.621971130371094,-5.090507507324219
13.583696365356444,-2.211601734161377,-2.431856155395508
8.946115493774414,2.514622211456299,-3.1778860092163086
5.381186485290527,0.6245898008346558,-5.915563106536865
5.490975856781006,2.7130887508392334,-3.39577865600586
9.114691734313965,3.028899908065796,0.2238861322402954
8.826834678649902,1.7015095949172974,3.5497148036956787
4.540289878845215,-0.6125391125679016,5.324284553527832
-0.5059688687324524,-0.3279012441635132,5.693723201751709
-9.118935585021973,2.313350200653076,-0.2940593063831329
-10.139272689819336,-2.400974035263061,-6.963545799255371
-10.129668235778809,-0.4728954136371612,-5.515522003173828
-13.379417419433594,-5.409028053283691,-3.021520137786865
-14.496880531311035,-2.2292723655700684,-1.5096505880355835
-12.713529586791992,-5.981985092163086,3.745778560638428
-9.577219009399414,-7.951282978057861,-3.0177698135375977
-7.427723884582519,0.8207987546920776,0.7499549388885498
-2.1928458213806152,16.971418380737305,-8.712278366088867
11.85245132446289,-1.3555971384048462,4.50674295425415
8.71031379699707,-1.0913718938827517,4.541337490081787
13.34251308441162,3.910181999206543,6.665754318237305
12.506976127624512,-4.672135353088379,-3.023090362548828
7.949243545532227,-1.072459697723389,-5.678133487701416
4.6776442527771,5.188764572143555,-4.359617710113525
7.387292385101318,3.3670923709869385,-3.6831259727478023
11.910757064819336,0.8393502235412598,0.2407992035150528
12.120948791503906,-1.4522027969360352,1.0421375036239624
7.783570766448975,-0.3168658912181854,4.036414623260498
2.6403653621673584,0.1329295486211776,5.392982482910156
-7.834677219390869,2.708723783493042,-0.3891831636428833
-9.863651275634766,2.087690830230713,-7.829648017883301
-9.127429008483888,-0.7836698293685913,-9.491515159606934
-11.47983455657959,-4.596283912658691,-1.7228797674179075
-14.026145935058594,-0.5273004770278931,-1.8499585390090945
-13.840839385986328,-3.950350046157837,5.928113460540772
-11.735557556152344,-3.9661107063293457,2.2539045810699463
-11.801319122314451,-4.574444770812988,-0.9691282510757446
-10.862011909484863,3.3072071075439453,-3.2644083499908447
3.4490318298339844,9.70201015472412,-19.98933219909668
3.1810591220855717,-2.581357955932617,10.563026428222656
12.26750946044922,2.6625072956085205,6.822900295257568
19.86540412902832,3.2107157707214355,5.89308500289917
19.31709098815918,-6.224820137023926,-2.313151836395264
12.383371353149414,1.5582337379455566,-2.058590888977051
7.073873043060303,1.7336201667785645,-6.068448543548584
4.3136091232299805,2.334794282913208,-6.049633979797363
6.455166339874268,3.6256392002105713,-2.5460000038146973
6.2613525390625,2.632344007492065,1.443295121192932
3.836000204086304,0.8483704924583435,4.216456413269043
-2.8833119869232178,-0.0992597192525863,3.607945919036865
-7.746292114257812,-0.3399634063243866,-3.2969696521759038
-9.230070114135742,-4.164607524871826,-9.066890716552734
-9.285052299499512,-0.3750520646572113,-6.99311637878418
-12.422843933105469,-6.902739524841309,-0.1740686893463134
-13.81496810913086,-4.943110942840576,5.628884792327881
-12.460613250732422,-5.03203010559082,7.51818323135376
-12.571608543395996,-2.7781481742858887,-4.118621826171875
-9.827698707580566,7.004425048828125,-6.298017501831055
5.325302600860596,12.252174377441406,-10.357732772827148
3.3332858085632324,4.297176837921143,11.019149780273438
12.626566886901855,-0.1314471364021301,5.7503156661987305
17.3842830657959,-3.478933811187744,2.545794486999512
15.926177978515623,-8.809185981750488,-3.536007642745972
12.085882186889648,3.5814366340637207,-2.2480149269104004
9.122092247009276,3.0209593772888184,-4.068309307098389
6.831898212432861,1.783651351928711,-3.811387300491333
5.772868633270264,1.8848525285720823,-0.8752478957176208
4.319738388061523,2.660475969314575,2.1356589794158936
1.4698121547698977,3.5409038066864014,4.422901153564453
-5.51507568359375,2.759141206741333,1.958260536193848
-8.179038047790527,0.3593918085098266,-3.951895236968994
-10.315698623657228,0.2632938027381897,-6.436102390289307
-9.99821949005127,-3.2679593563079834,-4.099947452545166
-12.19632625579834,-4.009088039398193,-1.415894627571106
-13.36667823791504,-2.7644057273864746,3.0627336502075195
-11.411511421203612,-6.159136772155762,5.378249168395996
-10.959223747253418,-2.224330425262451,-2.5589427947998047
-5.669224262237549,3.093641519546509,-21.75814247131348
3.094594240188598,-3.0313706398010254,3.025876760482788
-0.4083781838417053,-0.0236412994563579,1.987369418144226
9.942204475402832,8.770939826965332,7.212766170501709
14.41273307800293,4.563198566436768,3.698153495788574
20.332029342651367,-3.6593828201293945,1.5197004079818726
15.569212913513184,-4.287992477416992,-1.047722101211548
8.752032279968262,-1.3533501625061035,-5.868500709533691
4.741407871246338,-0.1574821472167968,-7.71202802658081
5.131573677062988,2.5535662174224854,-3.418076038360596
6.939163684844971,1.5109719038009644,0.3321521282196045
5.792163848876953,0.7065504193305969,4.833933830261231
-2.111848831176758,0.9473419785499572,5.295403003692627
-8.624364852905273,2.8103127479553223,-2.0908896923065186
-8.797622680664062,-1.5899008512496948,-6.884119510650635
-9.13913917541504,2.0219168663024902,-6.314403533935547
-11.008288383483888,-2.841890811920166,-3.4323670864105225
-11.206791877746582,-5.035623073577881,0.6020692586898804
-10.52224826812744,-7.569033145904541,5.039727210998535
-10.905311584472656,-2.8578035831451416,3.1763923168182373
-9.743650436401367,6.418429374694824,1.3036398887634275
4.633943557739258,6.867783069610596,-13.086405754089355
5.079893112182617,4.527223587036133,9.00904369354248
9.121853828430176,0.9287726879119872,6.4817609786987305
14.531821250915527,0.6420630812644958,1.900140404701233
11.64582633972168,-7.7205939292907715,-5.416351318359375
10.771663665771484,0.6673521399497986,-2.225026130676269
10.401230812072754,2.7348790168762207,-2.1644794940948486
8.978994369506836,3.1065573692321777,-0.5838025808334351
7.774822235107422,1.6816701889038086,0.5089665055274963
4.488379955291748,0.442261129617691,1.796476125717163
1.8525404930114744,1.7493062019348145,4.506925106048584
-5.604302883148193,2.318505048751831,1.0284403562545776
-9.62502670288086,2.3585753440856934,-4.108292579650879
-9.90496826171875,-2.78255295753479,-6.897058963775635
-10.000396728515623,-3.3345203399658203,-2.636704921722412
-12.277628898620604,-3.3450279235839844,-0.7997416257858276
-12.869061470031738,-2.5276331901550293,1.976774334907532
-10.569759368896484,-5.271636009216309,5.8256940841674805
-9.61410903930664,-3.1450090408325195,-1.863624691963196
-7.746370315551758,3.049858331680298,-2.721215009689331
4.124904155731201,7.976688861846924,-17.942676544189453
3.5926899909973145,-2.174400329589844,10.35167121887207
8.943140029907227,0.9293805956840516,0.4528647065162658
11.781389236450195,5.133206367492676,4.987215518951416
15.099730491638184,-5.267357349395752,-2.476645231246948
10.284536361694336,1.205468773841858,-3.821832656860352
8.053380012512207,1.200531244277954,-5.013363361358643
8.365615844726562,0.5813963413238525,-3.915476083755493
9.85934066772461,1.088646650314331,0.2709130048751831
9.523804664611816,-1.3183069229125977,2.5724363327026367
4.586710453033447,-2.9476680755615234,3.1438045501708984
0.0916416347026825,-1.124621868133545,4.498948574066162
-9.402179718017578,1.5464104413986206,-1.378128170967102
-10.453475952148438,2.388705253601074,-7.660472869873047
-9.875266075134276,-1.1149823665618896,-6.41455078125
-10.710143089294434,-4.693521022796631,-0.374144047498703
-13.014158248901367,-0.737949550151825,1.653216004371643
-12.704463005065918,-2.926673650741577,6.972210884094238
-10.85066032409668,-3.9829468727111816,-2.5298633575439453
-10.61192512512207,5.4046783447265625,-3.0723373889923096
2.0417397022247314,8.62849235534668,-14.49166202545166
5.532522678375244,5.532474517822266,13.684645652770996
10.87398624420166,0.2792270481586456,2.5271987915039062
14.553211212158203,-2.083611965179444,3.4100546836853027
14.369327545166016,-7.012940883636475,-2.545689821243286
10.72577667236328,-0.0168177429586648,-3.667562246322632
7.753406524658203,1.986296772956848,-4.398229122161865
5.38068437576294,3.4738333225250244,-4.946812629699707
5.639788627624512,4.33434534072876,-1.6374136209487915
3.5816712379455566,4.393226623535156,1.6156315803527832
2.561809778213501,3.405660629272461,3.7028398513793945
-3.19839859008789,2.095424175262451,3.7293570041656494
-7.104310512542725,0.661383867263794,-3.11523985862732
-9.880295753479004,-0.701948344707489,-9.143903732299805
-9.73774528503418,-0.4673495888710022,-7.354179859161377
-12.30505084991455,-3.650287389755249,-0.9889569282531738
-13.048965454101562,-3.8831663131713863,1.850025296211243
-12.384238243103027,-5.431917667388916,8.341259956359863
-11.965112686157228,-4.7917160987854,-0.0025577694177627
-9.393715858459473,6.79571008682251,-12.045753479003906
6.832907199859619,1.814582347869873,-5.683408260345459
3.4414424896240234,-0.554518461227417,7.5326924324035645
9.402149200439451,-4.860733985900879,2.577385425567627
12.602474212646484,0.8252110481262207,1.6720465421676636
16.729944229125977,-4.742926120758057,0.7837897539138794
14.141681671142578,2.3014111518859863,1.1653001308441162
8.695606231689453,1.329410433769226,-4.87865161895752
5.642155170440674,0.6654014587402344,-5.673391819000244
5.985161304473877,3.0658743381500244,-2.649604320526123
5.723560810089111,1.943499565124512,0.8850928544998169
4.269516468048096,1.673526406288147,3.486144542694092
0.0336612984538078,1.8413400650024412,4.672444820404053
-6.523197174072266,1.5043174028396606,0.5786476731300354
-8.253211975097656,-2.425281524658203,-6.576467514038086
-9.365550994873049,1.0266056060791016,-6.476600646972656
-11.046854972839355,-5.144032001495361,-2.067645072937012
-11.627376556396484,-3.311564683914185,-1.1385656595230105
-11.909295082092283,-3.0041306018829346,3.4321134090423584
-10.107036590576172,-6.944548606872559,5.670111656188965
-9.94859218597412,-3.535262107849121,-1.1231166124343872
-7.476375102996826,9.653203010559082,-15.630159378051758
5.3356614112854,2.7204737663269043,1.8169949054718015
0.0349912606179714,-1.0732637643814087,-0.4401392936706543
10.166948318481444,8.100011825561523,6.184783935546875
14.487568855285645,4.04676628112793,3.0473222732543945
17.8125,-6.76155948638916,-3.931034564971924
13.706911087036133,-1.3469033241271973,-1.3512018918991089
10.430696487426758,-1.626582384109497,-3.0166015625
7.780184745788574,-0.6844776272773743,-2.9500885009765625
6.491179943084717,0.901123046875,-0.5806737542152405
4.372721195220947,1.36677885055542,1.80461061000824
0.5074408054351807,1.43339204788208,3.497983694076538
-4.586795806884766,2.2282514572143555,3.3059628009796143
-10.740909576416016,5.096043109893799,-3.7377734184265137
-9.645599365234377,-0.0576588883996009,-8.730438232421875
-9.456026077270508,0.3841655850410461,-3.410077810287476
-11.809712409973145,-4.255506992340088,-0.4629761576652527
-11.04779815673828,-4.194931983947754,3.2731850147247314
-8.942553520202637,-8.351893424987793,0.727948009967804
-9.753788948059082,-1.4215151071548462,-1.912259578704834
-8.35025405883789,8.311882972717285,0.9416276216506958
6.111962795257568,3.3860878944396973,-6.101255416870117
6.322827339172363,2.561574459075928,7.12401819229126
17.564451217651367,2.4932315349578857,4.491098403930664
19.79844665527344,-4.879815578460693,3.264422416687012
15.093646049499512,-4.683701992034912,-2.747282028198242
8.110294342041016,1.375995635986328,-6.4089436531066895
6.468427658081055,4.784247398376465,-4.040018081665039
5.612339019775391,4.34919023513794,-0.6115469336509705
4.548307418823242,2.680922031402588,2.94620132446289
1.7495688199996948,1.4741119146347046,5.682743549346924
-5.768176555633545,1.0058141946792605,2.053288698196411
-9.126943588256836,0.2960985898971557,-3.3305823802948
-10.121170043945312,-5.507678031921387,-7.830029487609863
-10.837493896484377,-2.889857053756714,-0.890687882900238
-13.56511688232422,-6.295190334320068,1.1854822635650637
-14.833596229553224,-4.2690205574035645,2.6618640422821045
-11.710187911987305,-3.80814528465271,3.5945675373077397
-10.98916244506836,0.5790178775787354,-8.696966171264648
-7.999257564544678,23.77796173095703,-21.325925827026367
8.757137298583984,1.2945705652236938,13.575358390808104
10.667075157165527,-1.7656760215759275,7.709556102752685
17.903589248657227,-0.9992484450340272,3.9271512031555176
14.45995044708252,-11.492292404174805,-4.709768295288086
11.905668258666992,0.4142810404300689,-4.625255107879639
6.15019416809082,4.151230812072754,-5.823931694030762
3.532381057739258,4.101422309875488,-8.05587387084961
6.632133483886719,3.894041538238525,-4.3375773429870605
8.276883125305176,3.595122098922729,0.3369807004928589
6.747477054595947,-0.1047389507293701,3.1537296772003174
1.9493309259414675,-0.1726671308279037,6.436452388763428
-5.790872097015381,-1.2744022607803345,2.286209344863892
-9.92286491394043,0.3464530706405639,-5.243576049804688
-10.442315101623535,-0.0259044244885444,-10.440659523010254
-11.064434051513672,-6.338146209716797,-3.1822800636291504
-13.77256965637207,-4.404058456420898,-0.6647123694419861
-14.480483055114746,-3.548574447631836,3.1618568897247314
-11.561042785644531,-5.157420635223389,1.3999123573303225
-11.3058443069458,-3.1921114921569824,-6.745002269744873
-8.315030097961426,12.776613235473633,-7.292898654937744
7.665412425994873,8.451987266540527,4.829994201660156
7.836873054504394,0.1119909957051277,9.226158142089844
16.775732040405273,4.090550899505615,6.884820938110352
19.80704116821289,-9.599919319152832,1.1395328044891355
18.61577033996582,-4.985843181610107,1.0586074590682983
8.71807861328125,3.110558271408081,-4.435290813446045
2.576408863067627,3.7623791694641113,-7.56245756149292
5.701696395874023,4.519477367401123,-3.458373069763184
10.156609535217283,3.6615028381347656,1.7270228862762451
8.095918655395508,1.533605694770813,5.665206909179688
3.359505653381348,1.6168391704559326,7.222736358642578
-4.9954938888549805,0.4724228382110595,1.1854536533355713
-8.955050468444824,-1.9478774070739744,-6.472117900848389
-11.941312789916992,-2.631659030914306,-10.260244369506836
-12.103511810302734,-0.1540808677673339,-3.149142980575561
-14.080962181091309,-4.033563137054443,-0.586860716342926
-14.13851261138916,-1.230424880981445,-2.0743236541748047
-12.419758796691896,-1.6175768375396729,1.9109128713607788
-10.360300064086914,-1.6147798299789429,1.916239857673645
-11.234159469604492,0.3479397594928741,-7.591363430023193
-4.534000873565674,10.145174980163574,-10.043447494506836
10.05470371246338,-4.389382362365723,2.179584503173828
5.824836254119873,-3.7610700130462646,1.5774692296981812
14.520305633544922,2.023378372192383,4.369162082672119
18.24709892272949,-2.616888523101806,2.3282999992370605
14.840975761413574,-2.1538126468658447,-4.231297016143799
6.237605094909668,1.862893223762512,-5.8642168045043945
2.28078293800354,2.405817747116089,-8.74516487121582
5.172259330749512,3.740922212600708,-5.256858348846436
9.288286209106444,1.4341984987258911,-1.080906867980957
10.278830528259276,-2.1007773876190186,2.156677007675171
7.038670539855957,-2.0593457221984863,6.418092727661133
-2.319067478179932,-1.600067973136902,4.520246505737305
-9.72512435913086,2.860766649246216,-9.086867332458496
-7.480373382568359,1.5578835010528564,-11.205700874328612
-9.948095321655272,-2.675168752670288,-7.063589096069336
-11.493908882141112,-0.2512578070163727,-2.9140875339508057
-12.331694602966309,-5.129756927490234,7.164996147155762
-12.396864891052246,-8.579586029052734,4.300915241241455
-13.910171508789062,-3.7847976684570312,6.3751959800720215
-12.849184036254885,4.125274181365967,1.606342315673828
3.548006534576416,10.700372695922852,-24.43499755859375
4.035196304321289,2.2393798828125,11.072691917419434
7.281771183013916,7.831343173980713,8.937516212463379
21.03700828552246,3.656454563140869,8.336296081542969
20.26327133178711,-9.511026382446287,1.0650681257247925
13.596056938171388,-2.9623634815216064,-2.296511650085449
7.446014881134033,0.2216725349426269,-5.231640338897705
6.157126903533936,4.258528709411621,-3.074173927307129
8.11451244354248,4.6412739753723145,-0.0072202607989311
7.146319389343262,3.4053730964660645,3.6407315731048575
4.590895175933838,1.4218569993972778,5.364720344543457
-2.799550771713257,0.4224251210689544,4.053183078765869
-8.477168083190918,4.792161464691162,-2.7446165084838867
-8.683143615722656,-3.82498836517334,-7.060882568359375
-9.74608039855957,0.7605307698249817,-6.354761600494385
-12.521706581115724,-3.1438229084014893,-0.3718877136707306
-12.050338745117188,-3.698897361755371,0.0113694071769714
-11.187722206115724,-4.898297309875488,7.38218879699707
-11.354153633117676,-2.7245635986328125,5.201337814331055
-11.054984092712402,-0.708335280418396,3.9252986907958975
-7.942010879516602,6.605560302734375,-29.24540138244629
11.094923973083496,6.591847896575928,0.6688224077224731
2.4366140365600586,-0.5434285998344421,7.483545780181885
21.286325454711918,-5.881037712097168,1.1171116828918457
13.999481201171877,-3.1073570251464844,-2.790321588516236
16.024213790893555,-0.0955599546432495,-1.0231916904449463
11.562871932983398,3.1770293712615967,-2.0450940132141118
7.062656402587891,2.796299934387207,-4.2017998695373535
4.836236000061035,1.0179190635681152,-3.7365448474884033
5.204343795776367,2.219322919845581,-0.7676423788070679
3.174701690673828,1.826629638671875,2.261488199234009
-2.1213200092315674,2.0047194957733154,3.5065746307373047
-7.8627705574035645,3.7962429523468018,0.4264793992042541
-9.643522262573242,-0.4829008877277374,-5.20712423324585
-9.713924407958984,0.4435009360313415,-3.915348768234253
-12.074495315551758,-5.386838436126709,1.084317326545715
-12.881844520568848,-2.328007936477661,2.4838993549346924
-11.409032821655272,-3.846602439880371,3.35227370262146
-10.50177764892578,-5.03624963760376,-5.311833381652832
-10.666417121887209,2.9267733097076416,-5.976229667663574
-0.9555552005767822,5.067663669586182,-10.070488929748535
5.910872459411621,-1.01895010471344,7.579765796661377
9.803832054138184,0.9074702262878418,6.391753196716309
16.68560028076172,5.077798843383789,6.17975664138794
16.666635513305664,-6.966399192810059,-2.5839667320251465
11.547999382019045,-1.0753278732299805,-3.668226957321167
5.077626705169678,1.6089719533920288,-8.212340354919434
4.24928092956543,3.081341028213501,-6.388947486877441
8.855185508728027,3.5994222164154053,-1.0613760948181152
10.301349639892578,2.4339592456817627,3.359998941421509
7.64906644821167,-2.0073482990264893,4.125190258026123
2.5966343879699707,-1.1324334144592283,5.963228225708008
-7.4174370765686035,0.7255516052246094,0.4954913258552551
-8.955268859863281,1.0230284929275513,-4.861384868621826
-8.504403114318848,-1.5706313848495483,-8.138710975646973
-10.413630485534668,-1.7192236185073853,-1.8960319757461548
-13.381450653076172,-3.380739688873291,-1.5366419553756714
-13.717906951904297,-2.5688636302948,3.6060001850128174
-12.054119110107422,-3.03873610496521,6.396583557128906
-12.212237358093262,1.7957839965820312,-4.053129196166992
-6.395005226135254,12.05129337310791,-22.26409912109375
7.403491973876953,6.0117692947387695,6.41066312789917
3.8139045238494873,-3.1564652919769287,4.524472713470459
11.980717658996582,0.0017565228044986,5.911795139312744
14.581042289733888,-3.235727071762085,0.1111080646514892
15.340536117553713,-4.850167751312256,-3.5305917263031006
8.922341346740723,2.46559476852417,-3.075140476226806
5.844096183776856,1.5185469388961792,-6.4169745445251465
6.528535842895508,1.6131092309951782,-4.241935253143311
9.02695369720459,3.1345999240875244,-0.5279478430747986
7.412511825561523,1.242557406425476,2.1723732948303223
4.366789817810059,0.6396751999855042,4.600579738616943
-4.1279802322387695,1.3603638410568235,3.2789435386657715
-9.479473114013672,4.73985481262207,-3.297187328338623
-9.07089614868164,0.550361156463623,-8.999259948730469
-9.165377616882324,0.8636535406112671,-5.021204948425293
-12.17576026916504,-3.0623998641967773,-2.77003812789917
-11.576732635498049,-2.554007768630981,0.0408571064472198
-10.45212745666504,-4.981750011444092,5.9589691162109375
-9.899924278259276,-5.389430999755859,0.5093449354171753
-8.127618789672852,-0.9721402525901794,2.2277157306671143
-0.1095025986433029,6.225902557373047,-13.06005859375
6.501941680908203,4.399050712585449,7.0459184646606445
7.666149139404297,-1.1611024141311646,4.866863250732422
17.134815216064453,4.187017917633057,5.938986301422119
15.101478576660156,-5.752318859100342,-5.719742298126221
11.775259017944336,-2.15481185913086,-4.671913623809815
10.96600341796875,-0.694787323474884,-3.3935093879699707
9.827919960021973,2.0284676551818848,-1.2298840284347534
8.53331184387207,0.9584983587265016,0.5058912634849548
6.498244285583496,1.2382385730743408,2.9256012439727783
1.8051996231079104,2.084957361221313,4.361521244049072
-1.93173348903656,1.9073392152786253,4.381912708282471
-9.735857009887695,3.409895181655884,-2.5591137409210205
-9.94202995300293,0.8202128410339355,-7.736111164093018
-9.490577697753906,-1.047658920288086,-6.900035381317139
-10.959301948547363,-4.781567096710205,-1.8281677961349487
-12.323177337646484,-2.1197729110717773,-1.3068691492080688
-11.636273384094238,-5.100265502929688,4.060083389282227
-9.935873985290527,-7.25373649597168,2.4965500831604004
-9.361759185791016,-0.6536146998405457,-1.8752421140670776
-0.186513215303421,10.304120063781738,-18.15970802307129
4.748384475708008,4.925192356109619,12.258281707763672
8.310275077819824,-0.4884117841720581,2.2527413368225098
13.670873641967772,2.0101633071899414,1.5486054420471191
15.49816608428955,-4.918668746948242,-2.09043288230896
15.506719589233398,0.4424420595169067,0.1469050943851471
10.271188735961914,1.9012287855148315,-3.3025827407836914
6.484499454498291,1.897639274597168,-4.917218208312988
5.744424819946289,2.242637872695923,-3.391117811203003
6.429050922393799,1.8428367376327517,-0.0188814401626586
3.822504758834839,0.2998539805412292,2.648749828338623
-0.9601233601570128,0.6679962277412415,4.386193752288818
-7.909540176391602,2.632041931152344,-0.9691563844680786
-8.407381057739258,-0.9717358946800232,-6.0524983406066895
-9.123489379882812,-2.4339308738708496,-7.780317783355713
-10.717546463012695,-2.548678159713745,-1.848132848739624
-12.981511116027832,-4.562572479248047,-0.2254872173070907
-12.906920433044434,-4.146191596984863,6.543174743652344
-11.433304786682127,-5.097376823425293,3.565903186798096
-11.266485214233398,5.139218807220459,-5.099331378936768
-1.602348566055298,13.700934410095217,-17.363203048706055
6.921290397644043,3.8102500438690186,10.976434707641602
8.861284255981445,-1.947121024131775,2.728155374526977
14.545068740844728,2.535776138305664,7.487421989440918
15.631428718566896,-8.597939491271973,-2.968472003936768
14.40656852722168,-0.7019602060317993,-1.6376734972000122
9.796839714050291,3.615012884140015,-2.522517442703247
7.588702201843262,2.0016465187072754,-4.462491512298584
6.368896961212158,1.339748501777649,-2.774600028991699
4.645055770874023,2.1511449813842773,0.6490733623504639
3.540503025054932,3.4237372875213623,4.114093780517578
-3.2844786643981934,3.4220988750457764,2.4600086212158203
-7.120298385620117,3.6901051998138423,-1.5319467782974243
-8.60285758972168,-0.9052863121032716,-6.637933254241943
-8.856111526489258,-0.3270409107208252,-2.485698699951172
-11.454197883605955,-3.2709059715271,-0.6590555310249329
-12.34436321258545,-3.138711214065552,0.9616080522537231
-10.80534553527832,-5.70362663269043,3.261880159378052
-10.190629005432127,-4.461161613464356,-0.6661657691001892
-9.406900405883787,2.48335599899292,-10.766075134277344
0.9123927354812622,0.7466909885406494,-8.343008041381836
2.4604880809783936,0.9397260546684264,6.864023208618164
8.876941680908203,2.0114917755126958,4.364143371582031
12.739985466003418,4.812591075897217,2.69815444946289
13.756540298461914,-3.762184858322144,-1.9539453983306885
14.259894371032717,-0.8367008566856384,-0.2491093277931213
11.13597583770752,-0.0550038702785968,-2.9538216590881348
8.039775848388672,0.4666120707988739,-4.505680561065674
6.302938938140869,0.5115810036659241,-3.5587499141693115
4.601796627044678,0.7597741484642029,-0.4116644561290741
4.034435272216797,0.0770635679364204,2.630344152450561
-1.7021890878677368,0.6516082882881165,4.865715026855469
-8.734045028686523,3.381701707839966,-2.0459465980529785
-7.974997997283935,-0.7725985050201416,-6.028501987457275
-8.06746768951416,-0.8236712217330933,-5.445628643035889
-9.929347038269045,-4.453236103057861,-1.8532532453536987
-10.999248504638672,-4.127231121063232,0.3457307517528534
-11.249140739440918,-6.275142192840576,7.144256114959717
-10.228290557861328,-6.793346405029297,-0.5053104758262634
-10.480995178222656,13.64666748046875,-6.078101634979248
5.606542110443115,9.197550773620604,-6.25824785232544
3.357754945755005,2.0858960151672363,8.151817321777344
12.102858543395996,-0.5449768900871277,4.218209743499756
13.31991195678711,-2.8928914070129395,1.914608120918274
13.68903636932373,-7.007312297821045,-3.768022060394287
11.267171859741213,2.835071563720703,-2.2946226596832275
9.542466163635254,3.158612966537476,-1.986971139907837
9.317208290100098,1.8123509883880613,-0.639013409614563
7.847047805786133,1.790753960609436,2.1026742458343506
4.918866157531738,1.8836824893951416,3.937565803527832
0.9737630486488342,2.4244000911712646,5.319631576538086
-7.046861171722412,3.795806884765625,1.1601805686950684
-8.85543155670166,0.7857180237770081,-3.681074857711792
-10.612689971923828,-2.790093183517456,-5.66950273513794
-11.38618278503418,-2.6543781757354736,0.5082360506057739
-12.713269233703612,-3.4526686668396,-0.4975143373012543
-12.51820468902588,-2.425311803817749,-1.4823249578475952
-10.559948921203612,-3.397445678710937,1.7904276847839355
-7.898448944091797,-0.2709147334098816,-3.4733455181121826
-4.600223064422607,10.20486831665039,-18.7427921295166
4.390323162078857,-3.6457607746124263,5.583249568939209
5.714279651641846,-0.5426421165466309,6.102352619171143
10.309030532836914,1.3712921142578125,1.0888136625289917
9.169766426086426,-0.1354463100433349,-1.4538133144378662
13.923935890197754,-0.7529531121253967,-1.528638482093811
10.105873107910156,1.6889854669570925,-2.5519051551818848
7.961104869842529,-0.7587704062461853,-5.891069889068604
7.269528865814209,0.1911104023456573,-5.285079479217529
7.779202938079834,0.6288031339645386,-1.5530753135681152
6.242921352386475,-0.5117153525352478,1.4586085081100464
2.3739054203033447,-0.2118164896965026,5.301240921020508
-7.243930339813232,1.413021445274353,0.7989442348480225
-8.28526496887207,1.2313814163208008,-6.247276306152344
-7.62609052658081,1.4094350337982178,-8.861114501953125
-8.931476593017578,-3.292626142501831,-6.794395923614502
-10.70683479309082,-1.2485607862472534,-3.3151371479034424
-11.210614204406738,-4.709513187408447,5.299624919891357
-11.004111289978027,-7.660257816314697,3.590094804763794
-11.66952419281006,-0.3710273802280426,6.134766101837158
-5.346988201141357,10.218775749206545,-9.774006843566896
6.844304084777832,8.68205451965332,1.9509406089782717
4.857323169708252,1.1347122192382812,6.36693286895752
15.862438201904297,4.484531402587891,8.368461608886719
17.92377281188965,-5.311941623687744,1.1713663339614868
12.7742280960083,-4.20341157913208,-2.4800846576690674
11.45873737335205,1.229716181755066,-2.4676167964935303
9.756848335266112,2.7352850437164307,-1.6363741159439087
7.740198612213135,2.203866958618164,-0.1867666691541671
4.425722122192383,2.162969827651977,1.9366745948791504
1.489481806755066,2.773573875427246,4.26097583770752
-5.619418144226074,3.256497621536255,1.3649777173995972
-9.03244686126709,2.8923473358154297,-3.8418591022491455
-10.146018981933594,-1.986722469329834,-7.407626152038574
-10.6220703125,-1.1498589515686035,-2.95839262008667
-12.384010314941406,-3.6697335243225098,0.9776627421379088
-13.314091682434082,-1.8218663930892944,-0.1376899629831314
-12.557600021362305,-4.036780834197998,3.713044881820679
-10.214744567871094,-2.86181378364563,1.7961866855621338
-8.709961891174316,1.987871050834656,-9.68348789215088
2.4135665893554688,8.5101318359375,-16.24637794494629
5.245968818664551,-2.437940120697021,13.982755661010742
10.588700294494627,-3.5869059562683105,0.3409658074378967
14.092947006225586,1.427005171775818,5.170924186706543
14.69463348388672,-3.750120878219605,-0.0113822072744369
10.92216682434082,-0.6563517451286316,-3.458653211593628
5.3915228843688965,1.966407895088196,-6.026970863342285
4.729553699493408,1.9578278064727783,-6.226073741912842
7.224237442016602,3.16328501701355,-2.6275758743286133
7.402613639831543,1.1896677017211914,0.5148376226425171
5.713861465454102,-0.7948780059814453,2.640061140060425
2.269863605499268,-0.4127131700515747,5.197827339172363
-6.644338130950928,0.781560480594635,0.535165011882782
-8.707587242126465,-0.3261767327785492,-5.874827861785889
-8.343101501464844,-0.8500859141349792,-6.029609680175781
-11.623671531677246,-2.624691963195801,0.4378708302974701
-12.388333320617676,-1.7493252754211426,2.00909161567688
-10.924418449401855,-4.8707275390625,2.684561491012573
-11.092873573303224,-5.795894145965576,-3.252572536468506
-11.35072135925293,10.334744453430176,-2.787369728088379
-0.2256552129983902,6.806136608123779,-9.737500190734863
3.871902704238892,0.9968842267990112,8.28393268585205
9.16247844696045,1.898106813430786,5.246551990509033
16.764850616455078,-0.7087680697441101,4.184654235839844
14.321194648742676,-9.45941925048828,-2.61484169960022
11.403512001037598,0.3120462596416473,-1.6307035684585571
8.373551368713379,3.2456374168396,-3.371658563613892
7.062937259674072,3.5169806480407715,-3.327871799468994
6.432646751403809,2.816168785095215,-0.5258647799491882
5.4321608543396,2.4669382572174072,2.6230483055114746
2.4397377967834477,1.3443912267684937,4.662014484405518
-3.594299077987671,1.2836732864379885,3.450261116027832
-8.295031547546387,0.8851190805435181,-2.7734944820404053
-9.331937789916992,-3.2628581523895264,-6.359307765960693
-10.460270881652832,-1.869793176651001,-6.564197063446045
-11.556488037109377,-4.686791896820068,-1.0207949876785278
-13.071992874145508,-3.3652381896972656,-1.4930620193481443
-13.262857437133787,-3.584916353225708,3.003519058227539
-10.643766403198242,-4.033859729766846,1.3648293018341064
-9.970747947692873,9.700350761413574,-11.896553993225098
5.510107040405273,5.298986434936523,-6.788782119750977
4.507609844207764,-1.9781855344772337,11.245399475097656
10.99489688873291,-1.1921147108078003,0.9338416457176208
9.83570671081543,1.5128288269042969,4.932872295379639
14.23863697052002,-5.232541561126709,-2.7255754470825195
9.453207015991213,0.8259769082069397,-3.501678228378296
5.02644157409668,2.593561887741089,-6.80645751953125
4.145052433013916,1.9802117347717283,-6.784640312194824
6.531443595886231,3.229625701904297,-3.277238607406616
8.610699653625488,1.514928102493286,0.1531846672296524
7.424184799194336,-0.992899477481842,2.882176399230957
2.8457863330841064,-1.8963556289672847,6.130352020263672
-7.406876087188721,0.213960200548172,1.352129340171814
-8.463448524475098,0.1696818619966507,-6.236029148101807
-7.323660373687744,1.9516531229019165,-8.316152572631836
-8.662639617919922,-3.3323395252227783,-5.554779529571533
-10.350875854492188,-1.137903928756714,-2.5435264110565186
-11.166906356811523,-4.437779903411865,4.679915904998779
-10.740367889404297,-8.498308181762695,4.170406341552734
-11.109936714172363,-0.6660621166229248,6.2769775390625
-4.314138412475586,10.60108470916748,-9.782167434692385
7.785421848297119,11.935168266296388,2.5483486652374268
6.655896186828613,2.0115966796875,7.466681480407715
13.450084686279297,3.359605550765991,8.860099792480469
14.527093887329102,-6.477325439453125,-2.782947063446045
10.864935874938965,-8.237529754638672,-4.82860279083252
8.642780303955078,1.1982903480529783,-2.365008592605591
8.085058212280273,3.0666353702545166,-2.009474277496338
6.020954132080078,3.640674352645874,-0.4409534633159637
4.989757061004639,2.51289963722229,1.200327754020691
2.102208375930786,2.158709049224853,3.1144320964813232
-3.097749948501587,2.1040213108062744,2.886451005935669
-7.964058399200439,3.4025139808654785,-2.532853126525879
-8.893741607666016,-0.6655256748199463,-4.16152811050415
-8.777050018310547,-1.72912335395813,-1.6777225732803345
-11.391830444335938,-3.261284828186035,1.1083614826202393
-12.551932334899902,-0.5864766240119934,0.5071496963500977
-10.63487720489502,-4.43997859954834,2.546767473220825
-9.276840209960938,-3.402515411376953,-1.7977498769760132
-7.80525541305542,6.579879760742188,-12.924789428710938
2.086064338684082,1.1758804321289062,-1.0119966268539429
4.258180141448975,-3.994184970855713,6.22664737701416
10.743491172790527,-0.3067203164100647,2.838444471359253
9.830387115478516,2.039581775665283,0.0978830531239509
12.216118812561035,-5.054154872894287,-2.5832440853118896
9.96008014678955,1.921310544013977,-2.0317790508270264
6.864978790283203,1.3675861358642578,-4.467531204223633
6.221491813659668,2.216536283493042,-4.0598320960998535
7.995584011077881,2.842324733734131,-1.0942519903182983
7.735395908355713,1.4490337371826172,1.439705729484558
5.86371374130249,-0.8327534198760986,3.400695323944092
2.176758289337158,0.6137734055519104,6.362404823303223
-6.4983906745910645,0.6061258316040039,1.4530248641967771
-9.061872482299805,1.1420257091522217,-3.280712842941284
-9.3558988571167,-3.372845411300659,-6.163424491882324
-10.276873588562012,-2.668146133422852,0.9433860778808594
-11.587767601013184,-3.7890472412109375,-0.3378658890724182
-11.8877592086792,-4.033054828643799,0.8192863464355469
-10.057649612426758,-4.704532146453857,1.8434044122695925
-8.482572555541992,-0.3898282647132873,-3.337490558624268
-5.804446220397949,17.03508186340332,-14.93782901763916
6.037568092346191,0.4107469916343689,6.055290699005127
6.857001304626465,-0.3117450773715973,3.7931995391845694
11.817095756530762,1.3004655838012695,4.479000091552734
11.001004219055176,-5.255204200744629,-2.7012288570404053
10.93875217437744,-2.292226076126098,-3.3270304203033447
8.029022216796875,2.804638624191284,-3.024414539337158
6.811587333679199,0.8245149850845337,-4.994153022766113
7.477893829345703,0.5648345351219177,-2.59598159790039
7.738271236419678,0.7649548649787903,0.1988002955913543
3.926555633544922,1.1010457277297974,2.7261292934417725
-0.7715517282485962,1.5248796939849854,4.690542221069336
-7.64367151260376,3.9675004482269287,-0.1893821954727172
-8.223101615905762,-0.5259876251220703,-4.842902660369873
-8.606475830078125,-0.8315367102622986,-7.294661521911621
-10.055062294006348,-3.9198038578033447,-3.639546632766724
-11.81761360168457,-3.927425146102905,-1.594754695892334
-12.792614936828612,-3.439076662063598,4.977838516235352
-11.627861976623535,-5.093770503997803,1.5851914882659912
-11.14082145690918,5.925882339477539,-3.020332098007202
1.3758103847503662,7.035839557647705,-11.257524490356444
2.6882870197296143,4.130736351013184,9.387704849243164
10.276511192321776,0.1168589740991592,5.945741653442383
15.59923267364502,-1.613045573234558,2.202129602432251
13.822068214416504,-8.550202369689941,-3.298295736312866
12.355292320251465,1.101657509803772,-1.6195608377456665
8.516270637512207,2.7206127643585205,-2.4180493354797363
6.014269828796387,2.1057350635528564,-4.459498405456543
5.164977073669434,2.162679672241211,-1.5001715421676636
3.8496270179748535,2.896608352661133,1.2224479913711548
1.8236538171768188,2.313193798065185,4.283966541290283
-4.551119327545166,1.839901089668274,3.0547962188720703
-8.835848808288574,2.768869638442993,-1.3241734504699707
-8.581252098083496,-1.98447847366333,-4.233841419219971
-8.997970581054688,-2.4469211101531982,-6.550201416015625
-9.864161491394045,-4.491858959197998,-2.371973752975464
-10.988003730773926,-3.7987818717956543,0.2211104035377502
-11.671712875366213,-4.639632225036621,4.640713691711426
-9.545343399047852,-4.3953351974487305,1.35881245136261
-5.116307258605957,10.202856063842772,-16.146081924438477
5.430487632751465,4.085247039794922,6.751981258392334
4.611659049987793,0.8667197823524475,3.981443166732788
10.606283187866213,1.073461413383484,3.352690458297729
10.800334930419922,-0.7011349201202393,0.6243652701377869
12.934652328491213,-4.642117023468018,-3.066344976425171
9.955097198486328,0.8803871273994446,-2.8228673934936523
8.173748016357422,0.3462921679019928,-2.936240673065185
7.278561592102051,-0.4593962132930755,-3.085669994354248
5.653981685638428,1.21833598613739,-0.3099347949028015
3.9390246868133545,1.9593669176101685,1.8510152101516724
0.4892635345458984,1.6040620803833008,3.4247472286224365
-7.970021724700928,4.094723224639893,-0.9241958260536194
-8.27975082397461,1.3538047075271606,-5.200829982757568
-8.28490924835205,-0.5689823627471924,-5.4241814613342285
-9.225523948669434,-5.513258457183838,-3.164291858673096
-10.279172897338867,-1.437957525253296,-1.2644513845443726
-10.443881034851074,-2.5799927711486816,4.476450443267822
-9.47121810913086,-4.97575569152832,2.3889455795288086
-9.36182689666748,0.3911724090576172,4.172663688659668
-2.505258798599243,5.161261081695557,-11.146090507507324
3.316096544265747,5.831506252288818,5.147148609161377
5.994174003601074,-1.1208375692367554,1.1144063472747805
12.088891983032228,0.820429801940918,3.745830535888672
11.33822250366211,-2.660395383834839,-2.699415922164917
10.529361724853516,-0.8653568625450134,-2.855952262878418
10.33553695678711,1.5903773307800293,-1.831735134124756
9.768856048583984,1.0832419395446775,-1.2008869647979736
7.685934066772461,-0.1683927327394485,-0.1369886994361877
4.374392986297607,-0.3722433745861053,1.5240899324417114
2.055043935775757,1.0688916444778442,3.965010404586792
-6.367491245269775,2.0603129863739014,0.8823451399803162
-10.042001724243164,5.107996940612793,-4.206539630889893
-8.758625030517578,-1.5185726881027222,-5.06765079498291
-9.407817840576172,-4.234675884246826,0.2593541443347931
-10.689359664916992,-2.5471296310424805,0.0097759012132883
-11.452387809753418,-1.3318991661071775,0.8851466178894043
-9.985441207885742,-4.934562206268311,3.935346364974976
-8.10367202758789,-3.443775415420532,-2.724475622177124
-2.77490758895874,10.037955284118652,-14.289880752563477
4.717630863189697,5.808833599090576,11.11261749267578
8.447783470153809,-0.4878906607627868,2.54656982421875
