PacketCounter,SampleTimeFine,Quat_W,Quat_X,Quat_Y,Quat_Z,Acc_X,Acc_Y,Acc_Z,Gyr_X,Gyr_Y,Gyr_Z 
1,199672334,0.7655076,-0.14623979,-0.62073267,-0.08545789,0.38068389892578125,0.42959699034690857,0.001813635230064392,0.14770126342773438,-0.6848476529121399, -1.7845720052719116
2,199689001,0.76561725,-0.14634685,-0.6206328,-0.08501691,9.595183372497559,-1.1768821477890015,1.8342899084091187,0.5407289266586304,0.29448843002319336, 1.4658852815628052
3,199705668,0.76566565,-0.1466381,-0.62053186,-0.08481559,9.575766563415527,-1.1714189052581787,1.804046630859375,0.48594337701797485,0.26029548048973083, 1.5077364444732666
4,199722335,0.7656051,-0.14694831,-0.6205429,-0.084744394,9.572293281555176,-1.1595877408981323,1.805481195449829,0.5702091455459595,0.22574394941329956, 1.4320123195648193
5,199739002,0.7655374,-0.14720158,-0.62056786,-0.084734276,9.592856407165527,-1.1399273872375488,1.8132761716842651,0.6240214109420776,0.29049286246299744, 1.5076467990875244
6,199755669,0.7654945,-0.14727896,-0.62061596,-0.08463516,9.612058639526367,-1.1617950201034546,1.8252580165863037,0.7232449650764465,0.24503028392791748, 1.6448794603347778
7,199772336,0.7654711,-0.14731658,-0.62065625,-0.08448463,9.603812217712402,-1.157388687133789,1.8176546096801758,0.5768044590950012,0.14462852478027344, 1.6307159662246704
8,199789003,0.76545876,-0.14733034,-0.6206895,-0.0843281,9.59302806854248,-1.1786173582077026,1.8091830015182495,0.2811442017555237,0.18289388716220856, 1.490870475769043
9,199805670,0.7654621,-0.14735974,-0.62070143,-0.08415916,9.577590942382812,-1.233260154724121,1.7673803567886353,0.6569464802742004,0.25877147912979126, 1.540533423423767
10,199822337,0.7654668,-0.14735705,-0.6207339,-0.08388084,9.63139533996582,-1.247403621673584,1.7848330736160278,1.2019847631454468,0.2827962040901184, 1.4721730947494507
11,199839004,0.76546246,-0.14740886,-0.6207616,-0.083623655,9.655444145202637,-1.1902137994766235,1.8382676839828491,1.3322765827178955,0.24385210871696472, 1.41650390625
12,199855671,0.76545584,-0.14751606,-0.6207673,-0.08345391,9.635504722595215,-1.13089919090271,1.8493168354034424,0.699822187423706,0.19194796681404114, 1.3491426706314087
13,199872338,0.7654461,-0.1476738,-0.62074673,-0.083415486,9.65014362335205,-1.1026934385299683,1.8333970308303833,0.21224603056907654,0.17687489092350006, 1.266221523284912
14,199889005,0.7654575,-0.14773981,-0.6207309,-0.0833128,9.643328666687012,-1.1736791133880615,1.8162122964859009,0.31426143646240234,0.2346315085887909, 1.3731801509857178
15,199905672,0.76550263,-0.14774084,-0.6207018,-0.08311285,9.575173377990723,-1.2055647373199463,1.769489049911499,0.6988105177879333,0.42516446113586426, 1.5528148412704468
16,199922339,0.7655542,-0.14777854,-0.6206505,-0.082953535,9.639135360717773,-1.1628484725952148,1.7686145305633545,1.2127037048339844,0.5455697178840637, 1.586533784866333
17,199939006,0.765597,-0.14782274,-0.6206083,-0.08279548,9.68343734741211,-1.1505244970321655,1.8427764177322388,0.9374184012413025,0.5551232099533081, 1.5808861255645752
18,199955673,0.7656565,-0.14786872,-0.6205443,-0.08264404,9.628205299377441,-1.1925355195999146,1.818239450454712,0.4351405203342438,0.7340406775474548, 1.5535190105438232
19,199972340,0.7657201,-0.1479085,-0.6204752,-0.08250171,9.62004280090332,-1.211980938911438,1.778990626335144,0.7356927394866943,0.7225791215896606, 1.5063532590866089
20,199989007,0.765775,-0.14796004,-0.6204101,-0.08238983,9.660710334777832,-1.2019997835159302,1.8057209253311157,0.9041473865509033,0.6714432835578918, 1.398293137550354
21,200005674,0.76582795,-0.14796951,-0.62036276,-0.082236,9.655540466308594,-1.1893255710601807,1.848616361618042,0.8992299437522888,0.6008163690567017, 1.3179335594177246
22,200022341,0.7658793,-0.14801094,-0.6203053,-0.082117185,9.632807731628418,-1.1490507125854492,1.8746531009674072,0.6507866382598877,0.6009955406188965, 1.2913089990615845
23,200039008,0.765924,-0.14808358,-0.62024575,-0.0820196,9.62215805053711,-1.1279714107513428,1.8416907787322998,0.39667028188705444,0.5125805735588074, 1.3517935276031494
24,200055675,0.76597035,-0.14818096,-0.6201686,-0.08199212,9.611836433410645,-1.1455214023590088,1.8229340314865112,0.5069841742515564,0.5713745355606079, 1.2602791786193848
25,200072342,0.76603687,-0.14822443,-0.6200925,-0.081869006,9.619641304016113,-1.167553186416626,1.822519063949585,0.8333156108856201,0.6263906955718994, 1.490435004234314
26,200089009,0.7661074,-0.14827788,-0.62000895,-0.08174474,9.594467163085938,-1.127636194229126,1.8490928411483765,0.6440889835357666,0.6907553672790527, 1.5199280977249146
27,200105676,0.7661878,-0.14833848,-0.61991185,-0.08161793,9.605962753295898,-1.1567118167877197,1.8100388050079346,0.2702715992927551,0.8162574768066406, 1.5424158573150635
28,200122343,0.7662611,-0.14848131,-0.61979,-0.081594564,9.609930992126465,-1.1955740451812744,1.8023840188980103,0.6765786409378052,0.8148999810218811, 1.620521903038025
29,200139010,0.7663438,-0.14854515,-0.6196893,-0.081467405,9.608219146728516,-1.1822667121887207,1.8174331188201904,0.5331603288650513,0.8277319669723511, 1.5939871072769165
30,200155677,0.7664263,-0.1486323,-0.61957765,-0.081380315,9.603867530822754,-1.2108464241027832,1.8117300271987915,0.7137426733970642,0.8522049188613892, 1.5747262239456177
31,200172344,0.7664957,-0.1487327,-0.6194759,-0.08131895,9.588043212890625,-1.1859819889068604,1.855051875114441,0.7548766136169434,0.7388302683830261, 1.4967740774154663
32,200189011,0.76655746,-0.14879923,-0.61939466,-0.08123388,9.594002723693848,-1.2101672887802124,1.8594491481781006,0.5567753314971924,0.6368150115013123, 1.3505768775939941
33,200205678,0.76660466,-0.148853,-0.61933625,-0.08113433,9.60206127166748,-1.1863080263137817,1.852025032043457,0.7729849219322205,0.4181465208530426, 1.3397555351257324
34,200222345,0.76664037,-0.14892286,-0.6192869,-0.08104656,9.567357063293457,-1.1263279914855957,1.832547903060913,0.5067536234855652,0.3306407630443573, 1.302207112312317
35,200239012,0.7666617,-0.14907342,-0.61922604,-0.08103173,9.550431251525879,-1.121498942375183,1.8267379999160767,0.45410677790641785,0.2637403607368469, 1.4213446378707886
36,200255679,0.7667123,-0.1491655,-0.61914873,-0.080975406,9.571317672729492,-1.1451475620269775,1.8181780576705933,0.46401888132095337,0.5289086699485779, 1.347029447555542
37,200272346,0.76678085,-0.14920294,-0.6190736,-0.08083069,9.574747085571289,-1.1959683895111084,1.7951338291168213,0.7870590090751648,0.584449827671051, 1.5260494947433472
38,200289013,0.76684976,-0.14925064,-0.61899346,-0.080702566,9.601885795593262,-1.1816997528076172,1.8332250118255615,0.9065806269645691,0.6032238602638245, 1.5237571001052856
39,200305680,0.76692384,-0.14932863,-0.6188971,-0.08059364,9.586740493774414,-1.166930913925171,1.8029167652130127,0.6477643847465515,0.7153178453445435, 1.5647886991500854
40,200322347,0.76699066,-0.14944585,-0.6187928,-0.08054157,9.584733009338379,-1.1801731586456299,1.8318884372711182,0.49145010113716125,0.7310569286346436, 1.4962875843048096
41,200339014,0.76705474,-0.14955021,-0.6186933,-0.08050131,9.573176383972168,-1.2151998281478882,1.8204690217971802,0.4604971706867218,0.7186987400054932, 1.3612061738967896
42,200355681,0.7671262,-0.14957134,-0.61861444,-0.08038713,9.592962265014648,-1.2363673448562622,1.8247935771942139,1.0278953313827515,0.6410794854164124, 1.326846718788147
43,200372348,0.7671895,-0.14957839,-0.61854607,-0.08029632,9.595545768737793,-1.2244969606399536,1.8301588296890259,1.2669256925582886,0.5497445464134216, 1.1640267372131348
44,200389015,0.767242,-0.14957449,-0.61849266,-0.08021198,9.5916109085083,-1.2045643329620361,1.8545268774032593,1.289618730545044,0.4399685859680176, 1.0501399040222168
45,200405682,0.7672715,-0.14958347,-0.61846805,-0.08010355,9.594347953796387,-1.1289360523223877,1.854250192642212,1.0939760208129883,0.18297071754932404, 1.1418077945709229
46,200422349,0.76728624,-0.14964269,-0.6184439,-0.08003841,9.59174633026123,-1.0819573402404785,1.832633137702942,0.7060332894325256,0.11911827325820923, 1.1479932069778442
47,200439016,0.767303,-0.14971682,-0.61841595,-0.07995584,9.580805778503418,-1.1113026142120361,1.8115932941436768,0.6642460823059082,0.12718626856803894, 1.3254379034042358
48,200455683,0.7673274,-0.1497647,-0.61838967,-0.07983417,9.610989570617676,-1.1295610666275024,1.827233076095581,1.036027193069458,0.1227552592754364, 1.4491089582443237
49,200472350,0.7673493,-0.14982022,-0.61836517,-0.079709515,9.617525100708008,-1.1304867267608643,1.857806921005249,0.9498406052589417,0.10499286651611328, 1.4934958219528198
50,200489017,0.76734674,-0.14993927,-0.61835325,-0.079603426,9.642617225646973,-1.1061129570007324,1.8676329851150513,0.5105059742927551,-0.08424017578363419, 1.6477867364883423
51,200505684,0.7673345,-0.1501037,-0.61833847,-0.079525106,9.637323379516602,-1.134307622909546,1.8477814197540283,0.13615070283412933,-0.1106724739074707, 1.7060426473617554
52,200522351,0.7673233,-0.15026103,-0.6183282,-0.079416744,9.637042045593262,-1.170969009399414,1.826900601387024,0.2089419811964035,-0.14560818672180176, 1.8199167251586914
53,200539018,0.76731807,-0.15043846,-0.618305,-0.07931191,9.633647918701172,-1.1966798305511475,1.8245245218276978,0.34760910272598267,-0.092615507543087, 1.9551643133163452
54,200555685,0.767319,-0.15057237,-0.6182834,-0.0792156,9.615565299987793,-1.2220622301101685,1.8032170534133911,0.3937760591506958,-0.016955608502030373, 1.693825602531433
55,200572352,0.7673311,-0.15068677,-0.61825526,-0.079100795,9.639986991882324,-1.2248165607452393,1.815102219581604,0.5246441960334778,0.0700187161564827, 1.7023801803588867
56,200589019,0.7673468,-0.15078454,-0.61822414,-0.079005554,9.654513359069824,-1.224709391593933,1.8062217235565186,0.6972737908363342,0.11105026304721832, 1.5600759983062744
57,200605686,0.76737744,-0.1508635,-0.61817867,-0.078913614,9.662277221679688,-1.2295374870300293,1.7978368997573853,0.7106050848960876,0.28148993849754333, 1.4654241800308228
58,200622353,0.76742095,-0.15092893,-0.618119,-0.07883286,9.641494750976562,-1.1994976997375488,1.8119219541549683,0.7883653044700623,0.4299027919769287, 1.3754212856292725
59,200639020,0.7674725,-0.15098946,-0.6180504,-0.07875302,9.640557289123535,-1.182441234588623,1.8352583646774292,0.8411787152290344,0.5146167874336243, 1.3693510293960571
60,200655687,0.76751345,-0.15108232,-0.6179856,-0.07868522,9.627005577087402,-1.1401948928833008,1.8397547006607056,0.6125341057777405,0.4444507360458374, 1.4376983642578125
61,200672354,0.7675567,-0.1511928,-0.6179121,-0.07862742,9.630783081054688,-1.141845464706421,1.8127368688583374,0.4687572121620178,0.5010292530059814, 1.4787172079086304
62,200689021,0.7676033,-0.15129435,-0.61784136,-0.07853268,9.628479957580566,-1.1533464193344116,1.80474853515625,0.6343177556991577,0.47606968879699707, 1.635569453239441
63,200705688,0.76765203,-0.15137957,-0.6177751,-0.07841355,9.632980346679688,-1.1682696342468262,1.8381764888763428,0.8996524810791016,0.43931540846824646, 1.7126507759094238
64,200722355,0.7677011,-0.1514691,-0.6177073,-0.07829474,9.59902286529541,-1.1945531368255615,1.8448807001113892,0.8093292117118835,0.45533615350723267, 1.7238434553146362
65,200739022,0.7677434,-0.15155195,-0.61764914,-0.07817802,9.583654403686523,-1.182310938835144,1.819257140159607,0.8437654972076416,0.3784596025943756, 1.6744365692138672
66,200755689,0.7677636,-0.15165904,-0.6176084,-0.07809396,9.593819618225098,-1.1657634973526,1.832385540008545,0.6439481377601624,0.2035505473613739, 1.594128131866455
67,200772356,0.7677738,-0.1517898,-0.6175715,-0.07803135,9.579272270202637,-1.1463338136672974,1.8212716579437256,0.3559460937976837,0.1604059338569641, 1.5655697584152222
68,200789023,0.76778734,-0.15191814,-0.6175298,-0.077978075,9.604923248291016,-1.1748770475387573,1.8227680921554565,0.3028125464916229,0.21533235907554626, 1.5158171653747559
69,200805690,0.7678172,-0.15201409,-0.6174796,-0.077893995,9.60632610321045,-1.2257459163665771,1.8193303346633911,0.6359313130378723,0.31313446164131165, 1.5672346353530884
70,200822357,0.7678524,-0.15208259,-0.61743283,-0.07778514,9.602079391479492,-1.2330635786056519,1.8102538585662842,0.9316555261611938,0.3037858307361603, 1.587673544883728
71,200839024,0.76788265,-0.15214053,-0.61739355,-0.07768519,9.589351654052734,-1.1838607788085938,1.8250646591186523,0.9362531900405884,0.26245975494384766, 1.4816243648529053
72,200855691,0.7679139,-0.15222093,-0.6173446,-0.077606,9.576577186584473,-1.1697354316711426,1.8156198263168335,0.6606091260910034,0.3377866744995117, 1.4701370000839233
73,200872358,0.7679541,-0.15228784,-0.6172893,-0.077517256,9.568513870239258,-1.1568725109100342,1.792346477508545,0.7966638803482056,0.40628787875175476, 1.48496675491333
74,200889025,0.7679899,-0.15235442,-0.61723787,-0.077441655,9.558728218078613,-1.146213173866272,1.783482551574707,0.7008851766586304,0.3903951942920685, 1.407808542251587
75,200905692,0.7680257,-0.15244046,-0.6171771,-0.077401266,9.594439506530762,-1.2084685564041138,1.8256043195724487,0.6215625405311584,0.4461028277873993, 1.3582350015640259
76,200922359,0.7680638,-0.1525161,-0.6171202,-0.07732835,9.575054168701172,-1.2040064334869385,1.8291223049163818,0.7021912932395935,0.4243575632572174, 1.4628244638442993
77,200939026,0.7680853,-0.15259922,-0.61707854,-0.07728375,9.577058792114258,-1.1698018312454224,1.8234139680862427,0.6582272052764893,0.28204065561294556, 1.3484255075454712
78,200955693,0.76810944,-0.15265247,-0.6170414,-0.07723418,9.587191581726074,-1.1995105743408203,1.8619256019592285,0.778056263923645,0.2906593084335327, 1.2390975952148438
79,200972360,0.768124,-0.15269016,-0.6170239,-0.07715525,9.603706359863281,-1.1697361469268799,1.8347303867340088,0.9489312171936035,0.12637946009635925, 1.2997612953186035
80,200989027,0.76813096,-0.15276463,-0.61700475,-0.07709139,9.606718063354492,-1.127819299697876,1.8321501016616821,0.7031006217002869,0.09743712097406387, 1.3859481811523438
81,201005694,0.76813596,-0.15286453,-0.6169788,-0.07705144,9.6041898727417,-1.1309924125671387,1.8298388719558716,0.4027276933193207,0.14562740921974182, 1.3738844394683838
82,201022361,0.76813984,-0.1529936,-0.61694443,-0.077031955,9.595874786376953,-1.1603201627731323,1.7888665199279785,0.20907005667686462,0.18545515835285187, 1.419935941696167
83,201039028,0.76816285,-0.15311085,-0.61689496,-0.0769648,9.61659049987793,-1.2009813785552979,1.784889578819275,0.4680144786834717,0.3100225627422333, 1.652461051940918
84,201055695,0.76819927,-0.1532187,-0.6168329,-0.076885544,9.633979797363281,-1.198530912399292,1.804529070854187,0.6196414828300476,0.42539486289024353, 1.7106143236160278
85,201072362,0.768247,-0.15333639,-0.6167537,-0.07680762,9.608851432800293,-1.1992640495300293,1.7986321449279785,0.6230481266975403,0.5560324788093567, 1.7867354154586792
86,201089029,0.76829433,-0.15343803,-0.61667985,-0.07672587,9.591506004333496,-1.1529805660247803,1.7948236465454102,0.6478027701377869,0.5464277267456055, 1.7234593629837036
87,201105696,0.7683421,-0.1535516,-0.6165989,-0.07666973,9.641847610473633,-1.1767432689666748,1.811489462852478,0.48057734966278076,0.6094220876693726, 1.657992959022522
88,201122363,0.76838887,-0.15365858,-0.61651987,-0.07662282,9.639623641967773,-1.2142966985702515,1.8394992351531982,0.49653422832489014,0.6093581914901733, 1.591681957244873
89,201139030,0.76843876,-0.15374437,-0.61644304,-0.076568365,9.641822814941406,-1.2210869789123535,1.8233705759048462,0.5433286428451538,0.6301684975624084, 1.5263696908950806
90,201155697,0.76848835,-0.15381752,-0.61636996,-0.076512955,9.63004207611084,-1.2200751304626465,1.8200485706329346,0.6994124054908752,0.6054393649101257, 1.4956854581832886
91,201172364,0.7685313,-0.15387228,-0.61631,-0.07645237,9.624277114868164,-1.1671031713485718,1.8327127695083618,0.7776079177856445,0.5221084952354431, 1.4249944686889648
92,201189031,0.7685681,-0.15394372,-0.6162525,-0.076402545,9.652912139892578,-1.1764743328094482,1.8143608570098877,0.6504793763160706,0.48553356528282166, 1.44562566280365
93,201205698,0.7686092,-0.15396821,-0.6162041,-0.07633034,9.660760879516602,-1.2114297151565552,1.8486738204956055,0.9706254005432129,0.4656966030597687, 1.3608860969543457
94,201222365,0.76864696,-0.15402675,-0.6161514,-0.076258816,9.635366439819336,-1.1803785562515259,1.8251699209213257,0.8802379965782166,0.443746417760849, 1.5309029817581177
95,201239032,0.76868314,-0.1541018,-0.61609226,-0.07621869,9.625591278076172,-1.1762598752975464,1.8443405628204346,0.6571194529533386,0.4990506172180176, 1.450933814048767
96,201255699,0.7687133,-0.15416834,-0.6160429,-0.0761785,9.609514236450195,-1.180468201637268,1.820293664932251,0.6424240469932556,0.4357680082321167, 1.3995352983474731
97,201272366,0.7687434,-0.1542086,-0.6160011,-0.07613026,9.639376640319824,-1.1906883716583252,1.8092819452285767,0.7749570608139038,0.4111030697822571, 1.323376178741455
98,201289033,0.7687802,-0.15423216,-0.6159578,-0.07606348,9.66129207611084,-1.228149652481079,1.818194031715393,0.9624036550521851,0.4395715892314911, 1.367814302444458
99,201305700,0.7688179,-0.15425286,-0.6159109,-0.076019794,9.64486026763916,-1.1973401308059692,1.8387465476989746,0.9742879867553711,0.47902795672416687, 1.2630584239959717
100,201322367,0.7688585,-0.15426777,-0.6158607,-0.075986624,9.62394905090332,-1.1863435506820679,1.8220463991165161,0.9501479268074036,0.5265523195266724, 1.1943010091781616
101,201339034,0.7688892,-0.15428506,-0.61582303,-0.07594519,9.629500389099121,-1.1771458387374878,1.8166459798812866,0.9517231583595276,0.41555964946746826, 1.2357295751571655
102,201355701,0.7689118,-0.1543266,-0.6157878,-0.07591731,9.6066255569458,-1.174557089805603,1.8302857875823975,0.7237572073936462,0.3783828318119049, 1.262814998626709
103,201372368,0.7689424,-0.15436381,-0.6157428,-0.07589688,9.61493968963623,-1.1729552745819092,1.8240588903427124,0.7528403997421265,0.4721764922142029, 1.236882209777832
104,201389035,0.7689802,-0.15436506,-0.6157012,-0.075849615,9.61861801147461,-1.2363958358764648,1.7987136840820312,1.0268068313598633,0.48552075028419495, 1.2295185327529907
105,201405702,0.7690266,-0.15432706,-0.6156633,-0.07576361,9.616592407226562,-1.2197836637496948,1.8115884065628052,1.4136608839035034,0.4862762987613678, 1.2748913764953613
106,201422369,0.76906234,-0.15430462,-0.6156347,-0.075679824,9.612564086914062,-1.1703251600265503,1.8220815658569336,1.3246309757232666,0.3897419571876526, 1.3223514556884766
107,201439036,0.76906013,-0.15434267,-0.6156338,-0.07563079,9.56334114074707,-1.1343226432800293,1.8398069143295288,0.9000622630119324,0.08139074593782425, 1.3697094917297363
108,201455703,0.7690253,-0.15440543,-0.6156676,-0.07558047,9.565483093261719,-1.1168652772903442,1.8615937232971191,0.7341048717498779,-0.24884019792079926, 1.4355086088180542
109,201472370,0.76894957,-0.15454695,-0.6157271,-0.07557767,9.562145233154297,-1.0851227045059204,1.8564552068710327,0.0782788097858429,-0.5478812456130981, 1.4815728664398193
110,201489037,0.7688605,-0.15468836,-0.61580753,-0.07553946,9.56039047241211,-1.1941568851470947,1.8124088048934937,0.2172020822763443,-0.7499781847000122, 1.6543049812316895
111,201505704,0.76874816,-0.15476547,-0.6159436,-0.07541485,9.582969665527344,-1.2290749549865723,1.8151870965957642,0.9470743536949158,-1.201401948928833, 1.7794616222381592
112,201522371,0.7686072,-0.15482478,-0.61612576,-0.07524245,9.576614379882812,-1.216448426246643,1.8001666069030762,1.2305301427841187,-1.604084849357605, 1.8971518278121948
113,201539038,0.768439,-0.15496226,-0.616315,-0.07512798,9.564701080322266,-1.1422415971755981,1.8097597360610962,0.5653939247131348,-1.734018087387085, 1.9111108779907227
114,201555705,0.76830256,-0.15503491,-0.616481,-0.07501115,9.603812217712402,-0.9800068736076355,1.8717018365859985,0.9056715965270996,-1.4376791715621948, 1.6956312656402588
115,201572372,0.7681822,-0.15523374,-0.6165795,-0.07502321,9.556574821472168,-1.052911400794983,1.7785322666168213,-0.3138580024242401,-0.9441864490509033, 1.6570839881896973
116,201589039,0.76811415,-0.15542732,-0.61661357,-0.075040445,9.6080322265625,-1.130200743675232,1.7144744396209717,-0.24667589366436005,-0.37599441409111023, 1.729811191558838
117,201605706,0.7681154,-0.15558712,-0.6165717,-0.07503913,9.639731407165527,-1.2026573419570923,1.7092068195343018,0.013337813317775726,0.33025655150413513, 1.8092362880706787
118,201622373,0.7681894,-0.15572296,-0.6164507,-0.074995466,9.673850059509277,-1.2771738767623901,1.7266572713851929,0.4054938852787018,1.025154709815979, 2.0723941326141357
119,201639040,0.7683203,-0.15581834,-0.6162743,-0.074903674,9.642922401428223,-1.234188437461853,1.7384918928146362,0.8256573677062988,1.5427489280700684, 2.242577314376831
120,201655707,0.7684554,-0.15596865,-0.6160735,-0.074857436,9.610458374023438,-1.1434316635131836,1.7886463403701782,0.37920239567756653,1.7104607820510864, 2.2793188095092773
121,201672374,0.7685796,-0.15620036,-0.6158544,-0.07490239,9.584425926208496,-1.1022807359695435,1.7781033515930176,-0.5001391768455505,1.8270113468170166, 2.162473678588867
122,201689041,0.7687038,-0.15642622,-0.61563355,-0.074971765,9.582435607910156,-1.218711018562317,1.766547679901123,-0.6289454102516174,1.8784034252166748, 2.016634941101074
123,201705708,0.7688524,-0.15654518,-0.61541325,-0.075007245,9.653432846069336,-1.3118122816085815,1.7849327325820923,0.16199393570423126,1.9941728115081787, 1.7751715183258057
124,201722375,0.76900595,-0.15658358,-0.6152114,-0.07500836,9.652944564819336,-1.3429477214813232,1.791771411895752,0.78143709897995,1.9231488704681396, 1.6088041067123413
125,201739042,0.7691727,-0.15652357,-0.61502206,-0.07497755,9.636350631713867,-1.3179672956466675,1.8155546188354492,1.3833353519439697,1.9463921785354614, 1.3411768674850464
126,201755709,0.7693431,-0.15639377,-0.6148468,-0.07493833,9.615030288696289,-1.3126931190490723,1.7886168956756592,1.7997982501983643,1.9189099073410034, 1.0804781913757324
127,201772376,0.76950246,-0.15620822,-0.6146968,-0.07491792,9.611785888671875,-1.2506229877471924,1.794533133506775,2.0862889289855957,1.7839566469192505, 0.7295329570770264
128,201789043,0.7696519,-0.15602766,-0.61455107,-0.07495562,9.627364158630371,-1.21211838722229,1.8319284915924072,1.803690791130066,1.785646677017212, 0.4404679536819458
129,201805710,0.76979,-0.15587115,-0.61440927,-0.075025894,9.66212272644043,-1.2170714139938354,1.839906096458435,1.53224778175354,1.7428739070892334, 0.37035325169563293
130,201822377,0.7699309,-0.15571417,-0.6142618,-0.07511395,9.694999694824219,-1.206551194190979,1.8259902000427246,1.486260175704956,1.8043696880340576, 0.2968063950538635
131,201839044,0.77009326,-0.15554874,-0.6140928,-0.07517361,9.637901306152344,-1.1882703304290771,1.8467388153076172,1.6557906866073608,1.9903054237365723, 0.45504167675971985
132,201855711,0.77025867,-0.15536055,-0.61393297,-0.07517378,9.610700607299805,-1.1168304681777954,1.8424389362335205,2.0260732173919678,1.9088054895401, 0.6748882532119751
133,201872378,0.7704123,-0.1552153,-0.61377245,-0.075209446,9.590539932250977,-1.0356667041778564,1.9165717363357544,1.6431379318237305,1.881592035293579, 0.6797290444374084
134,201889045,0.7705359,-0.15513255,-0.61363333,-0.07525033,9.626537322998047,-1.0735360383987427,1.8919199705123901,1.244899034500122,1.6167951822280884, 0.8930060267448425
135,201905712,0.7706164,-0.15509912,-0.613535,-0.07529717,9.60076904296875,-1.0638307332992554,1.8988869190216064,0.9627493023872375,1.197784185409546, 1.0279464721679688
136,201922379,0.7706528,-0.15509966,-0.6134818,-0.07535701,9.637079238891602,-1.098122477531433,1.9110151529312134,0.6997325420379639,0.7700009942054749, 1.0483726263046265
137,201939046,0.77066237,-0.15511344,-0.61346287,-0.07538446,9.642780303955078,-1.1889350414276123,1.923930287361145,0.8340198993682861,0.42329466342926025, 1.2574619054794312
138,201955713,0.77064383,-0.15509558,-0.61349714,-0.07533085,9.577457427978516,-1.1706769466400146,1.8833670616149902,1.2514041662216187,-0.03421855717897415, 1.473030924797058
139,201972380,0.7705867,-0.15510498,-0.61357313,-0.0752769,9.530150413513184,-1.0741561651229858,1.8679661750793457,1.0998796224594116,-0.43212464451789856, 1.5375750064849854
140,201989047,0.77048767,-0.15522425,-0.6136631,-0.07531232,9.59754753112793,-1.0284770727157593,1.8956090211868286,0.1333589255809784,-0.6477964520454407, 1.5125900506973267
141,202005714,0.77038413,-0.15538485,-0.61374766,-0.07535144,9.657600402832031,-1.1472193002700806,1.8513959646224976,-0.10621585696935654,-0.6543660163879395, 1.6906110048294067
142,202022381,0.7703037,-0.15550262,-0.6138231,-0.07531494,9.643865585327148,-1.2286248207092285,1.783034324645996,0.5061902403831482,-0.5694215893745422, 1.953423023223877
143,202039048,0.77025145,-0.15557753,-0.6138799,-0.07523191,9.628897666931152,-1.2363529205322266,1.7891722917556763,0.9295424222946167,-0.3681953251361847, 2.055528163909912
144,202055715,0.7702227,-0.15562929,-0.6139165,-0.07512112,9.636926651000977,-1.2118041515350342,1.8223450183868408,1.1492867469787598,-0.16630324721336365, 2.137014865875244
145,202072382,0.7702167,-0.15571935,-0.61390835,-0.07506168,9.60628604888916,-1.1849209070205688,1.8229525089263916,0.7905296087265015,0.19826151430606842, 2.106049060821533
146,202089049,0.770194,-0.1558313,-0.61391485,-0.07501007,9.589649200439453,-1.1189712285995483,1.7963166236877441,0.5895723104476929,0.057980749756097794, 2.133185625076294
147,202105716,0.77017677,-0.15597263,-0.61390126,-0.07500465,9.561271667480469,-1.1382759809494019,1.8225750923156738,0.2727048099040985,0.22247830033302307, 2.0577948093414307
148,202122383,0.7701813,-0.15608133,-0.6138705,-0.07498295,9.506260871887207,-1.1605238914489746,1.8137216567993164,0.4741487503051758,0.4166097640991211, 2.0368435382843018
149,202139050,0.7702083,-0.15610121,-0.613841,-0.07490648,9.609176635742188,-1.2080960273742676,1.7964078187942505,1.2617905139923096,0.48585373163223267, 1.9843887090682983
150,202155717,0.77021617,-0.1560277,-0.61386555,-0.07477719,9.56224536895752,-1.2862011194229126,1.9032094478607178,2.0055320262908936,0.11437992006540298, 1.8136416673660278
151,202172384,0.7701957,-0.15597902,-0.613912,-0.07470729,9.574227333068848,-1.261394739151001,1.8623833656311035,1.5661077499389648,-0.06459522992372513, 1.5604089498519897
152,202189051,0.77015066,-0.1559659,-0.61397773,-0.07465954,9.639815330505371,-1.2143006324768066,1.867604374885559,1.2776318788528442,-0.2648865282535553, 1.5658386945724487
153,202205718,0.77008563,-0.15584305,-0.61410415,-0.07454695,9.504401206970215,-1.1851102113723755,1.774324655532837,2.1823620796203613,-0.6870734691619873, 1.3862426280975342
154,202222385,0.77000684,-0.15577608,-0.61422646,-0.07449401,9.55556869506836,-1.2380311489105225,1.82496976852417,1.5808736085891724,-0.6759063601493835, 1.30378258228302
155,202239052,0.76993465,-0.15559894,-0.6143721,-0.07440988,9.574670791625977,-1.127506971359253,1.831825852394104,2.3305442333221436,-0.7473913431167603, 0.9899500012397766
156,202255719,0.7698305,-0.15554427,-0.6145097,-0.07446392,9.568377494812012,-1.1591885089874268,1.8130834102630615,1.076892375946045,-0.7536665201187134, 0.7830506563186646
157,202272386,0.7697462,-0.15544334,-0.61464006,-0.07447115,9.606764793395996,-1.1435250043869019,1.801385521888733,1.447277545928955,-0.6400485634803772, 0.8445723056793213
158,202289053,0.76968294,-0.15536864,-0.61473066,-0.0745317,9.60600471496582,-1.1672390699386597,1.774778127670288,1.1478524208068848,-0.3012053668498993, 0.7498822212219238
159,202305720,0.7696506,-0.15525702,-0.61479634,-0.07455734,9.640810012817383,-1.1746548414230347,1.7873860597610474,1.530672550201416,-0.05331283062696457, 0.833827793598175
160,202322387,0.76963276,-0.15513434,-0.61484927,-0.074561216,9.614760398864746,-1.1270055770874023,1.8040333986282349,1.7113828659057617,0.06090059503912926, 0.9360096454620361
161,202339054,0.76961756,-0.15507397,-0.6148742,-0.074636884,9.615757942199707,-1.118214726448059,1.8392751216888428,1.0481805801391602,0.272307813167572, 0.8582752346992493
162,202355721,0.7695992,-0.15502326,-0.61489475,-0.07476237,9.620546340942383,-1.187960147857666,1.8135781288146973,0.8133889436721802,0.32697808742523193, 0.6563957929611206
163,202372388,0.7695856,-0.1549233,-0.61492616,-0.074851766,9.625154495239258,-1.276600956916809,1.785843849182129,1.2224749326705933,0.28256574273109436, 0.6339847445487976
164,202389055,0.7695809,-0.15474264,-0.6149695,-0.074917756,9.650321960449219,-1.2280869483947754,1.8344740867614746,1.7904106378555298,0.27608564496040344, 0.4148808419704437
165,202405722,0.7695841,-0.15453987,-0.6150071,-0.07499512,9.65845775604248,-1.226340889930725,1.840599536895752,1.8767383098602295,0.3645903468132019, 0.2778785526752472
166,202422389,0.76959324,-0.15429723,-0.61505127,-0.07503779,9.680607795715332,-1.1980810165405273,1.8140218257904053,2.230898141860962,0.34334468841552734, 0.290441632270813
167,202439056,0.76959383,-0.1541482,-0.61507916,-0.07511023,9.677148818969727,-1.1393656730651855,1.8002920150756836,1.6725926399230957,0.3694183826446533, 0.563549816608429
168,202455723,0.7695903,-0.15398762,-0.61512226,-0.07512143,9.628302574157715,-1.1509300470352173,1.7814134359359741,1.958161473274231,0.22421997785568237, 0.8216361999511719
169,202472390,0.76961696,-0.15375657,-0.6151477,-0.075112276,9.58341121673584,-1.0171301364898682,1.834359884262085,2.415757894515991,0.46930789947509766, 0.6681137681007385
170,202489057,0.76961124,-0.15361063,-0.6151853,-0.07516177,9.60197925567627,-1.0553202629089355,1.8216578960418701,1.5309926271438599,0.3115848898887634, 0.6710591316223145
171,202505724,0.7695723,-0.1534956,-0.6152595,-0.075188905,9.634134292602539,-1.0519428253173828,1.879757046699524,1.6327773332595825,-0.08726245909929276, 0.9142387509346008
172,202522391,0.76946753,-0.15349562,-0.615385,-0.07523491,9.634038925170898,-1.0309826135635376,1.9117666482925415,0.8732458353042603,-0.6730633974075317, 1.2199138402938843
173,202539058,0.769311,-0.15358473,-0.61555123,-0.07529485,9.620205879211426,-1.032026767730713,1.9184768199920654,0.34782683849334717,-1.1473718881607056, 1.474324345588684
174,202555725,0.7691076,-0.15369667,-0.61577165,-0.07534147,9.577202796936035,-1.023072600364685,1.8590818643569946,0.21727895736694336,-1.654554843902588, 1.5637640953063965
175,202572392,0.7688997,-0.15382874,-0.61599636,-0.07535729,9.581515312194824,-1.0613306760787964,1.812238097190857,0.2869454622268677,-1.7477593421936035, 1.8272931575775146
176,202589059,0.76867604,-0.15394408,-0.6162458,-0.07536172,9.634578704833984,-1.0956368446350098,1.8278288841247559,0.34630289673805237,-1.9357949495315552, 1.7778477668762207
177,202605726,0.76847565,-0.1540648,-0.6164648,-0.07536834,9.613987922668457,-1.180287480354309,1.7833622694015503,0.3751363754272461,-1.6849313974380493, 1.8530529737472534
178,202622393,0.7682815,-0.15421559,-0.6166642,-0.075406834,9.724306106567383,-1.1484943628311157,1.7708048820495605,0.05046342313289642,-1.5297057628631592, 1.8339139223098755
179,202639060,0.7681247,-0.1544086,-0.6168037,-0.07546911,9.66370677947998,-1.2307463884353638,1.730112910270691,-0.3034977316856384,-1.0423600673675537, 1.968572974205017
180,202655727,0.76802266,-0.1545765,-0.6168776,-0.07556079,9.666289329528809,-1.2140225172042847,1.708661437034607,-0.1480029821395874,-0.4312666058540344, 1.8300849199295044
181,202672394,0.7679811,-0.15471116,-0.61688596,-0.075639054,9.638705253601074,-1.2506557703018188,1.6841497421264648,-0.0033808760344982147,0.19824868440628052, 1.8398946523666382
182,202689061,0.7679943,-0.1547445,-0.61685675,-0.07567641,9.62218189239502,-1.226322889328003,1.6844512224197388,0.6660006046295166,0.6570361852645874, 1.6789188385009766
183,202705728,0.768041,-0.15475397,-0.61679167,-0.07571188,9.614299774169922,-1.168821096420288,1.7680716514587402,0.9297345280647278,0.9911539554595947, 1.6666631698608398
184,202722395,0.7680898,-0.15478499,-0.616715,-0.07577919,9.59293270111084,-1.1434662342071533,1.7731294631958008,0.7111558318138123,1.0798505544662476, 1.614438772201538
185,202739062,0.76812696,-0.15481889,-0.6166525,-0.07584032,9.598637580871582,-1.1264941692352295,1.8003746271133423,0.6961339712142944,0.9535160064697266, 1.6397570371627808
186,202755729,0.76813793,-0.15487233,-0.6166194,-0.0758897,9.549692153930664,-1.0895603895187378,1.8092693090438843,0.6582528352737427,0.6602505445480347, 1.7517740726470947
187,202772396,0.7681173,-0.15499477,-0.61660105,-0.07599747,9.555315017700195,-1.0078535079956055,1.8365522623062134,0.03576172888278961,0.4717666804790497, 1.71504545211792
188,202789063,0.76805896,-0.15521108,-0.6166056,-0.076110415,9.571334838867188,-1.0276992321014404,1.836150884628296,-0.5351645946502686,0.14843200147151947, 2.0495986938476562
189,202805730,0.76794267,-0.15549435,-0.61666596,-0.07621449,9.572707176208496,-1.0114076137542725,1.8585792779922485,-0.9074066281318665,-0.43546709418296814, 2.2972159385681152
190,202822397,0.7677521,-0.155912,-0.61677307,-0.07641526,9.564591407775879,-1.1027437448501587,1.8681261539459229,-2.074129104614258,-0.9691206216812134, 2.281355381011963
191,202839064,0.7675082,-0.15636837,-0.61694133,-0.07657335,9.59760570526123,-1.3389110565185547,1.8137565851211548,-2.0916993618011475,-1.5936989784240723, 2.590449094772339
192,202855731,0.76707435,-0.1567881,-0.61733514,-0.07688826,9.572059631347656,-1.2548850774765015,2.312685966491699,-2.6791906356811523,-3.3979859352111816, 1.2529157400131226
193,202872398,0.7663895,-0.15849854,-0.6175126,-0.07876309,9.9808988571167,-0.24340680241584778,3.346644401550293,-16.54094123840332,-2.3477139472961426, -1.4051140546798706
194,202889065,0.76578397,-0.16216508,-0.61670583,-0.083375216,10.716392517089844,2.523723602294922,4.877843856811523,-39.06438446044922,5.029253959655762, -6.374497890472412
195,202905732,0.76450175,-0.16835408,-0.6155954,-0.09075471,11.856581687927246,4.0231404304504395,4.883677959442139,-65.23062133789062,5.251062393188477, -10.119669914245605
196,202922399,0.76374847,-0.17148647,-0.6149847,-0.09526121,11.809344291687012,2.5745692253112793,5.749729633331299,-36.3819580078125,3.3166885375976562, -7.9537434577941895
197,202939066,0.7650597,-0.16754603,-0.6144911,-0.09493593,11.74083137512207,1.7452855110168457,3.819697141647339,23.62963104248047,10.179366111755371, -11.060951232910156
198,202955733,0.7681678,-0.15780267,-0.6141124,-0.088783875,10.487626075744629,-3.6749305725097656,1.5846846103668213,80.96672058105469,14.179178237915039, -3.6997790336608887
199,202972400,0.77203274,-0.14200269,-0.614785,-0.07642195,8.021339416503906,-6.039761066436768,0.10152176022529602,141.30213928222656,8.784628868103027, 2.849658727645874
200,202989067,0.7752176,-0.12717603,-0.6154978,-0.063456476,6.625458717346191,-6.446207523345947,0.6402975916862488,138.16957092285156,4.735038757324219, 9.51657485961914
201,203005734,0.7771746,-0.12018576,-0.61528665,-0.054568492,8.30199909210205,-7.234143257141113,0.6055904030799866,77.6093978881836,4.704128742218018, 20.88928985595703
202,203022401,0.7768675,-0.12237266,-0.615509,-0.051485322,10.610710144042969,-5.009702682495117,-2.0577218532562256,2.351361036300659,-5.764166831970215, 27.14470100402832
203,203039068,0.77366775,-0.13315032,-0.6170031,-0.054921936,11.525529861450195,-3.5200705528259277,-2.791487693786621,-73.0234146118164,-22.144094467163086, 26.38515281677246
204,203055735,0.769823,-0.14561024,-0.61859584,-0.05923876,9.441241264343262,-3.3571949005126953,0.2951638698577881,-86.16466522216797,-24.993473052978516, 28.40864372253418
205,203072402,0.7666833,-0.1565035,-0.6194933,-0.06270297,7.763102054595947,-1.6306302547454834,1.7652324438095093,-73.73684692382812,-18.480512619018555, 27.149641036987305
206,203089069,0.76457864,-0.16392285,-0.61992174,-0.0651612,7.710836887359619,-0.33380845189094543,1.6032013893127441,-50.34194564819336,-11.199284553527832, 18.563762664794922
207,203105736,0.7633746,-0.16772749,-0.6201723,-0.06718037,8.237799644470215,1.9456175565719604,2.067497968673706,-28.587059020996094,-5.317455768585205, 6.109216690063477
208,203122403,0.7629112,-0.1703798,-0.61964446,-0.07055758,8.499144554138184,2.322138547897339,1.6732522249221802,-27.98331642150879,4.00278377532959, -4.542207717895508
209,203139070,0.7631896,-0.16894412,-0.61952734,-0.07201055,8.455371856689453,1.307700514793396,0.865986704826355,2.6642794609069824,4.727293968200684, -11.801839828491211
210,203155737,0.76351756,-0.16544932,-0.61995643,-0.07295133,8.508291244506836,1.5760647058486938,1.168051838874817,15.926206588745117,2.5342471599578857, -18.369850158691406
211,203172404,0.763183,-0.1640439,-0.6204804,-0.07513582,8.88174819946289,-0.8711796998977661,1.3351516723632812,-0.9564815759658813,-0.42208486795425415, -16.271520614624023
212,203189071,0.76256496,-0.16392568,-0.6210732,-0.07675521,10.02462100982666,-2.428602457046509,0.9560126662254333,-5.777458667755127,-3.2550294399261475, -8.05634880065918
213,203205738,0.7617569,-0.16334783,-0.62224084,-0.07655244,10.248459815979004,-2.593782424926758,1.2146308422088623,4.522122383117676,-8.854825973510742, -1.2668302059173584
214,203222405,0.76078075,-0.16282827,-0.6237165,-0.07534922,10.263762474060059,-2.630054473876953,1.674261450767517,8.45228099822998,-12.310087203979492, 3.719895124435425
215,203239072,0.75950074,-0.16347224,-0.62526757,-0.07399887,10.228364944458008,-2.059680938720703,1.9930353164672852,2.6221351623535156,-14.761191368103027, 9.158682823181152
216,203255739,0.7575774,-0.16667643,-0.6267125,-0.0743436,9.894556999206543,-1.4334901571273804,1.7392725944519043,-18.779945373535156,-16.394859313964844, 11.077642440795898
217,203272406,0.7552603,-0.17151915,-0.62800694,-0.07596357,9.860444068908691,-1.413037896156311,1.6309915781021118,-33.508785247802734,-16.674287796020508, 11.438748359680176
218,203289073,0.7530265,-0.17933214,-0.62798125,-0.08019243,10.669832229614258,-0.9189255833625793,2.148472547531128,-61.08718490600586,-7.904969692230225, 12.27736759185791
219,203305740,0.7516476,-0.19237703,-0.6245148,-0.08943366,11.905423164367676,-0.1816907525062561,3.596439838409424,-111.04046630859375,16.909770965576172, 13.620018005371094
220,203322407,0.7496851,-0.2055867,-0.62110215,-0.09969346,9.568300247192383,-0.9846384525299072,-0.8406554460525513,-117.2774887084961,15.297398567199707, 8.691990852355957
221,203339074,0.7468367,-0.21501026,-0.6200905,-0.1072079,9.598102569580078,-1.4180819988250732,-0.6840214729309082,-85.76326751708984,-2.041346788406372, 2.693699836730957
222,203355741,0.74440485,-0.22140016,-0.6198754,-0.11224136,9.101122856140137,-2.1443417072296143,-0.6116958856582642,-58.41057586669922,-5.7045159339904785, 1.6471021175384521
223,203372408,0.74244636,-0.22440083,-0.6206741,-0.11481047,9.07721996307373,-1.032363772392273,-1.2826584577560425,-29.06305694580078,-9.932150840759277, -1.3865865468978882
224,203389075,0.7403861,-0.22564018,-0.6223445,-0.116629496,9.21904182434082,-0.40081503987312317,-1.1537015438079834,-16.267078399658203,-14.486058235168457, -6.462031841278076
225,203405742,0.73820746,-0.22556691,-0.6248101,-0.11739596,8.963082313537598,-1.836347222328186,-0.44922858476638794,-4.580313205718994,-19.527523040771484, -7.986423492431641
226,203422409,0.7366177,-0.22345538,-0.62766033,-0.1162099,8.909528732299805,-2.408538579940796,1.2724082469940186,15.363847732543945,-20.261770248413086, -6.973919868469238
227,203439076,0.73603517,-0.22046246,-0.62980855,-0.11397293,8.50052261352539,-3.0861496925354004,3.193835496902466,26.10454750061035,-13.424437522888184, -3.5362792015075684
228,203455743,0.7367253,-0.21798438,-0.6302615,-0.11175587,8.420553207397461,-3.3586037158966064,5.057961940765381,24.00255012512207,0.18557080626487732, 2.072385549545288
229,203472410,0.7383498,-0.21671706,-0.6291128,-0.10995675,9.135185241699219,-1.9724509716033936,2.7616639137268066,16.201486587524414,11.847563743591309, 8.223424911499023
230,203489077,0.73975664,-0.21651699,-0.62765706,-0.10921236,12.002513885498047,0.38916298747062683,1.1299017667770386,4.824200630187988,13.300192832946777, 7.656301498413086
231,203505744,0.7407682,-0.21681696,-0.6262124,-0.11005036,12.338272094726562,-0.02040211111307144,2.431670904159546,-5.124425411224365,13.525325775146484, 1.5629582405090332
232,203522411,0.74220437,-0.21631558,-0.6245695,-0.11069582,10.881673812866211,-1.9567104578018188,2.6507608890533447,0.2443389743566513,16.637338638305664, -0.19822964072227478
233,203539078,0.74398804,-0.21438725,-0.62323004,-0.110020496,9.275471687316895,-2.202759027481079,1.4312334060668945,13.912178993225098,15.645788192749023, 0.21197742223739624
234,203555745,0.74571794,-0.21225144,-0.6221408,-0.10860508,8.339082717895508,-2.4544260501861572,0.6283716559410095,18.214279174804688,13.199649810791016, 2.6548056602478027
235,203572412,0.7476703,-0.20986266,-0.62095976,-0.10656389,7.914802074432373,-2.6761295795440674,0.9847822785377502,22.449928283691406,13.922758102416992, 5.022618293762207
236,203589079,0.74970615,-0.20721309,-0.61971205,-0.104692295,8.578324317932129,-0.9222414493560791,1.1089138984680176,23.13440704345703,15.068343162536621, 3.121767520904541
237,203605746,0.7513808,-0.20533256,-0.61823463,-0.10512753,9.14008903503418,-0.5085330605506897,1.674805998802185,8.649567604064941,17.452791213989258, -5.411932468414307
238,203622413,0.75270003,-0.20331115,-0.6170708,-0.10644717,9.042525291442871,-2.276256561279297,1.773583173751831,5.342555046081543,15.65379524230957, -11.2398681640625
239,203639080,0.7531008,-0.20086794,-0.61715734,-0.10774086,9.02889633178711,-4.238589763641357,1.8810700178146362,7.316012859344482,5.528385639190674, -15.34868335723877
240,203655747,0.7522108,-0.19857736,-0.61858094,-0.110017456,9.768790245056152,-3.505424737930298,2.5345916748046875,1.582502841949463,-5.655397415161133, -22.71854591369629
241,203672414,0.7509107,-0.19597913,-0.6204545,-0.11296725,9.746939659118652,-2.2594969272613525,1.4213749170303345,0.03286759927868843,-8.617469787597656, -28.529895782470703
242,203689081,0.7493836,-0.19247806,-0.6228246,-0.116043724,10.236433029174805,-0.99456787109375,1.0407555103302002,4.249876976013184,-11.283342361450195, -33.91292953491211
243,203705748,0.7476481,-0.18869944,-0.6254593,-0.11922954,10.189604759216309,-0.013386358506977558,1.7385263442993164,5.112943649291992,-13.155623435974121, -36.16571044921875
244,203722415,0.7454237,-0.18665339,-0.627718,-0.12439617,9.79130744934082,1.5090035200119019,2.850351095199585,-13.377226829528809,-12.182910919189453, -38.76739501953125
245,203739082,0.7428973,-0.1866434,-0.62919664,-0.13183208,9.18121337890625,1.016780138015747,2.0162787437438965,-34.69515609741211,-8.394906044006348, -40.74989700317383
246,203755749,0.7404265,-0.18690123,-0.6304113,-0.1393493,9.315925598144531,-0.2827688753604889,1.9450339078903198,-35.63650894165039,-7.094085216522217, -39.39498519897461
247,203772416,0.7380971,-0.18784285,-0.6313018,-0.14623992,10.858024597167969,0.01614021323621273,0.43253469467163086,-36.53595733642578,-6.329067707061768, -32.666175842285156
248,203789083,0.7361587,-0.18917845,-0.63190126,-0.1516005,11.544172286987305,0.3020183742046356,0.6798118352890015,-31.682209014892578,-5.490009784698486, -22.385082244873047
249,203805750,0.73475254,-0.19111292,-0.6319433,-0.15576386,10.59533405303955,-0.04561149328947067,0.5701490640640259,-29.4036922454834,-2.5091440677642822, -12.395771980285645
250,203822417,0.73423475,-0.19275808,-0.6312962,-0.15877259,10.118430137634277,-0.06351074576377869,-0.05471077188849449,-22.496868133544922,3.6523330211639404, -5.936279773712158
251,203839084,0.73441726,-0.19427007,-0.6299273,-0.16149919,10.214588165283203,-0.24864470958709717,1.3152672052383423,-20.460601806640625,10.159699440002441, -3.3462414741516113
252,203855751,0.7349202,-0.19720961,-0.62747324,-0.16516112,10.264720916748047,1.6202075481414795,1.263724684715271,-32.50218200683594,16.684326171875, -0.06647808849811554
253,203872418,0.7358121,-0.20121314,-0.62443215,-0.16786425,10.410981178283691,-1.020153522491455,0.34596142172813416,-33.89925003051758,18.816007614135742, 10.699745178222656
254,203889085,0.7373257,-0.20385559,-0.6217425,-0.16801843,10.817574501037598,-1.743524432182312,0.9315377473831177,-14.80182933807373,17.790283203125, 17.964502334594727
255,203905752,0.73930377,-0.20568036,-0.6189872,-0.16727437,9.786564826965332,-2.20210599899292,1.1899343729019165,-6.236389636993408,19.81537628173828, 19.605979919433594
256,203922419,0.7415007,-0.2063543,-0.61646295,-0.16603683,9.1105375289917,-1.9496511220932007,1.6609861850738525,2.2959086894989014,20.206501007080078, 17.076852798461914
257,203939086,0.7434521,-0.20565434,-0.6148169,-0.16427307,9.184552192687988,-2.9099509716033936,2.3955366611480713,12.189130783081055,15.499605178833008, 12.355626106262207
258,203955753,0.7447758,-0.20404361,-0.614183,-0.16264883,9.481249809265137,-0.6003901362419128,2.471210479736328,16.519092559814453,8.859501838684082, 5.561939716339111
259,203972420,0.7446754,-0.20451573,-0.61391455,-0.16352598,7.857136249542236,0.2489365041255951,3.3980467319488525,-6.304873943328857,2.11661434173584, -0.5493155717849731
260,203989087,0.74393725,-0.20583296,-0.614019,-0.16483617,8.64853572845459,0.10393179208040237,2.264106035232544,-12.952606201171875,-2.911832571029663, -0.403810054063797
261,204005754,0.7428012,-0.20636743,-0.61524814,-0.1647082,9.339652061462402,-1.0594853162765503,2.210465908050537,-2.1733665466308594,-11.528178215026855, 1.637363076210022
262,204022421,0.7412365,-0.20686077,-0.6171444,-0.16404317,10.052285194396973,-0.9488934278488159,1.4507627487182617,0.45838457345962524,-17.491188049316406, 2.7626078128814697
263,204039088,0.73939633,-0.20684513,-0.6197336,-0.16259943,9.344660758972168,-0.9548908472061157,2.0631558895111084,6.751976490020752,-22.71691131591797, 3.2712032794952393
264,204055755,0.7373496,-0.20670594,-0.622632,-0.16098939,9.567961692810059,-0.40449395775794983,2.2314720153808594,8.144020080566406,-25.29119300842285, 2.912766456604004
265,204072422,0.73532915,-0.20570034,-0.62602717,-0.15833056,9.654336929321289,-0.18530268967151642,1.142447829246521,17.612892150878906,-28.25739860534668, 3.860200881958008
266,204089089,0.7330882,-0.20447256,-0.6298572,-0.15508953,9.949316024780273,0.2688126862049103,1.1853910684585571,21.408161163330078,-31.972074508666992, 5.016817092895508
267,204105756,0.7309333,-0.20291512,-0.6339359,-0.15062362,10.025405883789062,0.29955214262008667,1.744349718093872,28.762845993041992,-34.21198272705078, 9.548184394836426
268,204122423,0.72858787,-0.20171382,-0.63809633,-0.14596029,9.991353034973145,-0.4910760819911957,1.3935452699661255,27.65289306640625,-36.108089447021484, 11.826506614685059
269,204139090,0.7256418,-0.20108964,-0.64256746,-0.14182523,10.374959945678711,-1.7417831420898438,1.5772619247436523,21.9294490814209,-40.149688720703125, 10.691752433776855
270,204155757,0.7219615,-0.20028368,-0.64807963,-0.13656954,11.932368278503418,-4.06534481048584,1.9805114269256592,27.799072265625,-49.97351837158203, 13.292043685913086
271,204172424,0.717097,-0.19953504,-0.6547315,-0.13147071,13.518235206604004,-2.406914472579956,4.973026275634766,26.272340774536133,-60.77827453613281, 9.9740571975708
272,204189091,0.71025413,-0.20556946,-0.6600962,-0.13248862,14.599205017089844,0.9071106314659119,7.792769432067871,-38.58793258666992,-61.232337951660156, 10.29092025756836
273,204205758,0.7023123,-0.21316533,-0.6652829,-0.13680969,15.835580825805664,4.73185920715332,12.497783660888672,-62.94652557373047,-62.378868103027344, 0.5909076929092407
274,204222425,0.69456553,-0.21463846,-0.6726382,-0.13808437,15.743128776550293,8.389780044555664,10.11737060546875,-17.166046142578125,-71.11817169189453, -15.4525728225708
275,204239092,0.68842983,-0.20471908,-0.6838211,-0.12862052,11.93332290649414,2.657860040664673,4.9359917640686035,92.9013442993164,-87.32052612304688, -20.572813034057617
276,204255759,0.6858812,-0.1774378,-0.69781643,-0.105523534,9.930509567260742,13.313980102539062,2.44571852684021,246.79612731933594,-87.71265411376953, -38.25506591796875
277,204272426,0.6835987,-0.15347813,-0.707307,-0.094098635,11.081942558288574,12.765085220336914,3.488100290298462,172.21495056152344,-53.28767013549805, -71.06265258789062
278,204289093,0.6814189,-0.14084785,-0.71051437,-0.10487918,7.318689346313477,11.357220649719238,6.642007350921631,7.063630104064941,-7.197469234466553, -113.10469055175781
279,204305760,0.6813298,-0.14061487,-0.70584834,-0.13339907,4.724522590637207,-0.10487053543329239,6.47800350189209,-141.3171844482422,47.854339599609375, -126.14984893798828
280,204322427,0.68649405,-0.1466344,-0.69256103,-0.1660834,-0.6486271619796753,-9.319035530090332,9.7307710647583,-193.68592834472656,111.6695327758789, -102.29276275634766
281,204339094,0.6989548,-0.1556082,-0.6704998,-0.19410998,-0.5972433090209961,-13.68339729309082,8.265941619873047,-188.1768035888672,179.2928466796875, -49.56333541870117
282,204355761,0.7184842,-0.16568731,-0.641075,-0.21295801,2.6530346870422363,-13.278099060058594,5.896306037902832,-153.50889587402344,235.61410522460938, 16.29924964904785
283,204372428,0.74428177,-0.17372374,-0.60648966,-0.21916926,8.31493854522705,-13.187108993530273,2.06856632232666,-88.19962310791016,277.1309814453125, 84.17935943603516
284,204389095,0.77361363,-0.1775002,-0.5693784,-0.21406549,14.593877792358398,-9.836234092712402,-1.5667598247528076,-18.840370178222656,297.718505859375, 132.1290740966797
285,204405762,0.80268615,-0.17698316,-0.5322978,-0.20256104,18.48774528503418,-7.221689701080322,-3.2794246673583984,28.76543426513672,295.2760314941406, 148.593505859375
286,204422429,0.82872456,-0.17314747,-0.49756834,-0.18884274,20.946407318115234,-4.082398414611816,-4.109360694885254,56.43075942993164,273.3193054199219, 142.12130737304688
287,204439096,0.8492614,-0.17266019,-0.4662258,-0.17770012,17.731924057006836,0.602668046951294,-4.909938812255859,26.068981170654297,234.34359741210938, 127.61648559570312
288,204455763,0.86378974,-0.17785779,-0.4388221,-0.17224786,15.768619537353516,3.015538454055786,-5.696892261505127,-29.03904914855957,192.53323364257812, 99.9180679321289
289,204472430,0.8735204,-0.1846903,-0.41707385,-0.1700036,12.438282012939453,1.423060417175293,-7.357272624969482,-47.63993835449219,146.93795776367188, 73.33009338378906
290,204489097,0.8790504,-0.18789057,-0.4044561,-0.16847257,10.118017196655273,4.780936241149902,-9.502001762390137,-22.5114688873291,85.6756591796875, 42.21400833129883
291,204505764,0.8797795,-0.18809293,-0.40252444,-0.16906679,8.515898704528809,4.844368934631348,-9.855351448059082,-4.151092052459717,14.444721221923828, 1.8515498638153076
292,204522431,0.87604034,-0.18582234,-0.41051415,-0.17176065,9.51528263092041,6.0705060958862305,-7.850289344787598,10.734557151794434,-51.8901481628418, -35.5380744934082
293,204539098,0.86799216,-0.186614,-0.42415115,-0.17849587,10.59579849243164,5.197124481201172,-4.883790016174316,-18.005962371826172,-96.11365509033203, -63.3189811706543
294,204555765,0.8567048,-0.19053319,-0.44022676,-0.18961705,11.30533218383789,4.444551467895508,-2.6854324340820312,-50.68027114868164,-118.00167083740234, -87.261962890625
295,204572432,0.8429927,-0.19769108,-0.45640412,-0.20488322,11.573480606079102,3.2019824981689453,-1.786860466003418,-85.40296173095703,-124.48731994628906, -104.95518493652344
296,204589099,0.8267889,-0.21375911,-0.46941513,-0.22444779,12.35825252532959,-6.570791244506836,8.20962905883789,-155.83619689941406,-120.92982482910156, -99.44536590576172
297,204605766,0.8152558,-0.22477189,-0.4775276,-0.23833372,10.233244895935059,-15.30994701385498,11.320569038391113,-110.78108215332031,-78.41192626953125, -69.99833679199219
298,204622433,0.80452704,-0.2211944,-0.494333,-0.24381202,22.565874099731445,1.3798576593399048,-8.426054000854492,12.532483100891113,-113.5411605834961, -84.17721557617188
299,204639100,0.7900654,-0.21798804,-0.5143351,-0.2524626,23.808181762695312,-0.7920609712600708,2.1547353267669678,-1.97123384475708,-139.00575256347656, -112.03753662109375
300,204655767,0.77633876,-0.21043865,-0.5349466,-0.25854614,8.85058879852295,1.451526165008545,1.8588879108428955,33.20648956298828,-135.89419555664062, -112.8268051147461
301,204672434,0.76279306,-0.2067843,-0.55061835,-0.2687131,10.236839294433594,7.465503215789795,2.3875443935394287,-9.588388442993164,-109.97024536132812, -112.17113494873047
302,204689101,0.75008863,-0.20697019,-0.5620527,-0.28040594,8.043013572692871,8.155733108520508,3.797276258468628,-42.23570251464844,-89.48494720458984, -97.79737854003906
303,204705768,0.73936707,-0.2104194,-0.569716,-0.2906612,8.635478019714355,6.133203029632568,5.40281867980957,-58.03718185424805,-70.79744720458984, -68.29672241210938
304,204722435,0.73059756,-0.21274774,-0.57669324,-0.2973055,11.5051851272583,-1.2183129787445068,1.5330586433410645,-36.77772521972656,-62.78898620605469, -49.23006057739258
305,204739102,0.7223331,-0.21235625,-0.58577186,-0.3000188,12.347549438476562,-1.7511405944824219,0.47031426429748535,-2.462054967880249,-71.52241516113281, -42.36730194091797
306,204755769,0.71360755,-0.21423414,-0.59352607,-0.30429432,10.957673072814941,1.3119804859161377,0.44090795516967773,-23.393177032470703,-69.15573120117188, -40.08855438232422
307,204772436,0.7053345,-0.2200021,-0.5978344,-0.31096032,11.31191349029541,-0.9526134729385376,-0.4934616684913635,-58.764156341552734,-55.00235366821289, -29.895597457885742
308,204789103,0.69888955,-0.22271661,-0.60218173,-0.31516352,10.445136070251465,-1.4806824922561646,0.01652289181947708,-30.960851669311523,-44.832061767578125, -26.704288482666016
309,204805770,0.6938351,-0.22159286,-0.60756665,-0.31678456,10.535872459411621,0.09081226587295532,-0.4003022611141205,2.5719401836395264,-39.669593811035156, -28.84834861755371
310,204822437,0.6897894,-0.21840331,-0.6133807,-0.31663036,10.210471153259277,0.8336052298545837,-0.6104699969291687,22.32206916809082,-35.65658950805664, -27.51797866821289
311,204839104,0.68637145,-0.21413115,-0.6193203,-0.3154118,10.12590503692627,1.2251461744308472,0.1773754358291626,33.16411590576172,-32.78844451904297, -25.898195266723633
312,204855771,0.6833011,-0.2083962,-0.62602115,-0.31267944,10.136932373046875,0.5587915182113647,1.0664902925491333,48.67805099487305,-33.922698974609375, -25.387104034423828
313,204872438,0.6803513,-0.20154795,-0.63350916,-0.30849132,10.442047119140625,0.5533440113067627,0.7404037714004517,62.04866409301758,-36.787872314453125, -24.27494239807129
314,204889105,0.6775043,-0.19451147,-0.6408787,-0.3040194,10.547609329223633,0.5537753105163574,0.461772084236145,64.0646743774414,-35.76442337036133, -23.459623336791992
315,204905772,0.6747365,-0.18787861,-0.647757,-0.29973873,10.5263090133667,0.35721555352211,-0.4076286554336548,60.42768859863281,-33.69801330566406, -21.8266658782959
316,204922439,0.6723462,-0.1814161,-0.65429133,-0.2948588,10.462986946105957,-0.989780068397522,-1.2220101356506348,62.089385986328125,-31.507734298706055, -17.151418685913086
317,204939106,0.6706709,-0.17505178,-0.6603089,-0.28904936,10.348298072814941,-0.7395036220550537,-1.279417872428894,65.66708374023438,-27.206111907958984, -10.449992179870605
318,204955773,0.66851354,-0.16831505,-0.6664117,-0.28399912,9.892753601074219,4.669796466827393,3.3674306869506836,63.528907775878906,-28.08538055419922, -16.82737159729004
319,204972440,0.66516674,-0.16487172,-0.6711916,-0.28261742,9.543167114257812,5.029989719390869,2.57684588432312,27.632858276367188,-29.73294448852539, -19.32732582092285
320,204989107,0.66068363,-0.16106832,-0.67738074,-0.28055227,8.904175758361816,3.6813418865203857,2.1255908012390137,33.89350128173828,-41.57110595703125, -21.587432861328125
321,205005774,0.6550981,-0.15624818,-0.6850311,-0.27778697,8.633488655090332,1.4469209909439087,0.9127116203308105,43.38440704345703,-52.2209358215332, -26.849349975585938
322,205022441,0.64807117,-0.15069652,-0.6940941,-0.27482313,9.49008846282959,0.5884034633636475,-0.2623749375343323,48.7750358581543,-64.22261810302734, -33.706172943115234
323,205039108,0.63916546,-0.14472096,-0.7046175,-0.2720985,10.352737426757812,-0.5338655710220337,0.10870082676410675,50.33979415893555,-78.65243530273438, -41.92759704589844
324,205055775,0.6283187,-0.1380016,-0.71664697,-0.2694222,10.730802536010742,1.6560325622558594,-0.9125534892082214,54.26499557495117,-93.26423645019531, -50.982032775878906
325,205072442,0.61502653,-0.13238597,-0.72978395,-0.26764166,11.74303913116455,0.10109778493642807,0.708759605884552,44.813629150390625,-111.29938507080078, -55.04132080078125
326,205089109,0.5999274,-0.12538627,-0.7450847,-0.26308587,11.807804107666016,1.8002972602844238,1.4734821319580078,66.9386978149414,-129.56741333007812, -55.64604187011719
327,205105776,0.58291304,-0.11749039,-0.76166445,-0.25744092,12.623603820800781,1.5494929552078247,3.0144996643066406,76.89955139160156,-144.0756378173828, -60.37101745605469
328,205122443,0.5639916,-0.10715978,-0.7802199,-0.24836937,14.817477226257324,-0.2842470705509186,3.209872245788574,106.59774017333984,-160.60498046875, -64.43887329101562
329,205139110,0.5440831,-0.093589075,-0.8003062,-0.23393355,18.132919311523438,-3.2444751262664795,5.315934181213379,149.86143493652344,-170.46047973632812, -63.98868179321289
330,205155777,0.5228628,-0.07662618,-0.8208011,-0.21686082,20.958520889282227,-3.483710765838623,8.161881446838379,176.89756774902344,-175.76783752441406, -75.42120361328125
331,205172444,0.49983695,-0.062256094,-0.83872515,-0.20694768,21.778181076049805,-1.7080552577972412,8.884468078613281,122.39076232910156,-177.2515869140625, -88.11160278320312
332,205189111,0.4761423,-0.052901324,-0.8534537,-0.20519957,21.149354934692383,-0.04364413395524025,5.694919109344482,53.26755142211914,-174.25833129882812, -87.01464080810547
333,205205778,0.4539356,-0.047633044,-0.8643696,-0.21104261,20.914772033691406,2.448854923248291,11.502945899963379,-9.456254005432129,-156.464599609375, -84.54402160644531
334,205222445,0.42911217,-0.042487085,-0.87739694,-0.21031457,16.25176429748535,3.764704465866089,8.578749656677246,31.562419891357422,-181.50257873535156, -67.88845825195312
335,205239112,0.40553495,-0.03475353,-0.8901372,-0.20491368,15.580305099487305,8.399959564208984,1.1112492084503174,67.47461700439453,-171.18927001953125, -67.85086059570312
336,205255779,0.39000976,-0.027562376,-0.89932275,-0.19583483,15.240769386291504,2.064603567123413,8.938685417175293,85.53215026855469,-113.88803100585938, -41.99970245361328
337,205272446,0.38496155,-0.021261359,-0.9061657,-0.1738282,4.570437908172607,-5.5399394035339355,13.038480758666992,162.03515625,-46.913700103759766, 12.715818405151367
338,205289113,0.38766477,-0.014793937,-0.90882486,-0.15341073,5.591763973236084,0.4087384343147278,7.853315353393555,148.70513916015625,12.539483070373535, 17.32518768310547
339,205305780,0.39962402,-0.014291271,-0.90494615,-0.14549519,3.827111005783081,0.6498111486434937,8.080246925354004,48.775062561035156,82.5374755859375, 31.765132904052734
340,205322447,0.42027348,-0.020470304,-0.89488965,-0.14874108,3.801586866378784,-2.6755547523498535,7.037723064422607,-44.319759368896484,147.7986297607422, 51.99262619018555
341,205339114,0.4467107,-0.026711313,-0.881339,-0.15158431,5.737717151641846,0.23402467370033264,4.15543270111084,-44.811893463134766,193.2184295654297, 59.86615753173828
342,205355781,0.47952297,-0.03721646,-0.862119,-0.15944867,5.512083530426025,1.5810868740081787,3.910189151763916,-93.09674835205078,245.62918090820312, 77.92432403564453
343,205372448,0.5170853,-0.049845546,-0.83823,-0.16585834,7.116716384887695,-0.3454667925834656,3.179534912109375,-95.39556121826172,286.388916015625, 101.68622589111328
344,205389115,0.55843663,-0.06225338,-0.80982,-0.1687146,9.513882637023926,1.390881896018982,1.7708473205566406,-78.03053283691406,323.24749755859375, 118.84217834472656
345,205405782,0.6026711,-0.07609013,-0.77612627,-0.16919209,11.97292423248291,-0.3745068907737732,-0.1988186240196228,-75.22402954101562,356.8620300292969, 141.51492309570312
346,205422449,0.6482366,-0.08824132,-0.7383767,-0.16371565,14.840279579162598,-0.9979209303855896,-2.114750385284424,-40.553165435791016,379.60693359375, 160.79920959472656
347,205439116,0.69330925,-0.09734442,-0.6971965,-0.15415439,17.811189651489258,0.5438789129257202,-3.675368309020996,-10.457897186279297,393.3941650390625, 164.99253845214844
348,205455783,0.73548,-0.10510004,-0.6535119,-0.14472651,19.61476707458496,3.788853645324707,-4.200143814086914,-9.33608627319336,393.0421447753906, 156.47476196289062
349,205472450,0.77286565,-0.11468298,-0.6083393,-0.1394639,21.566734313964844,6.6266608238220215,-5.0125203132629395,-42.30956268310547,380.4228820800781, 139.9843292236328
350,205489117,0.8043858,-0.122201666,-0.5656682,-0.13435006,22.783538818359375,3.7607181072235107,-7.880678653717041,-34.25201416015625,344.91876220703125, 123.07910919189453
351,205505784,0.8299154,-0.12279567,-0.5288859,-0.12822407,19.70838737487793,7.173884391784668,-9.679219245910645,14.694998741149902,294.307861328125, 94.1268539428711
352,205522451,0.8480313,-0.1361522,-0.49519795,-0.13070877,16.952777862548828,8.020848274230957,-12.210661888122559,-99.361328125,246.7870330810547, 79.62972259521484
353,205539118,0.85875636,-0.15918745,-0.4666041,-0.13956285,15.663655281066895,6.753066539764404,-14.081106185913086,-179.9051513671875,189.69439697265625, 64.18206024169922
354,205555785,0.8656029,-0.17182693,-0.44796047,-0.14331329,12.302873611450195,4.604732990264893,-16.98326873779297,-96.84664154052734,123.40447235107422, 46.49238967895508
355,205572452,0.8688634,-0.16510114,-0.44417712,-0.14326528,9.98933219909668,11.029682159423828,-16.07550811767578,40.54128646850586,39.057125091552734, -11.499839782714844
356,205589119,0.8652751,-0.1625933,-0.45051375,-0.14798674,10.167439460754395,9.379886627197266,-14.349458694458008,2.9042811393737793,-40.553707122802734, -45.07695388793945
357,205605786,0.85551405,-0.1667064,-0.46420813,-0.15752949,12.516902923583984,6.580923080444336,-10.283119201660156,-50.88932418823242,-104.34834289550781, -67.52284240722656
358,205622453,0.8419102,-0.17094906,-0.4826749,-0.17026056,12.986992835998535,4.585132122039795,-7.00737190246582,-61.09707260131836,-140.8058319091797, -95.30168914794922
359,205639120,0.8259467,-0.18939158,-0.49591142,-0.18977603,16.308025360107422,-10.972591400146484,10.768742561340332,-171.67613220214844,-127.32381439208984, -82.20462799072266
360,205655787,0.813698,-0.19815427,-0.5070802,-0.20371597,11.951004028320312,-11.182214736938477,3.157722234725952,-96.88795471191406,-97.3561019897461, -77.0311508178711
361,205672454,0.8004837,-0.20012088,-0.52292436,-0.21384007,21.280241012573242,1.0873984098434448,-8.699923515319824,-42.72333908081055,-122.10565948486328, -88.50009155273438
362,205689121,0.7868057,-0.19858508,-0.5402185,-0.22285618,16.847511291503906,-4.551111221313477,1.291456699371338,-19.887544631958008,-127.49755859375, -98.32340240478516
363,205705788,0.77547556,-0.18959826,-0.55789095,-0.22682123,11.751097679138184,5.014847755432129,-0.2508159875869751,43.39860534667969,-116.33512878417969, -95.40863037109375
364,205722455,0.7639617,-0.18735524,-0.57032305,-0.23662682,13.945442199707031,4.0016937255859375,0.9868136644363403,-21.056468963623047,-92.16011047363281, -93.15391540527344
365,205739122,0.75587547,-0.18029618,-0.58239216,-0.23867379,9.687485694885254,0.5074033737182617,2.6277894973754883,38.44367599487305,-78.90663146972656, -65.14608764648438
366,205755789,0.7490856,-0.17555659,-0.5916106,-0.24093053,9.498215675354004,5.443850517272949,4.544994831085205,22.46293830871582,-62.458011627197266, -51.29435348510742
367,205772456,0.7428766,-0.17441446,-0.5981384,-0.24483591,9.224523544311523,3.512570858001709,3.8025858402252197,-6.56394100189209,-50.27070236206055, -40.82498550415039
368,205789123,0.73680484,-0.17488854,-0.6039538,-0.24854092,10.389699935913086,1.7351106405258179,2.677656888961792,-15.04668140411377,-49.08522033691406, -31.993593215942383
369,205805790,0.7305471,-0.17651385,-0.60946566,-0.25237983,10.306047439575195,2.3812592029571533,1.8270752429962158,-22.17961311340332,-50.15919876098633, -27.812742233276367
370,205822457,0.72429186,-0.17872168,-0.61452085,-0.2565622,9.455784797668457,2.754699945449829,1.1692930459976196,-27.337507247924805,-48.46566390991211, -26.49154281616211
371,205839124,0.7183276,-0.18043171,-0.61969614,-0.25966638,9.19742488861084,2.103832721710205,0.01924974098801613,-19.73678207397461,-48.288291931152344, -22.806306838989258
372,205855791,0.7129889,-0.17995065,-0.6258908,-0.25985658,10.01233959197998,0.7026951313018799,-0.5328096151351929,6.09837532043457,-50.33973693847656, -17.868650436401367
373,205872458,0.70838684,-0.17730606,-0.6326884,-0.257791,10.743123054504395,-0.6956554651260376,-0.056497905403375626,28.407739639282227,-49.01240158081055, -15.570083618164062
374,205889125,0.7042307,-0.1734201,-0.63952154,-0.25494528,10.865487098693848,-0.40260618925094604,-0.5348926186561584,38.466651916503906,-45.96858215332031, -16.48474884033203
375,205905792,0.7002666,-0.16968983,-0.64582086,-0.2524829,10.275101661682129,0.19538147747516632,-0.19294241070747375,35.327938079833984,-42.31913757324219, -16.74147605895996
376,205922459,0.6963235,-0.16596146,-0.65183216,-0.25041032,9.990662574768066,0.8469936847686768,0.7518021464347839,33.11667251586914,-40.36566162109375, -18.279966354370117
377,205939126,0.69215626,-0.16211125,-0.65788215,-0.24865828,9.676138877868652,0.6521897912025452,1.567955493927002,32.07754898071289,-40.983768463134766, -20.8167724609375
378,205955793,0.68735796,-0.15813589,-0.6644333,-0.24710403,9.692684173583984,0.767926812171936,1.0122324228286743,31.937650680541992,-45.8167610168457, -23.991382598876953
379,205972460,0.68159,-0.15420854,-0.67156917,-0.24627136,9.746576309204102,0.5444226861000061,0.8413281440734863,28.356624603271484,-52.32638168334961, -29.49281883239746
380,205989127,0.67483276,-0.15016092,-0.67943054,-0.24581867,9.892233848571777,0.5972747206687927,1.1839418411254883,27.347856521606445,-59.70656204223633, -34.30562210083008
381,206005794,0.6668553,-0.1464054,-0.6878902,-0.2463266,9.734027862548828,1.079932451248169,1.1909226179122925,21.259647369384766,-67.71846771240234, -40.10956954956055
382,206022461,0.65770596,-0.14278688,-0.697069,-0.24724431,9.925249099731445,1.1610568761825562,0.36467596888542175,18.73486328125,-76.41481018066406, -44.06746292114258
383,206039128,0.64773494,-0.13891542,-0.7068157,-0.2481002,10.893436431884766,0.971084713935852,0.9509746432304382,20.335220336914062,-82.57648468017578, -46.97445297241211
384,206055795,0.6370909,-0.13374323,-0.717476,-0.2479037,11.614387512207031,0.24893718957901,0.683361291885376,32.16215133666992,-88.74446105957031, -50.661705017089844
385,206072462,0.6254215,-0.12729575,-0.7291614,-0.2469164,11.614767074584961,1.359588861465454,-0.7442651391029358,42.45598220825195,-96.89041900634766, -56.236995697021484
386,206089129,0.6123427,-0.12060676,-0.7416066,-0.24598843,11.596431732177734,0.025875408202409744,-0.21292227506637573,43.25075149536133,-106.78038787841797, -60.7994270324707
387,206105796,0.5975852,-0.11451856,-0.7545684,-0.24577238,12.126962661743164,0.7864542603492737,-0.9109674692153931,36.56836700439453,-117.98316192626953, -64.06932067871094
388,206122463,0.58131635,-0.10844611,-0.76832646,-0.24491963,13.139781951904297,0.48306378722190857,0.6302483081817627,39.95753479003906,-129.66036987304688, -64.60833740234375
389,206139130,0.563758,-0.10049065,-0.7834198,-0.2415202,14.304938316345215,0.7916104197502136,1.62311589717865,62.229034423828125,-140.62484741210938, -67.61756896972656
390,206155797,0.5448078,-0.09114504,-0.7996288,-0.23552305,16.190492630004883,0.3310598134994507,4.099871635437012,82.51566314697266,-152.0560760498047, -68.19890594482422
391,206172464,0.5251306,-0.08021935,-0.81650347,-0.22610834,18.993745803833008,-2.3912980556488037,6.787264347076416,107.87641906738281,-158.32994079589844, -65.78224182128906
392,206189131,0.5050502,-0.06601127,-0.8344315,-0.21045417,21.302412033081055,-4.577482223510742,9.819600105285645,156.2097930908203,-163.03408813476562, -63.063621520996094
393,206205798,0.48269582,-0.050740853,-0.85242,-0.19444951,20.608076095581055,0.610917329788208,10.657366752624512,160.9925537109375,-175.31192016601562, -71.47248077392578
394,206222465,0.45719862,-0.037808884,-0.8696257,-0.18245922,19.373271942138672,4.801515579223633,5.675254821777344,127.6283187866211,-193.275634765625, -75.10719299316406
395,206239132,0.43273813,-0.030990345,-0.8836321,-0.17598793,21.98373794555664,4.602334499359131,13.958490371704102,71.74342346191406,-183.55528259277344, -53.77067184448242
396,206255799,0.41183534,-0.025773589,-0.8950113,-0.16935858,15.063282012939453,4.974016189575195,8.828474044799805,65.66539764404297,-156.58309936523438, -38.72946548461914
397,206272466,0.3924152,-0.014460499,-0.90612984,-0.15725744,11.134283065795898,10.492475509643555,-1.004368543624878,116.69550323486328,-140.92025756835938, -58.95805740356445
398,206289133,0.38035238,-0.007487087,-0.9134254,-0.14467305,16.201459884643555,1.38902747631073,5.953050136566162,104.73222351074219,-89.60882568359375, -22.14303207397461
399,206305800,0.37892815,-0.004363962,-0.9163205,-0.1294269,2.7526981830596924,-2.955540657043457,11.60327434539795,107.60266876220703,-15.561920166015625, 19.79090690612793
400,206322467,0.38474616,-0.002621673,-0.9150009,-0.121396005,5.246623516082764,0.22895213961601257,6.096295356750488,55.02073669433594,39.831298828125, 16.25693702697754
401,206339134,0.3990535,-0.0049348366,-0.908405,-0.12462981,4.806747913360596,0.4672156274318695,5.911977291107178,-30.802875518798828,103.86701965332031, 19.15049171447754
402,206355801,0.42220077,-0.012913257,-0.8960625,-0.13657185,3.2257072925567627,-1.864346981048584,7.035948276519775,-105.35316467285156,170.1704864501953, 38.37797927856445
403,206372468,0.45230296,-0.022584295,-0.8791956,-0.14807862,3.8820254802703857,-2.8611650466918945,5.817780017852783,-111.23775482177734,224.42105102539062, 56.921993255615234
404,206389135,0.4877039,-0.032992132,-0.85821223,-0.15661508,6.110922336578369,-0.6062633991241455,3.4686496257781982,-98.97756958007812,267.95086669921875, 76.55433654785156
405,206405802,0.5275474,-0.04488438,-0.8326651,-0.16232128,7.712303638458252,-1.6167280673980713,1.9976439476013184,-91.1888656616211,307.1661071777344, 100.57156372070312
406,206422469,0.5705222,-0.056484878,-0.8029587,-0.16300677,9.25688648223877,-1.9736328125,0.5619828701019287,-65.10345458984375,338.9076232910156, 121.82923889160156
407,206439136,0.6156625,-0.06808914,-0.7685365,-0.16023496,12.390737533569336,-1.8862228393554688,-1.058778166770935,-50.52836608886719,368.00225830078125, 139.61485290527344
408,206455803,0.66191167,-0.07891506,-0.7294224,-0.15358506,15.649842262268066,-1.8694463968276978,-2.9961166381835938,-31.44304847717285,392.7846984863281, 155.2864227294922
409,206472470,0.7073943,-0.08786242,-0.6865015,-0.14348915,18.995033264160156,0.04485265910625458,-4.565800189971924,-10.089963912963867,406.4393005371094, 162.75758361816406
410,206489137,0.75000775,-0.09522946,-0.6409843,-0.13251026,20.920392990112305,3.418835163116455,-4.394956588745117,-2.5708208084106445,406.65234375, 158.3207244873047
411,206505804,0.78746283,-0.10336595,-0.59445083,-0.12588142,22.60549545288086,7.684473991394043,-4.67437219619751,-30.07223129272461,391.4291687011719, 135.28428649902344
412,206522471,0.818198,-0.11234273,-0.5501906,-0.1233756,24.188920974731445,4.753559112548828,-7.932219505310059,-45.61691665649414,353.15386962890625, 112.62065124511719
413,206539138,0.84206206,-0.118277155,-0.5123274,-0.12026217,21.081295013427734,8.545340538024902,-10.465764045715332,-34.815006256103516,294.4211120605469, 90.28091430664062
414,206555805,0.8575863,-0.1397578,-0.47831544,-0.1273887,17.776269912719727,9.13220500946045,-13.402549743652344,-164.59808349609375,238.60470581054688, 75.8605728149414
415,206572472,0.86538225,-0.17001326,-0.4502593,-0.13955611,14.899291038513184,6.992947578430176,-17.29486846923828,-235.21676635742188,175.6622314453125, 62.62616729736328
416,206589139,0.87047035,-0.1746266,-0.43790573,-0.14151196,10.879929542541504,6.8564324378967285,-19.29775619506836,-39.09061050415039,86.94309997558594, 23.157630920410156
417,206605806,0.87013763,-0.16522591,-0.44181097,-0.14270307,9.368767738342285,13.089133262634277,-16.629669189453125,56.390254974365234,-13.524161338806152, -39.120384216308594
418,206622473,0.8620978,-0.16614348,-0.45443195,-0.15058354,11.158132553100586,9.748964309692383,-13.429205894470215,-25.941801071166992,-91.23627471923828, -65.04277038574219
419,206639140,0.8491638,-0.17122845,-0.47249717,-0.16232191,13.744812965393066,5.300995826721191,-7.744379043579102,-62.70499801635742,-138.41192626953125, -86.00894927978516
420,206655807,0.8336089,-0.18301125,-0.4892062,-0.1796678,16.00007438659668,-3.830034017562866,6.058241844177246,-124.65399932861328,-139.68711853027344, -98.20547485351562
421,206672474,0.8206347,-0.19737326,-0.49886608,-0.19681273,10.934064865112305,-16.804704666137695,9.975181579589844,-140.764892578125,-94.8465805053711, -74.4714126586914
422,206689141,0.8079266,-0.20214142,-0.51198834,-0.21038464,16.362438201904297,0.4726296663284302,-8.659873962402344,-72.27364349365234,-104.76675415039062, -93.4739990234375
423,206705808,0.7925119,-0.20719396,-0.5272241,-0.22589898,20.123159408569336,-2.3765902519226074,0.24887457489967346,-84.25794982910156,-123.0013427734375, -111.38026428222656
424,206722475,0.78003824,-0.19904418,-0.5461411,-0.23162825,11.602657318115234,-0.7483167052268982,2.650632381439209,32.78583526611328,-125.8051986694336, -106.60670471191406
425,206739142,0.7663024,-0.19586699,-0.56073356,-0.24493831,14.795653343200684,13.946487426757812,2.0336122512817383,-30.28593635559082,-105.11659240722656, -124.3409423828125
426,206755809,0.7551396,-0.19720177,-0.57094,-0.25476128,10.250520706176758,-3.7213144302368164,2.8062520027160645,-42.53709030151367,-84.644287109375, -77.39008331298828
427,206772476,0.74746615,-0.19063517,-0.582481,-0.25625914,9.14958667755127,4.651747226715088,3.7345101833343506,38.25669479370117,-75.38064575195312, -60.962589263916016
428,206789143,0.7415839,-0.18636683,-0.59076816,-0.25751504,8.86835765838623,2.3692328929901123,2.6183066368103027,24.02220344543457,-55.915679931640625, -43.065956115722656
429,206805810,0.73624116,-0.18365467,-0.5976012,-0.2590231,11.719767570495605,-0.38135746121406555,0.7618792057037354,13.184589385986328,-48.794395446777344, -35.21805953979492
430,206822477,0.7308468,-0.1811169,-0.6042507,-0.26065436,11.59819507598877,0.12136750668287277,0.6426078677177429,11.413738250732422,-48.25432586669922, -35.0304069519043
431,206839144,0.72535384,-0.18069819,-0.6098574,-0.26321888,10.993170738220215,-0.4337516725063324,-0.8250885009765625,-5.095470428466797,-46.082332611083984, -29.830045700073242
432,206855811,0.7204263,-0.17903087,-0.61582625,-0.26399228,10.06419563293457,0.8793148398399353,-0.389536589384079,10.007000923156738,-45.49187088012695, -25.60112190246582
433,206872478,0.716376,-0.17526066,-0.62259597,-0.2616555,9.915730476379395,1.1902052164077759,0.18344321846961975,36.13064193725586,-45.77060317993164, -18.518905639648438
434,206889145,0.71314657,-0.16899888,-0.63026977,-0.25616732,9.890198707580566,1.7747993469238281,0.5303925275802612,64.51541137695312,-46.04597854614258, -13.301104545593262
435,206905812,0.7103601,-0.1622897,-0.63762873,-0.24996072,9.87730598449707,1.8090206384658813,0.9483234286308289,69.78851318359375,-42.65221405029297, -10.591604232788086
436,206922479,0.70717907,-0.15667228,-0.64453095,-0.24480967,10.122223854064941,1.6114803552627563,0.8530426025390625,58.61048889160156,-42.87897872924805, -11.147947311401367
437,206939146,0.70378786,-0.15255961,-0.6505398,-0.24125992,9.826204299926758,1.8129534721374512,0.9970985651016235,42.474266052246094,-40.301700592041016, -11.67411994934082
438,206955813,0.7001403,-0.1496244,-0.6558909,-0.23921454,9.773640632629395,2.45320200920105,0.7022432088851929,28.694141387939453,-38.67017364501953, -13.434734344482422
439,206972480,0.69625825,-0.1470174,-0.6612346,-0.23744312,9.610347747802734,1.429975986480713,1.1423925161361694,25.63055992126465,-39.97670364379883, -13.656333923339844
440,206989147,0.69188297,-0.14410882,-0.6669842,-0.23592986,9.269390106201172,1.1797465085983276,1.1817569732666016,26.071029663085938,-43.43863296508789, -17.492218017578125
441,207005814,0.68628603,-0.14140275,-0.67338437,-0.23573421,8.992618560791016,1.0050410032272339,1.269810676574707,18.916275024414062,-51.18973159790039, -25.472536087036133
442,207022481,0.6789315,-0.13939232,-0.6805564,-0.2376239,9.04076099395752,0.4343675374984741,1.1686397790908813,5.526815414428711,-62.09972381591797, -35.70492935180664
443,207039148,0.6698396,-0.13791856,-0.68858755,-0.24112387,9.575719833374023,0.44391265511512756,1.1722180843353271,-4.769221782684326,-73.60277557373047, -44.38969421386719
444,207055815,0.6597521,-0.13606359,-0.69734323,-0.24479884,10.251398086547852,0.9408022165298462,0.6001631021499634,-3.5809996128082275,-80.88434600830078, -49.35480499267578
445,207072482,0.6491214,-0.133164,-0.70690364,-0.24737836,11.115103721618652,1.3420714139938354,0.5019276142120361,7.26076078414917,-86.42938995361328, -51.07517623901367
446,207089149,0.6380723,-0.12898305,-0.71749634,-0.24784309,11.480961799621582,1.7410311698913574,0.6117982864379883,24.63549041748047,-92.84829711914062, -49.533843994140625
447,207105816,0.6256576,-0.123230204,-0.729659,-0.24691032,12.23869800567627,1.8122600317001343,0.7862950563430786,39.894779205322266,-105.05773162841797, -54.888519287109375
448,207122483,0.61199874,-0.11703928,-0.74271435,-0.24522372,12.548267364501953,0.1179867535829544,-0.09461458027362823,46.029354095458984,-115.0602035522461, -56.72494888305664
449,207139150,0.5967377,-0.10960921,-0.7571545,-0.24208933,13.335285186767578,-0.4987245798110962,-0.246536985039711,59.68534851074219,-128.16880798339844, -60.8028450012207
450,207155817,0.579704,-0.101370744,-0.7726396,-0.23810813,14.484914779663086,-0.2034364640712738,-0.29050952196121216,67.81646728515625,-141.0022430419922, -65.30523681640625
451,207172484,0.5608315,-0.092771254,-0.78892565,-0.23336284,16.404056549072266,-1.1619534492492676,1.7067103385925293,73.3458251953125,-153.9340057373047, -67.77564239501953
452,207189151,0.54090935,-0.08257395,-0.8060369,-0.22561795,18.571245193481445,-2.2710554599761963,5.44744873046875,96.43927001953125,-162.20962524414062, -67.12361145019531
453,207205818,0.5209107,-0.07125119,-0.822787,-0.21586405,20.591495513916016,-3.7982609272003174,9.47774600982666,111.16673278808594,-160.76153564453125, -65.84614562988281
454,207222485,0.49990693,-0.058469824,-0.8396753,-0.20400949,20.577598571777344,-2.1730833053588867,11.766816139221191,128.00674438476562,-165.91592407226562, -68.1855697631836
455,207239152,0.47627795,-0.044873096,-0.8571496,-0.190894,18.112491607666016,3.2397301197052,7.934914588928223,137.8843994140625,-182.5731201171875, -72.51461029052734
456,207255819,0.44984373,-0.0332302,-0.8742878,-0.17932542,20.542051315307617,7.843301773071289,8.466828346252441,121.09051513671875,-200.17921447753906, -69.64361572265625
457,207272486,0.42806146,-0.031672314,-0.8851607,-0.17958558,18.31210708618164,3.8314383029937744,15.272278785705566,12.158032417297363,-162.63009643554688, -38.41920852661133
458,207289153,0.40861154,-0.022409761,-0.8966391,-0.16903563,10.654903411865234,7.646500587463379,2.853034019470215,101.93461608886719,-143.16943359375, -50.757286071777344
459,207305820,0.3923839,-0.012252321,-0.90657777,-0.15492448,12.996767044067383,7.494048595428467,0.259123831987381,125.14555358886719,-118.50658416748047, -42.25689697265625
460,207322487,0.38695297,-0.00850232,-0.9112046,-0.1410726,11.297616958618164,-3.927109479904175,11.493050575256348,101.51240539550781,-43.69399642944336, 8.959155082702637
461,207339154,0.3892951,-0.0058177346,-0.91284853,-0.122977,1.3489021062850952,-3.28182053565979,6.939344882965088,122.82334899902344,11.59235668182373, 34.626869201660156
462,207355821,0.39934805,-0.0046371557,-0.90930927,-0.11686031,6.4236159324646,1.4518793821334839,4.535794258117676,39.523956298828125,73.06221008300781, 18.734573364257812
463,207372488,0.41735998,-0.010815961,-0.89990425,-0.12596104,4.084484577178955,1.1736575365066528,5.514120101928711,-80.28083038330078,133.4951934814453, 29.547067642211914
464,207389155,0.44244558,-0.021964457,-0.8851644,-0.14228079,3.362841844558716,-1.8313719034194946,5.517406940460205,-143.31826782226562,188.82369995117188, 46.09813690185547
465,207405822,0.47239476,-0.03255051,-0.8673072,-0.15349954,4.540053844451904,-0.5896583795547485,4.091246604919434,-112.88249206542969,227.69805908203125, 63.40504455566406
466,207422489,0.50684667,-0.044153713,-0.84546554,-0.16231251,6.02791690826416,0.9980088472366333,3.612208604812622,-105.04597473144531,265.9035949707031, 82.92507934570312
467,207439156,0.54553014,-0.057149306,-0.8190003,-0.16843261,7.640395164489746,-0.6765655875205994,1.750184416770935,-98.12837219238281,304.2767028808594, 106.54251098632812
468,207455823,0.58740646,-0.06941223,-0.7882482,-0.16970775,10.029417991638184,-1.3749821186065674,0.18640154600143433,-71.81478881835938,337.3175354003906, 125.98118591308594
469,207472490,0.6312463,-0.08135877,-0.7529715,-0.16716173,12.825052261352539,-2.795017957687378,-1.720219373703003,-54.1787223815918,364.8250732421875, 144.16136169433594
470,207489157,0.6760523,-0.090294905,-0.71392834,-0.1584502,16.174436569213867,-2.9988949298858643,-3.342884063720703,-12.980314254760742,386.2342834472656, 158.5614471435547
471,207505824,0.7200613,-0.09636278,-0.6715541,-0.145743,19.273605346679688,-0.5344319343566895,-3.480600357055664,15.840489387512207,398.5003356933594, 164.26010131835938
472,207522491,0.7613271,-0.10063348,-0.6266193,-0.1326742,21.20442008972168,3.0062289237976074,-2.0442514419555664,22.01433753967285,400.10760498046875, 156.7059783935547
473,207539158,0.79729295,-0.10490747,-0.5812064,-0.124569155,24.074020385742188,8.142094612121582,-2.908499240875244,-3.520500659942627,383.20904541015625, 126.23279571533203
474,207555825,0.8261006,-0.111867785,-0.5386001,-0.122284696,24.489856719970703,6.119172096252441,-8.399477005004883,-35.76161193847656,340.006103515625, 100.8416976928711
475,207572492,0.8481392,-0.120305315,-0.5015437,-0.120997496,20.20965576171875,7.079223155975342,-11.107810020446777,-56.922611236572266,284.0866394042969, 86.78971099853516
476,207589159,0.8626579,-0.14181833,-0.4684057,-0.12769277,17.434280395507812,7.317782878875732,-13.707962036132812,-163.7098846435547,231.117431640625, 75.85757446289062
477,207605826,0.87032574,-0.16719389,-0.44250882,-0.13698605,13.853473663330078,7.287713050842285,-19.299482345581055,-195.33021545410156,165.33416748046875, 59.83096694946289
478,207622493,0.8740547,-0.1652176,-0.43556526,-0.13789292,9.910625457763672,9.541802406311035,-20.332849502563477,7.206387519836426,56.142845153808594, 1.3174872398376465
479,207639160,0.87031895,-0.15783052,-0.4440886,-0.14289771,9.083529472351074,13.751516342163086,-16.011579513549805,33.6159782409668,-49.26183319091797, -64.12409973144531
480,207655827,0.8583198,-0.16664545,-0.45901653,-0.15754457,12.179402351379395,9.562267303466797,-12.851871490478516,-95.48829650878906,-118.19762420654297, -87.3709716796875
481,207672494,0.84096664,-0.18037951,-0.4785207,-0.17679448,14.941482543945312,3.155529499053955,-5.645409107208252,-140.26075744628906,-162.10374450683594, -110.01841735839844
482,207689161,0.82424265,-0.19961134,-0.49160102,-0.19775754,15.702924728393555,-14.843832969665527,17.019573211669922,-180.9774169921875,-128.4011688232422, -90.8734359741211
483,207705828,0.81168014,-0.20396397,-0.50501823,-0.21102293,10.40286636352539,-7.727283477783203,-1.4280717372894287,-66.30119323730469,-106.09187316894531, -93.6024398803711
484,207722495,0.7963749,-0.20618623,-0.5227834,-0.22354445,21.572330474853516,5.155466079711914,-8.799391746520996,-52.14120101928711,-137.15179443359375, -108.37667846679688
485,207739162,0.7805108,-0.20822857,-0.53979284,-0.23678616,15.449251174926758,-6.433073043823242,2.247941255569458,-58.176876068115234,-133.2156219482422, -113.70756530761719
486,207755829,0.76834595,-0.19653496,-0.55932045,-0.24120387,13.740427017211914,8.498730659484863,-1.2137198448181152,58.80641174316406,-123.57173919677734, -114.36837005615234
487,207772496,0.7550007,-0.198137,-0.5706076,-0.25519156,14.523761749267578,0.43981945514678955,0.8017034530639648,-61.2552490234375,-94.03590393066406, -103.73085021972656
488,207789163,0.7475443,-0.19004208,-0.5826089,-0.25618127,9.436908721923828,-1.0598045587539673,0.7553101181983948,49.352210998535156,-75.33167266845703, -64.93978118896484
489,207805830,0.7420769,-0.18186978,-0.59243107,-0.2554815,10.210027694702148,2.268394708633423,3.1492414474487305,55.27900314331055,-58.2413444519043, -50.23023986816406
490,207822497,0.7379099,-0.17499049,-0.600065,-0.25453743,9.957039833068848,1.7401888370513916,2.743248462677002,47.459556579589844,-44.371490478515625, -38.69767761230469
491,207839164,0.73382956,-0.16945785,-0.6069668,-0.25371173,10.676522254943848,1.4275426864624023,1.460301399230957,38.9644660949707,-42.52934646606445, -32.71242141723633
492,207855831,0.7292001,-0.16551371,-0.6136402,-0.25361058,10.038104057312012,2.3972339630126953,2.0125973224639893,26.88959503173828,-45.60361099243164, -30.436132431030273
493,207872498,0.72360945,-0.16361457,-0.6204974,-0.2541708,9.330239295959473,2.392008066177368,0.8940998315811157,13.075845718383789,-53.40639877319336, -27.008834838867188
494,207889165,0.7182971,-0.16057941,-0.62810934,-0.25247273,9.179434776306152,2.4557933807373047,1.5586568117141724,29.99652099609375,-56.53773880004883, -20.982463836669922
495,207905832,0.7137668,-0.15592593,-0.63585156,-0.24883117,9.486051559448242,1.8156936168670654,1.067060947418213,47.47517776489258,-53.14988708496094, -17.15962791442871
496,207922499,0.70934093,-0.15103444,-0.64333105,-0.24525368,9.969600677490234,1.884561538696289,0.8382775783538818,48.0289192199707,-50.93623352050781, -18.05933380126953
497,207939166,0.70487285,-0.14722477,-0.6499093,-0.2430993,10.38475513458252,1.238768458366394,0.20453472435474396,34.897369384765625,-47.08087158203125, -19.353843688964844
498,207955833,0.7004894,-0.14432868,-0.65572673,-0.24188097,10.50341796875,0.4017578959465027,-0.04484429210424423,25.102642059326172,-43.60000991821289, -18.902236938476562
499,207972500,0.6965225,-0.14106682,-0.66114515,-0.24050766,10.516231536865234,0.4943862557411194,0.2943132519721985,27.314207077026367,-39.35079574584961, -18.725351333618164
500,207989167,0.69255733,-0.13716766,-0.666733,-0.23878165,10.446272850036621,0.821871817111969,-0.17562854290008545,32.253082275390625,-39.44878387451172, -20.103246688842773
501,208005834,0.68848014,-0.13294883,-0.67261934,-0.23643862,9.796280860900879,1.0489795207977295,0.04525230824947357,36.9892578125,-41.44442367553711, -19.10291290283203
502,208022501,0.68399507,-0.12827656,-0.6790475,-0.2336458,9.628531455993652,1.83885657787323,0.6594192981719971,41.72476577758789,-45.5758056640625, -20.235820770263672
503,208039168,0.67891645,-0.123989314,-0.68560106,-0.23162587,9.345366477966309,2.2790989875793457,1.7573678493499756,35.98655319213867,-48.88138198852539, -23.139623641967773
504,208055835,0.6729205,-0.12054331,-0.6923818,-0.23077013,9.611881256103516,2.412776231765747,0.8116993308067322,26.156715393066406,-54.625667572021484, -26.26329803466797
505,208072502,0.66620123,-0.11723029,-0.69959193,-0.23022653,9.736623764038086,1.133650302886963,0.561941921710968,24.14028549194336,-60.01685333251953, -28.578514099121094
506,208089169,0.6588185,-0.11312192,-0.7075305,-0.22926468,10.36963939666748,1.4288818836212158,-0.45658695697784424,30.415603637695312,-65.63121795654297, -32.13093185424805
507,208105836,0.65085304,-0.109168015,-0.7159284,-0.22785838,10.983978271484375,0.41225743293762207,0.11919421702623367,32.150245666503906,-71.14091491699219, -30.64631462097168
508,208122503,0.64163727,-0.10493839,-0.725408,-0.22599323,11.191659927368164,1.7432942390441895,-0.8291246891021729,36.40082931518555,-82.05718994140625, -32.730186462402344
509,208139170,0.6307708,-0.100524195,-0.7361211,-0.22393943,11.081605911254883,0.23666422069072723,0.40147215127944946,38.88341522216797,-95.58709716796875, -36.27793502807617
510,208155837,0.61786216,-0.09599527,-0.7480977,-0.22221878,11.461289405822754,0.6776462197303772,-0.3549383282661438,38.23199462890625,-111.00820922851562, -42.33169174194336
511,208172504,0.60296667,-0.09168737,-0.76110566,-0.22077839,12.705939292907715,0.168598473072052,0.2334357649087906,36.11709213256836,-125.77333068847656, -46.10963439941406
512,208189171,0.58637094,-0.08680028,-0.7751367,-0.21862787,13.889836311340332,0.48406049609184265,0.6613381505012512,42.71918869018555,-138.49652099609375, -49.43471908569336
513,208205838,0.5684213,-0.080849215,-0.78995126,-0.21526213,14.774545669555664,-0.41449350118637085,1.4851984977722168,53.85932922363281,-148.0169219970703, -52.72011184692383
514,208222505,0.54957426,-0.07244153,-0.8057551,-0.20851758,16.47526741027832,-1.97580087184906,3.8357584476470947,82.78462219238281,-155.0251007080078, -54.75217056274414
515,208239172,0.52999,-0.06209565,-0.8220768,-0.1986066,18.321025848388672,-3.138129949569702,7.423239707946777,108.0357666015625,-159.90267944335938, -54.86250305175781
516,208255839,0.50933754,-0.049776446,-0.83892965,-0.18518932,20.013355255126953,-2.687697172164917,10.549297332763672,135.3300018310547,-166.73342895507812, -54.952518463134766
517,208272506,0.48637602,-0.036447417,-0.85584956,-0.17213829,19.22881507873535,2.4598278999328613,9.552002906799316,136.06640625,-178.94456481933594, -65.05044555664062
518,208289173,0.46054578,-0.023749461,-0.87225616,-0.16279782,19.471773147583008,7.29946756362915,6.341763973236084,110.81246948242188,-193.985595703125, -77.02161407470703
519,208305840,0.43716276,-0.015314823,-0.8855854,-0.1561814,21.266916275024414,3.2890524864196777,13.646769523620605,77.95161437988281,-173.92442321777344, -56.828155517578125
520,208322507,0.4185446,-0.009500854,-0.8954909,-0.15108347,15.4534330368042,2.9640941619873047,12.639225959777832,57.678707122802734,-137.33334350585938, -39.96786880493164
521,208339174,0.40218118,0.0041622864,-0.9056833,-0.13405508,9.921001434326172,10.101507186889648,-0.7089060544967651,154.20989990234375,-116.96257781982422, -51.6481819152832
522,208355841,0.38740146,0.013377509,-0.9133475,-0.12464949,14.857020378112793,12.006897926330566,-4.540261745452881,92.07963562011719,-104.42542266845703, -43.61561584472656
523,208372508,0.38333037,0.009768154,-0.9155066,-0.12169766,14.299005508422852,-6.288665294647217,10.576887130737305,11.70965576171875,-34.101295471191406, 28.41727638244629
524,208389175,0.38696328,0.00749467,-0.915475,-0.110040516,-2.4770054817199707,-2.059231996536255,8.205202102661133,67.66545104980469,21.819334030151367, 49.22847366333008
525,208405842,0.39829606,0.0058642086,-0.9110006,-0.106789395,5.256433963775635,1.1868816614151,3.9612793922424316,12.702200889587402,82.1574935913086, 28.417285919189453
526,208422509,0.41659293,0.0011257285,-0.90244335,-0.10975057,4.767085552215576,1.1507872343063354,3.5772972106933594,-37.998043060302734,134.42491149902344, 35.82476043701172
527,208439176,0.4420252,-0.008034366,-0.8892606,-0.11732455,3.436230421066284,-1.296291470527649,4.155739784240723,-82.83775329589844,188.5894317626953, 55.401180267333984
528,208455843,0.47264266,-0.017658047,-0.87246585,-0.12288518,3.9866790771484375,-1.3544150590896606,3.9161643981933594,-74.57280731201172,230.8007049560547, 68.73777770996094
529,208472510,0.5068758,-0.027837265,-0.85200113,-0.12804812,5.658674716949463,1.0372329950332642,2.7740375995635986,-76.66436767578125,263.917236328125, 76.86570739746094
530,208489177,0.54476464,-0.04007607,-0.82680404,-0.13424164,7.386745929718018,0.9252613186836243,1.5119456052780151,-93.35903930664062,300.240966796875, 89.4758529663086
531,208505844,0.585549,-0.05279554,-0.7970363,-0.13812435,8.869841575622559,-0.47289904952049255,0.3359125554561615,-85.45071411132812,332.776123046875, 104.81063842773438
532,208522511,0.6281578,-0.06513512,-0.76277715,-0.13909091,11.885112762451172,-0.3575316071510315,-0.6516655683517456,-71.5504379272461,360.1968994140625, 117.84503936767578
533,208539178,0.6717857,-0.077970676,-0.7236199,-0.13783626,15.105538368225098,-1.190184235572815,-2.4687676429748535,-66.28286743164062,385.2735595703125, 133.22598266601562
534,208555845,0.7150381,-0.08800408,-0.68097025,-0.13135967,18.27570343017578,-1.0622256994247437,-3.7290477752685547,-30.865222930908203,399.4291076660156, 144.93246459960938
535,208572512,0.7554879,-0.0959579,-0.63615555,-0.123839945,21.166820526123047,3.7343640327453613,-3.360921621322632,-19.414539337158203,398.216552734375, 139.09933471679688
536,208589179,0.79125506,-0.10792274,-0.58937156,-0.12210406,22.976797103881836,6.640666961669922,-3.43009614944458,-70.35428619384766,388.3795471191406, 123.91690063476562
537,208605846,0.82097095,-0.120472886,-0.54439294,-0.12300131,24.061498641967773,3.5940070152282715,-6.886937141418457,-77.87181091308594,354.0370178222656, 109.73084259033203
538,208622513,0.84439397,-0.12634079,-0.50638956,-0.12085843,21.703344345092773,7.297580718994141,-9.701260566711426,-37.380340576171875,295.6751403808594, 86.58869171142578
539,208639180,0.859333,-0.1473792,-0.47241086,-0.12905139,17.99385643005371,9.825288772583008,-12.751605033874512,-165.5240936279297,239.19200134277344, 68.86993408203125
540,208655847,0.8667607,-0.17700194,-0.44422922,-0.14162156,14.423201560974121,6.1581339836120605,-18.637941360473633,-232.97125244140625,177.4217529296875, 58.37507247924805
541,208672514,0.8707877,-0.18006548,-0.43413508,-0.14433368,11.07177734375,7.389837265014648,-21.148639678955078,-31.057701110839844,73.14360046386719, 10.680692672729492
542,208689181,0.86854094,-0.17098217,-0.44130534,-0.14714505,9.355186462402344,12.682004928588867,-17.2119083404541,50.72178268432617,-36.681671142578125, -53.75422668457031
543,208705848,0.8583982,-0.1734188,-0.45642298,-0.15734358,11.580738067626953,10.319456100463867,-13.376623153686523,-41.75127029418945,-111.00858306884766, -80.21424102783203
544,208722515,0.8429239,-0.18153313,-0.47629026,-0.17225759,14.271867752075195,4.800582408905029,-6.591370582580566,-91.3055648803711,-156.25299072265625, -101.63416290283203
545,208739182,0.82654786,-0.19838864,-0.4911052,-0.19046329,16.554861068725586,-14.217790603637695,15.510327339172363,-159.8779754638672,-136.138916015625, -86.8227310180664
546,208755849,0.81457865,-0.20358405,-0.5037218,-0.20317395,9.620582580566406,-12.465131759643555,1.5962145328521729,-68.92928314208984,-101.85088348388672, -84.6076431274414
547,208772516,0.80079126,-0.2026423,-0.5219113,-0.21278697,19.477432250976562,5.936372756958008,-10.432243347167969,-21.537216186523438,-134.2890625, -100.5076904296875
548,208789183,0.7851465,-0.20486881,-0.5390211,-0.22589844,17.61164665222168,-4.2130818367004395,1.814995527267456,-59.41020202636719,-133.89584350585938, -111.2061767578125
549,208805850,0.77346814,-0.19208673,-0.5593444,-0.2279998,12.100767135620117,5.378080368041992,0.4409472644329071,73.6881332397461,-129.00234985351562, -105.32369995117188
550,208822517,0.75925106,-0.19275603,-0.5721885,-0.24286504,15.819341659545898,8.427957534790039,0.8187372088432312,-62.08605194091797,-103.31696319580078, -115.4489974975586
551,208839184,0.74978524,-0.19011922,-0.5832926,-0.2478848,9.735641479492188,-4.3733625411987305,-0.03082495927810669,0.3376208245754242,-83.5210189819336, -65.7171630859375
552,208855851,0.742603,-0.18361685,-0.5941579,-0.24860053,10.560091972351074,3.567542552947998,3.9102447032928467,40.10536575317383,-72.1707534790039, -54.84743118286133
553,208872518,0.7373335,-0.18064468,-0.6010118,-0.24998368,8.597711563110352,2.678513765335083,3.8727245330810547,14.914586067199707,-49.080299377441406, -35.4925422668457
554,208889185,0.73303074,-0.17831475,-0.60648656,-0.25108564,10.759397506713867,0.8754343390464783,1.5899314880371094,11.654257774353027,-39.56179428100586, -28.034805297851562
555,208905852,0.72874546,-0.17570186,-0.61209774,-0.25178447,11.158936500549316,1.1850124597549438,0.9935977458953857,15.020630836486816,-40.18914794921875, -27.323360443115234
556,208922519,0.72449106,-0.17354448,-0.61759126,-0.2521429,10.243149757385254,0.7289094924926758,-0.2381601631641388,14.004366874694824,-40.67340087890625, -23.508302688598633
557,208939186,0.72054005,-0.17011552,-0.62359124,-0.2510314,9.938328742980957,1.512527346611023,-0.5083965063095093,27.820690155029297,-41.45725631713867, -21.668502807617188
558,208955853,0.71737474,-0.16583574,-0.6294815,-0.24824421,9.78305435180664,1.025972843170166,0.29592084884643555,39.94987487792969,-38.03550338745117, -15.533692359924316
559,208972520,0.71495384,-0.1599296,-0.6355526,-0.24359128,10.414383888244629,1.1238685846328735,1.1257737874984741,57.20524597167969,-35.05973815917969, -12.312213897705078
560,208989187,0.712794,-0.15300648,-0.64181346,-0.23788507,10.192505836486816,1.5998455286026,0.6410611271858215,67.41484069824219,-34.31064987182617, -11.355535507202148
561,209005854,0.71047664,-0.14730877,-0.64741576,-0.23318714,9.660873413085938,2.1282782554626465,0.7505552768707275,55.717708587646484,-32.7241325378418, -10.458041191101074
562,209022521,0.70788056,-0.1438696,-0.6519745,-0.23051281,9.791536331176758,1.7851061820983887,1.1801652908325195,33.724517822265625,-30.44356346130371, -9.681225776672363
563,209039188,0.7050223,-0.1414499,-0.6561616,-0.22888346,9.746251106262207,1.078333854675293,0.9415979385375977,23.232402801513672,-30.398061752319336, -10.246993064880371
564,209055855,0.70162517,-0.13823779,-0.66120404,-0.22676402,9.853718757629395,0.3433271050453186,0.38853585720062256,30.1088809967041,-36.21065902709961, -13.130166053771973
565,209072522,0.6973922,-0.13426827,-0.6671473,-0.22479078,9.509254455566406,0.7975578904151917,1.419374942779541,33.70943832397461,-43.03989028930664, -19.44434928894043
566,209089189,0.69197184,-0.13058707,-0.6737308,-0.22407384,9.141473770141602,1.3509800434112549,1.4824658632278442,26.460655212402344,-50.85083770751953, -26.57611083984375
567,209105856,0.6852086,-0.12690412,-0.6813423,-0.22395827,8.946763038635254,1.3835936784744263,0.8419513702392578,24.064453125,-61.42766189575195, -32.43925476074219
568,209122523,0.677098,-0.12296171,-0.69004536,-0.22417906,9.334366798400879,0.9089460968971252,1.1286242008209229,24.218530654907227,-72.19674682617188, -38.26907730102539
569,209139190,0.6678021,-0.119352415,-0.69934756,-0.22518529,10.090557098388672,1.4391180276870728,0.5902225375175476,18.865882873535156,-80.46856689453125, -42.68204879760742
570,209155857,0.6580049,-0.115013756,-0.7093161,-0.22510484,11.502007484436035,0.5962143540382385,0.6308549642562866,28.062389373779297,-85.70912170410156, -42.526180267333984
571,209172524,0.64749026,-0.10885819,-0.72063816,-0.22268155,11.558201789855957,1.8256182670593262,0.46222418546676636,49.238460540771484,-94.38056182861328, -42.9763298034668
572,209189191,0.63565457,-0.103481,-0.7325308,-0.22053057,11.404078483581543,1.3170955181121826,0.49618786573410034,44.31247329711914,-104.46305084228516, -42.78499984741211
573,209205858,0.62213326,-0.09848567,-0.74521697,-0.21886672,11.743257522583008,0.1954336017370224,-0.2217429280281067,40.19773864746094,-116.6651382446289, -46.11751174926758
574,209222525,0.6068379,-0.09332228,-0.7589749,-0.2167855,13.064474105834961,-0.05440855026245117,-0.5731775760650635,43.4688606262207,-130.3795166015625, -48.59892272949219
575,209239192,0.5900645,-0.08813407,-0.7731982,-0.21499048,14.239834785461426,0.10535775870084763,-0.10400508344173431,41.825279235839844,-139.82528686523438, -52.43597412109375
576,209255859,0.5719195,-0.08156068,-0.7884303,-0.21126717,15.496119499206543,-1.1522808074951172,-0.10915489494800568,58.35832595825195,-150.3478240966797, -54.62907028198242
577,209272526,0.55294,-0.07252887,-0.80478656,-0.20326222,16.813873291015625,-3.133683681488037,3.152322769165039,92.40690612792969,-158.1448974609375, -52.98082733154297
578,209289193,0.5337851,-0.0610606,-0.8215347,-0.19085588,18.8470401763916,-4.12197208404541,7.293137550354004,126.49264526367188,-159.43002319335938, -50.196414947509766
579,209305860,0.51365864,-0.048781447,-0.8380156,-0.17749676,19.898422241210938,-2.739877700805664,10.991329193115234,134.10206604003906,-163.327392578125, -52.4734001159668
580,209322527,0.4908671,-0.035420496,-0.8548187,-0.16456051,18.584476470947266,2.205733060836792,10.307539939880371,135.00308227539062,-178.43141174316406, -63.588077545166016
581,209339194,0.46400458,-0.023879189,-0.87110627,-0.15907116,17.783248901367188,8.450363159179688,4.828701496124268,83.53543853759766,-200.92857360839844, -82.51950073242188
582,209355861,0.4386784,-0.019068075,-0.8842516,-0.15905018,21.447845458984375,3.8642969131469727,13.203372955322266,26.148082733154297,-188.19384765625, -57.446815490722656
583,209372528,0.41698092,-0.014873681,-0.8950023,-0.15772374,15.593435287475586,4.618533611297607,9.840978622436523,30.114591598510742,-159.82015991210938, -45.49177932739258
584,209389195,0.39967164,-0.0056886687,-0.90406746,-0.15130235,9.41686725616455,8.834449768066406,0.876994252204895,74.42742156982422,-123.13922882080078, -56.670921325683594
585,209405862,0.38535684,0.00079447863,-0.9111639,-0.14587723,14.425639152526855,6.959354400634766,1.105911374092102,58.903778076171875,-101.89543151855469, -39.40692901611328
586,209422529,0.38345924,0.00030394772,-0.9131548,-0.13822983,9.490067481994629,-4.550537586212158,10.060189247131348,49.17861557006836,-17.58340835571289, 22.598899841308594
587,209439196,0.3892137,-0.0018038703,-0.91216075,-0.12834516,0.8718572854995728,-1.4982662200927734,8.583415985107422,56.10466003417969,36.75489044189453, 45.90250015258789
588,209455863,0.40326697,-0.0045656078,-0.9062084,-0.12704864,5.193483829498291,0.2120012789964676,5.165191173553467,-3.7784876823425293,101.58694458007812, 34.408302307128906
589,209472530,0.4238121,-0.0096712215,-0.89648885,-0.12883258,4.95145320892334,1.3883308172225952,3.6695384979248047,-32.5560302734375,150.52349853515625, 46.262020111083984
590,209489197,0.4511182,-0.018668886,-0.8821524,-0.13398212,3.995051383972168,-0.5531442165374756,4.579739093780518,-68.28642272949219,202.4376220703125, 66.74905395507812
591,209505864,0.48366228,-0.027921539,-0.86408603,-0.1365532,4.38591194152832,-0.5793060660362244,4.14165735244751,-56.20545196533203,245.22360229492188, 81.60333251953125
592,209522531,0.52008003,-0.037308626,-0.842153,-0.13748972,6.673357009887695,1.8381747007369995,3.1591272354125977,-49.83222579956055,280.6721496582031, 92.2265625
593,209539198,0.5594228,-0.048074473,-0.8157785,-0.13871033,8.625487327575684,1.4647217988967896,1.901631236076355,-59.861602783203125,312.28204345703125, 103.11666107177734
594,209555865,0.60093266,-0.058876954,-0.78501743,-0.1384244,10.372687339782715,0.582889199256897,0.3382031321525574,-55.02505874633789,340.8026428222656, 112.65238189697266
595,209572532,0.64404565,-0.069422826,-0.7495418,-0.13628249,13.631462097167969,-0.028048478066921234,-0.9701846241950989,-47.79248809814453,368.4643859863281, 122.3885498046875
596,209589199,0.68769205,-0.07960466,-0.7095535,-0.13144061,16.772075653076172,-1.091827630996704,-2.8435275554656982,-36.24909591674805,390.28814697265625, 135.14199829101562
597,209605866,0.7299055,-0.08664142,-0.6668679,-0.12255025,19.665803909301758,0.1820908486843109,-3.5911662578582764,-4.8498921394348145,396.70281982421875, 139.1296844482422
598,209622533,0.76883435,-0.092902705,-0.6220693,-0.115294605,21.66663360595703,4.711023330688477,-3.377676486968994,-12.210330963134766,393.8900451660156, 125.85945892333984
599,209639200,0.8023677,-0.103117555,-0.5765487,-0.1147362,22.92989158630371,5.470579147338867,-5.428438186645508,-53.43146896362305,374.19171142578125, 108.20433044433594
600,209655867,0.8300599,-0.107799746,-0.5359352,-0.11024237,22.636072158813477,3.3233394622802734,-8.308172225952148,-19.934391021728516,327.1081848144531, 95.2513427734375
601,209672534,0.8509311,-0.11668689,-0.5000438,-0.11071007,19.516801834106445,8.197600364685059,-10.04236125946045,-63.719818115234375,275.5373840332031, 73.75701904296875
602,209689201,0.864264,-0.14098193,-0.46764776,-0.12032245,16.500144958496094,6.652278900146484,-13.502721786499023,-188.7540740966797,224.8457794189453, 64.70846557617188
603,209705868,0.87265843,-0.16005066,-0.44356418,-0.12689464,13.6796236038208,3.6849539279937744,-18.179426193237305,-145.81956481933594,160.9918212890625, 53.83439636230469
604,209722535,0.87663805,-0.15526071,-0.43729752,-0.1271644,9.672942161560059,8.321249961853027,-18.236095428466797,27.249013900756836,54.57878875732422, -4.5712361335754395
605,209739202,0.87356365,-0.14894043,-0.44419777,-0.13187817,9.737531661987305,11.116117477416992,-13.931792259216309,27.07640266418457,-39.82394027709961, -56.15869140625
606,209755869,0.8637244,-0.15472317,-0.45719662,-0.14495693,12.756874084472656,8.123953819274902,-9.250673294067383,-72.58776092529297,-99.46236419677734, -81.78377532958984
607,209772536,0.8500204,-0.16408229,-0.47342128,-0.16252576,13.404111862182617,3.2033019065856934,-5.931391716003418,-108.86302947998047,-129.51463317871094, -104.46348571777344
608,209789203,0.8335167,-0.18481463,-0.48634353,-0.18591323,15.479663848876953,-7.796535491943359,3.6825249195098877,-201.1614227294922,-125.4493179321289, -100.83907318115234
609,209805870,0.8183911,-0.20109713,-0.4968303,-0.20725793,13.310142517089844,-10.8969087600708,1.7934954166412354,-166.5137481689453,-104.84009552001953, -97.04611206054688
610,209822537,0.8044888,-0.20342942,-0.5129493,-0.21976693,19.225276947021484,-3.4316368103027344,-8.415759086608887,-49.82175827026367,-124.13636779785156, -102.16560363769531
611,209839204,0.7914622,-0.1965687,-0.532895,-0.22576861,17.268943786621094,-5.223687171936035,0.5281631946563721,26.801851272583008,-136.32229614257812, -104.69136810302734
612,209855871,0.7803853,-0.18209022,-0.553178,-0.2276755,12.721901893615723,5.997765064239502,1.1992464065551758,84.81098937988281,-124.50130462646484, -108.34733581542969
613,209872538,0.76726294,-0.17969392,-0.5670776,-0.23966855,14.003762245178223,6.501774311065674,1.6792120933532715,-31.044248580932617,-104.44683837890625, -111.57447814941406
614,209889205,0.75828207,-0.17273065,-0.5804109,-0.24144498,8.807944297790527,-1.7090785503387451,1.763847827911377,41.0167121887207,-91.01007843017578, -66.41432189941406
615,209905872,0.7504015,-0.16551042,-0.5924356,-0.24191786,9.519752502441406,6.020304203033447,4.631814002990723,46.69403839111328,-80.92403411865234, -57.275238037109375
616,209922539,0.744021,-0.1621913,-0.600934,-0.24290964,8.550130844116211,3.727867603302002,3.513556480407715,20.294572830200195,-62.534767150878906, -37.53510665893555
617,209939206,0.7379958,-0.16073507,-0.608088,-0.24444947,10.762628555297852,1.6469308137893677,2.2925686836242676,6.654321670532227,-56.705081939697266, -30.539913177490234
618,209955873,0.7319749,-0.15992092,-0.6147123,-0.24651003,10.457087516784668,2.2068982124328613,2.0755670070648193,0.3363185226917267,-54.512325286865234, -29.904190063476562
619,209972540,0.7257562,-0.16095686,-0.62058246,-0.24949616,10.412291526794434,1.287268877029419,-0.1296347975730896,-14.379800796508789,-53.67881393432617, -26.246028900146484
620,209989207,0.72014874,-0.16003673,-0.6270349,-0.25020313,10.085862159729004,1.0437172651290894,-0.4718097448348999,6.781203746795654,-53.14344024658203, -22.816360473632812
621,210005874,0.71544594,-0.15728109,-0.633824,-0.24832898,10.236444473266602,0.6247125864028931,-0.5707825422286987,28.57221031188965,-50.591514587402344, -16.767990112304688
622,210022541,0.71148163,-0.15286559,-0.6407469,-0.2446828,10.391153335571289,0.8977110981941223,-0.06330293416976929,45.4866943359375,-47.111183166503906, -14.175636291503906
623,210039208,0.7079683,-0.14742517,-0.6477814,-0.23963754,10.55611515045166,0.35202857851982117,-0.11624224483966827,57.32741928100586,-45.41670227050781, -11.213738441467285
624,210055875,0.70523757,-0.14141317,-0.65408754,-0.23411942,10.869171142578125,0.0889938622713089,0.4672638475894928,61.810482025146484,-37.923309326171875, -9.440774917602539
625,210072542,0.7027332,-0.1366557,-0.6590979,-0.23039377,11.012552261352539,-0.07622812688350677,-0.5343025326728821,45.80185317993164,-30.9016170501709, -10.876516342163086
626,210089209,0.7004599,-0.13148564,-0.66407514,-0.22599038,10.720675468444824,0.01376158557832241,-1.071913719177246,51.03139114379883,-29.677448272705078, -9.086347579956055
627,210105876,0.6984021,-0.12506425,-0.66942,-0.22016017,10.14195728302002,1.0751844644546509,-0.37097251415252686,64.33804321289062,-29.80694580078125, -7.9374799728393555
628,210122543,0.6961789,-0.11786478,-0.67511743,-0.21368076,9.932013511657715,1.4386956691741943,1.1046696901321411,71.45451354980469,-31.64334487915039, -8.962666511535645
629,210139210,0.6929793,-0.110058196,-0.68190944,-0.20655933,9.19320297241211,1.7230188846588135,1.7239995002746582,78.1609115600586,-41.05084991455078, -11.034988403320312
630,210155877,0.68775207,-0.10400254,-0.68940985,-0.20222469,8.634352684020996,4.189347743988037,3.3197758197784424,56.228126525878906,-54.32181167602539, -19.522201538085938
631,210172544,0.6807345,-0.10074353,-0.6969742,-0.20168906,8.32955265045166,4.077890396118164,2.1763832569122314,23.812664031982422,-64.30073547363281, -26.75616455078125
632,210189211,0.672137,-0.09824642,-0.7054112,-0.20242219,9.10111141204834,2.498337984085083,1.7197341918945312,14.28940486907959,-76.14983367919922, -31.829126358032227
633,210205878,0.66235864,-0.09480717,-0.7151011,-0.20229445,10.22646713256836,1.8191146850585938,0.5784252285957336,23.770193099975586,-86.95115661621094, -34.90813064575195
634,210222545,0.6513404,-0.090738244,-0.7258562,-0.20163134,10.8704833984375,1.4781029224395752,0.970231294631958,29.947288513183594,-97.3819351196289, -37.987213134765625
635,210239212,0.6387824,-0.08670795,-0.7373008,-0.20205563,11.09510326385498,1.3797576427459717,0.3730359375476837,24.347570419311523,-107.54385375976562, -45.234371185302734
636,210255879,0.62454087,-0.082537234,-0.7496344,-0.20293993,11.582213401794434,0.08556514233350754,-0.695298969745636,22.867286682128906,-119.52534484863281, -50.84095764160156
637,210272546,0.608725,-0.078335695,-0.7627164,-0.20391469,13.033935546875,-0.6544287204742432,-0.6054456830024719,22.68480682373047,-130.76918029785156, -54.021209716796875
638,210289213,0.5915342,-0.0730424,-0.77671987,-0.20361364,14.262706756591797,-0.8851214647293091,-0.191165953874588,34.496551513671875,-141.00784301757812, -56.84794998168945
639,210305880,0.57316715,-0.06588986,-0.7918224,-0.20038852,15.600144386291504,-1.5367450714111328,0.9676302075386047,58.624298095703125,-150.64468383789062, -57.10274887084961
640,210322547,0.5537032,-0.057501916,-0.8074282,-0.19536182,17.53826141357422,-1.2751660346984863,4.531009674072266,73.50004577636719,-157.74339294433594, -58.49311828613281
641,210339214,0.53367436,-0.048218057,-0.82292783,-0.1888292,19.638975143432617,-2.7160298824310303,8.110611915588379,84.91544342041016,-159.91497802734375, -58.4763298034668
642,210355881,0.51335937,-0.03643435,-0.8387933,-0.17765282,21.39467430114746,-3.569246292114258,10.71731185913086,120.76277160644531,-161.2399444580078, -56.10811233520508
643,210372548,0.49142554,-0.02199335,-0.8551011,-0.16376586,18.932165145874023,0.8860542178153992,9.165562629699707,145.93174743652344,-169.66156005859375, -63.99332809448242
644,210389215,0.46624753,-0.008145391,-0.8713713,-0.15250959,18.589359283447266,7.155707836151123,5.096432209014893,127.94969177246094,-188.95652770996094, -73.05908203125
645,210405882,0.443772,-0.00053500215,-0.8840177,-0.14689738,20.477113723754883,3.1140379905700684,12.247298240661621,70.50875854492188,-167.41171264648438, -50.73155975341797
646,210422549,0.42466423,0.0055111293,-0.89460367,-0.13897566,13.612988471984863,1.0805875062942505,11.924821853637695,77.73768615722656,-142.32510375976562, -30.7808895111084
647,210439216,0.4092605,0.017815925,-0.903989,-0.12244293,8.897006034851074,8.985572814941406,2.4173223972320557,147.7239990234375,-109.80099487304688, -40.64937973022461
648,210455883,0.3941747,0.02823346,-0.9118364,-0.11128189,15.833720207214355,14.73207950592041,-3.8857760429382324,107.71989440917969,-105.7611083984375, -43.92719650268555
649,210472550,0.39097938,0.023149645,-0.91322744,-0.11231572,13.90142822265625,-3.912024974822998,10.302569389343262,-17.952802658081055,-27.958660125732422, 28.07813835144043
650,210489217,0.39583325,0.019301064,-0.91245866,-0.10179859,-3.3343300819396973,-3.8909614086151123,11.140372276306152,54.93925476074219,31.113752365112305, 57.22034454345703
651,210505884,0.40892988,0.017198134,-0.9070858,-0.098368466,3.8493967056274414,1.321126103401184,5.940488338470459,10.903447151184082,95.62482452392578, 32.13932418823242
652,210522551,0.42900622,0.012977215,-0.89760435,-0.10045834,5.384430885314941,1.5127601623535156,3.7525312900543213,-33.077423095703125,148.6118927001953, 34.069366455078125
653,210539218,0.45712063,0.0029836562,-0.8825306,-0.110324815,4.062816619873047,0.11227171123027802,5.075038433074951,-102.68904113769531,210.04835510253906, 51.8156852722168
654,210555885,0.4910287,-0.009177322,-0.8628108,-0.1198519,4.131054401397705,-1.5987900495529175,4.977409362792969,-111.09697723388672,258.1875305175781, 70.33533477783203
655,210572552,0.52878344,-0.020934604,-0.83907306,-0.12612082,6.800347328186035,0.8273109793663025,3.389270067214966,-93.48100280761719,294.7140197753906, 82.36137390136719
656,210589219,0.57002807,-0.03332376,-0.8104469,-0.13089485,9.228269577026367,2.2889416217803955,1.648051142692566,-90.89795684814453,331.8858642578125, 95.18292236328125
657,210605886,0.613806,-0.046104003,-0.77682763,-0.13287431,11.652392387390137,0.3165366053581238,0.36504754424095154,-80.77945709228516,364.61541748046875, 111.7624282836914
658,210622553,0.6588381,-0.05759049,-0.7386367,-0.1305064,14.782281875610352,-0.1812462955713272,-0.5687921643257141,-55.87892150878906,390.4478759765625, 125.8121566772461
659,210639220,0.7035344,-0.06969112,-0.69590354,-0.12609825,18.073030471801758,-0.35881924629211426,-3.299262523651123,-52.52677536010742,407.99786376953125, 139.68759155273438
660,210655887,0.7458771,-0.07938094,-0.6507131,-0.11806198,21.075387954711914,0.5506674647331238,-4.622302055358887,-26.768888473510742,409.0008239746094, 144.84469604492188
661,210672554,0.7843638,-0.08918432,-0.6037278,-0.111050926,22.683107376098633,3.888946294784546,-4.464987277984619,-35.52587127685547,401.44842529296875, 137.94393920898438
662,210689221,0.81737226,-0.098737046,-0.5578657,-0.10459299,23.636329650878906,2.6321773529052734,-6.046933650970459,-29.909143447875977,371.8491516113281, 133.01376342773438
663,210705888,0.8442543,-0.10041213,-0.51767224,-0.095747456,23.40517807006836,6.273382663726807,-7.265836715698242,14.374102592468262,321.8779602050781, 103.99327087402344
664,210722555,0.8632247,-0.11130303,-0.48297226,-0.095878735,19.12717628479004,9.879056930541992,-10.941353797912598,-72.96776580810547,261.9981994628906, 75.69706726074219
665,210739222,0.87465036,-0.13688233,-0.45304835,-0.10486874,15.37351131439209,7.002236843109131,-16.87717628479004,-192.2509765625,205.78521728515625, 63.30241394042969
666,210755889,0.8808657,-0.14705001,-0.43638754,-0.10962714,12.09217357635498,6.007436275482178,-22.16930389404297,-81.70567321777344,116.99600219726562, 24.513092041015625
667,210772556,0.8801259,-0.14298896,-0.4379705,-0.11451839,9.29354476928711,11.198958396911621,-18.699222564697266,10.778429985046387,-3.3782873153686523, -42.650264739990234
668,210789223,0.8716173,-0.14751682,-0.44971278,-0.12759425,11.06772232055664,10.376694679260254,-15.181105613708496,-65.50906372070312,-86.8654556274414, -82.37899780273438
669,210805890,0.8573406,-0.15862778,-0.46750906,-0.14573759,14.176462173461914,5.096197605133057,-9.69465446472168,-121.2078857421875,-141.5467987060547, -103.55460357666016
670,210822557,0.839692,-0.17292273,-0.48683864,-0.16734183,15.007864952087402,0.09594985842704773,-1.537493348121643,-153.2720489501953,-160.78790283203125, -118.74464416503906
671,210839224,0.8233184,-0.19465926,-0.4986687,-0.18863815,13.36949348449707,-17.60420799255371,11.703132629394531,-202.3298797607422,-122.12052154541016, -81.64313507080078
672,210855891,0.8108013,-0.1971213,-0.5135256,-0.20009014,14.048595428466797,-4.777120590209961,-5.537902355194092,-47.074195861816406,-115.18013000488281, -89.36844635009766
673,210872558,0.79673415,-0.1950284,-0.5324785,-0.20891467,22.316450119018555,1.6817119121551514,-4.874690532684326,-11.632675170898438,-139.91920471191406, -100.01206970214844
674,210889225,0.78313774,-0.18920425,-0.5517757,-0.21550211,13.418855667114258,-1.9166167974472046,3.0528323650360107,13.501383781433105,-136.61532592773438, -103.19047546386719
675,210905892,0.7711385,-0.18047899,-0.56942236,-0.22029757,12.129127502441406,6.54717493057251,-0.5119718909263611,35.523582458496094,-119.85427856445312, -99.86485290527344
676,210922559,0.7595056,-0.17767394,-0.58232415,-0.22908913,13.595704078674316,2.2801194190979004,-0.06508520990610123,-14.104045867919922,-98.0371322631836, -89.80179595947266
677,210939226,0.7510358,-0.17196478,-0.59375376,-0.23201293,9.201533317565918,2.6242499351501465,2.505326509475708,26.09332275390625,-80.2712173461914, -63.99656295776367
678,210955893,0.74421006,-0.16930598,-0.6017206,-0.23541303,9.617911338806152,4.447657585144043,3.89308762550354,4.816445827484131,-59.994659423828125, -47.278995513916016
679,210972560,0.73896956,-0.16847378,-0.6071729,-0.23849887,9.43928050994873,1.304855227470398,2.829800844192505,-5.452437400817871,-43.91475296020508, -32.60456848144531
680,210989227,0.7339781,-0.16731553,-0.6126805,-0.24063306,11.21638298034668,1.4263074398040771,1.8393895626068115,0.5594316124916077,-43.74074935913086, -28.786710739135742
681,211005894,0.7289647,-0.16663928,-0.6182334,-0.24213532,10.724596977233887,0.6700599193572998,0.16051970422267914,0.8417115807533264,-45.59653854370117, -23.657058715820312
682,211022561,0.7243709,-0.16443253,-0.6245924,-0.24110845,10.33457088470459,0.5803109407424927,-0.7209081053733826,21.086591720581055,-48.203582763671875, -17.71794319152832
683,211039228,0.7204354,-0.16071647,-0.6312177,-0.23813319,10.021492958068848,1.1831421852111816,-0.5078759789466858,38.15731430053711,-46.399803161621094, -13.714823722839355
684,211055895,0.71727276,-0.15641922,-0.637453,-0.23389429,10.389374732971191,1.2388707399368286,0.40101099014282227,46.73689651489258,-41.555789947509766, -8.288308143615723
685,211072562,0.7145003,-0.15158391,-0.6435563,-0.22879466,10.639775276184082,1.5855588912963867,0.6579004526138306,53.37361526489258,-39.25835037231445, -5.639159202575684
686,211089229,0.71197784,-0.14654082,-0.64935625,-0.22349517,10.169063568115234,1.615562081336975,0.6098811626434326,55.0648193359375,-36.5478630065918, -4.874017715454102
687,211105896,0.70943886,-0.14218614,-0.6545669,-0.21913925,10.16191577911377,1.6763019561767578,0.4366011321544647,46.56312561035156,-33.848106384277344, -5.856553554534912
688,211122563,0.7069047,-0.13873309,-0.6591124,-0.21589322,10.021203994750977,1.1010537147521973,0.9065294861793518,36.17509841918945,-30.860143661499023, -6.559068202972412
689,211139230,0.7039369,-0.13565162,-0.663648,-0.2136424,9.811319351196289,0.9526002407073975,0.9281830787658691,29.43402862548828,-32.38791275024414, -10.35229206085205
