PacketCounter,SampleTimeFine,Quat_W,Quat_X,Quat_Y,Quat_Z,Acc_X,Acc_Y,Acc_Z,Gyr_X,Gyr_Y,Gyr_Z 
1,3893325199,0.76929057,0.16657719,-0.56559986,0.24605124,-0.03758590295910835,-0.059156812727451324,-0.03462137281894684,-0.1581432968378067,0.4347977340221405, -0.21118752658367157
2,3893341866,0.76973224,0.16747123,-0.56483936,0.2458095,16.47664451599121,-0.5469092130661011,5.178838729858398,-0.15348410606384277,4.0472869873046875, 1.5435429811477661
3,3893358533,0.76947117,0.16658825,-0.5652087,0.24637736,16.25395965576172,-0.39492306113243103,5.232824325561523,0.5698890089988708,3.951841115951538, 1.8075587749481201
4,3893375200,0.7694336,0.16631234,-0.5649863,0.24718994,17.17129898071289,-0.5958693027496338,5.384154796600342,2.809335231781006,3.765213966369629, 1.7616477012634277
5,3893391867,0.7690609,0.16559793,-0.5652638,0.24819268,15.879142761230469,-0.6269758343696594,5.297892093658447,0.7339127063751221,3.057868480682373, 3.1019351482391357
6,3893408534,0.76915014,0.16487338,-0.56469566,0.24968715,16.440580368041992,-0.5094717144966125,4.924901962280273,1.749328374862671,5.0353102684021, 2.73960542678833
7,3893425201,0.7689169,0.16426682,-0.5648508,0.25045335,16.999940872192383,-0.7529833912849426,5.562500476837158,-0.19295327365398407,4.119194507598877, 2.73922061920166
8,3893441868,0.76872665,0.1636857,-0.5647927,0.2515467,15.920097351074219,-0.756893515586853,5.422428607940674,-0.17923769354820251,3.6202595233917236, 2.928537130355835
9,3893458535,0.76884824,0.16294847,-0.5643669,0.2526074,16.56467056274414,-0.7946620583534241,4.919395923614502,-0.8283531665802002,4.427891731262207, 2.3791959285736084
10,3893475202,0.7686782,0.16239098,-0.5643698,0.25347528,16.36068344116211,-0.554908812046051,5.510225296020508,-0.9637290239334106,3.5748989582061768, 1.9430752992630005
11,3893491869,0.7685898,0.16235521,-0.56394094,0.25471777,16.412710189819336,-0.9489825963973999,5.132143497467041,0.03573612496256828,4.2874064445495605, 1.7716368436813354
12,3893508536,0.76842785,0.16210204,-0.563739,0.25581273,16.433996200561523,-0.5751334428787231,5.279646396636963,-1.5397330522537231,3.773282051086426, 1.8009377717971802
13,3893525203,0.7682505,0.16231143,-0.56333995,0.25708836,16.233932495117188,-0.7781499028205872,5.1414031982421875,0.5501287579536438,4.187606334686279, 1.5529171228408813
14,3893541870,0.7680981,0.16256401,-0.56300455,0.25811654,16.995920181274414,-0.7943444848060608,5.309511184692383,1.376112699508667,3.740216016769409, 0.8726694583892822
15,3893558537,0.7678501,0.16300163,-0.56275254,0.25912622,16.38153839111328,-0.8232744932174683,5.2869367599487305,2.5098462104797363,2.9174087047576904, 0.6610831022262573
16,3893575204,0.7678584,0.16300596,-0.56248903,0.25967026,16.361440658569336,-0.6122365593910217,5.1043620109558105,1.39687180519104,3.90742826461792, 0.5693767070770264
17,3893591871,0.76780933,0.16323942,-0.5621512,0.26039958,16.525171279907227,-0.5836934447288513,5.231739521026611,1.6428691148757935,4.162262916564941, 0.595693826675415
18,3893608538,0.7679017,0.16310868,-0.56187725,0.26080003,16.230566024780273,-0.8989119529724121,5.326032638549805,-0.4895356297492981,4.607539176940918, 0.9974034428596497
19,3893625205,0.7679486,0.16321026,-0.56147385,0.26146618,16.513072967529297,-0.4695778787136078,5.334898948669434,0.7225279211997986,4.781218528747559, 0.8098927736282349
20,3893641872,0.76798654,0.16312148,-0.561185,0.26202932,16.136444091796875,-0.8592334389686584,5.239290714263916,-1.482757806777954,4.304080486297607, 1.4775519371032715
21,3893658539,0.7680793,0.1631342,-0.5608048,0.26256332,16.340938568115234,-0.49975720047950745,5.30063009262085,0.747859001159668,4.611342906951904, 1.1658711433410645
22,3893675206,0.7682068,0.1630178,-0.5605107,0.26289067,16.25689125061035,-0.8106292486190796,5.1924662590026855,-0.8059548139572144,4.2190842628479, 1.0050487518310547
23,3893691873,0.76826847,0.16307087,-0.56021637,0.26330456,15.980587005615234,-0.5800980925559998,5.259187698364258,0.6561654210090637,3.787958860397339, 0.914021372795105
24,3893708540,0.76846725,0.1630645,-0.5598245,0.26356125,16.203079223632812,-0.5851489305496216,5.024556636810303,-0.06494101136922836,4.638211250305176, 0.18686388432979584
25,3893725207,0.76855356,0.16332585,-0.55945873,0.26392457,16.852975845336914,-0.7186399102210999,5.4531707763671875,1.7523119449615479,3.8727359771728516, 0.06125917285680771
26,3893741874,0.7686698,0.16336177,-0.55913377,0.26425236,16.290124893188477,-0.8080974817276001,5.315982341766357,-0.8898364901542664,4.175747394561768, 0.34343433380126953
27,3893758541,0.76884145,0.16344832,-0.5587676,0.26447356,16.766983032226562,-0.4189341068267822,5.263654708862305,0.3628615140914917,4.277647495269775, -0.16732777655124664
28,3893775208,0.7690503,0.16346434,-0.5584104,0.2646113,16.41976547241211,-0.6433220505714417,5.334875583648682,0.20177045464515686,4.474379062652588, 0.03873280808329582
29,3893791875,0.7692305,0.1635846,-0.5580026,0.264873,16.649311065673828,-0.7088854312896729,5.3156962394714355,1.2077734470367432,4.555853366851807, 0.2663785219192505
30,3893808542,0.769395,0.16371034,-0.55757993,0.26520726,16.3818359375,-0.5109428763389587,5.379647254943848,1.0313273668289185,4.085872173309326, 0.27068138122558594
31,3893825209,0.7696537,0.16385397,-0.5570046,0.26557678,16.755897521972656,-0.6332297325134277,5.297360897064209,1.9934684038162231,4.5791473388671875, 0.08856231719255447
32,3893841876,0.769894,0.16381595,-0.5566075,0.26573625,16.449047088623047,-0.5474204421043396,5.5238518714904785,0.43829089403152466,3.4322617053985596, 0.0024011905770748854
33,3893858543,0.77015877,0.16393556,-0.5561205,0.26591495,17.001150131225586,-0.5318308472633362,5.399195671081543,1.6967840194702148,3.6400840282440186, -0.5928700566291809
34,3893875210,0.77043176,0.16372377,-0.5558078,0.26590905,16.112197875976562,-0.36449581384658813,5.29392671585083,-1.120747685432434,3.1346936225891113, -0.1401526927947998
35,3893891877,0.77073926,0.16377513,-0.55522525,0.26620227,16.54724884033203,-0.43411174416542053,5.021190643310547,1.728351354598999,4.546541690826416, 0.021546680480241776
36,3893908544,0.77099705,0.16374817,-0.5547275,0.26651,17.12746810913086,-0.5172181129455566,5.515710353851318,1.3803770542144775,4.067059516906738, 0.6201794743537903
37,3893925211,0.77131283,0.16348542,-0.55424905,0.2667529,16.268875122070312,-0.5842647552490234,5.2716779708862305,0.12677645683288574,4.526488304138184, 1.2097198963165283
38,3893941878,0.7716762,0.16343544,-0.55357105,0.26714027,17.260587692260742,-0.2686954140663147,5.1546244621276855,1.219964861869812,5.5771331787109375, 0.5329939126968384
39,3893958545,0.7720921,0.16303329,-0.5530548,0.26725352,16.916770935058594,-0.7670175433158875,5.534914970397949,-0.8732395172119141,5.211538791656494, 0.9259184002876282
40,3893975212,0.77249503,0.1628123,-0.5524408,0.2674938,16.935575485229492,-0.46872594952583313,5.514676570892334,0.7139221429824829,5.488936424255371, 0.8017479181289673
41,3893991879,0.7729421,0.16237663,-0.5518871,0.26760963,16.570789337158203,-0.5543789267539978,5.2140092849731445,-1.891485333442688,5.630178451538086, 0.6461508274078369
42,3894008546,0.77326757,0.16241242,-0.55123675,0.26798794,17.14746856689453,-0.39816099405288696,5.567040920257568,2.1774189472198486,5.099225997924805, 0.4582432210445404
43,3894025213,0.7736288,0.16227469,-0.5506767,0.26818028,16.582082748413086,-0.7758436799049377,5.473824501037598,0.24807818233966827,4.872015476226807, 0.13025978207588196
44,3894041880,0.7739825,0.16232385,-0.5500601,0.26839548,16.9364070892334,-0.3162199556827545,5.4962053298950195,1.9803038835525513,4.7984819412231445, -0.3144983947277069
45,3894058547,0.7743361,0.162169,-0.5496139,0.26838326,16.737995147705078,-0.49497637152671814,5.5582594871521,-0.07065264135599136,4.0057692527771, -0.4801101088523865
46,3894075214,0.7746122,0.16218893,-0.5491562,0.26851106,16.723234176635742,-0.6292731165885925,5.35203742980957,1.6840801239013672,3.598950147628784, -0.19580912590026855
47,3894091881,0.77491677,0.16218626,-0.5487251,0.268515,16.391916275024414,-0.3673337399959564,5.364409923553467,0.7229505181312561,3.4860999584198, -0.9026299715042114
48,3894108548,0.77512616,0.16245559,-0.5482517,0.2687148,17.079038619995117,-0.5820358991622925,5.464248180389404,3.0792675018310547,3.0701491832733154, -0.7587890028953552
49,3894125215,0.7754249,0.16233186,-0.54788846,0.26866844,16.290197372436523,-0.2323601096868515,5.471112251281738,0.009700809605419636,3.2630515098571777, -0.5372903943061829
50,3894141882,0.7757847,0.16222711,-0.5474152,0.26865798,16.71782875061035,-0.3890107274055481,5.119837284088135,0.1704845428466797,4.092429161071777, -0.7253644466400146
51,3894158549,0.7760161,0.1623487,-0.5469782,0.26880622,17.48261260986328,-0.2747836410999298,5.688079833984375,1.4337029457092285,3.211775064468384, -0.6825144290924072
52,3894175216,0.7763297,0.16213629,-0.5466706,0.26865482,16.118410110473633,-0.30473971366882324,5.373437404632568,-0.7820196747779846,3.0674855709075928, -0.6460803151130676
53,3894191883,0.7766384,0.16229244,-0.5460551,0.26892,16.929216384887695,-0.37146419286727905,4.965269565582275,3.0580861568450928,4.487210750579834, -0.2402087152004242
54,3894208550,0.7769421,0.16223171,-0.54561424,0.2689744,17.06144142150879,-0.03282250836491585,5.823402404785156,0.7076724171638489,3.7169723510742188, -0.3783380091190338
55,3894225217,0.77730197,0.16205253,-0.5451077,0.26906973,16.11249351501465,-0.6561891436576843,5.150293827056885,0.596346914768219,4.525681018829346, 0.23185256123542786
56,3894241884,0.7776958,0.16190273,-0.5445718,0.26910642,17.05192756652832,0.21845275163650513,5.386448383331299,0.15446382761001587,4.710080623626709, -0.444329172372818
57,3894258551,0.7780358,0.16169152,-0.5441218,0.2691612,16.5482177734375,-0.4212091267108917,5.527937412261963,-0.06618321686983109,4.181868553161621, 0.1440778225660324
58,3894275218,0.77838844,0.16159716,-0.5435766,0.26929992,16.80094337463379,-0.09452411532402039,5.328237056732178,0.5954121351242065,4.633523464202881, -0.1442251354455948
59,3894291885,0.7787443,0.16131532,-0.54313326,0.2693346,16.49258804321289,-0.2845507264137268,5.351388931274414,-0.9431621432304382,4.335531711578369, 0.12879987061023712
60,3894308552,0.7791712,0.16094898,-0.5426228,0.269348,16.26653480529785,-0.20457760989665985,5.144589424133301,-0.8754037022590637,5.067492485046387, 0.33580175042152405
61,3894325219,0.7795051,0.160896,-0.54209816,0.2694697,16.85907745361328,-0.011826783418655396,5.393763065338135,0.9969295263290405,4.350490093231201, -0.22937454283237457
62,3894341886,0.77987784,0.16084819,-0.5415478,0.2695268,16.571359634399414,-0.25121986865997314,5.2640862464904785,0.9833677411079407,4.541727542877197, -0.6172405481338501
63,3894358553,0.7803003,0.16058098,-0.54106885,0.2694254,16.466766357421875,0.050304558128118515,5.1081109046936035,-0.8554515242576599,4.569735050201416, -0.6210696697235107
64,3894375220,0.7806259,0.16057846,-0.54054916,0.26952675,16.610843658447266,-0.08381517231464386,5.379439830780029,1.6631414890289307,4.156128406524658, -0.3161375820636749
65,3894391887,0.78104204,0.16040698,-0.54000086,0.269522,16.46735382080078,0.025273604318499565,5.132241725921631,0.2424178272485733,4.844264507293701, -0.48466914892196655
66,3894408554,0.78141886,0.16012904,-0.5395599,0.26947796,16.59783172607422,0.13482341170310974,5.3433661460876465,-0.6313530802726746,4.278160095214844, -0.1062799021601677
67,3894425221,0.7817767,0.16007341,-0.5389747,0.26964462,16.778783798217773,0.12067893892526627,5.404101371765137,1.6546509265899658,4.802272796630859, 0.09080342948436737
68,3894441888,0.7821658,0.15961093,-0.5385738,0.26959088,16.724693298339844,-0.03516863286495209,5.253316879272461,-2.115788221359253,4.457627773284912, 0.40615975856781006
69,3894458555,0.7824509,0.1594813,-0.5381099,0.2697666,16.57686424255371,0.22727908194065094,5.464157581329346,1.0234514474868774,4.03833532333374, 0.6387487053871155
70,3894475222,0.7828893,0.15909019,-0.53758985,0.269763,16.226093292236328,-0.08479370921850204,4.989776611328125,-0.8959450721740723,5.185592174530029, 0.3875393867492676
71,3894491889,0.7831106,0.15906695,-0.5371417,0.2700265,16.919513702392578,0.11005884408950806,5.619991302490234,2.1853461265563965,3.6114869117736816, 0.9501479268074036
72,3894508556,0.783461,0.15861878,-0.5367886,0.2699763,15.480362892150879,0.1313656121492386,5.167304992675781,-1.9986361265182495,4.040013313293457, 0.5282171964645386
73,3894525223,0.78380024,0.15864374,-0.5361793,0.2701878,17.062379837036133,0.11382193118333817,5.023374080657959,2.055438756942749,4.782704830169678, -0.043195825070142746
74,3894541890,0.7840371,0.15838988,-0.5359628,0.27007845,16.380353927612305,0.17872291803359985,5.694370269775391,-1.1428643465042114,2.4637303352355957, -0.08000126481056213
75,3894558557,0.78433424,0.15827933,-0.5355575,0.2700845,16.28776741027832,0.09888958185911179,5.060292720794678,0.41513702273368835,3.5549979209899902, -0.26862600445747375
76,3894575224,0.78468937,0.15795933,-0.5352026,0.26994368,16.89792251586914,0.41729405522346497,5.136750221252441,-1.4578880071640015,3.734184741973877, -0.359269380569458
77,3894591891,0.78495,0.15780877,-0.53480136,0.27006903,16.37262535095215,0.11091231554746628,5.352474689483643,0.619488000869751,3.6197855472564697, 0.5841168761253357
78,3894608558,0.7853162,0.15737009,-0.53441733,0.27002144,16.20263671875,0.4085366129875183,4.938652992248535,-1.4391393661499023,4.250741481781006, 0.6494933366775513
79,3894625225,0.7856079,0.15717028,-0.5339799,0.27015433,16.546133041381836,0.38914716243743896,5.142746925354004,0.6592260599136353,4.025234222412109, 0.8197664022445679
80,3894641892,0.78590083,0.1569306,-0.5335377,0.2703155,16.86941146850586,0.1265130192041397,5.378285884857178,0.4595494866371155,4.170228004455566, 1.0775455236434937
81,3894658559,0.78616905,0.15649156,-0.5332324,0.27039215,15.970108985900879,0.2441869080066681,5.1073994636535645,-1.07137930393219,3.6187222003936768, 1.582384467124939
82,3894675226,0.7864636,0.15628803,-0.53275543,0.27059388,16.368505477905273,0.513831615447998,5.011266708374023,0.9656181335449219,4.341513156890869, 1.1708271503448486
83,3894691893,0.7867268,0.15600827,-0.53232753,0.27083227,16.604278564453125,0.09534488618373871,5.160943508148193,0.3993852436542511,4.159790515899658, 1.6704667806625366
84,3894708560,0.786976,0.15563163,-0.53199077,0.27098605,15.869879722595215,0.41104334592819214,5.172845840454102,-0.4197281002998352,3.703256845474243, 1.7633638381958008
85,3894725227,0.7872652,0.1555346,-0.5314448,0.27127308,16.62872886657715,0.28733280301094055,5.042287349700928,1.950272798538208,4.602109432220459, 1.1795353889465332
86,3894741894,0.7875585,0.15505391,-0.53113925,0.2712953,16.006450653076172,0.33776670694351196,5.218507289886475,-1.5648847818374634,3.7584269046783447, 1.3939776420593262
87,3894758561,0.78781277,0.15487844,-0.5306722,0.27157164,16.06909942626953,0.2768430709838867,5.153536319732666,1.215815782546997,4.200323104858398, 1.4997965097427368
88,3894775228,0.78810537,0.15449025,-0.53029007,0.2716896,16.436689376831055,0.32187455892562866,5.022313117980957,-0.7469175457954407,4.114072322845459, 1.426262378692627
89,3894791895,0.78829324,0.15422569,-0.5300015,0.27185774,16.28730583190918,0.3358530104160309,5.267817497253418,0.2216843068599701,3.04805850982666, 1.624504566192627
90,3894808562,0.7885036,0.15386033,-0.5297132,0.2720169,15.651445388793945,0.20128723978996277,4.8796067237854,-0.3641486167907715,3.3065168857574463, 1.9119179248809814
91,3894825229,0.788686,0.15365665,-0.5293769,0.27225804,16.740013122558594,0.34065401554107666,5.1361870765686035,0.8680591583251953,3.2497196197509766, 1.7384939193725586
92,3894841896,0.7887805,0.15350725,-0.5291709,0.2724689,15.94088363647461,0.22000060975551605,5.2193522453308105,0.8366709351539612,2.0938830375671387, 1.6499764919281006
93,3894858563,0.78896415,0.15327683,-0.52889496,0.2726023,15.760600090026855,0.2614734470844269,4.721419811248779,0.2411756068468094,2.8553104400634766, 1.3194960355758667
94,3894875230,0.7890494,0.15337807,-0.5285855,0.2728989,16.6126766204834,0.33512869477272034,5.230813980102539,2.781917095184326,2.232102155685425, 1.1377482414245605
95,3894891897,0.7892128,0.15324648,-0.5282988,0.27305523,15.538036346435547,0.10869468748569489,4.910155773162842,0.8068320751190186,2.6853060722351074, 1.066980242729187
96,3894908564,0.78938,0.15328993,-0.5279174,0.27328563,16.655353546142578,0.48945721983909607,4.9986677169799805,2.23764705657959,2.957965612411499, 0.7400341033935547
97,3894925231,0.78954166,0.15309364,-0.52767503,0.27339622,15.711394309997559,0.3818650245666504,4.994235038757324,0.30414441227912903,2.5099358558654785, 1.1475192308425903
98,3894941898,0.7898477,0.15272559,-0.5273101,0.27342263,15.823546409606934,0.34698405861854553,4.625545501708984,-0.7144918441772461,3.9250242710113525, 0.9781424403190613
99,3894958565,0.7900289,0.15263906,-0.5269051,0.27372754,15.94810676574707,0.5523144006729126,4.865715503692627,1.969354271888733,3.4624722003936768, 1.6376440525054932
100,3894975232,0.7902215,0.15241821,-0.5265733,0.27393317,15.850953102111816,0.3702870309352875,4.969305515289307,0.740892231464386,3.2577884197235107, 1.6512572765350342
101,3894991899,0.7903312,0.15224785,-0.526264,0.2743057,15.516797065734863,0.4833161532878876,4.699934482574463,1.4418346881866455,2.927870750427246, 2.4586846828460693
102,3895008566,0.79051465,0.15206958,-0.5258574,0.27465543,15.885941505432129,0.5810336470603943,4.699563503265381,1.4297842979431152,3.718881368637085, 2.1296770572662354
103,3895025233,0.790717,0.15152593,-0.5256277,0.2748132,15.613452911376953,0.27388814091682434,4.8981194496154785,-1.3372902870178223,3.3077070713043213, 2.683320999145508
104,3895041900,0.7908685,0.15130343,-0.5252479,0.27522537,15.778122901916504,0.5164245963096619,4.843146324157715,1.518083930015564,3.608374834060669, 2.779970407485962
105,3895058567,0.79107505,0.1507165,-0.5249901,0.27544567,15.60186767578125,0.25238460302352905,4.621260166168213,-1.5039395093917847,3.6403141021728516, 3.0551021099090576
106,3895075234,0.7911794,0.15042216,-0.5246906,0.27587745,15.802122116088867,0.42843741178512573,4.926535129547119,1.1763466596603394,3.162842273712158, 3.3644394874572754
107,3895091901,0.7913809,0.14981407,-0.5244431,0.2761007,15.367249488830566,0.23748840391635895,4.661954402923584,-1.6017414331436157,3.6205410957336426, 3.1820645332336426
108,3895108568,0.791504,0.14951953,-0.52413607,0.2764903,15.784090995788574,0.16479863226413727,4.77910852432251,1.0700668096542358,3.233046531677246, 3.124577045440674
109,3895125235,0.7915835,0.1492375,-0.52390033,0.27686214,15.503576278686523,0.2965640127658844,4.889170169830322,0.7725366950035095,2.6645469665527344, 3.0436785221099854
110,3895141902,0.7917437,0.1488927,-0.5236006,0.27715617,15.327483177185059,0.24612437188625336,4.49775505065918,0.3528469502925873,3.33681583404541, 2.7064619064331055
111,3895158569,0.79182124,0.14862731,-0.5233696,0.2775136,15.465737342834473,0.4370138347148895,4.747607707977295,0.8189470171928406,2.5960588455200195, 2.9285757541656494
112,3895175236,0.7919471,0.14826004,-0.5231341,0.2777935,15.249466896057129,0.21900711953639984,4.685827732086182,0.08419536054134369,2.9070096015930176, 2.84857439994812
113,3895191903,0.79208815,0.14786509,-0.52290004,0.2780431,15.294942855834961,0.29480451345443726,4.569235324859619,-0.20956312119960785,2.981696605682373, 2.751758098602295
114,3895208570,0.7921931,0.14747551,-0.5226755,0.27837318,15.466383934020996,0.3187757432460785,4.699872016906738,0.17072784900665283,2.8772857189178467, 3.27453875541687
115,3895225237,0.7922798,0.14697264,-0.52251816,0.27868754,15.153554916381836,0.33660128712654114,4.587311744689941,-0.6844481825828552,2.658463954925537, 3.671945095062256
116,3895241904,0.7923628,0.14658065,-0.5223073,0.2790533,15.539871215820312,0.2071918100118637,4.5291876792907715,0.36263105273246765,2.773362636566162, 3.584324836730957
117,3895258571,0.7924156,0.14605227,-0.5221842,0.2794099,15.075446128845215,0.34123703837394714,4.586094379425049,-0.669605553150177,2.457608938217163, 4.119143009185791
118,3895275238,0.7924615,0.14567083,-0.5219661,0.27988622,15.119369506835938,0.25188398361206055,4.401645660400391,0.8066272139549255,2.7909841537475586, 4.195648670196533
119,3895291905,0.79251266,0.14519797,-0.52176076,0.28036916,15.070672035217285,0.09476801007986069,4.369517803192139,0.2136547565460205,2.9390640258789062, 4.526180744171143
120,3895308572,0.79259914,0.1447107,-0.52155733,0.28075522,15.245598793029785,0.35859429836273193,4.643378734588623,-0.19493824243545532,2.989469289779663, 4.010494232177734
121,3895325239,0.79267067,0.14436235,-0.52128345,0.2812414,15.340302467346191,-0.057610563933849335,4.526539325714111,1.0773662328720093,3.148345470428467, 4.023096084594727
122,3895341906,0.7927888,0.14363056,-0.52120984,0.2814192,14.613432884216309,0.31477826833724976,4.524013519287109,-2.6932778358459473,2.668478488922119, 3.75097393989563
123,3895358573,0.7929217,0.14342028,-0.52084553,0.28182566,15.27315616607666,0.10000990331172943,4.262323379516602,1.5334774255752563,3.5136334896087646, 2.821962594985962
124,3895375240,0.7929509,0.14304432,-0.5207258,0.28215593,14.87061595916748,0.1708505004644394,4.628892421722412,-0.21518513560295105,2.0727784633636475, 3.3421952724456787
125,3895391907,0.7930283,0.14278501,-0.5204541,0.28257045,14.694336891174316,0.12141589820384979,4.307239055633545,1.1672283411026,2.908738136291504, 3.2348389625549316
126,3895408574,0.7930972,0.14253141,-0.52020305,0.282967,15.348138809204102,0.2213277369737625,4.4043288230896,1.1256077289581299,2.7345335483551025, 3.1633284091949463
127,3895425241,0.7931137,0.14212085,-0.52011186,0.2832956,14.574108123779297,0.1714017689228058,4.4949727058410645,-0.11483453214168549,1.9083702564239502, 3.6721880435943604
128,3895441908,0.793197,0.1417418,-0.51988417,0.2836697,14.938994407653809,0.07923386245965958,4.257527828216553,0.2538539171218872,2.884239912033081, 3.464252233505249
129,3895458575,0.7932925,0.14126271,-0.51970875,0.28396288,14.87996768951416,0.30798429250717163,4.331510543823242,-0.8927435278892517,2.7805979251861572, 3.3112292289733887
130,3895475242,0.793327,0.1409689,-0.51949984,0.28439438,14.91411304473877,0.1667194962501526,4.367921352386475,0.8835291862487793,2.509218454360962, 3.5676374435424805
131,3895491909,0.7933804,0.140535,-0.51937574,0.2846863,14.464496612548828,0.3328586220741272,4.146209716796875,-0.5705484747886658,2.2574329376220703, 3.351210117340088
132,3895508576,0.7934513,0.14039417,-0.51911545,0.28503278,14.955477714538574,0.2620120048522949,4.154135227203369,1.6030540466308594,2.535625457763672, 2.506490707397461
133,3895525243,0.79345894,0.14023678,-0.5189748,0.28534517,14.939343452453613,0.13213123381137848,4.423219203948975,1.335145115852356,1.6555213928222656, 2.6823856830596924
134,3895541910,0.79343003,0.14016034,-0.5188667,0.2856597,14.82814884185791,0.1487199366092682,4.360182285308838,1.5848947763442993,1.2101681232452393, 2.426886796951294
135,3895558577,0.79343337,0.14011215,-0.5187073,0.28596297,14.671379089355469,0.181075781583786,4.149537086486816,1.8570936918258667,1.5365633964538574, 2.199343204498291
136,3895575244,0.7934312,0.14015597,-0.5184812,0.28635752,15.176791191101074,0.30769407749176025,4.354796886444092,2.5929083824157715,1.8163697719573975, 2.2065792083740234
137,3895591911,0.7934339,0.1400114,-0.5183592,0.28664184,14.967934608459473,0.14814788103103638,4.344371795654297,1.3108770847320557,1.5082614421844482, 2.549020767211914
138,3895608578,0.7934578,0.13987139,-0.5182209,0.28689355,15.012954711914062,0.3089181184768677,4.169838905334473,1.0627796649932861,1.6546123027801514, 2.21801495552063
139,3895625245,0.79344684,0.14002563,-0.5180187,0.28721353,15.008052825927734,0.3583519458770752,4.015585422515869,2.745265007019043,1.4053751230239868, 1.3946818113327026
140,3895641912,0.79341376,0.14021409,-0.51788926,0.2874465,15.373762130737305,0.3050629794597626,4.472739219665527,2.67832612991333,0.7761608362197876, 1.0095821619033813
141,3895658579,0.7933427,0.14017342,-0.5179343,0.28758118,15.300830841064453,0.12925295531749725,4.456423282623291,0.7057003378868103,0.06166897714138031, 1.5085690021514893
142,3895675246,0.793257,0.1399431,-0.51808214,0.28766337,15.056558609008789,0.25086212158203125,4.262530326843262,-0.9832075834274292,-0.19235138595104218, 1.88983952999115
143,3895691913,0.7932644,0.13949923,-0.5179894,0.28802556,15.417643547058105,-0.030775494873523712,4.4291229248046875,-0.13947397470474243,2.0956249237060547, 4.08283805847168
144,3895708580,0.7932828,0.13913177,-0.51764935,0.2887634,15.106717109680176,0.32578450441360474,4.212991714477539,1.47195565700531,3.7615644931793213, 5.288952827453613
145,3895725247,0.7933517,0.13861799,-0.5173091,0.28942984,15.133098602294922,0.09633482992649078,4.113371849060059,0.9788728356361389,4.118618965148926, 5.637004375457764
146,3895741914,0.79333895,0.13826683,-0.51699275,0.29019663,14.793769836425781,0.19504159688949585,4.143429279327393,1.6472488641738892,3.543626070022583, 5.488949298858643
147,3895758581,0.79337186,0.13783206,-0.51679456,0.29066634,15.018122673034668,0.26696857810020447,4.139922618865967,-0.1455697864294052,2.9572103023529053, 4.19379186630249
148,3895775248,0.7932792,0.13766614,-0.51670414,0.2911583,15.691160202026367,0.14720550179481506,4.5707550048828125,1.3012596368789673,1.4207301139831543, 3.7218265533447266
149,3895791915,0.7932086,0.13714544,-0.5168669,0.29130745,14.022467613220215,0.14532868564128876,4.150825500488281,-2.3815195560455322,0.515986979007721, 3.315826177597046
150,3895808582,0.7931157,0.13707507,-0.5167641,0.29177547,15.507237434387207,-0.0425834059715271,4.044312000274658,1.7595224380493164,1.2862250804901123, 3.2518467903137207
151,3895825249,0.7929441,0.13700084,-0.5167636,0.29227734,15.232301712036133,0.2995893955230713,4.497243404388428,1.7294013500213623,0.5001455545425415, 3.7035770416259766
152,3895841916,0.79284084,0.13672645,-0.51678973,0.29263926,14.199254989624023,0.10143405944108963,3.9118921756744385,0.36254140734672546,0.8288975358009338, 3.7179973125457764
153,3895858583,0.79268795,0.13690296,-0.51664454,0.29322678,15.148841857910156,0.378436416387558,3.8567864894866943,3.67558217048645,0.9229727387428284, 3.107607841491699
154,3895875250,0.79256654,0.13674955,-0.51662785,0.2936553,14.41359806060791,0.30200397968292236,4.141179084777832,1.022721529006958,0.8558803200721741, 3.47358775138855
155,3895891917,0.79244983,0.13674544,-0.51651686,0.2941672,14.296126365661621,0.11695647239685059,3.748342752456665,2.3178274631500244,1.1557153463363647, 3.3004329204559326
156,3895908584,0.79218817,0.13689183,-0.51653045,0.2947797,14.920783996582031,0.13298200070858002,4.23626708984375,3.381190538406372,-0.24625332653522491, 3.721839189529419
157,3895925251,0.79197884,0.13667448,-0.5166481,0.2952359,13.83088207244873,0.3219355344772339,3.9812848567962646,0.5850004553794861,-0.039802130311727524, 4.153912544250488
158,3895941918,0.79175514,0.13650963,-0.51679087,0.2956627,14.406786918640137,0.25855717062950134,3.804128885269165,0.7280218005180359,-0.36633849143981934, 3.862056255340576
159,3895958585,0.7915244,0.13609058,-0.51713866,0.29586533,14.051980972290039,0.2622317671775818,3.9302053451538086,-1.8632086515426636,-1.197701096534729, 3.754136562347412
160,3895975252,0.79121476,0.13595857,-0.51749295,0.29613504,13.842683792114258,0.190952867269516,3.825472831726074,-0.002484432188794017,-2.0354926586151123, 3.268430709838867
161,3895991919,0.7909026,0.1357788,-0.5179395,0.2962702,14.126262664794922,0.16633620858192444,3.830406904220581,-0.9269749522209167,-2.5735387802124023, 2.7988603115081787
162,3896008586,0.79063034,0.13548714,-0.5184671,0.2962075,13.6563081741333,0.3220430016517639,3.6302285194396973,-2.4426448345184326,-2.825209140777588, 2.1187021732330322
163,3896025253,0.7904056,0.13499792,-0.51911986,0.29588714,13.6588716506958,0.26009923219680786,3.7018749713897705,-4.735494136810303,-3.1693029403686523, 1.4476234912872314
164,3896041920,0.7902033,0.13422433,-0.5199417,0.29533628,13.759958267211914,0.22903765738010406,3.843914747238159,-7.4696760177612305,-3.6407179832458496, 1.3261425495147705
165,3896058587,0.7899675,0.13311075,-0.52098525,0.29463106,13.674222946166992,0.19488121569156647,3.810657262802124,-10.289420127868652,-4.415131568908691, 1.9808419942855835
166,3896075254,0.78966063,0.1318188,-0.5221494,0.29397297,13.150643348693848,0.037887345999479294,3.522700309753418,-11.269683837890625,-4.917193412780762, 3.135361433029175
167,3896091921,0.78933537,0.13044259,-0.5233472,0.29332954,13.595165252685547,0.3533269166946411,3.8398141860961914,-11.7253999710083,-4.978587627410889, 3.5878360271453857
168,3896108588,0.7890119,0.12860277,-0.52467996,0.2926305,13.4873046875,-0.3095821738243103,4.035838603973389,-14.717926979064941,-4.816638469696045, 5.081915855407715
169,3896125255,0.7883871,0.12744966,-0.5259006,0.29262754,13.657752990722656,-0.3689189553260803,3.7413249015808105,-7.9876322746276855,-6.0637969970703125, 6.886470794677734
170,3896141922,0.7876478,0.12775609,-0.5268187,0.29283398,13.769197463989258,0.2433820366859436,3.6434476375579834,1.3926074504852295,-7.582935810089111, 2.7076663970947266
171,3896158589,0.78688127,0.12893286,-0.5275407,0.29307878,13.38683032989502,-0.06970100104808807,3.463958740234375,6.660182476043701,-8.329049110412598, -0.3435176908969879
172,3896175256,0.7862336,0.12993401,-0.5278907,0.2937438,13.366250038146973,0.02965599112212658,3.7151429653167725,7.8783979415893555,-5.148205280303955, 2.000640630722046
173,3896191923,0.7857935,0.13119225,-0.5271366,0.29570988,13.348525047302246,-0.056850090622901917,3.5272128582000732,16.032588958740234,2.221142053604126, 6.700168132781982
174,3896208590,0.78524613,0.13199985,-0.52650756,0.29791668,12.566744804382324,-0.47322970628738403,2.7957780361175537,14.312652587890625,2.30057954788208, 9.96755599975586
175,3896225257,0.784624,0.13200775,-0.52634907,0.29982653,11.355886459350586,0.6255230903625488,2.6607511043548584,8.02928638458252,0.8751929998397827, 11.83388900756836
176,3896241924,0.7843952,0.13031554,-0.5267133,0.30052498,11.028120040893555,0.6032659411430359,2.743943452835083,-6.965633869171143,1.8931703567504883, 11.1306791305542
177,3896258591,0.78423226,0.12842904,-0.5271497,0.3009968,11.307074546813965,0.2099456489086151,2.2919180393218994,-9.046731948852539,1.9454587697982788, 10.556492805480957
178,3896275258,0.783898,0.12750986,-0.52742195,0.30178055,11.198513984680176,0.37581029534339905,2.214113235473633,-2.210466146469116,0.4997231066226959, 8.950955390930176
179,3896291925,0.78339905,0.12766097,-0.52763873,0.30263212,11.163715362548828,0.5083514451980591,2.410081386566162,4.061514854431152,-1.9411609172821045, 5.740414619445801
180,3896308592,0.78275645,0.12905684,-0.52754843,0.30385774,11.171142578125,0.21148352324962616,2.4974851608276367,12.883753776550293,-3.0590803623199463, 3.280534267425537
181,3896325259,0.7819705,0.13133836,-0.52737963,0.30519405,11.347021102905273,-0.01611057110130787,2.626812696456909,18.342376708984375,-4.904634475708008, 0.894659161567688
182,3896341926,0.78117883,0.13367303,-0.5272792,0.30637887,11.120853424072266,-0.4325120449066162,2.8588554859161377,17.942121505737305,-5.541621685028076, -0.04437405243515968
183,3896358593,0.78033876,0.1361038,-0.52704954,0.3078415,10.924299240112305,-0.7354459166526794,2.73764705657959,19.787137985229492,-4.979179859161377, 1.066866397857666
184,3896375260,0.77956873,0.13813226,-0.52677387,0.3093568,10.627262115478516,-0.43115663528442383,2.595879316329956,17.85885238647461,-3.5868191719055176, 2.59421706199646
185,3896391927,0.7789341,0.13949785,-0.5267299,0.31041595,10.289217948913574,0.08736985921859741,2.3520147800445557,12.036675453186035,-3.3702104091644287, 2.4685468673706055
186,3896408594,0.778424,0.14043596,-0.5268805,0.31101587,10.08926773071289,0.31058669090270996,2.2341103553771973,7.549978733062744,-3.495058536529541, 1.4759385585784912
187,3896425261,0.7779553,0.14153032,-0.5270251,0.3114471,10.087447166442871,0.4829707145690918,2.3802993297576904,7.746096134185791,-3.8147823810577393, -0.08482929319143295
188,3896441928,0.77750003,0.14288811,-0.52716875,0.3117206,10.06694221496582,0.48533326387405396,2.4585983753204346,8.568877220153809,-4.484976768493652, -1.907109022140503
189,3896458595,0.7769198,0.14471625,-0.5273492,0.31201887,10.249702453613281,0.22878752648830414,2.3968026638031006,11.213766098022461,-6.124986171722412, -3.1702396869659424
190,3896475262,0.7761977,0.14687389,-0.5276264,0.31233937,10.89035415649414,0.1602410078048706,2.7546541690826416,12.986604690551758,-7.844037055969238, -3.8458786010742188
191,3896491929,0.7752866,0.14928058,-0.5280878,0.31268084,11.846549987792969,0.12389413267374039,3.5964605808258057,14.18575668334961,-10.029023170471191, -4.045940399169922
192,3896508596,0.7743313,0.15130392,-0.52873313,0.31298497,10.985721588134766,0.29108163714408875,3.558546781539917,11.65612506866455,-10.394885063171387, -2.567291021347046
193,3896525263,0.77344453,0.15291893,-0.5293839,0.3132926,9.378317832946777,-0.02393382228910923,2.716926097869873,9.406991958618164,-9.308530807495117, -1.2039127349853516
194,3896541930,0.77243036,0.15507865,-0.52979374,0.31403938,9.076441764831543,0.17899851500988007,1.6732752323150635,14.559534072875977,-9.213460922241211, -0.8350004553794861
195,3896558597,0.7714156,0.15732677,-0.5301746,0.31477195,9.28465461730957,0.5914459824562073,1.4700429439544678,15.043963432312012,-9.2591552734375, -1.2641162872314453
196,3896575264,0.7705603,0.15958537,-0.53036106,0.3154147,9.661391258239746,0.7510206699371338,1.850193738937378,15.014774322509766,-7.751433849334717, -2.3293745517730713
197,3896591931,0.7698023,0.16166584,-0.53051424,0.31594837,9.267861366271973,0.37718918919563293,2.160583019256592,13.638062477111816,-6.944939613342285, -2.4932446479797363
198,3896608598,0.76905763,0.16374582,-0.53053194,0.3166605,8.851825714111328,0.17155902087688446,1.9499591588974,15.050294876098633,-6.035111904144287, -1.501929759979248
199,3896625265,0.76829827,0.16590542,-0.5303807,0.3176313,9.15689468383789,0.6287063360214233,1.9458708763122559,16.35197639465332,-5.025754928588867, -0.7928035259246826
200,3896641932,0.76757175,0.16784865,-0.5302244,0.3186265,8.884393692016602,0.6383672952651978,2.035574436187744,15.231147766113281,-4.369658470153809, 0.03683749958872795
201,3896658599,0.7668322,0.16978078,-0.53000784,0.31974196,8.43503189086914,0.26693254709243774,1.7433176040649414,16.799596786499023,-4.048001289367676, 1.153757095336914
202,3896675266,0.76590306,0.17204128,-0.5297693,0.32115275,8.552885055541992,0.6874465346336365,1.8034911155700684,18.84501075744629,-4.884668827056885, 1.4315022230148315
203,3896691933,0.7649737,0.17387162,-0.5298004,0.32232836,8.40953540802002,0.6789110898971558,1.909497618675232,15.121999740600586,-5.629137992858887, 2.084933042526245
204,3896708600,0.7641306,0.17531615,-0.52983356,0.32348904,7.948820114135742,0.7466773390769958,1.8196516036987305,12.925681114196777,-4.487642765045166, 3.2289886474609375
205,3896725267,0.76345146,0.17618868,-0.5299413,0.3244407,8.25407886505127,1.0247288942337036,1.4458383321762085,8.79355239868164,-3.2634687423706055, 3.9483842849731445
206,3896741934,0.7627399,0.17666644,-0.53039134,0.3251184,7.993234157562256,0.6719771027565002,1.651361107826233,4.993548393249512,-4.617650032043457, 4.449944496154785
207,3896758601,0.76197684,0.17702018,-0.5309476,0.3258067,7.465906143188477,0.5879361629486084,1.52358877658844,4.205868244171143,-5.068881988525391, 5.209297180175781
208,3896775268,0.7613255,0.1770908,-0.5315683,0.32627854,7.950897693634033,0.7521538734436035,1.405596137046814,1.6511296033859253,-4.625219345092773, 4.941030979156494
209,3896791935,0.7607314,0.17677586,-0.5324374,0.32641825,7.466944217681885,0.37867698073387146,1.3903130292892456,-2.2103254795074463,-5.246711254119873, 4.795793533325195
210,3896808602,0.7600366,0.1769414,-0.5331892,0.32671946,6.9409661293029785,0.08442030102014542,1.1985760927200317,1.2801291942596436,-5.878767967224121, 3.9661712646484375
211,3896825269,0.759393,0.1775165,-0.5337339,0.32701454,7.212479591369629,0.3123618960380554,1.3625465631484985,3.804633140563965,-5.53061580657959, 2.0593576431274414
212,3896841936,0.75873786,0.17821804,-0.5343061,0.3272194,7.156541347503662,0.18061277270317078,1.3356349468231201,4.085348129272461,-6.105762004852295, 1.184069037437439
213,3896858603,0.7581358,0.17886217,-0.5349117,0.32727364,6.815183639526367,0.2628820836544037,1.258734107017517,3.0936496257781982,-6.13461446762085, 0.5280378460884094
214,3896875270,0.7575036,0.1795842,-0.53555006,0.32729796,6.648078441619873,-0.11286549270153046,1.468732476234436,3.3524279594421387,-6.624317169189453, 0.19368967413902283
215,3896891937,0.7567846,0.18094428,-0.53580046,0.32780227,6.495822906494141,0.14658141136169434,1.0955723524093628,9.429145812988281,-5.769198894500732, 0.05270455405116081
216,3896908604,0.75635844,0.1823727,-0.53572845,0.32811186,6.869284629821777,0.5549700856208801,0.8460160493850708,11.196615219116211,-3.5836668014526367, -1.5262871980667114
217,3896925271,0.7561617,0.1834841,-0.5355204,0.32828507,6.588352680206299,0.6978901028633118,0.6630945801734924,9.29078483581543,-1.4903905391693115, -1.6520195007324219
218,3896941938,0.7563277,0.18389627,-0.53522086,0.32816076,6.395442962646484,0.8654689192771912,0.9038321375846863,4.104326248168945,1.5648657083511353, -1.631874918937683
219,3896958605,0.75664526,0.18377902,-0.5348814,0.32804802,6.375250816345215,0.6542213559150696,1.0735104084014893,-0.46212995052337646,3.7225053310394287, -0.7385678887367249
220,3896975272,0.7571984,0.18345611,-0.534317,0.3278714,6.099976062774658,0.6779664158821106,0.7764295935630798,0.42650917172431946,5.952526569366455, -0.2765147387981415
221,3896991939,0.75779057,0.18312581,-0.53363043,0.32780662,5.932310104370117,0.5412663817405701,0.9333959817886353,0.9813187718391418,6.905447483062744, 0.08811411261558533
222,3897008606,0.7582486,0.1830884,-0.53278774,0.32813874,5.834846496582031,0.24749664962291718,0.9776037931442261,2.5391855239868164,7.264077186584473, 0.3668827712535858
223,3897025273,0.75874335,0.18339443,-0.53178596,0.32844913,5.676459312438965,0.1743171513080597,1.020660638809204,6.569512367248535,7.23489236831665, -0.42647722363471985
224,3897041940,0.75910884,0.18426226,-0.5305538,0.3291112,5.543167591094971,-0.12032246589660645,0.9887916445732117,9.468642234802246,7.33807373046875, -1.507205605506897
225,3897058607,0.7594647,0.18532449,-0.52927923,0.32974517,5.335826873779297,0.026183538138866425,1.3296732902526855,10.495314598083496,7.054272174835205, -2.40552020072937
226,3897075274,0.7599325,0.18628067,-0.5280375,0.33011892,5.169920444488525,0.2210235297679901,1.4264811277389526,8.78149127960205,7.192914009094238, -3.595602512359619
227,3897091941,0.76054794,0.18689778,-0.5269614,0.33007264,4.960165023803711,0.22788669168949127,1.6431578397750854,4.915839672088623,7.08652925491333, -4.68416690826416
228,3897108608,0.76151115,0.18674676,-0.52589947,0.32963076,4.44175386428833,0.7986387610435486,1.681579828262329,-1.0166454315185547,9.491384506225586, -4.741347789764404
229,3897125275,0.7631742,0.18377344,-0.52559626,0.327935,4.70216703414917,0.2980884611606598,1.2930707931518555,-20.963476181030273,12.637262344360352, -0.8143831491470337
230,3897141942,0.76467454,0.18082492,-0.52539223,0.3264024,5.542003154754639,0.4613094627857208,0.43253520131111145,-22.242412567138672,11.847684860229492, -0.4291673004627228
231,3897158609,0.7660084,0.17770466,-0.5255767,0.32468653,4.952033996582031,0.7936304807662964,0.800721287727356,-24.475492477416992,9.390170097351074, 0.09610549360513687
232,3897175276,0.76713026,0.17473298,-0.5259938,0.32297066,4.5039896965026855,0.4813147783279419,1.0145260095596313,-23.96037483215332,7.078769683837891, 0.3372751474380493
233,3897191943,0.7681308,0.1709558,-0.5271694,0.32068995,4.709605693817139,-0.23239529132843018,2.015748977661133,-31.79204559326172,3.747964382171631, 1.4638285636901855
234,3897208610,0.7685223,0.16730775,-0.5291765,0.31836125,5.5567731857299805,-1.4376364946365356,2.434844732284546,-32.41653823852539,-3.216006278991699, 3.045604944229126
235,3897225277,0.7682484,0.16474982,-0.5319274,0.3157614,8.388858795166016,-0.3961544930934906,3.7423665523529053,-28.470273971557617,-12.294097900390625, -0.07396972179412842
236,3897241944,0.76802456,0.16098592,-0.5368408,0.30987749,11.678898811340332,0.5628334283828735,6.367702484130859,-51.60081100463867,-24.665218353271484, -10.666906356811523
237,3897258611,0.76633346,0.16172923,-0.5437017,0.3016043,13.440011978149414,-1.6663066148757935,10.087833404541016,-39.17938232421875,-52.68216323852539, -34.6036376953125
238,3897275278,0.76492155,0.1607064,-0.55106884,0.2922185,9.625653266906738,-2.106574773788452,11.28731918334961,-55.91317367553711,-51.8473014831543, -34.67431640625
239,3897291945,0.76316667,0.15620671,-0.558875,0.28431505,3.156675338745117,-5.45228910446167,4.824579238891602,-69.52433776855469,-47.04242706298828, -12.72071647644043
240,3897308612,0.75991946,0.15195157,-0.5662911,0.28062046,-1.040467381477356,-10.071380615234375,-1.091399073600769,-49.33317565917969,-46.82404708862305, 10.89681625366211
241,3897325279,0.75310636,0.15887274,-0.56670225,0.29400524,-0.7436227202415466,-13.213358879089355,5.66595458984375,94.9342041015625,-28.020000457763672, 56.582115173339844
242,3897341946,0.746518,0.16606052,-0.5619771,0.31514567,-1.1518462896347046,-6.017309665679932,7.4540605545043945,134.899169921875,7.412337303161621, 88.55311584472656
243,3897358613,0.74472713,0.16906361,-0.552273,0.33435538,-0.716515839099884,3.3801674842834473,8.472206115722656,111.03983306884766,58.14671325683594, 78.45226287841797
244,3897375280,0.75055593,0.15786576,-0.5422848,0.34303293,-1.2992019653320312,5.2217488288879395,6.996209144592285,-7.832935333251953,108.35865783691406, 61.54470443725586
245,3897391947,0.76141906,0.1377841,-0.53122914,0.34503993,-2.279193162918091,2.7007977962493896,4.551963806152344,-81.60292053222656,146.14784240722656, 47.39509963989258
246,3897408614,0.7726448,0.11669631,-0.51827407,0.34755448,-1.2791075706481934,-1.4862267971038818,3.1361751556396484,-80.9157485961914,160.15652465820312, 51.13162612915039
247,3897425281,0.78098446,0.10281415,-0.50204813,0.35698757,1.6047698259353638,-2.555746555328369,-2.380086660385132,-7.839609146118164,155.50628662109375, 66.41889953613281
248,3897441948,0.7865462,0.10005295,-0.48143592,0.37356955,3.0596208572387695,0.8314400911331177,-3.874964714050293,89.35380554199219,147.37721252441406, 70.09829711914062
249,3897458615,0.7911176,0.10007308,-0.4599504,0.39059496,3.1770999431610107,2.831916570663452,-4.485074043273926,108.79996490478516,142.19635009765625, 65.3297119140625
250,3897475282,0.79532284,0.09745172,-0.440992,0.40433997,3.858964681625366,2.8363327980041504,-6.574242115020752,77.4894790649414,132.35731506347656, 58.708988189697266
251,3897491949,0.7996861,0.09234955,-0.4252329,0.4137036,5.134705066680908,2.9363012313842773,-5.9630537033081055,41.61988830566406,119.61184692382812, 44.10837936401367
252,3897508616,0.80396104,0.083923675,-0.41359785,0.41897547,5.1640801429748535,2.1123673915863037,-6.34266471862793,-0.3189939856529236,103.85041809082031, 34.33202362060547
253,3897525283,0.8076761,0.073894724,-0.40542063,0.42170274,5.172390460968018,1.7971010208129883,-6.225831508636475,-26.057613372802734,86.61650848388672, 28.538021087646484
254,3897541950,0.8101101,0.064224616,-0.40066475,0.42316025,4.893759250640869,1.5350297689437866,-6.259286880493164,-36.867530822753906,62.67152786254883, 26.038307189941406
255,3897558617,0.8109081,0.057056554,-0.3993358,0.42391455,4.744539260864258,1.7196942567825317,-5.846861839294434,-34.09992980957031,31.784053802490234, 21.594032287597656
256,3897575284,0.80979353,0.053881302,-0.40111363,0.42478135,4.928836345672607,1.4462391138076782,-6.575610160827637,-19.822311401367188,-2.107098340988159, 18.14893341064453
257,3897591951,0.8064884,0.052704122,-0.407061,0.4255586,4.636228084564209,1.3281069993972778,-7.535868167877197,-20.276151657104492,-36.934024810791016, 20.17295265197754
258,3897608618,0.80154365,0.054080244,-0.41578603,0.4262924,5.038667678833008,1.9217033386230469,-6.739806652069092,-13.716517448425293,-64.09831237792969, 18.673812866210938
259,3897625285,0.79529953,0.05632406,-0.4272747,0.42633644,4.6860761642456055,1.3552132844924927,-6.216357707977295,-18.483524322509766,-85.54741668701172, 17.33625602722168
260,3897641952,0.7878062,0.061407764,-0.4400095,0.42659387,4.3983354568481445,-0.1646675169467926,-6.192089557647705,-5.439645290374756,-104.00537872314453, 14.387659072875977
261,3897658619,0.77912176,0.068665005,-0.45318893,0.42763817,3.825483798980713,-0.6431384682655334,-5.765425205230713,8.016682624816895,-115.79969787597656, 15.775696754455566
262,3897675286,0.7700935,0.0756814,-0.46650615,0.4284863,3.472064971923828,0.2990971505641937,-4.854837894439697,5.983478546142578,-116.7610855102539, 16.539491653442383
263,3897691953,0.7617701,0.079675704,-0.48031574,0.42738163,2.517735242843628,0.7118979096412659,-3.0578246116638184,-18.0240478515625,-109.03117370605469, 14.099825859069824
264,3897708620,0.75414485,0.08150397,-0.49411914,0.42481664,1.6276601552963257,-0.34434616565704346,-2.7718448638916016,-34.51521301269531,-101.03266143798828, 11.597735404968262
265,3897725287,0.7468638,0.08419637,-0.5061597,0.42297515,1.2232104539871216,-0.7996392250061035,-1.469377040863037,-22.56117820739746,-92.77534484863281, 10.420429229736328
266,3897741954,0.73937225,0.08751048,-0.5172316,0.42206883,1.9011754989624023,-1.098147988319397,-2.8007640838623047,-13.124885559082031,-89.7886962890625, 13.078492164611816
267,3897758621,0.7309589,0.088904835,-0.52989316,0.42072368,6.131809711456299,-4.907244682312012,-2.3272829055786133,-28.4265193939209,-95.76407623291016, 21.274234771728516
268,3897775288,0.71689016,0.10529754,-0.5380315,0.43070105,20.46051597595215,2.4669861793518066,4.168344497680664,104.9074935913086,-129.95338439941406, 36.947364807128906
269,3897791955,0.7011801,0.11745971,-0.5543317,0.4327427,8.538376808166504,1.667011022567749,2.8451967239379883,31.651355743408203,-169.3040771484375, 24.551513671875
270,3897808622,0.6854825,0.13316949,-0.56495404,0.43955258,-4.284811019897461,3.5884335041046143,-1.902037262916565,83.78852081298828,-148.635498046875, 29.482234954833984
271,3897825289,0.6746189,0.13666265,-0.5780241,0.43829322,-0.9331659078598022,1.5220521688461304,-3.5065102577209473,-16.96847915649414,-111.97637939453125, 26.52843475341797
272,3897841956,0.6658749,0.13754421,-0.58985424,0.43561938,0.38516080379486084,-5.904874801635742,-1.252951979637146,-32.926849365234375,-91.30113983154297, 22.79876708984375
273,3897858623,0.6581083,0.13815531,-0.5998744,0.4335404,1.5708969831466675,-5.618985652923584,0.19731666147708893,-27.186656951904297,-77.81773376464844, 21.68633460998535
274,3897875290,0.6497509,0.14303486,-0.6062449,0.43569735,2.9886221885681152,-2.6866343021392822,-0.4352370798587799,21.055461883544922,-72.6381607055664, 21.273712158203125
275,3897891957,0.64137495,0.1491584,-0.6113271,0.43894097,3.1774470806121826,1.778056025505066,-0.7548525333404541,35.000431060791016,-69.77777099609375, 19.60277557373047
276,3897908624,0.63336,0.15469515,-0.6166012,0.44127935,2.209928274154663,0.4376123249530792,-0.8422285914421082,27.597864151000977,-68.41483306884766, 17.251251220703125
277,3897925291,0.62497544,0.16155595,-0.62085015,0.44480392,2.374574899673462,0.7241606712341309,-0.9610714912414551,41.849159240722656,-68.4258804321289, 16.824848175048828
278,3897941958,0.6173507,0.16677688,-0.6252202,0.44739637,2.385974168777466,1.745375394821167,-1.1866772174835205,29.562910079956055,-61.86476516723633, 17.63564682006836
279,3897958625,0.6114269,0.16841763,-0.6308477,0.4470169,1.973680019378662,2.8319039344787598,-1.1985105276107788,-4.274319171905518,-52.414066314697266, 16.680971145629883
280,3897975292,0.6069795,0.16625224,-0.6386619,0.4427721,1.5772812366485596,1.6112207174301147,-1.4067649841308594,-45.52018737792969,-48.111141204833984, 15.044827461242676
281,3897991959,0.6024152,0.16377634,-0.6470235,0.43776023,1.0237088203430176,-1.0539904832839966,0.014858203940093517,-51.751914978027344,-50.95793151855469, 14.247870445251465
282,3898008626,0.5967243,0.16323335,-0.6548014,0.43417767,1.437572956085205,-2.0985682010650635,0.8750544786453247,-34.401390075683594,-57.91966247558594, 14.24716567993164
283,3898025293,0.59076685,0.16110666,-0.663895,0.42928168,1.4537034034729004,-3.7641663551330566,2.222104072570801,-50.48579788208008,-61.43507385253906, 18.177433013916016
284,3898041960,0.58575594,0.15599318,-0.6760226,0.41898653,3.8704214096069336,-0.5701925158500671,1.7751792669296265,-97.32675170898438,-66.80594635009766, 10.32613754272461
285,3898058627,0.58096814,0.14782712,-0.69032395,0.40506327,3.9349374771118164,0.4438103139400482,1.5213565826416016,-133.0460662841797,-69.79022216796875, 11.6319580078125
286,3898075294,0.57534176,0.1391988,-0.7053112,0.39005396,4.100578784942627,1.5595694780349731,0.6703740954399109,-141.1522979736328,-76.47882080078125, 12.592552185058594
287,3898091961,0.5680934,0.13373867,-0.7198204,0.3758221,4.009092807769775,2.900824785232544,0.77229905128479,-122.04008483886719,-90.32233428955078, 4.293710231781006
288,3898108628,0.5589023,0.13120994,-0.73435915,0.36211705,4.4399847984313965,2.3848772048950195,1.516427755355835,-106.28912353515625,-107.25953674316406, -2.9890761375427246
289,3898125295,0.5478271,0.13192263,-0.7487992,0.3489725,4.771540641784668,1.9184226989746094,2.5221571922302246,-89.07402038574219,-124.09231567382812, -12.509625434875488
290,3898141962,0.5352943,0.13572825,-0.76283836,0.3363265,4.783997535705566,0.29957643151283264,2.9719715118408203,-72.59452819824219,-137.2126922607422, -23.358415603637695
291,3898158629,0.5227646,0.14025803,-0.776193,0.3233717,4.814801216125488,-0.9406514167785645,3.631927251815796,-69.99727630615234,-136.79917907714844, -28.934484481811523
292,3898175296,0.511647,0.1423961,-0.78910154,0.3086419,4.033493995666504,-1.7419706583023071,3.970000743865967,-88.4781723022461,-124.22526550292969, -26.154762268066406
293,3898191963,0.50065094,0.14234293,-0.802653,0.29126513,3.600653648376465,-2.238476276397705,2.7005209922790527,-112.08460235595703,-123.9408187866211, -23.27449607849121
294,3898208630,0.4877799,0.14164804,-0.81765187,0.2710204,4.668225288391113,-3.2014992237091064,4.484337329864502,-131.2283935546875,-140.91822814941406, -24.520191192626953
295,3898225297,0.47471416,0.14065562,-0.83150417,0.25191957,5.1743974685668945,-3.748872756958008,6.531573295593262,-123.53282165527344,-136.67349243164062, -19.866100311279297
296,3898241964,0.45994455,0.13915049,-0.8458031,0.2317444,6.2049102783203125,-5.7099151611328125,8.162789344787598,-130.56597900390625,-148.25564575195312, -17.16952133178711
297,3898258631,0.44540614,0.13469307,-0.85909307,0.21314469,5.494840621948242,-6.739300727844238,12.290925025939941,-129.48226928710938,-137.77708435058594, 3.494748830795288
298,3898275298,0.43019742,0.13192394,-0.87137294,0.19553906,4.111024379730225,-6.012353897094727,9.623774528503418,-116.51578521728516,-140.54425048828125, -3.569612979888916
299,3898291965,0.41490448,0.13459711,-0.88187975,0.17895822,6.739530563354492,-8.683218955993652,6.218043327331543,-91.95097351074219,-142.42269897460938, -34.79400634765625
300,3898308632,0.39933282,0.14511637,-0.88773876,0.17718454,6.4635138511657715,-6.2314653396606445,5.414815902709961,26.05238914489746,-126.98138427734375, -44.23861312866211
301,3898325299,0.3887162,0.15267715,-0.891408,0.17601441,5.597864151000977,-3.6870710849761963,13.389318466186523,19.249298095703125,-86.66348266601562, -32.7981071472168
302,3898341966,0.38303387,0.15950945,-0.892102,0.178874,1.3616451025009155,-3.787890672683716,13.414047241210938,40.34553146362305,-43.66208267211914, -26.6555233001709
303,3898358633,0.38387394,0.16529259,-0.88942766,0.18503499,0.39654210209846497,-3.6537024974823,13.833321571350098,54.75449752807617,9.931138038635254, -23.25989532470703
304,3898375300,0.39123437,0.1711663,-0.88249147,0.19709587,-0.905727744102478,-1.6532167196273804,14.825847625732422,89.03314208984375,67.4770278930664, -21.394725799560547
305,3898391967,0.40561572,0.17322144,-0.872907,0.2085755,-0.5338208675384521,-1.9947483539581299,14.516522407531738,70.54590606689453,121.54322814941406, -12.401323318481445
306,3898408634,0.4250649,0.17397335,-0.85953677,0.22416441,0.30533865094184875,-1.8740869760513306,12.408836364746094,90.95308685302734,169.1471405029297, -4.895134449005127
307,3898425301,0.44893348,0.17327635,-0.8422418,0.24302883,1.9176344871520996,-1.3991669416427612,10.120926856994629,106.84219360351562,212.79786682128906, 1.7485121488571167
308,3898441968,0.4752369,0.1718145,-0.82108706,0.26541644,2.876065492630005,-1.810689926147461,7.590081214904785,128.45594787597656,244.23179626464844, 8.430744171142578
309,3898458635,0.5026318,0.17013131,-0.7965052,0.28982157,3.735316753387451,-1.7710458040237427,5.5513410568237305,144.1147003173828,264.3720703125, 10.28172492980957
310,3898475302,0.5306593,0.1671352,-0.7693998,0.31383198,4.515118598937988,-1.8424506187438965,3.7410261631011963,141.7320556640625,278.7453308105469, 11.951713562011719
311,3898491969,0.5589767,0.16206634,-0.7406763,0.33567584,5.378026962280273,-1.631725549697876,2.110318183898926,125.8958511352539,288.2377014160156, 12.572894096374512
312,3898508636,0.58743364,0.1544454,-0.7108827,0.35456234,6.006967067718506,-1.1767562627792358,0.29456621408462524,103.37694549560547,295.76885986328125, 12.72776985168457
313,3898525303,0.6158438,0.14394706,-0.68039006,0.3702501,6.484899044036865,0.004384639672935009,-0.5555965900421143,77.92041015625,302.147216796875, 13.277534484863281
314,3898541970,0.64407605,0.12991737,-0.64978737,0.38218334,6.830930709838867,-0.03866425156593323,-1.8146939277648926,45.90321731567383,307.2462463378906, 14.289504051208496
315,3898558637,0.67125565,0.11377783,-0.6188651,0.3917608,7.11906623840332,-1.417265772819519,-4.055315971374512,27.865610122680664,307.6242980957031, 15.793461799621582
316,3898575304,0.69700074,0.09575049,-0.5876409,0.39962527,7.5908122062683105,-1.2985453605651855,-6.772822856903076,13.873944282531738,306.9455871582031, 19.53740882873535
317,3898591971,0.7207867,0.07871551,-0.55597645,0.4064,8.064550399780273,-0.030491875484585762,-8.549510955810547,16.826679229736328,298.0425109863281, 15.398087501525879
318,3898608638,0.74191564,0.06359133,-0.52509344,0.41206104,7.262729644775391,-0.1883569359779358,-10.111076354980469,21.394102096557617,278.44598388671875, 10.466150283813477
319,3898625305,0.7597832,0.051683377,-0.49570104,0.41753885,7.152275085449219,-0.20312073826789856,-13.19562816619873,34.45182418823242,250.2594451904297, 7.850925922393799
320,3898641972,0.77373624,0.04127001,-0.4710115,0.42163652,6.510549068450928,-0.2264115810394287,-16.094717025756836,25.571874618530273,207.99888610839844, 8.498836517333984
321,3898658639,0.7829998,0.034881502,-0.4525297,0.42533702,4.540290832519531,-0.6141203045845032,-19.743404388427734,29.179330825805664,148.46839904785156, 8.744095802307129
322,3898675306,0.787495,0.03321064,-0.4419431,0.42829365,2.9679834842681885,-0.21856525540351868,-21.5264949798584,30.497629165649414,77.63904571533203, 5.906503677368164
323,3898691973,0.78716224,0.0343007,-0.44107175,0.42971498,2.240300416946411,-1.4360761642456055,-20.788503646850586,13.458195686340332,2.3551855087280273, 5.636930465698242
324,3898708640,0.7821916,0.039495587,-0.44783697,0.43134502,2.768096446990967,-2.465489387512207,-18.55628776550293,15.029597282409668,-64.70672607421875, 9.78190803527832
325,3898725307,0.77338874,0.049420573,-0.45904824,0.4343989,3.7992875576019287,-3.5114779472351074,-15.321706771850586,32.88786697387695,-113.7078857421875, 15.37116527557373
326,3898741974,0.7617223,0.06341709,-0.47185457,0.4394436,3.976489305496216,-3.4988903999328613,-12.436665534973145,57.1919059753418,-142.42921447753906, 22.088581085205078
327,3898758641,0.7487277,0.076739475,-0.48544192,0.4448195,3.537677764892578,-2.6958327293395996,-9.230598449707031,53.07742691040039,-148.4336395263672, 30.23841667175293
328,3898775308,0.7357149,0.08762003,-0.4992252,0.4492445,2.231067419052124,-1.0211974382400513,-7.614306449890137,36.81523895263672,-142.40728759765625, 33.54804611206055
329,3898791975,0.7241502,0.09578385,-0.51169103,0.45233214,0.707673966884613,0.5543515086174011,-5.3487958908081055,21.707984924316406,-123.11605834960938, 30.784582138061523
330,3898808642,0.7149742,0.10105529,-0.5218448,0.4541782,-1.1182193756103516,2.58229660987854,-3.2666027545928955,8.539831161499023,-95.03163146972656, 25.817407608032227
331,3898825309,0.70767087,0.106537424,-0.52906686,0.45600468,8.023728370666504,5.277543067932129,9.949139595031738,17.294984817504883,-74.66352081298828, 17.118215560913086
332,3898841976,0.6982185,0.1169942,-0.5355372,0.4604383,18.025169372558594,11.644937515258789,0.15075156092643738,54.69942092895508,-92.82257080078125, 18.082231521606445
333,3898858643,0.69035167,0.11519944,-0.55386263,0.4509767,3.70473313331604,0.7418988943099976,-6.862092971801758,-94.27806091308594,-116.2283706665039, 1.460058331489563
334,3898875310,0.67969555,0.12140214,-0.5640739,0.45287552,-1.4564480781555176,0.23946790397167206,-0.9018599987030029,14.347797393798828,-104.06160736083984, 27.188398361206055
335,3898891977,0.6717329,0.12355708,-0.57364655,0.4521488,2.0635602474212646,-0.11460316181182861,-4.894076347351074,-15.026643753051758,-80.36170959472656, 21.65255355834961
336,3898908644,0.6659125,0.12461822,-0.58157337,0.45033705,1.4045950174331665,-4.816405296325684,-2.6044023036956787,-21.04422378540039,-61.828102111816406, 12.892807960510254
337,3898925311,0.6619989,0.12560463,-0.5870974,0.44866222,-0.031251683831214905,-2.451472759246826,-1.7008278369903564,-15.004377365112305,-42.9129638671875, 5.731863498687744
338,3898941978,0.66087633,0.12156474,-0.59414357,0.4421064,0.17089912295341492,-0.4093957841396332,-0.15873178839683533,-64.700439453125,-27.376853942871094, -3.5445899963378906
339,3898958645,0.660167,0.11601504,-0.6017427,0.43431106,0.7504640817642212,-1.5589709281921387,-0.8998429775238037,-78.69425964355469,-24.77291488647461, -3.7817928791046143
340,3898975312,0.65784556,0.11455408,-0.60753024,0.43014398,0.24638648331165314,-1.739989161491394,-0.9874957799911499,-38.452571868896484,-32.62604522705078, -0.8732088208198547
341,3898991979,0.65291196,0.12016244,-0.60999554,0.43263453,-0.4605976641178131,-1.833452582359314,-0.1874389350414276,33.19540023803711,-44.25881576538086, 4.766261577606201
342,3899008646,0.6462397,0.13050994,-0.61030227,0.43917286,-0.7937006950378418,-0.571520984172821,0.36735671758651733,79.28113555908203,-52.72020721435547, 6.362417697906494
343,3899025313,0.63973063,0.13909379,-0.6120804,0.44357115,-1.0054255723953247,-0.46133163571357727,0.8362696170806885,57.83859634399414,-55.2834358215332, 5.024998664855957
344,3899041980,0.63357776,0.14529058,-0.615977,0.44501963,-0.2379940003156662,-0.6132520437240601,0.2112295925617218,28.082984924316406,-58.76383972167969, 2.996391534805298
345,3899058647,0.6273006,0.15036573,-0.62172896,0.44422695,0.20125983655452728,-0.09937984496355057,0.6571064591407776,8.119449615478516,-66.26889038085938, 0.1940256506204605
346,3899075314,0.6195965,0.1566966,-0.62820184,0.44374436,0.3937135934829712,0.7819749116897583,0.19744448363780975,14.09609603881836,-79.0848617553711, 1.2654304504394531
347,3899091981,0.6106501,0.16353595,-0.6357923,0.44286647,-0.47743046283721924,1.616074562072754,1.2458041906356812,12.447639465332031,-91.26214599609375, 2.4004876613616943
348,3899108648,0.60004973,0.1708942,-0.64438564,0.44215694,-0.3551713228225708,0.3938077688217163,0.9646148681640625,14.123516082763672,-104.19664001464844, 7.037421703338623
349,3899125315,0.58865017,0.17823996,-0.65385497,0.44067603,0.4292547404766083,0.527489185333252,1.118477463722229,8.89686107635498,-112.3053207397461, 7.370851516723633
350,3899141982,0.5774922,0.18324378,-0.6653566,0.43614835,2.0288400650024414,0.4350917339324951,0.8330545425415039,-20.765710830688477,-116.16345977783203, 7.344322204589844
351,3899158649,0.56633013,0.18425381,-0.679596,0.42833415,2.06097674369812,-3.8455288410186768,2.1665401458740234,-59.89004135131836,-119.28370666503906, 16.06671142578125
352,3899175316,0.5556236,0.18468945,-0.6948346,0.41758502,3.8783295154571533,0.7545501589775085,2.062107801437378,-79.39633178710938,-123.16885375976562, 7.176178455352783
353,3899191983,0.5442215,0.18406345,-0.7115775,0.4044766,3.5251152515411377,0.7689971327781677,2.0452184677124023,-98.19632720947266,-132.28330993652344, 7.218792915344238
354,3899208650,0.5317281,0.18356894,-0.7290518,0.38993782,4.4359049797058105,2.7688915729522705,-0.04963485524058342,-105.38421630859375,-142.63272094726562, 5.253702640533447
355,3899225317,0.5187175,0.18335325,-0.74632305,0.3745876,5.72627592086792,3.5640769004821777,1.5945415496826172,-107.23326110839844,-146.29745483398438, 2.146292209625244
356,3899241984,0.5056636,0.18209822,-0.7635451,0.3579717,6.407504081726074,3.372748613357544,2.787151336669922,-117.25308227539062,-145.3701171875, 3.168353796005249
357,3899258651,0.4928235,0.17991492,-0.7803822,0.34023467,7.414242267608643,2.2777843475341797,4.319211483001709,-125.68824005126953,-142.17930603027344, 3.276747941970825
358,3899275318,0.47945887,0.1768785,-0.7974621,0.32076105,8.560277938842773,1.1887469291687012,7.623809337615967,-137.82984924316406,-146.18055725097656, 3.6051993370056152
359,3899291985,0.4655038,0.17230916,-0.8154926,0.29763737,8.977686882019043,1.1568560600280762,10.26074504852295,-164.32656860351562,-153.9314727783203, 2.506131887435913
360,3899308652,0.4514394,0.1671741,-0.8343269,0.2686153,6.777334213256836,0.7972629070281982,3.6823723316192627,-200.79458618164062,-163.35365295410156, -11.984971046447754
361,3899325319,0.43457252,0.16611092,-0.85172707,0.24107137,6.798089981079102,-6.886102676391602,8.901345252990723,-173.78604125976562,-180.98265075683594, -27.236860275268555
362,3899341986,0.41979572,0.16682772,-0.86385554,0.22292134,6.185295581817627,-7.204868316650391,11.410621643066406,-107.20858001708984,-145.4878692626953, -19.275827407836914
363,3899358653,0.40727785,0.16533728,-0.873457,0.20943166,3.7633256912231445,-7.288854598999023,9.418292045593262,-84.77488708496094,-116.36576843261719, 0.7328649163246155
364,3899375320,0.39413562,0.16525748,-0.8833831,0.19230676,1.027915596961975,-8.483702659606934,5.25475549697876,-102.56813049316406,-127.40065002441406, -16.85141944885254
365,3899391987,0.38090733,0.1711348,-0.88832194,0.19106771,2.907665252685547,-9.63327693939209,6.280795097351074,16.61717987060547,-104.26973724365234, -15.735600471496582
366,3899408654,0.3746117,0.17603323,-0.8895627,0.19327892,0.8612989187240601,-1.0676970481872559,15.177338600158691,31.66155433654785,-46.996402740478516, -14.344308853149414
367,3899425321,0.3740961,0.17854154,-0.88874626,0.19571796,-1.411297082901001,-2.0733299255371094,11.1959228515625,22.583003997802734,-3.151201009750366, -9.294792175292969
368,3899441988,0.37785497,0.18120502,-0.88445574,0.20525266,-2.5847437381744385,-2.4554429054260254,9.705531120300293,65.7220230102539,40.30048751831055, -2.0251874923706055
369,3899458655,0.38613224,0.18328935,-0.877325,0.2181928,-2.096820592880249,-1.532853603363037,10.406516075134277,83.26494598388672,80.17118835449219, 0.40813836455345154
370,3899475322,0.39864227,0.18451448,-0.86733335,0.23403428,-2.1965677738189697,-1.7374863624572754,9.155733108520508,97.4181137084961,118.17489624023438, 3.343559980392456
371,3899491989,0.41535497,0.18433161,-0.8548769,0.2503755,-2.4738564491271973,-0.9854320287704468,8.4036283493042,95.1545639038086,152.85044860839844, 3.2140634059906006
372,3899508656,0.4363729,0.18192403,-0.84011513,0.2658743,-1.4757933616638184,0.04143691807985306,7.866540431976318,82.35941314697266,187.4780731201172, 3.545802354812622
373,3899525323,0.46099886,0.17540546,-0.82469743,0.27674434,-0.0819152221083641,0.719484269618988,5.6386613845825195,39.98326873779297,211.978515625, 5.988918781280518
374,3899541990,0.48741472,0.16676864,-0.8076138,0.2870111,0.8473807573318481,-0.15120840072631836,3.004941463470459,30.890880584716797,230.71182250976562, 10.681343078613281
375,3899558657,0.51422423,0.15786768,-0.78806853,0.29933175,1.2925602197647095,0.15833602845668793,1.962742805480957,45.85979461669922,244.07916259765625, 15.427315711975098
376,3899575324,0.540966,0.1483084,-0.76632464,0.31322026,2.1600842475891113,-0.26691922545433044,0.7039998173713684,56.67158126831055,254.6142120361328, 22.30735969543457
377,3899591991,0.56705254,0.13880001,-0.7423124,0.32887468,2.887676239013672,-0.1078156977891922,-0.03957943618297577,71.7636489868164,261.3872985839844, 27.727235794067383
378,3899608658,0.5922602,0.12959588,-0.7163271,0.34541076,3.555569887161255,0.42360013723373413,-0.581383228302002,82.79251098632812,264.85748291015625, 29.755695343017578
379,3899625325,0.6166061,0.12153793,-0.6879867,0.36290509,4.582663059234619,1.551741361618042,-0.8303651809692383,98.58792877197266,268.4586181640625, 28.024728775024414
380,3899641992,0.6405173,0.11325413,-0.658507,0.37852332,5.861847400665283,2.4106216430664062,-1.4818181991577148,91.9920654296875,270.3546142578125, 21.3737735748291
381,3899658659,0.6637468,0.10410158,-0.62914526,0.3908702,6.89581823348999,2.4349899291992188,-2.913430690765381,73.59551239013672,266.60980224609375, 12.888842582702637
382,3899675326,0.6860042,0.093363225,-0.6012745,0.39893708,6.273804664611816,2.203439235687256,-3.6922779083251953,44.54800033569336,256.99383544921875, 4.007728576660156
383,3899691993,0.70635325,0.081224404,-0.57604146,0.40329185,5.582089424133301,1.0396056175231934,-5.406872749328613,16.604141235351562,238.33245849609375, -0.700417697429657
384,3899708660,0.72418815,0.06798249,-0.5537983,0.40526232,6.592587947845459,-0.7582696676254272,-7.98582124710083,-5.0403313636779785,215.8324737548828, 0.7672967910766602
385,3899725327,0.73924744,0.055674016,-0.533445,0.40724725,6.446944236755371,-1.0632193088531494,-9.123971939086914,-4.217766284942627,193.58872985839844, 5.905488014221191
386,3899741994,0.7510866,0.047130127,-0.51476884,0.41068366,5.3920159339904785,-1.492883563041687,-12.012948036193848,16.880300521850586,163.6163330078125, 9.136673927307129
387,3899758661,0.7591052,0.04421793,-0.49881265,0.4159208,3.538313627243042,-1.4537632465362549,-14.395631790161133,46.035987854003906,121.12794494628906, 10.160977363586426
388,3899775328,0.76263046,0.0468358,-0.48768792,0.4223291,2.322021722793579,-2.405064105987549,-16.8734130859375,66.62825012207031,65.46070098876953, 11.593724250793457
389,3899791995,0.761677,0.053328726,-0.48315516,0.42844537,2.1168911457061768,-1.936381459236145,-18.192331314086914,68.47158813476562,4.974142074584961, 12.122064590454102
390,3899808662,0.7572216,0.059186563,-0.48667166,0.43158242,2.1110057830810547,-1.6703641414642334,-17.752012252807617,33.02198028564453,-47.58641815185547, 11.825510025024414
391,3899825329,0.7498536,0.064296,-0.49713522,0.43178996,1.951721429824829,-2.2931418418884277,-16.423419952392578,0.07337620109319687,-92.06109619140625, 10.486251831054688
392,3899841996,0.7396585,0.07082076,-0.51159596,0.43146226,1.8923009634017944,-3.5405197143554688,-15.174386024475098,-4.911770820617676,-126.41678619384766, 12.973588943481445
393,3899858663,0.7263826,0.0808724,-0.52745444,0.43315136,2.7021267414093018,-2.1250152587890625,-5.347989559173584,17.6347713470459,-153.5390167236328, 20.52460289001465
394,3899875330,0.71104956,0.092012286,-0.5416923,0.43876186,11.196016311645508,2.66581392288208,8.452462196350098,43.301937103271484,-153.92730712890625, 41.30192565917969
395,3899891997,0.69870436,0.10642239,-0.553646,0.44041225,7.104928016662598,10.406535148620605,-2.947037935256958,49.37248611450195,-144.22506713867188, -0.5686484575271606
396,3899908664,0.6845555,0.11346982,-0.57049316,0.43937027,3.145197868347168,-1.572865605354309,-8.785334587097168,-9.879579544067383,-154.24082946777344, 23.861610412597656
397,3899925331,0.6718875,0.1190916,-0.583883,0.43984687,1.1019947528839111,1.9176794290542603,-1.8430997133255005,-1.260514259338379,-126.51465606689453, 29.376346588134766
398,3899941998,0.65952754,0.12540184,-0.59490085,0.44203088,3.624255657196045,-1.6414374113082886,-5.5755839347839355,15.676314353942871,-115.0810775756836, 31.650888442993164
399,3899958665,0.649291,0.1320717,-0.6025446,0.44488043,1.2369508743286133,-0.5055237412452698,-3.0011796951293945,28.499107360839844,-91.55658721923828, 23.7781925201416
400,3899975332,0.642473,0.13453333,-0.609846,0.44409162,0.49177417159080505,-0.7604150772094727,-1.0185989141464233,-7.4154205322265625,-66.33546447753906, 14.171309471130371
401,3899991999,0.63834214,0.13310386,-0.61724144,0.44024512,0.1839521825313568,-1.0680115222930908,-0.7179768085479736,-40.21876907348633,-46.52766418457031, 8.84850788116455
402,3900008666,0.63568985,0.12906714,-0.6251332,0.434107,1.433334469795227,0.3679679036140442,-0.4414645731449127,-64.2674560546875,-36.73714828491211, 5.830595016479492
403,3900025333,0.6325345,0.12507409,-0.63274753,0.4288214,0.6769490838050842,-1.8996710777282715,-1.2969341278076172,-59.17188262939453,-37.15744400024414, 10.679499626159668
404,3900042000,0.62764424,0.1267974,-0.63684446,0.42943522,0.009729329496622086,-1.6801046133041382,-0.6933462619781494,3.2081401348114014,-41.25639724731445, 13.518294334411621
405,3900058667,0.6221388,0.13018659,-0.6399488,0.43181086,0.2865660488605499,-1.297289252281189,-0.23398010432720184,21.56406593322754,-43.1339225769043, 14.716554641723633
406,3900075334,0.61699134,0.13303524,-0.64398843,0.432322,-0.012916741892695427,-0.6231012940406799,0.5445048213005066,7.928620338439941,-45.714683532714844, 8.848941802978516
407,3900092001,0.6124619,0.13319534,-0.65023726,0.42934975,-1.184268832206726,-1.8167966604232788,0.5022571086883545,-26.06767463684082,-47.65304183959961, 6.144186496734619
408,3900108668,0.6076063,0.13333094,-0.65742964,0.42523414,-0.6741637587547302,-1.3725261688232422,0.4633713364601135,-33.798614501953125,-54.16102600097656, 3.2146637439727783
409,3900125335,0.6015429,0.13473606,-0.6648993,0.42178375,-0.3217579126358032,0.1423620581626892,0.8535445332527161,-25.223447799682617,-63.972679138183594, 4.007397651672363
410,3900142002,0.5941785,0.1365107,-0.6734516,0.4180668,-0.15440633893013,1.382946252822876,0.9082032442092896,-26.888147354125977,-75.81452178955078, 6.001275539398193
411,3900158669,0.5854979,0.1377736,-0.6834992,0.41356963,0.3048095703125,0.23959700763225555,1.249237060546875,-35.694332122802734,-87.3736801147461, 10.415287017822266
412,3900175336,0.57540345,0.13838132,-0.69442815,0.409306,0.5800698399543762,-3.4879488945007324,2.3197391033172607,-38.43740463256836,-95.58087158203125, 19.30804443359375
413,3900192003,0.5654052,0.1395097,-0.7061658,0.40272102,2.657871723175049,0.9148701429367065,1.5726128816604614,-49.873497009277344,-102.11569213867188, 8.057668685913086
414,3900208670,0.5553595,0.13911822,-0.720046,0.3921175,2.9632654190063477,0.4042470157146454,1.6473430395126343,-81.22266387939453,-110.41957092285156, 2.0759379863739014
415,3900225337,0.544366,0.13845626,-0.7352489,0.3793478,2.983975887298584,1.4069790840148926,1.2644189596176147,-95.68000030517578,-121.60448455810547, -0.9718790650367737
416,3900242004,0.53213197,0.1387851,-0.7501627,0.36719266,4.975132942199707,2.2816460132598877,1.9992928504943848,-86.95470428466797,-128.88082885742188, -0.6325339674949646
417,3900258671,0.51876396,0.13873595,-0.7656022,0.35424587,5.549365997314453,2.7789523601531982,2.100435256958008,-92.69187927246094,-136.5770721435547, 1.9142786264419556
418,3900275338,0.5043407,0.13968688,-0.7807865,0.34132227,5.350586414337158,3.4860904216766357,2.1747210025787354,-87.38609313964844,-143.770263671875, -0.80193692445755
419,3900292005,0.48946837,0.14100474,-0.79606307,0.32683668,5.656895160675049,3.76914644241333,3.811030864715576,-94.28453063964844,-149.00233459472656, -6.901254177093506
420,3900308672,0.4740387,0.14119555,-0.8127191,0.30795994,5.749697685241699,2.5526926517486572,5.281427383422852,-124.67608642578125,-158.625244140625, -12.77955436706543
421,3900325339,0.45712042,0.14283265,-0.82965344,0.28690663,6.134584903717041,0.1622202843427658,7.523831844329834,-131.28878784179688,-173.27542114257812, -24.441354751586914
422,3900342006,0.4383408,0.1467332,-0.84620804,0.26506427,7.1993513107299805,-2.2043662071228027,3.5426924228668213,-126.14227294921875,-188.2552947998047, -36.52452850341797
423,3900358673,0.41733313,0.15418579,-0.8606695,0.24760525,9.389820098876953,-5.709063529968262,10.862305641174316,-83.89088439941406,-197.1604461669922, -42.07589340209961
424,3900375340,0.39821357,0.1614468,-0.8726892,0.23189414,6.705818176269531,-6.020583629608154,9.210736274719238,-72.07445526123047,-177.21786499023438, -41.844547271728516
425,3900392007,0.3805069,0.16821527,-0.88298625,0.21737994,7.040152072906494,-6.061033725738525,14.314334869384766,-65.18904113769531,-162.22096252441406, -39.91807556152344
426,3900408674,0.3676494,0.16815485,-0.8935207,0.19539447,5.177767276763916,-8.943965911865234,14.713062286376953,-134.5538330078125,-132.2705078125, -25.131248474121094
427,3900425341,0.35478696,0.17259155,-0.90138113,0.17846851,4.1148681640625,-11.091072082519531,6.027822017669678,-88.71131134033203,-126.10455322265625, -43.29584503173828
428,3900442008,0.34081247,0.18222466,-0.9048514,0.17856488,3.836514949798584,-9.232610702514648,2.7617416381835938,35.97811508178711,-108.58699035644531, -38.0405387878418
429,3900458675,0.33219588,0.19207829,-0.9042929,0.18710065,3.763685941696167,-1.66134512424469,14.888628959655762,87.09193420410156,-55.55820083618164, -31.370485305786133
430,3900475342,0.33019137,0.19594699,-0.903572,0.19009541,-1.225905418395996,-4.9211554527282715,13.352072715759277,30.393205642700195,-14.0018892288208, -15.487573623657227
431,3900492009,0.33114955,0.19866244,-0.89964765,0.20373446,-1.2429993152618408,-10.093494415283203,10.225821495056152,93.9788818359375,27.384859085083008, 7.597005367279053
432,3900508676,0.33618686,0.20187452,-0.8912564,0.22778776,-2.9577417373657227,-4.894090175628662,11.290277481079102,160.02133178710938,76.24954223632812, 16.296701431274414
433,3900525343,0.34869358,0.20164652,-0.8816255,0.24594446,-2.193131923675537,0.4387020468711853,10.251226425170898,107.40452575683594,122.03063201904297, 10.290358543395996
434,3900542010,0.36806744,0.19788489,-0.8706187,0.25959846,-0.9682126045227051,1.6877639293670654,9.577990531921387,64.45442962646484,166.63961791992188, 7.424806118011475
435,3900558677,0.39290297,0.19257006,-0.8575271,0.27054003,-0.9476586580276489,5.195166110992432,8.817587852478027,40.617855072021484,203.63206481933594, -2.7018721103668213
436,3900575344,0.42129764,0.18548326,-0.84271973,0.27915615,0.2994319200515747,3.124208688735962,5.276159286499023,20.693052291870117,229.41961669921875, -7.343242168426514
437,3900592011,0.45025882,0.17917266,-0.8237714,0.2942197,1.013947606086731,0.45999079942703247,3.8853235244750977,67.61699676513672,251.44505310058594, 0.5261529684066772
438,3900608678,0.47888544,0.173479,-0.80072635,0.31529626,1.6109670400619507,-0.8809372186660767,2.2732083797454834,112.34103393554688,268.4303283691406, 11.315763473510742
439,3900625345,0.5076329,0.167852,-0.7740819,0.3390166,2.5770230293273926,-0.8854171633720398,0.34079164266586304,134.8152313232422,284.02679443359375, 15.131715774536133
440,3900642012,0.5368739,0.16017061,-0.7452395,0.3615663,3.6326451301574707,-1.500319480895996,-0.7576824426651001,126.0098876953125,297.8701171875, 18.334915161132812
441,3900658679,0.5653573,0.15261477,-0.7131895,0.38528055,4.9025983810424805,-1.2154942750930786,-2.2095935344696045,141.3027801513672,306.9388732910156, 20.374418258666992
442,3900675346,0.5929067,0.14427927,-0.6789731,0.40821707,6.570175647735596,-0.9596792459487915,-4.302306652069092,141.23248291015625,312.2049560546875, 21.4301815032959
443,3900692013,0.6201516,0.13581607,-0.64349514,0.42764547,7.550666809082031,1.8191004991531372,-4.964856147766113,128.24392700195312,313.0413513183594, 7.389999866485596
444,3900708680,0.64926845,0.12058996,-0.6121965,0.4348844,8.338311195373535,2.3364343643188477,-5.350103855133057,31.46723175048828,312.2574768066406, -16.16061782836914
445,3900725347,0.67762333,0.09757357,-0.5859336,0.43357578,9.088878631591797,-1.3698433637619019,-8.304561614990234,-53.685489654541016,303.0548095703125, -14.991264343261719
446,3900742014,0.7014047,0.07523092,-0.56155014,0.43247378,8.09665298461914,-3.8214902877807617,-11.264596939086914,-52.13738250732422,274.364990234375, -1.8650915622711182
447,3900758681,0.71897554,0.058653258,-0.5390131,0.43485546,6.856247901916504,-4.648527145385742,-15.714574813842773,-12.977859497070312,226.57215881347656, 12.036530494689941
448,3900775348,0.73085433,0.05214376,-0.5173757,0.4421036,4.723876476287842,-3.077655076980591,-17.996416091918945,54.681087493896484,173.43218994140625, 16.093008041381836
449,3900792015,0.7377735,0.051769365,-0.50104946,0.44939962,3.7307727336883545,-0.3156963288784027,-20.769874572753906,71.56289672851562,111.02449798583984, 11.443700790405273
450,3900808682,0.7401313,0.050359063,-0.4963997,0.4508406,2.6257028579711914,0.15196213126182556,-21.85939598083496,11.910669326782227,37.786502838134766, 3.56746506690979
451,3900825349,0.73733467,0.049351864,-0.50314206,0.4480519,1.3457512855529785,-2.3614633083343506,-21.501689910888672,-33.7792854309082,-39.91521453857422, 0.5993108749389648
452,3900842016,0.72979337,0.05353858,-0.51607835,0.44519532,2.904290199279785,-2.480178117752075,-18.339927673339844,-24.907995223999023,-103.2335205078125, -1.0608561038970947
453,3900858683,0.7186033,0.061159797,-0.5326911,0.4428423,3.763536214828491,-2.278303623199463,-14.69530963897705,-15.600242614746094,-144.5166473388672, 1.732053279876709
454,3900875350,0.7045859,0.07389881,-0.5487184,0.443854,6.99146032333374,-1.87825345993042,1.7378267049789429,25.12360382080078,-165.81295776367188, 7.893933296203613
455,3900892017,0.6896883,0.08812378,-0.56244856,0.44745517,8.985002517700195,5.809386730194092,4.416247367858887,49.49240493774414,-161.31349182128906, 16.31281280517578
456,3900908684,0.6779189,0.09794554,-0.5782029,0.44329944,3.953214168548584,5.392177104949951,-5.538762092590332,-9.694672584533691,-150.11181640625, -11.63569450378418
457,3900925351,0.6641166,0.10438428,-0.59455055,0.4410931,3.0467357635498047,-1.0360676050186157,-8.741939544677734,-18.195655822753906,-149.25917053222656, 17.64769744873047
458,3900942018,0.6513972,0.10980895,-0.6085137,0.43969908,4.034610748291016,0.4757651090621948,-3.259917974472046,-12.975773811340332,-130.12698364257812, 20.472658157348633
459,3900958685,0.6401207,0.11591518,-0.6192466,0.43970793,2.6805734634399414,-0.28505364060401917,-2.1005983352661133,4.622060775756836,-110.6292724609375, 17.12587547302246
460,3900975352,0.6309829,0.119789004,-0.6278769,0.43963858,0.4924517273902893,-1.4210296869277954,-1.643305778503418,-0.8932668566703796,-85.63339233398438, 18.135013580322266
461,3900992019,0.62465817,0.1188111,-0.6364751,0.4365616,1.232656478881836,1.564942479133606,-1.457784652709961,-37.151214599609375,-61.24052047729492, 17.460723876953125
462,3901008686,0.6208286,0.11251893,-0.64703095,0.42809185,1.032818078994751,-0.6170592904090881,-1.5285921096801758,-91.52042388916016,-47.26181411743164, 11.752223014831543
463,3901025353,0.6170526,0.10844831,-0.6552664,0.42203256,0.7196304202079773,0.07143701612949371,-1.2198412418365479,-64.5396728515625,-41.86328125, 10.238668441772461
464,3901042020,0.6136634,0.10615856,-0.66193765,0.41711712,0.5832692384719849,-0.496650367975235,-1.8554677963256836,-47.60383224487305,-37.87681579589844, 4.81097936630249
465,3901058687,0.6102955,0.106764495,-0.66663647,0.41441151,0.4427666664123535,-0.6744483709335327,-1.5949634313583374,-19.703569412231445,-36.200340270996094, -0.5466421842575073
466,3901075354,0.6078165,0.10634061,-0.67159915,0.41012907,-0.44263070821762085,-1.0443183183670044,-0.5676165223121643,-32.67660903930664,-31.512147903442383, -4.794258117675781
467,3901092021,0.60599834,0.10486031,-0.67666864,0.4048337,-0.48089995980262756,-1.7962939739227295,-0.2824249863624573,-42.58426284790039,-26.752899169921875, -5.959104537963867
468,3901108688,0.60405123,0.103922926,-0.68135816,0.40009204,-0.2647809684276581,-2.2825675010681152,0.4706903100013733,-36.62678146362305,-26.966773986816406, -6.135849475860596
469,3901125355,0.60138804,0.10415645,-0.6859349,0.39620373,-0.5523248314857483,-2.079454183578491,0.9806315302848816,-26.981361389160156,-32.56688690185547, -6.244045257568359
470,3901142022,0.59737164,0.10642547,-0.69049495,0.3937485,-0.3979823589324951,-1.8710360527038574,0.6171596646308899,-10.83513355255127,-43.509281158447266, -6.305494785308838
471,3901158689,0.592121,0.109977886,-0.6957622,0.3914242,-0.31526443362236023,-0.7479643225669861,0.7001736760139465,-5.991723537445068,-55.747222900390625, -8.06024169921875
472,3901175356,0.5858364,0.11329873,-0.7023269,0.38819647,0.10470884293317795,-0.9482035636901855,1.206070899963379,-14.007596015930176,-66.12752532958984, -6.892642974853516
473,3901192023,0.57874256,0.11614416,-0.7099852,0.384043,-0.2227504849433899,-0.9341831803321838,0.9526160359382629,-22.725196838378906,-73.9950942993164, -5.335623264312744
474,3901208690,0.5708187,0.12000072,-0.71831995,0.37918684,0.6302964687347412,-1.0927107334136963,0.9548748135566711,-23.297557830810547,-84.05838012695312, -10.360028266906738
475,3901225357,0.561525,0.12625886,-0.72623426,0.37594226,1.3982113599777222,-0.34610989689826965,1.3039246797561646,-3.7283287048339844,-94.19109344482422, -12.693609237670898
476,3901242024,0.5514755,0.13303345,-0.7345621,0.37228477,2.109804391860962,0.5023657083511353,1.0609689950942993,-4.25465726852417,-101.34928894042969, -14.548794746398926
477,3901258691,0.54086876,0.1392372,-0.74404687,0.36670023,2.3754141330718994,0.7506953477859497,1.5838261842727661,-18.642318725585938,-108.93972778320312, -16.44867515563965
478,3901275358,0.5299044,0.14388132,-0.75539243,0.35760644,2.376600980758667,0.7547694444656372,1.0309646129608154,-46.7857666015625,-117.21833038330078, -18.782869338989258
479,3901292025,0.51805216,0.14868866,-0.76743597,0.34721205,2.2626349925994873,0.5469844937324524,1.9309697151184082,-53.814788818359375,-126.14540100097656, -21.44007682800293
480,3901308692,0.5056409,0.1523919,-0.7803512,0.33489767,3.1154589653015137,0.8670795559883118,2.663543224334717,-69.42511749267578,-131.6388397216797, -20.179401397705078
481,3901325359,0.4927225,0.15459573,-0.7944733,0.31958976,3.8746674060821533,1.5229249000549316,2.819514513015747,-92.98441314697266,-138.38287353515625, -20.043212890625
482,3901342026,0.47936863,0.15485665,-0.80977505,0.30081558,4.32453727722168,1.62898850440979,3.546283483505249,-120.65960693359375,-144.3326873779297, -18.874174118041992
483,3901358693,0.46540248,0.15396991,-0.825516,0.27967423,4.968356609344482,2.287590265274048,5.209356307983398,-137.90545654296875,-149.52268981933594, -18.46378517150879
484,3901375360,0.45061234,0.15304443,-0.84125465,0.25654835,5.333839416503906,3.0359113216400146,6.447540283203125,-148.4376678466797,-156.46632385253906, -22.917882919311523
485,3901392027,0.43525168,0.15419866,-0.8562386,0.23159194,6.632302284240723,4.812314033508301,5.959145545959473,-150.65603637695312,-163.30856323242188, -40.312408447265625
486,3901408694,0.41942033,0.15436356,-0.8721558,0.19900645,7.776468753814697,-4.691567420959473,5.630481719970703,-199.49546813964844,-175.6914825439453, -55.462589263916016
487,3901425361,0.40128535,0.1578491,-0.88484037,0.1763854,9.06169319152832,-9.368144035339355,9.005555152893066,-123.34898376464844,-174.42430114746094, -47.04629898071289
488,3901442028,0.3839772,0.16547988,-0.8935706,0.16343229,10.122407913208008,-12.243324279785156,11.182271957397461,-49.35904312133789,-153.38780212402344, -51.109771728515625
489,3901458695,0.3680753,0.17320073,-0.8988853,0.16287364,6.2182159423828125,-11.333648681640625,11.374114036560059,29.028553009033203,-122.16666412353516, -24.655874252319336
490,3901475362,0.35151696,0.18132411,-0.90376455,0.16360784,2.1038544178009033,-5.3213605880737305,6.326440334320068,39.07376480102539,-124.3797836303711, -23.856979370117188
491,3901492029,0.33772728,0.18704979,-0.90767276,0.16457061,1.495021104812622,-7.60807991027832,6.780969619750977,32.236671447753906,-101.95938110351562, -12.791634559631348
492,3901508696,0.32818714,0.19299322,-0.9073335,0.17830777,0.6674960851669312,-5.402589321136475,13.05274486541748,111.6522216796875,-49.5009651184082, 5.153923988342285
493,3901525363,0.32607242,0.19274558,-0.9065367,0.18632695,0.0025424817577004433,-5.1400861740112305,11.281951904296875,52.571014404296875,-2.3581364154815674, 21.122671127319336
494,3901542030,0.32812113,0.19308653,-0.90256023,0.20109636,-1.3212051391601562,-4.332048416137695,10.031631469726562,94.39035034179688,38.765220642089844, 22.99179458618164
495,3901558697,0.3357119,0.1926088,-0.89635485,0.21621267,-1.9908360242843628,-0.44919732213020325,11.201534271240234,90.3210220336914,79.69065856933594, 18.197294235229492
496,3901575364,0.34936318,0.18857001,-0.8893697,0.22673486,-1.644868016242981,-0.30572783946990967,9.817168235778809,46.89175033569336,117.9570541381836, 19.508913040161133
497,3901592031,0.36724722,0.18364586,-0.8802633,0.2377832,-1.4095829725265503,1.2897391319274902,8.668609619140625,45.78767013549805,150.9287872314453, 16.82575035095215
498,3901608698,0.38953763,0.17664558,-0.86951476,0.24698472,-0.6008316874504089,1.5718833208084106,7.123100757598877,26.511281967163086,182.7555694580078, 15.458794593811035
499,3901625365,0.4145876,0.16874358,-0.8562552,0.25781876,-0.2500905990600586,0.8983029127120972,5.943636894226074,34.80588150024414,209.45858764648438, 17.498533248901367
500,3901642032,0.44083092,0.16075791,-0.8403935,0.2712275,0.31046998500823975,0.40497666597366333,4.644008159637451,52.98928451538086,227.01602172851562, 20.200613021850586
501,3901658699,0.46775785,0.15314873,-0.82162386,0.28754634,1.3037267923355103,0.21516156196594238,3.163895845413208,75.64849090576172,242.29173278808594, 22.371131896972656
502,3901675366,0.49535564,0.14545925,-0.80002743,0.30564842,2.4536831378936768,0.26505693793296814,1.8239295482635498,90.38401794433594,257.2291564941406, 24.29016876220703
503,3901692033,0.5228829,0.13860759,-0.77543825,0.3256956,3.4003043174743652,0.5847839117050171,0.6343016028404236,110.34374237060547,267.259033203125, 23.518329620361328
504,3901708700,0.54976755,0.13306513,-0.7481472,0.34688014,4.386606216430664,0.3748664855957031,-1.339565396308899,127.83116149902344,271.76116943359375, 19.578569412231445
505,3901725367,0.5755051,0.12829416,-0.71861184,0.36868986,5.135822772979736,-0.5013794302940369,-2.933039426803589,140.4197540283203,273.2006530761719, 18.757749557495117
506,3901742034,0.600456,0.12456944,-0.6870131,0.38980612,5.5462446212768555,1.3640462160110474,-3.2679436206817627,147.12164306640625,274.3888244628906, 11.101865768432617
507,3901758701,0.6253078,0.11819409,-0.6564539,0.40507933,6.383647918701172,2.265907049179077,-4.209436893463135,105.91817474365234,271.9063720703125, 0.7757148146629333
508,3901775368,0.64959955,0.10928699,-0.6275468,0.4150449,7.167222499847412,1.9010168313980103,-6.6642608642578125,66.96636199951172,265.2336120605469, -7.592505931854248
509,3901792035,0.6717623,0.09761634,-0.60201544,0.42045745,7.39044189453125,-0.2656324803829193,-10.311318397521973,26.998950958251953,245.732666015625, -7.299233913421631
510,3901808702,0.6898678,0.08705464,-0.5795531,0.42499706,6.535027503967285,-1.874509334564209,-13.261421203613281,22.470584869384766,211.38259887695312, -2.107236623764038
511,3901825369,0.702845,0.080461,-0.56055474,0.43048108,4.229855537414551,-2.713291645050049,-16.89256477355957,38.164913177490234,163.97764587402344, 3.5992190837860107
512,3901842036,0.710232,0.080030136,-0.5460407,0.4370421,3.422433614730835,-1.9568026065826416,-21.52643585205078,62.13288497924805,103.67842102050781, 4.017847537994385
513,3901858703,0.7123239,0.08390979,-0.5388773,0.4417755,2.8333888053894043,-1.0437265634536743,-22.476499557495117,57.398799896240234,34.60948944091797, -1.1911885738372803
514,3901875370,0.7090602,0.08878659,-0.5408463,0.44366267,1.0902352333068848,-2.9317190647125244,-21.52342414855957,27.32918357849121,-33.97731018066406, 2.662208318710327
515,3901892037,0.7007313,0.09558438,-0.55003625,0.44418472,0.8191060423851013,-4.129820823669434,-19.53471565246582,12.930069923400879,-94.13720703125, 8.606046676635742
516,3901908704,0.6886774,0.105243914,-0.56252444,0.44521233,1.0555579662322998,-3.3170483112335205,-15.04633903503418,21.233413696289062,-132.03565979003906, 13.604788780212402
517,3901925371,0.67390066,0.11500165,-0.5767004,0.4472692,6.7487711906433105,-2.318917989730835,1.584182620048523,22.64006805419922,-149.7727813720703, 27.512866973876953
518,3901942038,0.6581856,0.12669213,-0.58931017,0.45105973,12.437387466430664,6.718881607055664,4.331218719482422,43.99578094482422,-150.90402221679688, 29.492115020751953
519,3901958705,0.64510536,0.13338792,-0.6063461,0.44541195,6.023737907409668,-0.750980019569397,-14.983026504516602,-33.03330612182617,-153.11476135253906, 2.9904325008392334
520,3901975372,0.629061,0.14413579,-0.61850315,0.4482873,7.805416584014893,1.7399719953536987,-0.6410512924194336,38.26167678833008,-148.0354766845703, 28.490604400634766
521,3901992039,0.6163193,0.14985552,-0.62901133,0.4494879,-1.4472806453704834,2.1378912925720215,-3.8759801387786865,11.168660163879395,-113.0677719116211, 30.89902114868164
522,3902008706,0.6073858,0.1520873,-0.6369726,0.44968697,-0.8157912492752075,-1.1178637742996216,-3.5214319229125977,-3.9862730503082275,-76.06917572021484, 27.359289169311523
523,3902025373,0.6017974,0.15204804,-0.64290345,0.44877294,2.0675294399261475,-1.3572546243667603,-3.2996702194213867,-15.542878150939941,-47.095645904541016, 20.140161514282227
524,3902042040,0.5984453,0.14923866,-0.64899176,0.44542274,2.2133467197418213,0.22890225052833557,-1.1827672719955444,-40.583858489990234,-31.867176055908203, 15.567232131958008
525,3902058707,0.59694177,0.14200987,-0.6578061,0.43678987,0.8295698165893555,0.18371041119098663,-2.666116714477539,-92.60797119140625,-26.789621353149414, 10.763075828552246
526,3902075374,0.5950194,0.13699305,-0.6647228,0.43049857,0.02612118422985077,-0.5066947937011719,-1.6004382371902466,-66.83354187011719,-25.27802276611328, 9.83775520324707
527,3902092041,0.5925977,0.13549122,-0.668974,0.4277201,0.13618703186511993,-0.7089923024177551,-1.2921948432922363,-28.050464630126953,-23.807174682617188, 7.121883392333984
528,3902108708,0.5900919,0.13473608,-0.6729344,0.42520303,0.0521976575255394,-1.727590799331665,-0.40931007266044617,-22.88860511779785,-25.022586822509766, 4.719742298126221
529,3902125375,0.5878745,0.13222721,-0.6782174,0.420644,-1.0867019891738892,-2.2117531299591064,0.6514378786087036,-43.607540130615234,-25.901832580566406, 4.89862060546875
530,3902142042,0.58555186,0.12949742,-0.68415356,0.41508284,-1.350822925567627,-3.1289472579956055,0.22905921936035156,-50.99903106689453,-29.41533088684082, 2.726947069168091
531,3902158709,0.5821545,0.12889835,-0.68963677,0.41095385,-1.522621989250183,-2.781968832015991,0.5077303051948547,-33.46100997924805,-37.543861389160156, 1.052646517753601
532,3902175376,0.577705,0.13016199,-0.6950813,0.40764862,-1.2876471281051636,-1.2901321649551392,0.2900397479534149,-21.090513229370117,-47.00271224975586, -1.6261526346206665
533,3902192043,0.5721274,0.1319959,-0.70176876,0.40344563,-1.049688458442688,0.07599391788244247,0.6898372173309326,-25.624401092529297,-59.81545639038086, -3.6844542026519775
534,3902208710,0.5648525,0.13419668,-0.7101056,0.39835104,-0.9484270811080933,0.2524983882904053,1.2453545331954956,-31.55976104736328,-76.4097900390625, -2.7572224140167236
535,3902225377,0.55572504,0.13744588,-0.71896905,0.3941606,-0.6088659763336182,-0.08604265749454498,2.5568158626556396,-22.852258682250977,-89.63825988769531, 1.1981276273727417
536,3902242044,0.54468393,0.14244516,-0.7275374,0.39207017,1.0521633625030518,-0.557716429233551,1.1170374155044556,-3.2326438426971436,-100.86841583251953, 5.470268726348877
537,3902258711,0.53286296,0.14563091,-0.7369644,0.3895292,1.2419791221618652,-4.309555530548096,1.9714275598526,-13.865428924560547,-103.63114166259766, 15.793035507202148
538,3902275378,0.52254736,0.14709294,-0.74796784,0.38190678,2.500412702560425,1.0486394166946411,0.1575586348772049,-51.715999603271484,-102.36306762695312, 3.364351987838745
539,3902292045,0.5134578,0.14650348,-0.7612087,0.3680486,3.104228973388672,0.9494567513465881,1.2290996313095093,-98.2990951538086,-105.07856750488281, -9.36010456085205
540,3902308712,0.50389045,0.14513013,-0.7755878,0.35141996,2.9226372241973877,1.4489567279815674,0.7263547778129578,-118.00621795654297,-112.50239562988281, -12.585321426391602
541,3902325379,0.49301386,0.14580476,-0.78904706,0.3362798,4.544159889221191,2.773179292678833,2.180690050125122,-99.4662857055664,-119.84416961669922, -16.002798080444336
542,3902342046,0.48081085,0.1471299,-0.80271083,0.32067096,4.611183166503906,2.8610219955444336,1.5600110292434692,-98.9714126586914,-129.85682678222656, -17.704666137695312
543,3902358713,0.46717173,0.14922553,-0.8165572,0.304495,5.113448619842529,1.997960090637207,2.8017399311065674,-98.5110092163086,-140.79522705078125, -20.346776962280273
544,3902375380,0.45218334,0.15211393,-0.8301471,0.28852767,5.698535919189453,1.4481457471847534,3.8455982208251953,-92.88619995117188,-149.1726531982422, -21.46352195739746
545,3902392047,0.4361784,0.15391137,-0.84471834,0.2692793,5.791900157928467,1.9813958406448364,5.424761772155762,-115.91592407226562,-159.5177764892578, -22.312591552734375
546,3902408714,0.41864824,0.15559065,-0.8601526,0.24629961,5.928362846374512,1.6566250324249268,6.1629133224487305,-137.94650268554688,-174.97100830078125, -29.00213050842285
547,3902425381,0.39987808,0.1596947,-0.8751108,0.22085528,7.0134596824646,1.4399828910827637,8.289273262023926,-143.42758178710938,-187.97024536132812, -48.79658126831055
548,3902442048,0.380798,0.16466054,-0.8895277,0.19136626,8.79515266418457,-6.200765132904053,7.980752944946289,-164.2499237060547,-194.46307373046875, -65.2044906616211
549,3902458715,0.36115634,0.17140001,-0.9006151,0.17053246,11.851991653442383,-11.79038143157959,8.808544158935547,-101.75386810302734,-182.06643676757812, -56.57060241699219
550,3902475382,0.34045208,0.18163869,-0.90781003,0.16426016,9.31285572052002,-10.667647361755371,11.54803466796875,2.7045042514801025,-166.34451293945312, -45.654579162597656
551,3902492049,0.32236654,0.19447775,-0.9107605,0.16962999,5.678839683532715,-8.900001525878906,14.698400497436523,82.76156616210938,-128.88278198242188, -43.05876541137695
552,3902508716,0.3083816,0.19863686,-0.9150465,0.16773458,0.21385721862316132,-6.567904949188232,8.189132690429688,10.76818561553955,-106.13804626464844, -7.925824165344238
553,3902525383,0.2930505,0.20412336,-0.91845053,0.17001346,1.6386209726333618,-9.355388641357422,0.18673193454742432,42.55029296875,-108.6620101928711, -7.174129486083984
554,3902542050,0.2791526,0.21234971,-0.91612506,0.19415757,4.802983283996582,-6.427642822265625,13.085728645324707,190.6790008544922,-60.554039001464844, 9.790616035461426
555,3902558717,0.27306572,0.215215,-0.9135259,0.21116084,-1.3941195011138916,-0.05893504619598389,15.343626976013184,124.1709976196289,-14.391215324401855, 19.056644439697266
556,3902575384,0.2753019,0.21312897,-0.911728,0.21803138,-0.2964022159576416,-0.8715789318084717,12.09391975402832,37.67158126831055,28.415525436401367, 20.282649993896484
557,3902592051,0.28358516,0.21078661,-0.9080091,0.22509687,-1.274154782295227,0.8064199090003967,11.77404499053955,32.359046936035156,70.50907135009766, 10.37006950378418
558,3902608718,0.29714453,0.20638832,-0.90347725,0.22986601,-0.7916070222854614,1.2977557182312012,11.176648139953613,7.599463939666748,104.79784393310547, 9.37405776977539
559,3902625385,0.31515104,0.20027651,-0.89743465,0.23490655,-1.152908205986023,1.9465516805648804,9.550335884094238,1.8481781482696533,138.51300048828125, 11.382373809814453
560,3902642052,0.3373205,0.19372383,-0.88899297,0.24161607,-0.6472330689430237,2.265922784805298,8.382396697998047,9.347192764282227,172.3573455810547, 7.675313949584961
561,3902658719,0.3623027,0.18780014,-0.87741935,0.252198,0.006467878818511963,2.1380467414855957,7.180980205535889,35.9652099609375,200.8800506591797, 3.9705193042755127
562,3902675386,0.38916984,0.18187405,-0.8631057,0.2655523,0.5537204742431641,1.6254069805145264,6.202467441558838,55.03952407836914,222.61856079101562, 4.108686923980713
563,3902692053,0.4173233,0.17550725,-0.84562933,0.28275478,0.9017050266265869,0.30134421586990356,4.934798240661621,80.89156341552734,244.29920959472656, 10.754884719848633
564,3902708720,0.4464732,0.1686381,-0.824732,0.30338243,1.5910226106643677,-0.41279247403144836,3.7633655071258545,104.82721710205078,265.00958251953125, 17.465484619140625
565,3902725387,0.47677162,0.16202746,-0.7996474,0.32710978,2.799984931945801,-0.05102401599287987,2.409757614135742,130.61578369140625,287.4442443847656, 18.294795989990234
566,3902742054,0.5088303,0.15436178,-0.77109766,0.3502473,4.359851837158203,1.2046469449996948,1.9788215160369873,129.75820922851562,310.23455810546875, 14.400569915771484
567,3902758721,0.5425524,0.14544502,-0.739285,0.37140438,5.880716800689697,1.6263463497161865,-0.07027015089988708,120.98856353759766,331.41845703125, 6.730521202087402
568,3902775388,0.5775597,0.13506259,-0.70458394,0.3895449,8.522055625915527,1.5610746145248413,-1.7160115242004395,106.30271911621094,349.5500793457031, -3.14141583442688
569,3902792055,0.61285084,0.12351893,-0.6675408,0.40440944,10.361793518066406,0.17424511909484863,-3.546257495880127,91.85064697265625,360.44390869140625, -13.352313041687012
570,3902808722,0.64527035,0.109084606,-0.6326381,0.4141211,10.714516639709473,-3.800363302230835,-7.2639384269714355,52.52629852294922,342.0910339355469, -11.927152633666992
571,3902825389,0.6720312,0.09551693,-0.6003531,0.42287964,11.39048957824707,-6.86892557144165,-14.247612953186035,49.10955047607422,302.998779296875, -1.896302580833435
572,3902842056,0.6925109,0.08747487,-0.5689553,0.4348189,9.339083671569824,-4.7004570960998535,-16.493310928344727,89.5385513305664,259.5551452636719, 8.737272262573242
573,3902858723,0.7069975,0.0830546,-0.5445043,0.44359055,5.786715030670166,-2.485938310623169,-22.03956413269043,77.44226837158203,190.8980255126953, 1.5268797874450684
574,3902875390,0.7154205,0.07984907,-0.53040344,0.44773948,3.654831886291504,-3.7882912158966064,-26.65389633178711,38.198387145996094,112.24652099609375, -1.1264894008636475
575,3902892057,0.717141,0.07789768,-0.52845186,0.44763833,1.8270456790924072,-3.99210262298584,-27.327388763427734,-4.524414539337158,22.6389217376709, 0.6028023958206177
576,3902908724,0.7120183,0.07995345,-0.5370361,0.44523072,1.6778970956802368,-4.853298664093018,-24.999174118041992,-21.580739974975586,-66.99039459228516, 1.2620172500610352
577,3902925391,0.70051247,0.088584036,-0.5514725,0.44420063,2.3109214305877686,-5.6749138832092285,-20.001239776611328,1.5837076902389526,-137.9276123046875, 6.339575290679932
578,3902942058,0.6843231,0.10120127,-0.56795466,0.4459691,3.5821056365966797,-4.550533294677734,-14.576677322387695,28.237436294555664,-175.51519775390625, 20.065950393676758
579,3902958725,0.66664743,0.11445359,-0.58374906,0.449132,1.6451002359390259,-1.7778733968734741,-6.477726459503174,39.96243667602539,-178.71728515625, 28.06119155883789
580,3902975392,0.6494017,0.12876455,-0.5939756,0.4570458,8.652183532714844,2.078062057495117,21.378610610961914,80.77122497558594,-150.9246826171875, 39.76104736328125
581,3902992059,0.63299584,0.14604518,-0.6026946,0.46340802,10.15863037109375,11.918601036071777,-7.7933030128479,91.38768768310547,-152.14044189453125, 16.84222984313965
582,3903008726,0.61828464,0.15365066,-0.6204901,0.4572837,9.43297290802002,-1.525946021080017,-14.250730514526367,-33.16814041137695,-166.1298065185547, 6.673033237457275
583,3903025393,0.6021113,0.16353649,-0.6321082,0.45951903,1.8032249212265015,0.7803134918212891,-1.391216516494751,33.274932861328125,-144.0596160888672, 30.560575485229492
584,3903042060,0.5883188,0.16810606,-0.644105,0.45907596,3.0157663822174072,1.0778796672821045,-5.1844964027404785,-4.262962341308594,-121.5555419921875, 35.48424530029297
585,3903058727,0.57844436,0.17126301,-0.65335494,0.45738325,-0.04211726039648056,-1.3460372686386108,-1.7819201946258545,-11.345518112182617,-90.02095031738281, 21.186403274536133
586,3903075394,0.5707978,0.17416094,-0.6591746,0.45754513,0.8450929522514343,-2.56816029548645,-4.212364196777344,4.114673137664795,-63.42466735839844, 18.634096145629883
587,3903092061,0.5660157,0.17345382,-0.66506517,0.45522428,1.1754380464553833,-0.6565545797348022,-0.654236376285553,-24.913515090942383,-42.32692337036133, 16.244169235229492
588,3903108728,0.5631622,0.1703786,-0.6714719,0.45049506,0.9465738534927368,0.6621429920196533,-0.46078985929489136,-49.07906723022461,-31.05517578125, 12.306867599487305
589,3903125395,0.5615689,0.16391289,-0.6802121,0.4416847,0.9232820868492126,-0.3610821068286896,-1.9200278520584106,-89.78231811523438,-28.630834579467773, 11.070396423339844
590,3903142062,0.558213,0.161743,-0.6855468,0.43847883,0.08996174484491348,-1.7416915893554688,-2.4563100337982178,-34.66179656982422,-30.48782730102539, 14.178186416625977
591,3903158729,0.5540744,0.16321993,-0.68848014,0.43858498,-0.32553932070732117,-0.6610976457595825,-0.7605414390563965,3.057060718536377,-32.28816604614258, 9.353084564208984
592,3903175396,0.5499137,0.16480587,-0.6916331,0.4382675,-0.6414384245872498,-1.3792942762374878,-0.11681287735700607,0.8081033229827881,-34.09889602661133, 7.512678146362305
593,3903192063,0.5461789,0.16528036,-0.6961888,0.43553743,-1.2847644090652466,-2.1222636699676514,0.40586042404174805,-19.60387420654297,-36.84111022949219, 3.94585919380188
594,3903208730,0.5425417,0.16532409,-0.70140076,0.4316878,-1.3228203058242798,-2.5706288814544678,1.1995875835418701,-28.690967559814453,-38.90776443481445, 2.202806234359741
595,3903225397,0.53814346,0.1663804,-0.70653695,0.42839888,-0.41649821400642395,-1.895365834236145,0.35461926460266113,-21.16497039794922,-44.765777587890625, 1.5192240476608276
596,3903242064,0.5322608,0.16926846,-0.7116757,0.4261047,0.2933841645717621,-0.33800238370895386,0.4266802668571472,-7.901505470275879,-56.32181167602539, 0.6344017386436462
597,3903258731,0.52521527,0.17246954,-0.7178656,0.4231703,0.10257413983345032,0.8416283130645752,0.6658630967140198,-11.653048515319824,-67.59882354736328, 1.3935266733169556
598,3903275398,0.5168554,0.17579113,-0.72516894,0.41962922,-0.4332672357559204,0.9855971336364746,1.1001752614974976,-15.931900978088379,-79.25979614257812, 3.784817934036255
599,3903292065,0.50749195,0.1777165,-0.73422587,0.41446576,0.026804953813552856,-1.4633435010910034,3.147613525390625,-32.868282318115234,-88.51786041259766, 10.028592109680176
600,3903308732,0.49728185,0.1777328,-0.74488056,0.40776905,-1.3707209825515747,-4.028684139251709,1.559525489807129,-50.85062026977539,-94.94702911376953, 18.66242027282715
601,3903325399,0.487327,0.17788084,-0.7567744,0.39769858,1.4940447807312012,-1.4571127891540527,0.4906708896160126,-71.52470397949219,-102.45111083984375, 7.15556526184082
602,3903342066,0.4773961,0.17779593,-0.76958007,0.38500515,2.713733434677124,0.3795359432697296,1.0707409381866455,-88.51984405517578,-108.01789093017578, 0.6457341313362122
603,3903358733,0.46681428,0.17723493,-0.7835251,0.36981297,3.572312831878662,1.8614065647125244,0.9987634420394897,-105.56629943847656,-117.09064483642578, -1.8374111652374268
604,3903375400,0.45523244,0.1782241,-0.7973051,0.3539848,4.770952224731445,3.5460617542266846,0.4695020020008087,-102.4074935913086,-126.76556396484375, -9.759085655212402
605,3903392067,0.4431468,0.17919266,-0.8111734,0.33691162,5.494174480438232,4.241098880767822,1.5954447984695435,-108.89810943603516,-131.3856201171875, -12.031925201416016
606,3903408734,0.42963994,0.18079107,-0.82562757,0.31790596,5.608348369598389,3.6724064350128174,2.4406352043151855,-117.36042022705078,-145.094482421875, -17.229890823364258
607,3903425401,0.415008,0.18241769,-0.840454,0.29686725,6.278623580932617,2.679287910461426,4.3816657066345215,-128.23316955566406,-155.35740661621094, -20.313934326171875
608,3903442068,0.39891353,0.18361098,-0.8558395,0.27330363,7.487207889556885,1.464267611503601,6.276982307434082,-143.38479614257812,-167.94432067871094, -21.20423126220703
609,3903458735,0.3807022,0.18511638,-0.8712197,0.2485455,7.786586761474609,-0.10352350771427155,8.029765129089355,-146.90264892578125,-182.8118438720703, -22.266338348388672
610,3903475402,0.36101967,0.18871558,-0.8853878,0.22392133,8.1196870803833,-0.2621843218803406,8.938549041748047,-136.7244110107422,-192.23036193847656, -33.46550369262695
611,3903492069,0.3413428,0.19413283,-0.8988644,0.19452809,8.788453102111816,-6.395332336425781,7.7026824951171875,-160.2390594482422,-199.865234375, -57.28688430786133
612,3903508736,0.32113504,0.203162,-0.90801406,0.17637804,12.1396484375,-10.154095649719238,9.548919677734375,-75.88813781738281,-183.14944458007812, -58.42388153076172
613,3903525403,0.30111137,0.21497032,-0.91308373,0.1714601,8.750633239746094,-11.874519348144531,13.502108573913574,17.346006393432617,-158.32394409179688, -52.64783477783203
614,3903542070,0.28404284,0.22250842,-0.91643447,0.1730846,2.6474239826202393,-9.976175308227539,10.525944709777832,46.96150207519531,-121.94600677490234, -18.495437622070312
615,3903558737,0.26608613,0.2312835,-0.91921365,0.17536645,0.3914150297641754,-6.0173211097717285,3.790769100189209,55.32444763183594,-127.10594177246094, -24.959308624267578
616,3903575404,0.252077,0.23879123,-0.9193909,0.18481751,3.528151512145996,-7.6601643562316895,10.945521354675293,95.05673217773438,-84.47994232177734, -12.771675109863281
617,3903592071,0.24487133,0.24393918,-0.91675836,0.2002165,-0.23537009954452515,-2.0188558101654053,13.925813674926758,120.77023315429688,-24.063274383544922, -0.8382331728935242
618,3903608738,0.24704418,0.24332523,-0.91508335,0.2058778,0.005559444427490234,-2.025911569595337,12.619851112365723,32.54326248168945,24.874568939208984, 7.792461395263672
619,3903625405,0.25535813,0.24141109,-0.9113344,0.21443734,-1.8937711715698242,-1.4416491985321045,11.853008270263672,41.13930892944336,73.58658599853516, 8.707930564880371
620,3903642072,0.26922408,0.2376273,-0.9062688,0.22300096,-2.261929988861084,0.11628575623035431,11.141921997070312,30.53642463684082,113.37657928466797, 10.013960838317871
621,3903658739,0.28854236,0.23109272,-0.9001286,0.23045346,-1.7847349643707275,0.2798193395137787,9.211440086364746,11.227474212646484,151.68797302246094, 14.938088417053223
622,3903675406,0.31178173,0.22316898,-0.89215,0.23886621,-1.3484047651290894,0.9265667200088501,8.157679557800293,11.084526062011719,183.29527282714844, 16.250484466552734
623,3903692073,0.33773616,0.21430244,-0.8820682,0.24892852,-0.5526821613311768,0.9238817095756531,5.978788375854492,18.479778289794922,208.50433349609375, 17.842281341552734
624,3903708740,0.36558154,0.20437871,-0.86977375,0.26091018,0.46229982376098633,0.21697965264320374,4.470831871032715,28.690120697021484,229.73728942871094, 22.185344696044922
625,3903725407,0.3939319,0.19472821,-0.8545798,0.27675402,0.7997705936431885,0.6119879484176636,3.635458469390869,56.9934196472168,244.97361755371094, 25.255706787109375
626,3903742074,0.4228678,0.18461895,-0.8371667,0.29368585,1.7151188850402832,0.7235873937606812,2.043062210083008,65.61503601074219,256.7513732910156, 26.816797256469727
627,3903758741,0.45227665,0.17410883,-0.8169794,0.31253386,2.6008708477020264,0.5213000774383545,0.8278590440750122,80.52493286132812,270.8050231933594, 30.24590492248535
628,3903775408,0.48221675,0.1625054,-0.7943656,0.33172745,3.374150276184082,0.9698469638824463,0.4109017252922058,83.68680572509766,284.14178466796875, 33.452369689941406
629,3903792075,0.5125206,0.15044448,-0.76922125,0.35069734,4.276799201965332,1.5418976545333862,-0.8737385869026184,86.35445404052734,295.3620910644531, 31.609596252441406
630,3903808742,0.5433834,0.13757169,-0.74191034,0.36793792,5.358856201171875,1.4871156215667725,-2.1356709003448486,79.03958892822266,306.2095031738281, 26.299510955810547
631,3903825409,0.57401437,0.124131866,-0.7128269,0.3833767,6.630084037780762,0.26983633637428284,-4.607883930206299,72.48583221435547,311.5069580078125, 21.453033447265625
632,3903842076,0.6041097,0.1114031,-0.6816712,0.3974492,8.036865234375,0.6290999054908752,-6.01601505279541,74.5866470336914,314.2343444824219, 12.27879810333252
633,3903858743,0.63285255,0.097318076,-0.6514548,0.4069819,8.425880432128906,0.22084936499595642,-8.161338806152344,46.224822998046875,304.4732666015625, 4.272416591644287
634,3903875410,0.6588154,0.083035216,-0.6227026,0.41389555,8.57391357421875,-0.6839503049850464,-10.736884117126465,31.490327835083008,284.7834167480469, 2.5834875106811523
635,3903892077,0.68021613,0.071272254,-0.5964648,0.42006782,8.043572425842285,-1.4761604070663452,-13.69409465789795,35.312347412109375,246.67782592773438, 2.8969759941101074
636,3903908744,0.69609714,0.06366425,-0.574066,0.42643237,7.429678916931152,-1.9524494409561157,-17.419946670532227,47.32971954345703,194.67457580566406, 4.605987548828125
637,3903925411,0.70601064,0.061674308,-0.5568136,0.43324876,4.790079593658447,-2.0176262855529785,-21.564838409423828,63.744789123535156,130.81507873535156, 4.349559783935547
638,3903942078,0.70973176,0.06388411,-0.54772156,0.43840796,2.908897638320923,-0.5991722941398621,-23.26283073425293,56.376319885253906,54.95720672607422, 2.101292133331299
639,3903958745,0.7077332,0.06651223,-0.54986,0.4385711,2.2255361080169678,-1.318840503692627,-22.44865608215332,8.530323028564453,-24.165563583374023, -1.7048492431640625
640,3903975412,0.7003066,0.07175442,-0.560496,0.43619624,2.720606565475464,-3.026275634765625,-20.139636993408203,-11.230618476867676,-94.46366882324219, -3.7339768409729004
641,3903992079,0.68849933,0.07915984,-0.5765722,0.43274432,3.775047779083252,-4.696179389953613,-16.25756072998047,-18.885889053344727,-144.02662658691406, -1.526809573173523
642,3904008746,0.67334014,0.08831583,-0.59438473,0.4307211,4.137215614318848,-6.149153709411621,-12.814715385437012,-8.083986282348633,-169.5455322265625, 9.080453872680664
643,3904025413,0.656456,0.09842213,-0.6110112,0.43132886,3.8460586071014404,-3.474959373474121,-8.265029907226562,11.789225578308105,-172.01177978515625, 21.581003189086914
644,3904042080,0.6431943,0.1108063,-0.6167628,0.440031,8.521008491516113,1.7355214357376099,33.89848327636719,85.95675659179688,-108.83265686035156, 30.299150466918945
645,3904058747,0.6330032,0.115558535,-0.6261411,0.4403424,0.46330222487449646,15.74229907989502,0.9728330373764038,2.8515396118164062,-96.23922729492188, 19.181739807128906
646,3904075414,0.62239635,0.12095069,-0.63846004,0.43630645,11.540400505065918,-6.5703043937683105,-20.434890747070312,-21.809354782104492,-116.34352111816406, 1.5244214534759521
647,3904092081,0.6045606,0.14150833,-0.64074343,0.45158648,2.052769899368286,3.928341865539551,1.0294837951660156,164.27133178710938,-133.97158813476562, 30.796873092651367
648,3904108748,0.5938243,0.14297965,-0.65253997,0.4484662,-0.1293925940990448,5.438680171966553,-0.32758164405822754,-32.6497917175293,-100.993896484375, 25.66313934326172
649,3904125415,0.5818543,0.1484713,-0.66000694,0.45143476,2.938007116317749,-5.6101202964782715,-7.198493003845215,25.610628128051758,-95.35741424560547, 32.15998077392578
650,3904142082,0.5717457,0.15657492,-0.664403,0.4551493,1.348107933998108,2.1103458404541016,0.24130678176879883,47.16469192504883,-81.8327865600586, 14.200155258178711
651,3904158749,0.5655985,0.1568307,-0.6727925,0.45039254,-1.9391001462936401,-4.038346767425537,-0.7531471848487854,-39.1865348815918,-64.09605407714844, 8.708768844604492
652,3904175416,0.5613341,0.15599313,-0.68032086,0.44467366,0.04036882147192955,-1.1770070791244507,-0.3613317310810089,-47.26142120361328,-49.75428771972656, 3.148230791091919
653,3904192083,0.55867404,0.15190467,-0.68953174,0.43514952,0.3518403470516205,-0.07246580719947815,-0.8610829710960388,-84.50323486328125,-42.953006744384766, 0.5746198892593384
654,3904208750,0.5552,0.14948168,-0.6974607,0.42773533,0.07239826023578644,-1.6534523963928223,-1.2484182119369507,-63.441707611083984,-44.71836471557617, 1.9266599416732788
655,3904225417,0.54949075,0.15192455,-0.7021175,0.42662707,0.027069255709648132,-1.7272717952728271,-0.785685658454895,-2.7194788455963135,-50.813514709472656, 5.843827724456787
656,3904242084,0.54233956,0.15673192,-0.7051375,0.429051,-0.10599034279584885,-0.7647055983543396,0.3521549105644226,29.553863525390625,-54.8896369934082, 10.230937004089355
657,3904258751,0.5349432,0.16142754,-0.7084453,0.4311414,-0.0030005299486219883,-0.5732684135437012,-0.09765458106994629,26.904056549072266,-57.270057678222656, 10.51828384399414
658,3904275418,0.52788544,0.16559264,-0.7128512,0.4309987,0.0497075617313385,-0.5373717546463013,0.7093192934989929,10.417084693908691,-60.63445281982422, 5.074410438537598
659,3904292085,0.5214218,0.16769917,-0.7194171,0.42712554,-0.37571653723716736,-0.9122456312179565,0.6333341598510742,-22.454761505126953,-63.79767608642578, 2.3095149993896484
660,3904308752,0.51461065,0.16947776,-0.7268525,0.42206576,-0.18019109964370728,-0.33811455965042114,0.3470118045806885,-31.691316604614258,-69.11910247802734, 1.6827309131622314
661,3904325419,0.5067173,0.17175572,-0.7345897,0.41727245,-0.09404246509075165,0.6418524384498596,0.1665625125169754,-28.244173049926758,-76.80376434326172, 3.623955726623535
662,3904342086,0.4972836,0.17506437,-0.7426505,0.41295588,-0.2819940745830536,1.4478439092636108,0.755285382270813,-21.384828567504883,-88.171630859375, 4.90642786026001
663,3904358753,0.48662657,0.17829183,-0.7518571,0.40757647,-0.14667625725269318,0.8269214034080505,1.0062977075576782,-28.90259552001953,-99.46703338623047, 6.582784652709961
664,3904375420,0.475483,0.17914076,-0.7628794,0.3998003,1.0135085582733154,-2.5028343200683594,2.599079132080078,-53.776920318603516,-104.41968536376953, 14.481486320495605
665,3904392087,0.4640675,0.17927761,-0.77500874,0.38969663,0.031297218054533005,-1.3675706386566162,0.8666654825210571,-71.09298706054688,-110.51306915283203, 12.684117317199707
666,3904408754,0.4535064,0.17887601,-0.7892938,0.37329787,2.897397041320801,-0.012157772667706013,1.4107279777526855,-113.23599243164062,-119.23018646240234, -4.1720404624938965
667,3904425421,0.44149128,0.17913409,-0.8038693,0.3560778,3.024057149887085,-0.4307042956352234,1.249686360359192,-114.63567352294922,-130.84735107421875, -6.151648998260498
668,3904442088,0.4277443,0.18021634,-0.81815684,0.3393773,4.160160064697266,1.092389702796936,1.1404242515563965,-106.46968841552734,-141.03424072265625, -5.186117649078369
669,3904458755,0.4140514,0.18111196,-0.83178806,0.32231864,5.196475505828857,3.3078880310058594,1.5361052751541138,-107.59125518798828,-138.93353271484375, -6.026095390319824
670,3904475422,0.39945897,0.18226936,-0.8458903,0.3027884,5.354240417480469,3.9131052494049072,2.525752544403076,-120.89667510986328,-149.24301147460938, -11.819522857666016
671,3904492089,0.3831785,0.18371923,-0.86067003,0.28048107,5.881626129150391,2.089810848236084,4.18691873550415,-135.5248260498047,-165.2149658203125, -16.62468147277832
672,3904508756,0.36344907,0.18703903,-0.87511444,0.25902975,6.488051414489746,0.6110672950744629,5.402824401855469,-120.53938293457031,-187.52426147460938, -19.107986450195312
673,3904525423,0.3419612,0.19267058,-0.88764775,0.24087986,8.084118843078613,0.17887428402900696,8.556134223937988,-89.25498962402344,-193.49118041992188, -24.048599243164062
674,3904542090,0.32205805,0.19857384,-0.8984782,0.22267595,8.59445571899414,-0.24786275625228882,7.296347141265869,-88.2795639038086,-180.7291717529297, -30.6776065826416
675,3904558757,0.30163038,0.20457955,-0.9095467,0.19973001,8.726574897766113,-4.024147987365723,4.248126983642578,-117.03836822509766,-191.50611877441406, -40.67555236816406
676,3904575424,0.28049847,0.21135798,-0.9188053,0.18012765,11.159433364868164,-6.718792915344238,11.93702507019043,-91.12897491455078,-188.80320739746094, -40.2307014465332
677,3904592091,0.26332566,0.21780585,-0.92573136,0.16199544,8.417276382446289,-9.941695213317871,15.377678871154785,-85.53034210205078,-157.24862670898438, -43.72125244140625
678,3904608758,0.24896723,0.22360186,-0.92964125,0.15422611,6.49387264251709,-11.70995807647705,15.522007942199707,-21.881948471069336,-118.09972381591797, -28.643001556396484
679,3904625425,0.23626247,0.22748749,-0.9329455,0.14847006,1.5003550052642822,-8.9486665725708,3.092205286026001,-14.510696411132812,-101.77259063720703, -15.86075496673584
680,3904642092,0.22143415,0.2344298,-0.9337264,0.15545237,1.868395447731018,-7.623715400695801,2.450974464416504,77.86149597167969,-94.5086669921875, -16.6564884185791
681,3904658759,0.21338701,0.23936747,-0.9320899,0.16845912,1.7600281238555908,-2.087949752807617,13.826108932495117,104.97389221191406,-35.458473205566406, -5.791038513183594
682,3904675426,0.21374935,0.24178658,-0.93001837,0.17583255,-1.4601770639419556,0.21027345955371857,11.93035888671875,51.75308609008789,12.51768970489502, -8.336955070495605
683,3904692093,0.22145635,0.23982514,-0.928548,0.17674997,0.006039783358573914,-3.75256609916687,7.963445663452148,-8.926835060119629,53.09858322143555, 2.3045966625213623
684,3904708760,0.23178768,0.23858562,-0.92409503,0.18814981,-1.3885258436203003,-2.0209524631500244,7.889658451080322,58.293426513671875,90.76326751708984, 5.481733322143555
685,3904725427,0.24599294,0.23650573,-0.9183913,0.20027733,-1.5206773281097412,0.30361753702163696,8.022892951965332,56.79172897338867,119.64803314208984, 4.882229804992676
686,3904742094,0.26411012,0.23269175,-0.9118957,0.21106279,-1.7059245109558105,-0.021271944046020508,7.005730628967285,40.11663055419922,145.8851776123047, 6.87780237197876
687,3904758761,0.2844819,0.22888424,-0.9034023,0.22482689,-1.6974549293518066,0.16091690957546234,6.901496887207031,58.102745056152344,168.41221618652344, 5.749606132507324
688,3904775428,0.30698174,0.22413646,-0.89314127,0.24046741,-1.0656037330627441,0.6815653443336487,5.138949394226074,67.31035614013672,189.49270629882812, 9.17228889465332
689,3904792095,0.33086872,0.21926521,-0.8804306,0.2594055,-0.7786186337471008,1.0139111280441284,3.5829527378082275,89.24788665771484,208.4763641357422, 10.825285911560059
690,3904808762,0.35583636,0.21438313,-0.865192,0.2808271,-0.8581234216690063,1.2519288063049316,3.0054140090942383,107.18576049804688,224.5644989013672, 10.831449508666992
691,3904825429,0.38241932,0.20812586,-0.84793305,0.3024063,-0.2996666133403778,1.0086023807525635,2.0525834560394287,106.32759094238281,242.04696655273438, 13.337555885314941
692,3904842096,0.41056255,0.20015876,-0.8282759,0.32455283,0.31625837087631226,0.6418187618255615,0.9640130996704102,107.93790435791016,261.87603759765625, 18.15798568725586
693,3904858763,0.44017342,0.19060765,-0.80660313,0.34541,1.2033116817474365,0.6408113837242126,-0.04548065736889839,98.64762878417969,277.7552185058594, 17.51092529296875
