PacketCounter,SampleTimeFine,Quat_W,Quat_X,Quat_Y,Quat_Z,Acc_X,Acc_Y,Acc_Z,Gyr_X,Gyr_Y,Gyr_Z 
1,2880459269,0.58837664,0.3189792,-0.23403078,0.70519143,0.18306057155132294,-0.06311944872140884,-0.01934286206960678,-0.08464020490646362,0.673538863658905, -0.11441391706466675
2,2880475936,0.5886514,0.31706083,-0.23336224,0.70604825,11.212854385375977,0.8059245347976685,10.786005020141602,1.1567015647888184,3.387747287750244, 0.4882100820541382
3,2880492603,0.5890595,0.31653196,-0.23171586,0.70648736,11.010098457336426,0.6662803292274475,10.856363296508789,0.008279305882751942,3.6035211086273193, 0.9368934035301208
4,2880509270,0.58952284,0.31491828,-0.23019357,0.7073192,11.016865730285645,0.6993082761764526,10.76734447479248,0.2687220573425293,3.5444071292877197, 0.7882372140884399
5,2880525937,0.58998406,0.31377545,-0.22919062,0.707768,11.013689994812012,0.9091107249259949,10.86443042755127,1.28878653049469,3.530743360519409, 0.8168596029281616
6,2880542604,0.5904445,0.31322226,-0.22800775,0.7080113,11.114598274230957,0.6718753576278687,10.91760540008545,0.15361855924129486,3.0118420124053955, 1.122239589691162
7,2880559271,0.5905982,0.3127131,-0.22739123,0.7083061,10.931954383850098,0.7279037833213806,10.823225021362305,0.2355663925409317,2.648308277130127, 1.1517198085784912
8,2880575938,0.5908293,0.31218252,-0.22708161,0.7084468,11.119026184082031,0.843697190284729,10.846572875976562,-0.45463821291923523,2.178212881088257, 1.2174420356750488
9,2880592605,0.5909417,0.31199443,-0.22677737,0.7085334,10.84815502166748,0.5771090388298035,10.753352165222168,-0.039917394518852234,1.997233510017395, 0.9877089858055115
10,2880609272,0.5908478,0.31179032,-0.22649284,0.7087926,10.909536361694336,0.760349690914154,10.650571823120117,1.087342381477356,2.0447964668273926, 0.9279545545578003
11,2880625939,0.5908432,0.31143066,-0.22649916,0.70895255,11.062565803527832,0.6943057775497437,10.791587829589844,-0.9110181927680969,2.4163472652435303, 1.7486753463745117
12,2880642606,0.5909014,0.31119874,-0.22643428,0.70902646,11.181565284729004,0.64393550157547,10.856785774230957,0.10792551934719086,2.5413241386413574, 0.8554065823554993
13,2880659273,0.5908699,0.31101012,-0.22634888,0.70916283,11.252365112304688,0.5473867654800415,10.814652442932129,0.5117865800857544,2.8503668308258057, 0.7983798980712891
14,2880675940,0.5908138,0.31081867,-0.22638153,0.7092831,11.071377754211426,0.4693613052368164,10.83077335357666,0.16218601167201996,2.8589468002319336, 0.5716177821159363
15,2880692607,0.5907679,0.3106476,-0.22633152,0.70941216,10.801933288574219,0.7473220229148865,10.560805320739746,1.064815878868103,3.0352773666381836, 0.04107636585831642
16,2880709274,0.5907115,0.3104942,-0.22617869,0.70957494,11.176487922668457,0.9679248332977295,10.85782527923584,1.4631575345993042,3.347919225692749, 0.41199952363967896
17,2880725941,0.59071666,0.31043184,-0.22602679,0.70964646,11.062028884887695,0.816351592540741,10.86412239074707,1.063804268836975,2.8640055656433105, 0.2340296506881714
18,2880742608,0.5907357,0.31043532,-0.2258087,0.7096984,11.068438529968262,0.9733613729476929,10.771854400634766,1.5800412893295288,2.6570680141448975, 0.18057595193386078
19,2880759275,0.59078544,0.3103613,-0.22573541,0.7097127,10.975993156433105,0.9751843810081482,10.635896682739258,-0.02229585312306881,2.417076826095581, 0.48917052149772644
20,2880775942,0.5908353,0.31029728,-0.2255775,0.7097492,10.982230186462402,0.9248495697975159,10.633556365966797,0.14323262870311737,2.7973742485046387, 0.5239270329475403
21,2880792609,0.59084666,0.31040117,-0.22516564,0.70982534,11.143099784851074,1.184508204460144,10.7767915725708,2.1157946586608887,3.066819906234741, 0.20031052827835083
22,2880809276,0.59083766,0.31052986,-0.22482069,0.7098857,11.164306640625,1.1068034172058105,10.788780212402344,1.2453727722167969,2.614691734313965, 0.2648289203643799
23,2880825943,0.59088695,0.3106615,-0.22450268,0.7098878,11.1185302734375,1.2620521783828735,10.866043090820312,1.029304027557373,2.496258497238159, 0.19708330929279327
24,2880842610,0.5909996,0.31075636,-0.2242139,0.7098437,11.21152400970459,1.2951030731201172,10.847410202026367,0.6164143681526184,2.49259614944458, 0.3182826042175293
25,2880859277,0.5910644,0.3109202,-0.22378938,0.7098521,10.992582321166992,1.0283803939819336,10.654789924621582,1.2423759698867798,2.72568416595459, 0.19817185401916504
26,2880875944,0.5911179,0.31102318,-0.22331578,0.7099115,11.033666610717773,1.3926808834075928,10.615671157836914,1.3216217756271362,3.2897145748138428, 0.3486080467700958
27,2880892611,0.59120536,0.31106582,-0.22288857,0.7099544,11.22116756439209,1.5264214277267456,10.939687728881836,0.7008211612701416,3.445427179336548, 0.5711056590080261
28,2880909278,0.5912933,0.3111514,-0.2224333,0.7099864,11.136713981628418,1.1052830219268799,10.842612266540527,0.630206823348999,3.2597856521606445, 0.3776400089263916
29,2880925945,0.5914061,0.3112646,-0.22197515,0.70998627,11.06141471862793,1.3252606391906738,10.703984260559082,0.8380025625228882,3.073939800262451, 0.10924456268548965
30,2880942612,0.59155196,0.3113224,-0.22154649,0.7099732,11.11441421508789,1.3964847326278687,10.792085647583008,0.70304936170578,3.268378734588623, 0.4276232123374939
31,2880959279,0.59168345,0.31119338,-0.2211712,0.7100372,11.12235164642334,1.324478268623352,10.804098129272461,0.4230513274669647,3.488917112350464, 0.519841730594635
32,2880975946,0.5917235,0.31102648,-0.2207841,0.71019757,11.094779014587402,1.5405970811843872,10.80159854888916,1.0686193704605103,3.143631935119629, 0.3731449842453003
33,2880992613,0.59175473,0.31073502,-0.22051111,0.7103839,11.237972259521484,1.4552650451660156,10.876385688781738,0.4922184348106384,3.1259467601776123, 0.91019207239151
34,2881009280,0.59184295,0.31035915,-0.22040972,0.7105061,11.10224723815918,1.2953054904937744,10.724957466125488,-0.6099920272827148,2.7436001300811768, 1.0017319917678833
35,2881025947,0.59184664,0.31002447,-0.22020523,0.7107125,11.14176082611084,1.3662549257278442,10.807413101196289,0.02593926526606083,2.963408946990967, 1.0623443126678467
36,2881042614,0.59181374,0.30963403,-0.21999261,0.7109759,11.258657455444336,1.2397171258926392,10.714634895324707,0.10239316523075104,3.332974433898926, 1.6205092668533325
37,2881059281,0.59186906,0.30919936,-0.21975243,0.71119314,11.275163650512695,1.2966328859329224,10.823073387145996,0.10454465448856354,3.7199058532714844, 1.3085979223251343
38,2881075948,0.5918719,0.3087405,-0.21948914,0.7114713,11.15280818939209,1.153897762298584,10.967204093933105,0.06250138580799103,3.9608821868896484, 1.531517744064331
39,2881092615,0.5918627,0.30826262,-0.2192208,0.711769,11.258054733276367,1.3359991312026978,10.803473472595215,0.0979749858379364,4.096027851104736, 1.7174277305603027
40,2881109282,0.59184206,0.3077329,-0.21898168,0.712089,11.169200897216797,1.1307355165481567,10.881126403808594,-0.1921849101781845,4.263740062713623, 2.013613224029541
41,2881125949,0.5918065,0.3072862,-0.2186929,0.7124001,11.093918800354004,1.2879794836044312,10.988312721252441,0.6133025288581848,4.03289270401001, 2.0299155712127686
42,2881142616,0.5917671,0.3067974,-0.21859036,0.71267474,11.09576416015625,1.4521751403808594,10.902650833129883,-0.6689140796661377,3.3850061893463135, 2.203786849975586
43,2881159283,0.59165716,0.30632234,-0.2185757,0.7129748,11.194445610046387,1.333059310913086,11.026471138000488,-0.8166353106498718,2.9107744693756104, 2.8649535179138184
44,2881175950,0.5916172,0.30587485,-0.2186001,0.7131927,11.144462585449219,1.2035882472991943,10.899872779846191,-1.0132384300231934,2.5605082511901855, 2.389479398727417
45,2881192617,0.59151417,0.3055139,-0.21855178,0.7134476,11.269698143005371,1.3071712255477905,10.861144065856934,-0.2682289779186249,2.4048595428466797, 2.407741069793701
46,2881209284,0.59145623,0.30504555,-0.21859187,0.7136837,11.165010452270508,1.1103519201278687,10.902249336242676,-1.1556322574615479,2.6117465496063232, 2.569779872894287
47,2881225951,0.5913996,0.30462688,-0.21855268,0.7139215,11.177973747253418,1.1244220733642578,10.857760429382324,-0.385957807302475,2.7083449363708496, 2.5130221843719482
48,2881242618,0.59135556,0.30425918,-0.2184411,0.7141488,11.262959480285645,1.3971792459487915,10.866175651550293,0.13972368836402893,2.75114369392395, 2.1857175827026367
49,2881259285,0.5913229,0.30375558,-0.21840595,0.71440095,11.16399097442627,1.1781913042068481,10.884407997131348,-0.8219242691993713,3.175750494003296, 2.5534770488739014
50,2881275952,0.59131837,0.3031652,-0.21835613,0.71467084,11.167486190795898,1.130986213684082,10.83808422088623,-1.0627607107162476,3.745697498321533, 2.6632277965545654
51,2881292619,0.5912912,0.30260488,-0.21815065,0.7149933,11.169078826904297,1.1490914821624756,10.852871894836426,-0.05387631058692932,4.307447910308838, 2.6147942543029785
52,2881309286,0.5912848,0.30204487,-0.21800256,0.7152805,11.164836883544922,1.0470348596572876,10.902961730957031,-0.3589235842227936,4.036414623260498, 2.5660276412963867
53,2881325953,0.59128374,0.30151278,-0.21790218,0.71553653,11.106147766113281,1.3809748888015747,10.971456527709961,-0.4379771947860718,3.655579090118408, 2.575965642929077
54,2881342620,0.5912045,0.30094305,-0.21781807,0.7158672,11.215425491333008,1.1239230632781982,11.074311256408691,-0.5082072019577026,3.8041326999664307, 3.2462241649627686
55,2881359287,0.591155,0.30042884,-0.21771757,0.7161547,11.23313045501709,1.234377145767212,10.900768280029297,-0.36929675936698914,3.5493125915527344, 2.764193296432495
56,2881375954,0.5911555,0.29979613,-0.21777092,0.71640307,11.038342475891113,1.04594886302948,10.832612991333008,-1.5846577882766724,3.516181707382202, 3.056433916091919
57,2881392621,0.5911012,0.29928586,-0.21761951,0.7167072,11.08950138092041,1.1869341135025024,11.056868553161621,-0.0350894033908844,3.769286870956421, 2.784696102142334
58,2881409288,0.5910567,0.2987919,-0.21745448,0.7170002,11.205140113830566,1.1054153442382812,11.040186882019043,0.11791448295116425,3.738372564315796, 2.703606367111206
59,2881425955,0.5910425,0.2982835,-0.21735802,0.7172526,11.183756828308105,1.1552245616912842,10.916007995605469,-0.3283292353153229,3.499008893966675, 2.632979154586792
60,2881442622,0.5910434,0.29776913,-0.21732815,0.71747464,11.151188850402832,1.0980204343795776,10.918824195861816,-0.7208437919616699,3.222301721572876, 2.6238224506378174
61,2881459289,0.5910313,0.29727504,-0.21724477,0.7177146,11.095641136169434,1.089387059211731,10.960848808288574,-0.3637515902519226,3.354809284210205, 2.575594186782837
62,2881475956,0.5910307,0.2967595,-0.21715316,0.7179562,11.074568748474121,1.07025945186615,10.903521537780762,-0.3466039001941681,3.516207218170166, 2.630059242248535
63,2881492623,0.59100837,0.2962269,-0.21709222,0.7182131,11.13967514038086,1.216840386390686,10.949895858764648,-0.4569946825504303,3.4743566513061523, 2.933711051940918
64,2881509290,0.5910062,0.29570955,-0.21704374,0.71844244,10.982421875,1.1124885082244873,10.92438793182373,-0.6815411448478699,3.3133935928344727, 2.5727124214172363
65,2881525957,0.5909808,0.2951546,-0.21696287,0.7187159,11.255566596984863,0.9839940667152405,10.989520072937012,-0.4808400869369507,3.687941074371338, 2.945390462875366
66,2881542624,0.59098893,0.294632,-0.21693951,0.7189307,11.137694358825684,1.0816614627838135,10.995892524719238,-0.656952977180481,3.2332897186279297, 2.7531538009643555
67,2881559291,0.59097326,0.29411614,-0.21688215,0.7191721,11.173310279846191,1.0370986461639404,11.026716232299805,-0.4919687807559967,3.349468946456909, 2.7725939750671387
68,2881575958,0.59098667,0.29357204,-0.2168192,0.71940255,11.296486854553223,0.9701683521270752,11.037184715270996,-0.6290863752365112,3.534341335296631, 2.6446330547332764
69,2881592625,0.59099364,0.29307863,-0.216729,0.71962494,11.111584663391113,0.9097370505332947,10.878862380981445,-0.19548892974853516,3.374556541442871, 2.6150505542755127
70,2881609292,0.59099066,0.29252383,-0.21662432,0.71988493,11.207245826721191,1.0953834056854248,10.949470520019531,-0.36637693643569946,3.7956552505493164, 2.804123640060425
71,2881625959,0.5909572,0.29190686,-0.21657027,0.7201788,11.270977020263672,0.9061696529388428,10.9699068069458,-0.7573676109313965,3.9220666885375977, 3.2929673194885254
72,2881642626,0.59093297,0.2913542,-0.21655424,0.72042745,11.122636795043945,0.9855318665504456,11.000226974487305,-0.6686068773269653,3.378693103790283, 3.158616065979004
73,2881659293,0.59092927,0.29080254,-0.21655513,0.7206529,11.216474533081055,1.1693682670593262,11.044784545898438,-0.8686034083366394,3.2865257263183594, 2.949180841445923
74,2881675960,0.5908472,0.29025227,-0.21661545,0.72092366,11.214577674865723,0.6531729102134705,10.963486671447754,-1.0404263734817505,3.008704900741577, 3.5256078243255615
75,2881692627,0.5908342,0.28970057,-0.21674235,0.7211181,11.1324462890625,0.8959593176841736,10.88044548034668,-1.4686323404312134,2.7036960124969482, 3.182384490966797
76,2881709294,0.590792,0.28922525,-0.21672907,0.7213475,11.22777271270752,0.9853036403656006,11.0352783203125,-0.446967214345932,2.918611764907837, 2.9730515480041504
77,2881725961,0.5907265,0.28875056,-0.2167178,0.7215946,11.233572959899902,0.8581477999687195,11.009462356567383,-0.4093165993690491,2.9076626300811768, 3.1375365257263184
78,2881742628,0.5907475,0.28821978,-0.2167393,0.7217831,11.184666633605957,0.8157998323440552,10.941933631896973,-0.9692485928535461,3.070225954055786, 2.7229690551757812
79,2881759295,0.5907548,0.28772146,-0.21671428,0.7219835,11.13115119934082,0.9436792135238647,10.899209976196289,-0.5736731886863708,3.102677583694458, 2.6866250038146973
80,2881775962,0.59072524,0.28724656,-0.21661016,0.722228,11.175164222717285,0.7925923466682434,11.01883316040039,0.008151241578161716,3.3404273986816406, 2.8120501041412354
81,2881792629,0.59068906,0.2867566,-0.21655117,0.7224699,11.312498092651367,0.9303119778633118,11.061138153076172,-0.21455757319927216,3.2196762561798096, 3.0083842277526855
82,2881809296,0.59066015,0.28626478,-0.21660933,0.7226713,11.25893783569336,0.8670544028282166,11.03342056274414,-0.8672844171524048,2.6868555545806885, 3.0604422092437744
83,2881825963,0.5906607,0.2857745,-0.21668616,0.72284186,11.223443031311035,0.8718209862709045,10.90569019317627,-0.9195345044136047,2.592280626296997, 2.9869723320007324
84,2881842630,0.5905372,0.2852813,-0.21667776,0.72313976,11.06440544128418,0.8678098320960999,10.866474151611328,-0.8794376254081726,3.002775192260742, 3.028221607208252
85,2881859297,0.59053236,0.28471008,-0.21673071,0.723353,11.153604507446289,0.9017948508262634,10.776601791381836,-1.132516860961914,3.169847011566162, 3.1807069778442383
86,2881875964,0.5905513,0.2841637,-0.21673097,0.72355235,11.209912300109863,0.9676292538642883,10.976887702941895,-0.6642270684242249,3.2748467922210693, 3.073082685470581
87,2881892631,0.59053946,0.28363338,-0.21674109,0.7237671,11.315671920776367,0.7732617855072021,10.991911888122559,-0.7172707915306091,3.138932466506958, 3.1145875453948975
88,2881909298,0.5904674,0.28312072,-0.21677412,0.7240165,11.1777925491333,0.7214385271072388,10.906624794006348,-1.3088985681533813,2.9293437004089355, 2.729283094406128
89,2881925965,0.59040415,0.2826612,-0.21666844,0.72427934,11.186327934265137,0.7634374499320984,10.845670700073242,-0.3991739749908447,3.271209955215454, 2.391477346420288
90,2881942632,0.5903313,0.28221327,-0.21656437,0.72454435,11.199809074401855,0.746962308883667,10.848724365234375,-0.3392530679702759,3.2016713619232178, 2.4334821701049805
91,2881959299,0.59028053,0.2817947,-0.21647266,0.7247761,10.999335289001465,0.9253288507461548,10.890677452087402,-0.3736508786678314,2.9758694171905518, 2.1691973209381104
92,2881975966,0.5902206,0.28136238,-0.21644558,0.7250009,11.214922904968262,0.9292815923690796,10.955819129943848,-0.7455089092254639,2.751310110092163, 2.3336822986602783
93,2881992633,0.5900907,0.28097695,-0.21639821,0.7252703,11.22001838684082,0.7271286845207214,10.891213417053223,-0.25304070115089417,2.580293893814087, 2.755049467086792
94,2882009300,0.59001327,0.28055078,-0.21639451,0.7254992,11.148421287536621,0.9059235453605652,10.810519218444824,-0.7955689430236816,2.6050868034362793, 2.4726054668426514
95,2882025967,0.5900923,0.2800553,-0.21644053,0.7256126,11.148009300231934,0.780034065246582,10.872328758239746,-0.6459267735481262,2.7594680786132812, 2.813331365585327
96,2882042634,0.58998364,0.27953243,-0.21645786,0.72589743,11.190481185913086,0.7009066343307495,10.785112380981445,-1.1330674886703491,3.0626068115234375, 3.058547258377075
97,2882059301,0.58989316,0.27908686,-0.21639428,0.72616136,11.220317840576172,0.8606125116348267,10.888054847717285,-0.48059678077697754,2.993427038192749, 2.611452102661133
98,2882075968,0.58976644,0.2787011,-0.21621808,0.7264648,11.386626243591309,0.7651326060295105,10.938791275024414,0.4513789713382721,3.174380302429199, 2.648935556411743
99,2882092635,0.58969826,0.27820584,-0.21618554,0.72671956,11.24425220489502,0.6179839372634888,10.76207447052002,-0.8950357437133789,3.1355769634246826, 2.5961220264434814
100,2882109302,0.5896432,0.2777092,-0.2160632,0.7269906,11.20382022857666,0.8260762691497803,10.875553131103516,-0.4514878988265991,3.5610556602478027, 2.426527976989746
101,2882125969,0.58955884,0.27728817,-0.21587345,0.7272761,11.104631423950195,0.7275639176368713,10.847031593322754,0.2676975429058075,3.4415719509124756, 2.391566514968872
102,2882142636,0.5894745,0.27679443,-0.21588522,0.7275289,11.121110916137695,0.6459251046180725,10.657999038696289,-1.083353042602539,2.927806854248047, 2.751821994781494
103,2882159303,0.58939356,0.27631193,-0.2158608,0.727785,11.191490173339844,0.9627580642700195,10.779995918273926,-0.858550488948822,3.033548593521118, 2.6618828773498535
104,2882175970,0.5892956,0.27582484,-0.21588197,0.7280427,11.127423286437988,0.4745631217956543,10.633772850036621,-1.0744526386260986,2.8534533977508545, 2.8505845069885254
105,2882192637,0.58919567,0.2754098,-0.21582931,0.7282964,11.07502269744873,0.756917417049408,10.694601058959961,-0.4129280149936676,2.7864506244659424, 2.59525203704834
106,2882209304,0.58905387,0.27498597,-0.2156999,0.7286097,11.187544822692871,0.8153384923934937,10.800984382629395,0.10202179849147797,3.1953189373016357, 2.9157819747924805
107,2882225971,0.58894557,0.27458134,-0.21561122,0.72887594,11.300274848937988,0.5300346612930298,10.671649932861328,-0.16019465029239655,2.8987109661102295, 2.6080965995788574
108,2882242638,0.58887994,0.27411565,-0.21565223,0.7290921,11.03147029876709,0.6545348763465881,10.660669326782227,-1.2109942436218262,2.6553969383239746, 2.525297164916992
109,2882259305,0.588792,0.27369958,-0.21556622,0.7293447,11.095212936401367,0.9488042593002319,10.682766914367676,-0.2783844470977783,2.9601686000823975, 2.4732587337493896
110,2882275972,0.58871573,0.27321205,-0.21554545,0.72959524,11.191012382507324,0.6736698746681213,10.652107238769531,-0.9243878722190857,3.071686267852783, 2.6391773223876953
111,2882292639,0.58862007,0.27274448,-0.21553417,0.7298506,10.956745147705078,0.7568737268447876,10.61500072479248,-0.8491249680519104,2.920135736465454, 2.744483709335327
112,2882309306,0.5885483,0.27224305,-0.21557121,0.7300847,11.046048164367676,0.7986814379692078,10.492225646972656,-1.3069392442703247,2.8937292098999023, 2.6820144653320312
113,2882325973,0.58844036,0.27171716,-0.21562979,0.73035043,11.070334434509277,0.6432837843894958,10.599058151245117,-1.4026411771774292,2.9412667751312256, 3.0697524547576904
114,2882342640,0.58831686,0.27127287,-0.2155904,0.73062664,11.131147384643555,0.6411011815071106,10.642291069030762,-0.5365859866142273,2.9299967288970947, 2.887389898300171
115,2882359307,0.5882175,0.2709028,-0.21552463,0.7308634,11.003840446472168,0.673359751701355,10.582841873168945,-0.20784707367420197,2.632486343383789, 2.4487152099609375
116,2882375974,0.58813727,0.27043572,-0.21560965,0.73107576,10.945210456848145,0.644468367099762,10.479814529418945,-1.4316989183425903,2.4982950687408447, 2.6799020767211914
117,2882392641,0.58806235,0.2699804,-0.21562457,0.7312998,11.1202974319458,0.7187684178352356,10.608434677124023,-1.0257631540298462,2.7582640647888184, 2.553682565689087
118,2882409308,0.5879462,0.2695798,-0.21556623,0.7315582,11.104818344116211,0.6413413882255554,10.61981201171875,-0.31165534257888794,2.788909435272217, 2.6848578453063965
119,2882425975,0.58787966,0.26918793,-0.21558599,0.73175,11.036994934082031,0.7320668697357178,10.44559383392334,-0.8613807559013367,2.386251926422119, 2.2994375228881836
120,2882442642,0.5878093,0.2686827,-0.21567978,0.7319645,10.95462417602539,0.7011215090751648,10.423650741577148,-1.6544907093048096,2.7019925117492676, 2.718205213546753
121,2882459309,0.5877284,0.26814565,-0.21572751,0.7322126,11.111982345581055,0.5654332041740417,10.503286361694336,-1.483769178390503,3.098822593688965, 2.8708183765411377
122,2882475976,0.58765155,0.2677262,-0.21560863,0.73246264,11.1025972366333,0.5570353269577026,10.359344482421875,-0.1732187420129776,3.191695213317871, 2.3751492500305176
123,2882492643,0.58754504,0.26722044,-0.21555707,0.7327478,11.202834129333496,0.6682791113853455,10.600449562072754,-0.7527060508728027,3.3764395713806152, 2.917280435562134
124,2882509310,0.58749723,0.26666036,-0.21565774,0.7329606,11.057884216308594,0.3935454487800598,10.574786186218262,-1.9541850090026855,2.9882915019989014, 2.6891989707946777
125,2882525977,0.58740914,0.26621154,-0.2156767,0.73318875,10.999345779418945,0.5013532638549805,10.438029289245605,-0.9927355647087097,2.7236998081207275, 2.636962413787842
126,2882542644,0.5873227,0.26574612,-0.21569571,0.733421,10.960653305053711,0.6033188700675964,10.394190788269043,-1.0558453798294067,2.8157005310058594, 2.668644905090332
127,2882559311,0.5872371,0.26530552,-0.21565989,0.7336597,11.147845268249512,0.7079471945762634,10.530774116516113,-0.6712577939033508,2.924708127975464, 2.554438352584839
128,2882575978,0.5871431,0.26481178,-0.21570542,0.7338998,11.044673919677734,0.4720368981361389,10.555816650390625,-1.281211018562317,2.8557581901550293, 2.8308496475219727
129,2882592645,0.58709514,0.26429352,-0.21581276,0.73409355,10.944254875183105,0.5638313889503479,10.317852020263672,-1.843025803565979,2.714606523513794, 2.5603671073913574
130,2882609312,0.5870245,0.26380792,-0.21584453,0.73431516,11.108720779418945,0.471830815076828,10.377434730529785,-1.248119831085205,2.8741743564605713, 2.6020774841308594
131,2882625979,0.5869615,0.26335338,-0.21588401,0.73451716,10.974843978881836,0.36305612325668335,10.396401405334473,-1.2046679258346558,2.6671340465545654, 2.451923370361328
132,2882642646,0.5868955,0.2629967,-0.2158295,0.7347138,10.933436393737793,0.42795878648757935,10.41161060333252,-0.3363843560218811,2.5410807132720947, 2.1287293434143066
133,2882659313,0.5868288,0.26259735,-0.21586004,0.73490065,11.02799129486084,0.41456565260887146,10.412534713745117,-0.9514989256858826,2.397752046585083, 2.3101820945739746
134,2882675980,0.5867813,0.26225704,-0.21585305,0.73506236,10.983247756958008,0.42589473724365234,10.407731056213379,-0.5962252616882324,2.239132881164551, 1.9568039178848267
135,2882692647,0.5867153,0.26202944,-0.21569426,0.73524284,11.155110359191895,0.5947116017341614,10.43900203704834,0.6863626837730408,2.292381525039673, 1.6855911016464233
136,2882709314,0.5866793,0.2616989,-0.2156618,0.73539877,11.105613708496094,0.5433398485183716,10.358885765075684,-0.4613615572452545,2.310925245285034, 1.8178678750991821
137,2882725981,0.5866562,0.26132452,-0.21567756,0.7355455,11.02956485748291,0.5126454830169678,10.320651054382324,-0.9212889075279236,2.3478200435638428, 1.869451642036438
138,2882742648,0.5866223,0.2609413,-0.2157516,0.735687,11.028193473815918,0.4601447880268097,10.319082260131836,-1.2419854402542114,2.1393966674804688, 2.0228333473205566
139,2882759315,0.5865825,0.26057807,-0.21579306,0.73583525,11.042945861816406,0.5126134753227234,10.322976112365723,-0.9773677587509155,2.1800951957702637, 1.9925206899642944
140,2882775982,0.58650005,0.2603039,-0.21569528,0.7360267,11.045221328735352,0.3663094639778137,10.403203964233398,0.22459137439727783,2.3127310276031494, 2.0029964447021484
141,2882792649,0.5864106,0.2600094,-0.21561886,0.7362244,11.203228950500488,0.4601682126522064,10.304792404174805,0.05605979263782501,2.3371264934539795, 2.1328012943267822
142,2882809316,0.5862937,0.2598013,-0.2154814,0.7364311,10.91763973236084,0.6773145198822021,10.413311958312988,0.773548424243927,2.132007598876953, 2.0719845294952393
143,2882825983,0.5861806,0.25950244,-0.21544303,0.7366377,11.106451988220215,0.5065658688545227,10.293017387390137,-0.10583166778087616,2.2030954360961914, 2.368668556213379
144,2882842650,0.58606565,0.25926843,-0.21532871,0.73684496,11.145188331604004,0.5271456837654114,10.313505172729492,0.5418815016746521,2.189162254333496, 2.151191473007202
145,2882859317,0.58600295,0.2588455,-0.2153409,0.73704004,11.11519718170166,0.4150914251804352,10.233222961425781,-0.9743328094482422,2.702172040939331, 2.344810724258423
146,2882875984,0.5859602,0.2583843,-0.21525183,0.73726183,11.173455238342285,0.43695738911628723,10.29308795928955,-0.6123868227005005,3.3925621509552, 2.229438066482544
147,2882892651,0.5859461,0.25789148,-0.21514703,0.73747617,11.072883605957031,0.4985549747943878,10.153481483459473,-0.7238277792930603,3.6565141677856445, 2.0739307403564453
148,2882909318,0.58590734,0.25742805,-0.2149556,0.73772454,11.097162246704102,0.4866023659706116,10.346487045288086,-0.07510924339294434,3.892688274383545, 2.14190673828125
149,2882925985,0.5858421,0.25696778,-0.21484585,0.7379689,11.051063537597656,0.6531469821929932,10.449652671813965,-0.43854063749313354,3.5108158588409424, 2.4028360843658447
150,2882942652,0.58579975,0.2563972,-0.21499588,0.73815715,11.090041160583496,0.4044569134712219,10.314464569091797,-2.330115556716919,2.9675707817077637, 2.686356544494629
151,2882959319,0.5857142,0.2559977,-0.21504384,0.7383497,10.978256225585938,0.439113050699234,10.348608016967773,-1.041553258895874,2.4620273113250732, 2.4909822940826416
152,2882975986,0.58558774,0.25572303,-0.21501283,0.7385541,11.12047004699707,0.4177834987640381,10.390284538269043,-0.04795977845788002,2.1079187393188477, 2.4243507385253906
153,2882992653,0.5854913,0.25545773,-0.21507305,0.7387048,11.034018516540527,0.4739472270011902,10.40323543548584,-0.605663537979126,1.6434710025787354, 2.2008674144744873
154,2883009320,0.5854251,0.25519702,-0.21522866,0.7388022,11.153931617736816,0.340013712644577,10.34225845336914,-1.2035280466079712,1.1845104694366455, 1.9942688941955566
155,2883025987,0.58535177,0.2549674,-0.21540102,0.7388893,11.171201705932617,0.34350988268852234,10.253661155700684,-1.1642637252807617,0.9305413365364075, 1.970353126525879
156,2883042654,0.5853171,0.25474742,-0.21557853,0.73894095,11.020223617553711,0.3237830698490143,10.25894546508789,-1.270313024520874,0.8575579524040222, 1.6254907846450806
157,2883059321,0.58521867,0.25463393,-0.21558008,0.73905766,11.176345825195312,0.1574842482805252,10.284940719604492,0.26149922609329224,1.0424944162368774, 1.7435524463653564
158,2883075988,0.585024,0.25473443,-0.21525459,0.7392719,11.04471492767334,0.2389359027147293,10.269258499145508,3.100769519805908,1.300760269165039, 1.7322958707809448
159,2883092655,0.5848103,0.25473604,-0.21495692,0.7395269,11.07713508605957,0.4185428023338318,10.232656478881836,2.657055139541626,1.735676646232605, 2.1870107650756836
160,2883109322,0.5846838,0.25463346,-0.21482976,0.73969924,11.126381874084473,0.6735760569572449,10.028310775756836,1.0944370031356812,1.5665687322616577, 1.864277958869934
161,2883125989,0.5845186,0.2545103,-0.21473189,0.7399005,11.015288352966309,0.41641178727149963,10.10881233215332,0.9683713316917419,1.5532245635986328, 2.263246774673462
162,2883142656,0.5843614,0.25449714,-0.21462052,0.7400616,11.035165786743164,0.5587052702903748,10.223217964172363,1.4049270153045654,0.9934206008911133, 1.8765465021133423
163,2883159323,0.5842142,0.25438896,-0.21466357,0.74020255,11.113134384155273,0.5466997623443604,10.19208812713623,0.18686385452747345,0.8396804332733154, 2.157709836959839
164,2883175990,0.5841117,0.25418383,-0.21484594,0.7403009,11.0372896194458,0.5881575345993042,10.210400581359863,-1.0555249452590942,0.7705772519111633, 2.1485276222229004
165,2883192657,0.5840448,0.253828,-0.21519487,0.74037445,10.960111618041992,0.36306455731391907,9.87888240814209,-2.6107921600341797,0.8832347989082336, 2.3849077224731445
166,2883209324,0.5839584,0.25352377,-0.21537113,0.7404958,11.014878273010254,0.5200149416923523,10.049213409423828,-1.4202882051467896,1.3770219087600708, 2.2990407943725586
167,2883225991,0.58382267,0.2531787,-0.21556053,0.74066556,10.80751895904541,0.3948405086994171,9.940834045410156,-1.4966907501220703,1.5512585639953613, 2.8303568363189697
168,2883242658,0.5836627,0.25282344,-0.21577595,0.7408502,10.942300796508789,0.5495412349700928,10.085528373718262,-1.606799840927124,1.4947763681411743, 3.075950860977173
169,2883259325,0.5834217,0.2525588,-0.21594329,0.7410814,10.817525863647461,0.3569689989089966,10.178851127624512,-0.7924954295158386,1.19407057762146, 3.4608843326568604
170,2883275992,0.5832438,0.2524158,-0.21618037,0.741201,10.941797256469727,0.5867590308189392,9.915302276611328,-0.9362210035324097,0.19918356835842133, 2.633657693862915
171,2883292659,0.5830353,0.25228202,-0.2165074,0.7413153,10.972960472106934,0.3759244680404663,10.01653003692627,-1.317581295967102,-0.2524515986442566, 2.915179967880249
172,2883309326,0.5827268,0.25223973,-0.2166632,0.7415266,10.827077865600586,0.40252983570098877,9.982099533081055,0.23824292421340942,-0.003099136520177126, 3.382176160812378
173,2883325993,0.5823266,0.25229508,-0.21653147,0.7418606,10.852727890014648,0.5729494094848633,9.891987800598145,2.434685707092285,0.73614102602005, 3.6996843814849854
174,2883342660,0.581816,0.25251696,-0.21603538,0.7423303,10.819916725158691,0.5288740992546082,9.888692855834961,5.348143577575684,1.4268772602081299, 3.929865598678589
175,2883359327,0.5812367,0.25299472,-0.21535133,0.74282,10.628396034240723,0.17070156335830688,9.901802062988281,7.475637912750244,0.8160527348518372, 3.6576287746429443
176,2883375994,0.5806247,0.2537663,-0.21447791,0.74328786,10.667024612426758,0.5482930541038513,9.851130485534668,9.64337158203125,-0.006684917025268078, 2.9712986946105957
177,2883392661,0.5799622,0.2546607,-0.2135013,0.7437802,10.804058074951172,0.8005001544952393,9.605706214904785,10.780508995056152,-0.24425557255744934, 2.9684934616088867
178,2883409328,0.5791914,0.25613305,-0.21204408,0.744292,10.823784828186035,1.079139232635498,9.079911231994629,15.752470970153809,-1.3927303552627563, 1.9162989854812622
179,2883425995,0.578221,0.25882342,-0.20926538,0.74490196,10.617569923400879,1.2095526456832886,8.917787551879883,27.847576141357422,-2.458338737487793, -0.7662443518638611
180,2883442662,0.5770703,0.26222703,-0.20563337,0.7456151,10.162262916564941,1.2010643482208252,9.444297790527344,35.509185791015625,-2.7722408771514893, -1.9706496000289917
181,2883459329,0.5754618,0.26619133,-0.20117013,0.7466703,10.115615844726562,0.7320416569709778,9.282438278198242,43.29434585571289,-2.3772456645965576, -0.5555687546730042
182,2883475996,0.57325685,0.2709991,-0.19513191,0.7482377,9.91695499420166,-0.014477185904979706,8.782330513000488,56.52030563354492,-0.3636147975921631, 0.4764207899570465
183,2883492663,0.5704656,0.27702233,-0.1868939,0.7502654,9.839632034301758,1.2395150661468506,9.27538776397705,74.35589599609375,2.125223159790039, -0.4471936821937561
184,2883509330,0.5689566,0.28069475,-0.18151537,0.7513663,9.207796096801758,1.4772155284881592,10.274114608764648,46.74967575073242,2.9079666137695312, -2.2348148822784424
185,2883525997,0.5684358,0.28195834,-0.179184,0.75184655,9.79503345489502,-0.19779959321022034,9.85722827911377,18.902175903320312,3.43267560005188, -0.8808217644691467
186,2883542664,0.5678908,0.28275108,-0.177399,0.7523838,10.257380485534668,0.48342210054397583,9.435150146484375,14.382829666137695,3.796234130859375, 1.08143949508667
187,2883559331,0.5676624,0.28302696,-0.17675975,0.75260293,10.245076179504395,1.5281071662902832,8.801375389099121,5.448352813720703,1.7635177373886108, 1.0469255447387695
188,2883575998,0.56784636,0.28270212,-0.17762725,0.75238186,10.2890625,1.539207935333252,8.451604843139648,-6.03571081161499,-1.3550528287887573, 0.8617842197418213
189,2883592665,0.5679959,0.28223592,-0.17903267,0.75211084,10.197305679321289,1.0539613962173462,8.821124076843262,-9.370333671569824,-2.849708318710327, 2.06722092628479
190,2883609332,0.56766087,0.28218096,-0.17982069,0.7521965,10.102828025817871,0.8711380362510681,9.312030792236328,-3.1889989376068115,-2.463275909423828, 4.2609100341796875
191,2883625999,0.56711787,0.28244987,-0.1803182,0.75238603,10.208518981933594,1.1250468492507935,8.769932746887207,0.1152123361825943,-3.0621137619018555, 4.773599147796631
192,2883642666,0.56672955,0.2829941,-0.18149479,0.75219125,10.228644371032715,1.5490005016326904,8.413150787353516,-3.100917339324951,-7.680314540863037, 3.452714204788208
193,2883659333,0.56707233,0.28339246,-0.18470907,0.75099957,9.956352233886719,1.5078368186950684,8.55176830291748,-16.882230758666992,-15.880594253540039, -0.05858916416764259
194,2883676000,0.5687727,0.28236204,-0.19226602,0.7482002,9.934486389160156,1.5308502912521362,8.661209106445312,-49.56962203979492,-26.83855438232422, -3.0492258071899414
195,2883692667,0.5716878,0.27937883,-0.20485608,0.7437436,10.111747741699219,0.7339356541633606,7.926812648773193,-87.65665435791016,-38.08644104003906, -3.410146474838257
196,2883709334,0.5752791,0.27641386,-0.21912165,0.737994,9.76732063293457,0.8520737290382385,7.477349758148193,-99.27140808105469,-46.285369873046875, -8.74712085723877
197,2883726001,0.5785483,0.27320492,-0.23410909,0.7320067,9.34803295135498,0.9249256253242493,7.549423694610596,-103.649169921875,-48.83126449584961, -6.296828269958496
198,2883742668,0.58173525,0.2700864,-0.2484782,0.72587603,9.245315551757812,1.43454909324646,7.346856594085693,-100.26021575927734,-47.23152160644531, -7.73842191696167
199,2883759335,0.5858073,0.2668972,-0.26055658,0.71951807,9.110658645629883,-0.0907415896654129,7.211461067199707,-82.96182250976562,-37.92884063720703, -7.145859718322754
200,2883776002,0.58806425,0.26589218,-0.26733407,0.715552,8.758367538452148,-1.0076258182525635,7.010683059692383,-42.35166931152344,-26.03886604309082, -4.826051235198975
201,2883792669,0.588856,0.26652655,-0.26997975,0.7136688,8.800978660583496,-0.6825278997421265,7.522337436676025,-10.433064460754395,-16.04427719116211, -1.7244411706924438
202,2883809336,0.5889892,0.26751882,-0.27113017,0.7127509,9.13058853149414,-0.7447240948677063,7.890209197998047,0.6300150752067566,-11.083169937133789, 1.0977287292480469
203,2883826003,0.58865666,0.26802322,-0.27226377,0.71240395,9.290338516235352,-1.2747381925582886,7.4868855476379395,-0.12319710850715637,-8.309773445129395, 5.6160149574279785
204,2883842670,0.5879004,0.26867035,-0.27302852,0.71249217,9.26790714263916,-0.5107301473617554,6.852553367614746,3.604649782180786,-7.46473503112793, 8.156591415405273
205,2883859337,0.587166,0.26877725,-0.2744263,0.7125203,8.7993803024292,0.0031349710188806057,6.349218368530273,-2.36433482170105,-7.341857433319092, 9.359107971191406
206,2883876004,0.5863027,0.26881537,-0.27589872,0.7126482,8.49542236328125,0.34763798117637634,6.454421520233154,-2.5681354999542236,-7.372056484222412, 10.665474891662598
207,2883892671,0.5853974,0.26888168,-0.27736983,0.71279633,8.651147842407227,1.2370507717132568,6.378023624420166,-2.109002113342285,-7.606925964355469, 11.14529037475586
208,2883909338,0.584366,0.26960748,-0.27822548,0.713035,9.005499839782715,1.0868254899978638,6.449323654174805,3.458606004714966,-8.335721015930176, 9.203153610229492
209,2883926005,0.58379656,0.27019632,-0.27989715,0.7126241,9.495440483093262,1.4474592208862305,6.388150215148926,-3.1406826972961426,-11.277189254760742, 6.180367946624756
210,2883942672,0.5834973,0.27065462,-0.28171805,0.71197754,9.462738990783691,0.589097797870636,7.338595867156982,-5.241552352905273,-11.177528381347656, 4.586845874786377
211,2883959339,0.58308214,0.27112544,-0.28337452,0.71148103,9.379264831542969,-0.05941016599535942,7.4746413230896,-4.6120171546936035,-10.36528491973877, 4.654489040374756
212,2883976006,0.5824424,0.27173188,-0.2847452,0.7112264,9.024085998535156,-0.042446866631507874,6.90045690536499,-1.9077757596969604,-9.849701881408691, 5.779540538787842
213,2883992673,0.5818026,0.2726164,-0.2855554,0.71108675,8.66724967956543,0.3212728202342987,5.798903465270996,2.3559656143188477,-8.801012992858887, 4.821624279022217
214,2884009340,0.58160853,0.27305412,-0.2864604,0.71071345,8.332356452941895,-0.3111010789871216,5.035243988037109,-1.2113399505615234,-6.546363353729248, 2.7339444160461426
215,2884026007,0.5815166,0.2733768,-0.2863196,0.7107213,8.231014251708984,-1.735859990119934,4.778985023498535,3.7218644618988037,-0.7947620749473572, 1.7240482568740845
216,2884042674,0.58141357,0.2737603,-0.28494322,0.71121097,8.506179809570312,-1.9011404514312744,5.313117504119873,11.523716926574707,4.614507675170898, 1.7254068851470947
217,2884059341,0.5811615,0.27442533,-0.2825458,0.71211654,8.638008117675781,-1.3761266469955444,6.089581489562988,18.610437393188477,7.869980335235596, 1.4473819732666016
218,2884076008,0.5809255,0.27567807,-0.28002292,0.71282154,8.381925582885742,-0.44989392161369324,6.720128536224365,20.89229393005371,5.230589389801025, -1.107251524925232
219,2884092675,0.58079845,0.27744827,-0.2781664,0.712965,8.318561553955078,-0.3920477032661438,7.369142532348633,18.586013793945312,-0.8764676451683044, -3.4602670669555664
220,2884109342,0.58062965,0.2793476,-0.27681085,0.7128885,8.056894302368164,-0.29554155468940735,6.244725227355957,16.31287956237793,-4.030520915985107, -3.4342310428619385
221,2884126009,0.58054215,0.2807556,-0.27614546,0.71266454,7.7958478927612305,-0.09763183444738388,5.2594099044799805,10.19398021697998,-4.4139275550842285, -2.486840009689331
222,2884142676,0.58029234,0.28201783,-0.27544436,0.71264094,7.482950210571289,0.2171308845281601,5.247952938079834,10.537766456604004,-3.4812662601470947, -0.6416624784469604
223,2884159343,0.5797958,0.28333697,-0.2743475,0.71294504,7.331902980804443,0.6483123898506165,5.538290500640869,13.73613166809082,-1.9889812469482422, 0.9419780969619751
224,2884176010,0.5793899,0.28448415,-0.27337942,0.71318996,7.451343536376953,1.2218666076660156,5.452356815338135,12.020013809204102,-1.5771026611328125, 0.7573742866516113
225,2884192677,0.57931125,0.28521758,-0.2730591,0.7130837,7.550397872924805,1.513584852218628,5.526044845581055,5.932522773742676,-2.2141668796539307, -0.13163648545742035
226,2884209344,0.57939374,0.2856677,-0.27335122,0.7127244,7.502024173736572,0.8885388970375061,5.422509670257568,1.060718059539795,-3.4771547317504883, -0.10963516682386398
227,2884226011,0.579299,0.28618434,-0.2738474,0.71240366,7.267518520355225,0.3767967224121094,5.091616153717041,0.5328914523124695,-4.812421798706055, 1.03134024143219
228,2884242678,0.5789564,0.28691065,-0.2739149,0.71236396,7.174075126647949,-0.14063504338264465,4.932505130767822,4.387616157531738,-4.0109357833862305, 2.0476906299591064
229,2884259345,0.5784226,0.28789988,-0.27334732,0.71261644,7.077639579772949,-0.4067956507205963,4.872602939605713,9.558988571166992,-2.567929983139038, 2.4457638263702393
230,2884276012,0.5779025,0.28891474,-0.27274132,0.71285987,6.8121867179870605,0.25908100605010986,4.957886219024658,9.945075988769531,-2.5602846145629883, 2.2940855026245117
231,2884292679,0.5775009,0.289725,-0.2724918,0.71295196,6.7944841384887695,0.5924233198165894,4.916835308074951,6.893984794616699,-3.0593607425689697, 2.217733383178711
232,2884309346,0.57719517,0.2903435,-0.27260688,0.71290404,6.665831565856934,0.5704053640365601,4.967686653137207,4.012044429779053,-3.7016377449035645, 2.3688228130340576
233,2884326013,0.5769275,0.2908464,-0.27296168,0.7127799,6.56515645980835,0.5953561663627625,4.7826151847839355,1.9189099073410034,-4.097826957702637, 2.4064223766326904
234,2884342680,0.576812,0.2910853,-0.2736846,0.7124985,6.307462215423584,0.7262796759605408,4.704227447509766,-1.4964988231658936,-4.304931640625, 2.2981314659118652
235,2884359347,0.5766554,0.29116806,-0.2746338,0.7122261,6.009902000427246,0.33738210797309875,4.533992767333984,-3.062101364135742,-4.523357391357422, 3.3322067260742188
236,2884376014,0.576374,0.291279,-0.27559546,0.712037,6.011892795562744,-0.25491705536842346,4.592003345489502,-2.7773003578186035,-4.729987144470215, 4.125149726867676
237,2884392681,0.57593477,0.2918309,-0.27602845,0.7119987,6.337900638580322,-0.8237724900245667,4.461132526397705,2.219872236251831,-4.812281131744385, 3.61147403717041
238,2884409348,0.5754014,0.29291242,-0.2760245,0.7119874,6.18438720703125,-0.3011808693408966,4.490616798400879,6.818083763122559,-5.825058937072754, 2.3228867053985596
239,2884426015,0.5750556,0.29393992,-0.27642408,0.71168834,5.9042863845825195,0.3392831087112427,4.332314968109131,3.7146172523498535,-7.377471923828125, 1.1578673124313354
240,2884442682,0.5748574,0.2948641,-0.27715904,0.71118015,5.6975812911987305,0.4316333830356598,4.115147590637207,0.8224048614501953,-8.291960716247559, 0.39532577991485596
241,2884459349,0.57471627,0.29581004,-0.27787217,0.7106228,5.5700836181640625,0.1743430495262146,4.046309471130371,0.9337559342384338,-8.346578598022461, -0.09387055784463882
242,2884476016,0.57452375,0.29697385,-0.27846602,0.7100605,5.453776836395264,-0.01521981693804264,3.981361150741577,2.378812074661255,-9.015365600585938, -0.582343339920044
243,2884492683,0.5743423,0.29820105,-0.2792251,0.7093945,5.213860034942627,-0.10180122405290604,4.070723056793213,1.5880199670791626,-10.16208553314209, -0.8553107976913452
244,2884509350,0.5741181,0.2995423,-0.27990198,0.708744,5.290081024169922,-0.4934798777103424,4.0258612632751465,2.5055439472198486,-10.432722091674805, -1.0185277462005615
245,2884526017,0.573757,0.3011028,-0.28020638,0.70825475,5.51446008682251,-1.0728894472122192,3.586365222930908,5.828358173370361,-9.976919174194336, -0.9153214693069458
246,2884542684,0.5731408,0.3031637,-0.27987742,0.7080043,5.37701940536499,-0.7513009309768677,3.8134145736694336,11.771036148071289,-9.852522850036621, -1.1064311265945435
247,2884559351,0.57241285,0.30552715,-0.27905285,0.7079028,5.049708843231201,-0.6135687828063965,3.6154911518096924,15.96019172668457,-9.286149024963379, -1.6056489944458008
248,2884576018,0.57155406,0.30809438,-0.277691,0.70801944,4.952693939208984,-0.3367391526699066,3.3362538814544678,20.109233856201172,-7.95958137512207, -1.6511635780334473
249,2884592685,0.5705209,0.31089425,-0.2758453,0.70835036,5.14225959777832,-0.1541849672794342,3.179654359817505,23.93971061706543,-6.982625961303711, -1.5343576669692993
250,2884609352,0.56949127,0.31396967,-0.27359977,0.70869327,4.921816825866699,0.18303751945495605,3.460016965866089,27.122684478759766,-6.748759746551514, -2.850867748260498
251,2884626019,0.5684911,0.31695977,-0.27156055,0.7089495,4.4503173828125,-0.5296210050582886,3.3119802474975586,25.697099685668945,-7.312175273895264, -2.6899678707122803
252,2884642686,0.5668576,0.32040837,-0.2687644,0.7097723,4.412441730499268,-0.5031097531318665,3.245544195175171,33.45026397705078,-6.476517677307129, 0.018383590504527092
253,2884659353,0.56477606,0.32438585,-0.26542857,0.7108794,4.663727760314941,0.49839460849761963,3.4105207920074463,39.834590911865234,-7.204240322113037, 1.1606141328811646
254,2884676020,0.5627627,0.32838187,-0.2626049,0.7116899,4.5527567863464355,0.6923091411590576,3.7479286193847656,36.73383331298828,-9.824939727783203, 0.7894961833953857
255,2884692687,0.5609555,0.33228052,-0.26061466,0.7120384,4.417488098144531,0.26624199748039246,3.4151854515075684,30.858272552490234,-13.218805313110352, 0.024351371452212334
256,2884709354,0.55877775,0.3365932,-0.25847363,0.71250546,4.578516960144043,0.08821841329336166,3.3195126056671143,34.34775924682617,-15.085801124572754, 1.2184727191925049
257,2884726021,0.55638844,0.34085682,-0.25697452,0.7128904,4.640872001647949,1.6276599168777466,3.264561653137207,31.441682815551758,-17.891462326049805, 3.50494122505188
258,2884742688,0.55450827,0.343852,-0.2576261,0.7126818,4.343581676483154,3.790637969970703,3.064828872680664,13.743157386779785,-20.374704360961914, 6.040992259979248
259,2884759355,0.5533557,0.3453055,-0.26068586,0.71176165,4.1128435134887695,4.53455114364624,2.8494536876678467,-7.173134803771973,-22.345352172851562, 8.260863304138184
260,2884776022,0.55282867,0.34512982,-0.26603734,0.71027476,3.923457384109497,3.953425645828247,2.7362215518951416,-27.167667388916016,-23.322078704833984, 11.535652160644531
261,2884792689,0.55228394,0.3439195,-0.27269217,0.7087602,3.747168779373169,2.222275972366333,2.8978257179260254,-37.61601638793945,-23.31255340576172, 16.607179641723633
262,2884809356,0.55123097,0.34254634,-0.27932695,0.70766026,4.0701470375061035,0.9491450786590576,2.9349400997161865,-36.77055358886719,-22.287492752075195, 20.94232177734375
263,2884826023,0.5492646,0.34121618,-0.28558043,0.7073357,4.075719833374023,1.3066999912261963,2.966463804244995,-31.120405197143555,-20.988252639770508, 27.37165069580078
264,2884842690,0.54735905,0.3386555,-0.2929236,0.7070406,4.113875389099121,0.260620653629303,2.6751132011413574,-41.1710205078125,-18.941692352294922, 32.20183181762695
265,2884859357,0.54490817,0.33564854,-0.29987398,0.70745385,4.15231466293335,-0.7760134339332581,3.284027576446533,-38.23686981201172,-14.742981910705566, 37.50946807861328
266,2884876024,0.5427908,0.3306977,-0.3076313,0.7080822,3.916558265686035,0.807553768157959,4.703575611114502,-49.73908233642578,-7.1495490074157715, 42.53645706176758
267,2884892691,0.5413627,0.3239288,-0.31686252,0.70823365,4.520504951477051,1.191399335861206,3.214200258255005,-66.29698944091797,-3.508596181869507, 44.63037109375
268,2884909358,0.5396647,0.3185678,-0.3238636,0.70879406,4.33278226852417,1.913548231124878,3.106783151626587,-48.7361946105957,-1.7516380548477173, 39.48567199707031
269,2884926025,0.5374448,0.31699765,-0.32763666,0.7094505,3.8417227268218994,2.457925796508789,1.462592363357544,-17.63770294189453,-9.207531929016113, 26.954492568969727
270,2884942692,0.53352696,0.3204267,-0.32804257,0.7106786,3.474372625350952,2.619069814682007,1.168569564819336,22.18632698059082,-23.681299209594727, 18.847871780395508
271,2884959359,0.52598125,0.3310927,-0.3211691,0.7145431,4.169153690338135,2.359271287918091,-0.16129541397094727,98.18773651123047,-34.654518127441406, 13.977231979370117
272,2884976026,0.5143697,0.34980538,-0.30438828,0.721393,6.760608673095703,5.240711212158203,0.12474465370178223,191.8021697998047,-40.395469665527344, 4.478058815002441
273,2884992693,0.5020277,0.37494376,-0.288376,0.7240336,8.716483116149902,9.127768516540527,-6.901730060577393,203.58018493652344,-86.43231201171875, -18.24773597717285
274,2885009360,0.49186096,0.40517306,-0.2799622,0.7180033,11.438342094421387,12.464451789855957,-9.336648941040039,160.376953125,-155.54562377929688, -49.25909423828125
275,2885026027,0.49061298,0.4327701,-0.28812188,0.6992817,10.836202621459961,10.980276107788086,-7.066208362579346,20.171653747558594,-216.22714233398438, -84.58039855957031
276,2885042694,0.49630713,0.45774326,-0.30660346,0.6709281,9.807601928710938,5.419276237487793,-4.878662109375,-78.1641845703125,-253.05728149414062, -114.17162322998047
277,2885059361,0.50416607,0.48038572,-0.32723576,0.63871986,6.40362548828125,-0.9712406396865845,-1.604667067527771,-110.92833709716797,-257.1304931640625, -125.46562957763672
278,2885076028,0.5098401,0.50166637,-0.34282133,0.60898894,2.487409830093384,-5.447336673736572,2.4051570892333984,-80.50440979003906,-230.49156188964844, -121.0018310546875
279,2885092695,0.51219445,0.52068067,-0.35234407,0.58515155,-0.20521144568920135,-7.669621467590332,3.338200807571411,-37.496578216552734,-187.5261688232422, -102.3407974243164
280,2885109362,0.5133753,0.5353549,-0.35692203,0.5678446,-1.3526275157928467,-7.6137495040893555,3.651127576828003,-12.67548656463623,-132.4187774658203, -82.2338638305664
281,2885126029,0.51748246,0.54264057,-0.3618598,0.55390483,-2.5097742080688477,-9.57986068725586,3.653574228286743,-42.527740478515625,-85.5643310546875, -62.71165466308594
282,2885142696,0.5243073,0.54347163,-0.36964074,0.54139304,-3.1543526649475098,-8.48584270477295,2.6597628593444824,-82.78067016601562,-59.28694534301758, -41.736515045166016
283,2885159363,0.53193814,0.5401747,-0.3790298,0.53065026,-4.000204086303711,-8.809602737426758,2.2102229595184326,-102.06841278076172,-41.26803970336914, -22.190650939941406
284,2885176030,0.539092,0.53359914,-0.3893494,0.5225505,-5.806544303894043,-8.849483489990234,2.0883758068084717,-108.71161651611328,-24.30034065246582, 0.9110643267631531
285,2885192697,0.54685265,0.52339756,-0.40026718,0.5165204,-8.519078254699707,-7.102722644805908,2.8253726959228516,-120.91349029541016,-4.4134416580200195, 18.037559509277344
286,2885209364,0.5553597,0.5118478,-0.40770385,0.51319104,-8.044490814208984,-5.748806476593018,1.5149905681610107,-108.80721282958984,25.074148178100586, 16.556760787963867
287,2885226031,0.55788666,0.506474,-0.4054738,0.5175302,-4.476330280303955,-6.3226141929626465,0.11469674110412598,-8.524799346923828,50.311370849609375, 15.493090629577637
288,2885242698,0.5477094,0.5213276,-0.3919372,0.5240394,4.549460411071777,8.84109878540039,-61.749122619628906,159.6358184814453,-6.210270404815674, -26.8881893157959
289,2885259365,0.5350071,0.5486204,-0.41926047,0.48683035,54.64842987060547,16.11474609375,-73.85089111328125,-49.971031188964844,-366.49237060546875, -69.2088623046875
290,2885276032,0.518829,0.5689222,-0.44337898,0.45886746,-19.086841583251953,-14.600114822387695,41.64961242675781,-24.865198135375977,-308.54522705078125, -15.10682487487793
291,2885292699,0.5049373,0.595348,-0.4607346,0.422283,19.12250518798828,-2.311779499053955,-6.282782554626465,-16.89962387084961,-330.57672119140625, -98.2459716796875
292,2885309366,0.4873932,0.61554325,-0.4765561,0.39553583,7.010163307189941,0.5583665370941162,3.850144147872925,12.042695999145508,-278.39263916015625, -40.01674270629883
293,2885326033,0.4771299,0.6272804,-0.49191177,0.3699855,7.541930675506592,-3.569228172302246,-3.5007784366607666,-41.93442916870117,-224.89129638671875, -30.06319808959961
294,2885342700,0.46500802,0.6405492,-0.5014749,0.34926692,0.968015193939209,0.725742518901825,-1.9957607984542847,2.181565761566162,-195.21023559570312, -39.668617248535156
295,2885359367,0.4545217,0.6521243,-0.5076251,0.33235636,2.745305061340332,-0.08740343898534775,-5.8206682205200195,10.885466575622559,-157.80075073242188, -40.60721969604492
296,2885376034,0.4466235,0.65981126,-0.51275635,0.3197775,3.2553482055664062,2.40510630607605,-4.535817623138428,4.566020965576172,-117.24011993408203, -23.984880447387695
297,2885392701,0.43848523,0.6662181,-0.5141824,0.3154375,6.309185981750488,3.894108295440674,-2.7035484313964844,38.913124084472656,-66.49320220947266, -10.4413423538208
298,2885409368,0.4321739,0.6694806,-0.5152591,0.31548306,11.31910228729248,5.206388473510742,-1.3416025638580322,37.33322525024414,-32.07538604736328, 8.349692344665527
299,2885426035,0.42246804,0.6736155,-0.513011,0.32339272,16.92290496826172,4.369869232177734,4.185723304748535,90.63958740234375,0.04837746545672417, 20.701873779296875
300,2885442702,0.4114604,0.6754435,-0.5141896,0.33179188,20.004016876220703,1.3320938348770142,9.562545776367188,84.10197448730469,-7.219360828399658, 49.026485443115234
301,2885459369,0.3940039,0.6805242,-0.51074874,0.3475394,20.06174659729004,5.336368560791016,18.092222213745117,159.8059539794922,9.555035591125488, 51.549835205078125
302,2885476036,0.3796196,0.68358505,-0.5154291,0.35061875,21.6700382232666,1.80666184425354,6.347081661224365,76.11247253417969,-56.414913177490234, 55.00961685180664
303,2885492703,0.35893604,0.6926317,-0.52036035,0.3473492,17.529829025268555,6.53965950012207,5.018693447113037,98.25225067138672,-123.86431884765625, 33.58200454711914
304,2885509370,0.32429278,0.7085651,-0.52126735,0.34792253,24.21380043029785,1.235044002532959,19.09728240966797,205.15945434570312,-162.20834350585938, 32.686424255371094
305,2885526037,0.29158938,0.72471297,-0.52405137,0.3393185,15.954659461975098,11.864462852478027,19.388675689697266,158.8211212158203,-205.0730438232422, 15.98974609375
306,2885542704,0.2797403,0.73276496,-0.5334716,0.31655812,11.712067604064941,8.346989631652832,25.180910110473633,-27.73577308654785,-195.2084503173828, 1.3326002359390259
307,2885559371,0.2687222,0.73825777,-0.5414583,0.29931068,11.32780647277832,0.5409071445465088,23.72026824951172,-13.408049583435059,-156.4304656982422, 12.344023704528809
308,2885576038,0.26016098,0.7402087,-0.5481374,0.28974575,8.366272926330566,-0.09087295830249786,25.230876922607422,-1.122236728668213,-98.92894744873047, 27.988765716552734
309,2885592705,0.25559437,0.73836106,-0.5534717,0.28838125,5.508747100830078,-2.6160221099853516,25.446380615234375,5.320560455322266,-32.49833297729492, 42.13960647583008
310,2885609372,0.25559458,0.7336003,-0.5557305,0.2960842,2.107990264892578,-0.7746875882148743,24.135164260864258,17.559783935546875,41.7994499206543, 44.45119094848633
311,2885626039,0.26268703,0.7263555,-0.554262,0.31015635,-0.8813319206237793,1.8115798234939575,22.997652053833008,9.30118179321289,112.40837097167969, 31.895891189575195
312,2885642706,0.27879602,0.7164952,-0.5484048,0.32887658,-2.346971035003662,5.903884410858154,19.139984130859375,-13.390624046325684,183.32737731933594, 9.139312744140625
313,2885659373,0.3101576,0.70135593,-0.5392038,0.34808263,-2.857438802719116,8.099803924560547,15.294685363769531,-89.23109436035156,261.5159606933594, -20.94485855102539
314,2885676040,0.35375923,0.67944735,-0.5256991,0.36992767,-3.9303526878356934,7.215027809143066,14.082989692687988,-142.58053588867188,345.03582763671875, -40.249332427978516
315,2885692707,0.40153646,0.6516648,-0.5039716,0.4001429,-1.2389419078826904,3.8984792232513428,8.221875190734863,-125.16690826416016,434.26397705078125, -47.683868408203125
316,2885709374,0.44737568,0.6193039,-0.47116497,0.440819,2.5656633377075195,0.8789581060409546,1.9677292108535767,-62.34901428222656,517.8051147460938, -47.23599624633789
317,2885726041,0.48392174,0.58591735,-0.42801344,0.48920876,8.367866516113281,-3.3307037353515625,-6.469732284545898,30.475183486938477,555.6990356445312, -36.017093658447266
318,2885742708,0.51255876,0.55328125,-0.37948444,0.5358686,14.31580638885498,2.532975196838379,-12.776444435119629,77.82401275634766,541.0805053710938, -39.0410041809082
319,2885759375,0.5348966,0.52176905,-0.32888213,0.57747674,20.458843231201172,-2.2904129028320312,-23.40705108642578,100.12191772460938,508.9752197265625, -44.34737014770508
320,2885776042,0.55250746,0.49552792,-0.28080282,0.60855365,20.96428871154785,2.068460464477539,-31.02332305908203,102.50650024414062,430.8833923339844, -67.2342529296875
321,2885792709,0.57131296,0.47193426,-0.25332737,0.6218561,18.510009765625,2.8565211296081543,-38.707237243652344,-12.288873672485352,284.0203552246094, -74.68997192382812
322,2885809376,0.58758414,0.45427793,-0.24748772,0.6221948,12.124190330505371,2.725609540939331,-44.53855514526367,-96.08512878417969,128.16883850097656, -54.9622917175293
323,2885826043,0.5885884,0.45746386,-0.24495538,0.6199092,4.990699291229248,-6.83843469619751,-44.51676940917969,16.907106399536133,-7.448223114013672, -25.406946182250977
324,2885842710,0.5799541,0.4746206,-0.24999325,0.6131004,4.605879306793213,-5.997313976287842,-37.11233139038086,63.73067855834961,-127.12024688720703, -2.5209555625915527
325,2885859377,0.5721439,0.49309325,-0.2703094,0.59702873,4.528102874755859,-2.9475114345550537,-28.09699249267578,-14.160290718078613,-221.6421661376953, 4.5463337898254395
326,2885876044,0.5697907,0.51212496,-0.3006306,0.5680564,15.901726722717285,7.754927158355713,-46.982566833496094,-95.65682983398438,-296.39111328125, -35.68912887573242
327,2885892711,0.57096434,0.52285796,-0.3489166,0.5280876,11.01076602935791,-20.49421501159668,6.6414947509765625,-233.9317169189453,-364.82830810546875, -11.713214874267578
328,2885909378,0.5628365,0.540631,-0.38096976,0.49577758,9.076203346252441,-4.666301250457764,0.12716364860534668,-95.14627838134766,-321.6417541503906, -23.336565017700195
329,2885926045,0.54912925,0.5616514,-0.40326428,0.46944964,6.863563537597656,1.7422665357589722,0.5299385786056519,-12.798705101013184,-287.44598388671875, -25.965330123901367
330,2885942712,0.5389246,0.5764177,-0.42095092,0.44732943,7.470479965209961,-2.3518614768981934,-1.3250702619552612,-23.36246109008789,-224.04745483398438, -21.75847053527832
331,2885959379,0.5279174,0.589866,-0.4333867,0.43074086,8.712050437927246,-1.1167774200439453,-0.5804972052574158,7.141096591949463,-181.05911254882812, -15.842521667480469
332,2885976046,0.5170202,0.60120046,-0.4412736,0.42014986,8.486869812011719,0.1608133167028427,-0.46877914667129517,30.40996551513672,-133.7867431640625, -6.623270034790039
333,2885992713,0.5053411,0.6113345,-0.44564024,0.41509703,8.178598403930664,0.02887883596122265,-1.7685127258300781,56.392208099365234,-97.44590759277344, 4.338005542755127
334,2886009380,0.49290636,0.6205342,-0.44783,0.41403985,9.073015213012695,0.8997148275375366,0.0012513697147369385,74.82006072998047,-72.8612060546875, 13.990760803222656
335,2886026047,0.47776803,0.6307408,-0.44814143,0.41602042,11.408947944641113,-1.0498616695404053,0.7545793652534485,104.52690887451172,-64.90817260742188, 20.765487670898438
336,2886042714,0.46017498,0.64108527,-0.44628686,0.42199147,12.599328994750977,0.4782988429069519,6.830317497253418,134.1811065673828,-48.6639518737793, 30.896095275878906
337,2886059381,0.43792227,0.65074277,-0.4444406,0.43270138,14.21480941772461,0.2715144753456116,10.443706512451172,167.17823791503906,-40.51557159423828, 61.40443420410156
338,2886076048,0.41258615,0.6593283,-0.44286102,0.44601917,8.796585083007812,2.9127116203308105,15.625797271728516,185.05218505859375,-36.40966033935547, 82.75691223144531
339,2886092715,0.38585562,0.669268,-0.44153127,0.45633972,6.051992416381836,8.807096481323242,13.581942558288574,185.4456329345703,-59.74072265625, 75.53260040283203
340,2886109382,0.36628294,0.6755903,-0.4537428,0.4511454,4.234896183013916,4.240882396697998,10.605463027954102,53.40273666381836,-134.5006866455078, 85.41910552978516
341,2886126049,0.34216443,0.6899066,-0.4685917,0.43286756,5.5059051513671875,13.506988525390625,5.058010101318359,45.706077575683594,-241.3238983154297, 54.003597259521484
342,2886142716,0.34844196,0.6951414,-0.50046587,0.38065842,15.980907440185547,15.021990776062012,11.106319427490234,-279.91510009765625,-317.75067138671875, -5.92167329788208
343,2886159383,0.35449034,0.7023343,-0.52448297,0.32554683,8.707101821899414,-1.7979228496551514,24.159574508666992,-263.3539123535156,-319.2918701171875, -56.29751205444336
344,2886176050,0.33638018,0.7195326,-0.53136027,0.29458064,12.96721363067627,-4.336258411407471,22.996463775634766,3.3791792392730713,-271.1156005859375, -62.37476348876953
345,2886192717,0.30414703,0.7387486,-0.5299394,0.2844456,9.032979011535645,-3.3945260047912598,27.38357162475586,170.92877197265625,-205.33157348632812, -34.16861343383789
346,2886209384,0.27073434,0.7557587,-0.5244246,0.283744,8.33946704864502,2.4609196186065674,27.2763614654541,214.76988220214844,-149.62918090820312, -24.880287170410156
347,2886226051,0.24453966,0.7672506,-0.51926935,0.28615797,5.842874050140381,0.7130036354064941,23.582080841064453,177.63998413085938,-98.03855895996094, -11.186104774475098
348,2886242718,0.22183858,0.7757289,-0.51321745,0.2926439,5.416171550750732,0.7234046459197998,19.968738555908203,170.5121307373047,-57.1961784362793, -4.998607158660889
349,2886259385,0.21051542,0.7799671,-0.5087648,0.2974781,4.814600944519043,2.4811227321624756,17.16802978515625,94.3415756225586,-20.19681739807129, -6.761322498321533
350,2886276052,0.21434675,0.7793309,-0.50648254,0.30029055,4.333055019378662,1.1931471824645996,13.692178726196289,-5.4407572746276855,28.441940307617188, -11.900917053222656
351,2886292719,0.23391686,0.77367145,-0.50500184,0.30280137,2.4136247634887695,1.9274470806121826,10.793184280395508,-99.86129760742188,90.55323791503906, -23.124000549316406
352,2886309386,0.26546785,0.76246846,-0.502723,0.30893102,1.2259567975997925,-0.5611620545387268,7.697356700897217,-158.2633514404297,164.0841522216797, -27.401559829711914
353,2886326053,0.300322,0.74682826,-0.4968384,0.3243546,1.2674860954284668,-0.25899752974510193,5.183306694030762,-143.90853881835938,240.2064971923828, -21.24542808532715
354,2886342720,0.3366426,0.7272357,-0.48636556,0.34820834,2.0358638763427734,-0.4859005808830261,2.775297164916992,-120.57373809814453,306.8479309082031, -17.33349609375
355,2886359387,0.37052158,0.7055777,-0.46913782,0.3805044,2.5807151794433594,-0.22959284484386444,0.8912514448165894,-68.72647094726562,361.5857238769531, -18.91598129272461
356,2886376054,0.40444043,0.68081975,-0.44550046,0.41766235,5.014194965362549,-1.4728440046310425,-3.732592821121216,-44.346588134765625,409.9148254394531, -27.752351760864258
357,2886392721,0.4358057,0.6538533,-0.4169603,0.45682997,5.523428916931152,-2.831831932067871,-6.158155918121338,-18.28669548034668,431.7428894042969, -31.03931999206543
358,2886409388,0.46525386,0.6252646,-0.38628083,0.49332568,5.580743789672852,-3.178457498550415,-8.874930381774902,-15.47027587890625,426.0597839355469, -38.03314208984375
359,2886426055,0.49723136,0.59072655,-0.36300966,0.5215624,4.904956817626953,-3.6754977703094482,-10.957610130310059,-92.4954605102539,394.1573181152344, -25.468914031982422
360,2886442722,0.5317205,0.5481123,-0.35300925,0.54058385,7.325883865356445,-1.0638890266418457,-17.755760192871094,-200.98910522460938,347.1086730957031, 7.8941826820373535
361,2886459389,0.5570647,0.5090974,-0.34087875,0.5606249,8.917229652404785,-3.29784893989563,-23.09796142578125,-143.0272979736328,323.9326477050781, 28.730539321899414
362,2886476056,0.56878865,0.48255962,-0.319936,0.5841719,7.674405097961426,-1.0648808479309082,-24.65532112121582,-5.404711723327637,290.9057922363281, 34.4777717590332
363,2886492723,0.5740337,0.4640248,-0.29983175,0.6043734,6.3196821212768555,1.4008934497833252,-29.414682388305664,36.558170318603516,231.1308135986328, 32.60515213012695
364,2886509390,0.5753919,0.45347896,-0.28222242,0.61937994,2.6216373443603516,4.480419635772705,-28.40003204345703,59.22698974609375,164.64588928222656, 19.801183700561523
365,2886526057,0.57178086,0.45469028,-0.2651696,0.6292921,-0.057570070028305054,4.41579008102417,-29.920169830322266,108.72105407714844,87.88154602050781, -0.17020809650421143
366,2886542724,0.56638473,0.46357563,-0.25545892,0.63170165,-2.0824272632598877,3.138032913208008,-27.232336044311523,98.72278594970703,0.11581825464963913, -12.923606872558594
367,2886559391,0.56399655,0.4732202,-0.26256078,0.6237248,-3.1812963485717773,5.295963287353516,-22.238618850708008,0.542731761932373,-95.61431121826172, -14.119439125061035
368,2886576058,0.5611392,0.48477045,-0.27984533,0.6097597,-2.8550026416778564,-2.4450273513793945,-19.362003326416016,-45.31455612182617,-162.9585418701172, -5.417709827423096
369,2886592725,0.55322564,0.5027321,-0.2971983,0.594033,-2.001884698867798,-1.8798363208770752,-15.676175117492676,-7.4981818199157715,-205.1435089111328, -3.0785529613494873
370,2886609392,0.54439056,0.5226693,-0.31425148,0.5759358,1.3181843757629395,2.0809133052825928,-16.40323829650879,-0.4994576871395111,-221.7000274658203, -13.369220733642578
371,2886626059,0.5482937,0.5343881,-0.35176224,0.5385787,12.894436836242676,7.065053462982178,-42.38641357421875,-199.92733764648438,-307.00341796875, -44.33064651489258
372,2886642726,0.5382855,0.55659413,-0.38194373,0.5045502,6.7887420654296875,-9.57591438293457,15.335651397705078,-74.42765045166016,-337.953857421875, -31.948579788208008
373,2886659393,0.53514266,0.5717632,-0.4045255,0.47230121,12.053974151611328,-3.3457326889038086,3.543304443359375,-95.44307708740234,-261.3157958984375, -59.91179656982422
374,2886676060,0.52778333,0.58899367,-0.4220244,0.44320038,11.935894012451172,0.6693238615989685,8.686955451965332,-45.94334411621094,-248.95384216308594, -60.3575553894043
375,2886692727,0.521432,0.6019958,-0.43667477,0.41835976,13.778661727905273,-4.156627655029297,-0.33036181330680847,-44.23768615722656,-206.07705688476562, -47.19546127319336
376,2886709394,0.5127184,0.6139443,-0.44783786,0.39954162,11.529793739318848,-0.8265470862388611,0.9383005499839783,-10.067501068115234,-172.8717498779297, -30.264633178710938
377,2886726061,0.5007501,0.62710136,-0.45451695,0.38653296,10.082659721374512,-0.615639865398407,1.047023057937622,38.19123458862305,-146.1099853515625, -23.627059936523438
378,2886742728,0.48749995,0.6390501,-0.45848832,0.37914044,9.586851119995117,1.3865916728973389,1.0304328203201294,64.35734558105469,-113.59927368164062, -8.958670616149902
379,2886759395,0.47230574,0.6491926,-0.46211943,0.37672538,10.053112983703613,0.66898512840271,-0.35071760416030884,83.4927978515625,-92.24404907226562, 16.857830047607422
380,2886776062,0.4565561,0.6565582,-0.4658031,0.37883425,10.100715637207031,-0.24800102412700653,5.90186071395874,91.27623748779297,-66.98209381103516, 41.86537551879883
381,2886792729,0.43944183,0.66256994,-0.4686245,0.3850755,13.013267517089844,-0.25469839572906494,7.381026268005371,108.81640625,-46.93381118774414, 58.61333084106445
382,2886809396,0.42192543,0.66655624,-0.47285604,0.3925417,7.628126621246338,0.8052549362182617,13.27153205871582,104.90320587158203,-42.131351470947266, 76.09573364257812
383,2886826063,0.40674746,0.6694157,-0.48001105,0.39500457,5.50563383102417,2.100511074066162,10.749711036682129,66.92694854736328,-63.662471771240234, 72.23392486572266
384,2886842730,0.39234218,0.67383164,-0.48535317,0.39553884,4.714478492736816,4.1372480392456055,16.877065658569336,66.3968276977539,-69.760986328125, 51.268001556396484
385,2886859397,0.3802921,0.67683506,-0.49811944,0.3861985,4.087865829467773,-0.3789602518081665,10.940960884094238,-1.3455885648727417,-124.70166015625, 57.4544677734375
386,2886876064,0.36741784,0.68262714,-0.51407987,0.36707807,6.188546657562256,1.620315670967102,4.839656829833984,-32.15805435180664,-189.3826904296875, 39.3563346862793
387,2886892731,0.35844907,0.68890864,-0.5305961,0.33968666,12.136953353881836,3.560884952545166,11.593350410461426,-79.88262939453125,-217.3938751220703, 9.521820068359375
388,2886909398,0.3430038,0.6977045,-0.544419,0.31490463,4.810815811157227,-3.6964380741119385,17.95743179321289,-27.129812240600586,-228.67237854003906, 9.203373908996582
389,2886926065,0.31403458,0.71203184,-0.55182314,0.29980752,11.447339057922363,2.7181363105773926,15.752286911010742,100.94931030273438,-230.5421142578125, 9.681198120117188
390,2886942732,0.28947264,0.7231008,-0.5595068,0.28334263,7.667361736297607,5.953679084777832,20.4092960357666,66.6218032836914,-215.333251953125, 11.46911334991455
391,2886959399,0.27018207,0.7314064,-0.5668112,0.2660293,6.334395885467529,3.2913286685943604,19.88138771057129,32.51935577392578,-194.10166931152344, 8.478738784790039
392,2886976066,0.25183922,0.7390899,-0.5708559,0.25386345,6.195317268371582,1.7618268728256226,18.554916381835938,52.71684646606445,-158.19923400878906, 2.4704651832580566
393,2886992733,0.23252308,0.74601674,-0.57138133,0.25082955,6.381264686584473,1.9866752624511719,17.70827865600586,98.40472412109375,-108.99234008789062, 5.209142208099365
394,2887009400,0.2164111,0.7506387,-0.5700211,0.25452656,6.7038421630859375,3.9686505794525146,16.75954818725586,108.03533935546875,-55.63552474975586, 10.042619705200195
395,2887026067,0.2094989,0.75143796,-0.5686044,0.261037,5.502324104309082,3.6905314922332764,14.464030265808105,66.06787872314453,1.006819248199463, 13.097896575927734
396,2887042734,0.21319245,0.7488652,-0.56655693,0.26974708,4.845694065093994,2.7313785552978516,11.397539138793945,16.198139190673828,60.2103157043457, 7.355077266693115
397,2887059401,0.22715826,0.7432344,-0.5632329,0.28066105,3.6566596031188965,3.3339343070983887,9.116167068481445,-30.2012996673584,118.65225982666016, -3.0503649711608887
398,2887076068,0.25196388,0.7343491,-0.5579854,0.29308385,2.894714593887329,4.0186944007873535,7.447412967681885,-81.08659362792969,177.2840118408203, -18.84351921081543
399,2887092735,0.28454298,0.7220963,-0.55013835,0.30815598,2.2473056316375732,4.015249252319336,6.136717796325684,-110.70610046386719,231.51803588867188, -30.191877365112305
400,2887109402,0.3216664,0.7064474,-0.53885627,0.32725668,1.6125661134719849,3.5102765560150146,5.233377933502197,-117.3246078491211,282.4439392089844, -36.2446403503418
401,2887126069,0.36014926,0.6881829,-0.5226111,0.35153177,1.283003330230713,3.1351146697998047,4.008970260620117,-99.29589080810547,329.3576965332031, -42.36265563964844
402,2887142736,0.39962524,0.6663142,-0.50209975,0.3797644,1.692710041999817,0.7485607266426086,2.396289110183716,-88.32225036621094,370.87799072265625, -42.24057388305664
403,2887159403,0.43661565,0.64262325,-0.47485787,0.41341543,2.197047233581543,-0.6997779011726379,0.34886807203292847,-45.59989929199219,410.397216796875, -45.469261169433594
404,2887176070,0.47204962,0.6161666,-0.44359943,0.44802627,3.1186962127685547,-3.4007341861724854,-2.375060796737671,-32.428951263427734,429.5810241699219, -46.92006301879883
405,2887192737,0.50141627,0.589254,-0.40741965,0.4851504,3.9950850009918213,-4.965799808502197,-3.860442876815796,14.693729400634766,439.33740234375, -39.59748077392578
406,2887209404,0.5250878,0.56311363,-0.36790222,0.5213769,6.3672685623168945,-0.7435140013694763,-8.623663902282715,49.13063430786133,428.98101806640625, -39.41346740722656
407,2887226071,0.5469197,0.535949,-0.3302162,0.5519011,8.080734252929688,2.424325466156006,-14.730475425720215,31.51665496826172,399.86883544921875, -43.587615966796875
408,2887242738,0.5654696,0.5102236,-0.29638878,0.57625496,9.115476608276367,2.4381752014160156,-20.495174407958984,20.172571182250977,350.6236267089844, -43.20059585571289
409,2887259405,0.5764353,0.4916813,-0.2663925,0.5958246,8.618118286132812,-1.1597747802734375,-26.492538452148438,49.47240447998047,276.2842102050781, -32.81840515136719
410,2887276072,0.58118767,0.4818091,-0.24491277,0.6083575,6.839102268218994,0.832455575466156,-32.93346405029297,56.72425842285156,173.4249725341797, -22.384092330932617
411,2887292739,0.5779501,0.48496193,-0.23009068,0.61469007,1.5339356660842896,-2.256978988647461,-38.25350570678711,96.44889831542969,60.230567932128906, -13.643014907836914
412,2887309406,0.5684622,0.4997133,-0.22392628,0.6139988,0.6243410110473633,-3.516016960144043,-36.447635650634766,115.16661834716797,-54.495601654052734, -4.756986141204834
413,2887326073,0.5585795,0.51790345,-0.23324938,0.60445017,-0.7722082734107971,-4.265116214752197,-27.938064575195312,50.47811508178711,-158.72509765625, 10.024660110473633
414,2887342740,0.5557188,0.531429,-0.25898156,0.5845414,1.6733143329620361,-1.61066472530365,-21.24721336364746,-77.58641815185547,-226.6134033203125, 6.89847993850708
415,2887359407,0.56470054,0.5440308,-0.29821622,0.5442527,15.133541107177734,27.99319839477539,-61.64813232421875,-215.34815979003906,-326.9245910644531, -67.35647583007812
416,2887376074,0.5836951,0.5386586,-0.36405614,0.4864258,11.721271514892578,-27.68501853942871,12.13589859008789,-460.1151428222656,-405.1488037109375, -34.50419998168945
417,2887392741,0.5720949,0.560217,-0.39204407,0.4529522,23.872509002685547,7.312138080596924,4.2358222007751465,-49.60245895385742,-330.0772705078125, -42.47578811645508
418,2887409408,0.55970275,0.57758605,-0.4170388,0.42332715,14.295677185058594,-17.72945213317871,3.2001099586486816,-43.13951110839844,-292.7619934082031, -24.818649291992188
419,2887426075,0.5452977,0.5923305,-0.4380855,0.399845,12.951093673706055,-12.14432430267334,-5.825850009918213,-15.642130851745605,-251.55496215820312, -4.274423122406006
420,2887442742,0.53412116,0.6021351,-0.45287865,0.3834696,7.999558925628662,3.3457283973693848,-1.3942558765411377,-8.501154899597168,-175.6240234375, 2.298523187637329
421,2887459409,0.5228198,0.61135274,-0.46086374,0.37484923,8.762645721435547,3.6592788696289062,-0.14807675778865814,32.027305603027344,-117.40233612060547, 4.809900283813477
422,2887476076,0.50995684,0.6196314,-0.4653127,0.37347683,9.466919898986816,3.8092637062072754,-0.5025683641433716,67.3888168334961,-76.89093780517578, 22.958354949951172
423,2887492743,0.49717456,0.62637407,-0.4676723,0.37650478,10.722090721130371,-1.1264218091964722,0.5076180100440979,81.20928955078125,-46.74912643432617, 34.08924102783203
424,2887509410,0.4824919,0.6344578,-0.46452668,0.38584962,14.044081687927246,-1.3715652227401733,5.794650077819824,128.6820068359375,-10.534339904785156, 32.16687774658203
425,2887526077,0.46648565,0.64105314,-0.45380738,0.40681776,13.07883358001709,-4.584237575531006,7.614630222320557,186.94581604003906,64.41859436035156, 45.39839172363281
426,2887542744,0.4428878,0.65101224,-0.4484584,0.4229877,4.415818214416504,-4.647898197174072,4.338902473449707,201.43991088867188,-7.791829586029053, 63.72412872314453
427,2887559411,0.42016312,0.6605024,-0.45357633,0.4259908,7.3494873046875,3.6045589447021484,-0.3847310543060303,125.2020034790039,-94.976806640625, 68.90367126464844
428,2887576078,0.39943913,0.6715025,-0.46429354,0.41709042,2.40600323677063,3.44942307472229,-0.8140749931335449,67.0079574584961,-163.58604431152344, 49.387451171875
429,2887592745,0.38093916,0.6849044,-0.47961622,0.39466405,8.236488342285156,9.177685737609863,-1.6272985935211182,6.939172267913818,-238.56463623046875, 19.59984588623047
430,2887609412,0.36443886,0.6980365,-0.50033456,0.35999292,6.0289082527160645,3.2120797634124756,8.589889526367188,-58.214359283447266,-303.2398986816406, 8.865263938903809
431,2887626079,0.33891365,0.7149071,-0.51799464,0.32515693,11.446375846862793,4.78798246383667,12.143715858459473,1.5478395223617554,-337.40631103515625, 3.4256327152252197
432,2887642746,0.3046019,0.7321077,-0.5334845,0.29433063,10.07846736907959,2.255157470703125,20.855602264404297,64.79314422607422,-345.7647705078125, 20.720809936523438
433,2887659413,0.26609156,0.7475852,-0.5448775,0.27096194,9.546144485473633,0.8138706088066101,25.599952697753906,118.12606048583984,-313.00299072265625, 30.560195922851562
434,2887676080,0.22431834,0.7619598,-0.5500687,0.25792098,7.995973587036133,1.2930760383605957,28.429336547851562,183.25157165527344,-260.3335266113281, 27.811153411865234
435,2887692747,0.18336783,0.77390134,-0.551671,0.25122142,6.4710917472839355,6.365958213806152,28.821809768676758,205.6282958984375,-215.7151641845703, 26.703645706176758
436,2887709414,0.15370098,0.781767,-0.55343705,0.24274227,6.983390808105469,7.699105739593506,26.77555274963379,133.5774688720703,-176.93190002441406, 21.745649337768555
437,2887726081,0.1357814,0.7870185,-0.5549189,0.23287414,8.03359603881836,7.363619327545166,23.79361343383789,63.070281982421875,-136.2893524169922, 9.542085647583008
438,2887742748,0.12680283,0.7913082,-0.554918,0.22320104,8.174077987670898,8.580364227294922,19.908288955688477,17.13431739807129,-99.357421875, -8.590579986572266
439,2887759415,0.1245989,0.7949923,-0.55285656,0.21636072,9.257699966430664,7.395185947418213,15.656328201293945,-5.9814276695251465,-56.37610626220703, -25.082983016967773
440,2887776082,0.12869862,0.79630435,-0.5500732,0.21623048,11.119504928588867,8.401174545288086,11.332527160644531,-15.616657257080078,7.501001834869385, -23.38463020324707
441,2887792749,0.1514121,0.79304725,-0.54913753,0.21586663,9.330059051513672,5.001738548278809,8.008752822875977,-124.93170166015625,80.88398742675781, -23.70616912841797
442,2887809416,0.1799976,0.7877003,-0.5446516,0.22468603,8.12540054321289,1.4880478382110596,5.198779106140137,-119.04451751708984,159.2303924560547, -34.434043884277344
443,2887826083,0.21318103,0.7801199,-0.5357134,0.24285404,6.022345066070557,1.8956019878387451,2.640443801879883,-104.78945922851562,235.55123901367188, -45.9273681640625
444,2887842750,0.24916258,0.7698598,-0.52230376,0.2691334,4.2718586921691895,-0.2062232792377472,0.4614832401275635,-86.33282470703125,300.15435791015625, -52.943931579589844
445,2887859417,0.28735712,0.7559131,-0.5052835,0.30118117,3.0114874839782715,-0.6325361728668213,-1.263161301612854,-76.98086547851562,351.6204528808594, -53.168846130371094
446,2887876084,0.32719743,0.7382982,-0.48483002,0.3358537,2.200413227081299,-0.48915156722068787,-1.5172994136810303,-76.58733367919922,385.4906311035156, -56.611087799072266
447,2887892751,0.3693047,0.71681416,-0.46151927,0.36985347,2.3985393047332764,-2.8652358055114746,-2.1515588760375977,-92.46833038330078,405.18389892578125, -65.08658599853516
448,2887909418,0.41342655,0.6897452,-0.43765628,0.40222776,3.3787431716918945,-7.019279956817627,-4.5670881271362305,-120.3663101196289,419.40899658203125, -59.6142692565918
449,2887926085,0.45371923,0.6585647,-0.41292492,0.43580338,3.6217243671417236,-8.203474044799805,-5.959239959716797,-107.87629699707031,427.79827880859375, -37.840946197509766
450,2887942752,0.48622373,0.6261755,-0.38569778,0.47194067,3.904582977294922,-7.737276554107666,-7.4933295249938965,-61.57561111450195,429.1725769042969, -14.813905715942383
451,2887959419,0.5119957,0.59258544,-0.35775658,0.50863856,4.855818748474121,-5.937230110168457,-8.225335121154785,-32.75276565551758,420.6019287109375, 8.729900360107422
452,2887976086,0.5305422,0.5614455,-0.32845882,0.54352456,6.727360725402832,-0.5562847256660461,-13.374603271484375,5.640644073486328,392.265869140625, 15.937689781188965
453,2887992753,0.5462953,0.5316436,-0.30209157,0.5724137,10.340256690979004,5.103758335113525,-22.48824691772461,-3.35079288482666,348.0584716796875, 12.89268970489502
454,2888009420,0.5563968,0.5080359,-0.2745265,0.59745926,6.579190254211426,1.8660238981246948,-21.661334991455078,36.880855560302734,303.968994140625, 3.715677499771118
455,2888026087,0.5551975,0.5002565,-0.24189346,0.61885935,3.850910186767578,-1.5383048057556152,-26.67340087890625,150.50723266601562,225.74432373046875, -11.216257095336914
456,2888042754,0.55307215,0.5000565,-0.21818446,0.629643,2.4682250022888184,1.5761209726333618,-32.15135955810547,126.6174087524414,123.04718780517578, -29.731069564819336
457,2888059421,0.5538599,0.5026363,-0.21152557,0.6291685,-1.4657282829284668,3.9981818199157715,-31.09025764465332,35.848636627197266,13.74156665802002, -30.73798179626465
458,2888076088,0.55131423,0.511626,-0.21879926,0.6216256,-0.5253793001174927,-4.559362888336182,-33.544376373291016,0.5034974813461304,-94.64924621582031, -4.331449031829834
459,2888092755,0.5443506,0.5275234,-0.23540668,0.60826397,1.200181484222412,-4.3587446212768555,-27.076961517333984,-6.882980823516846,-184.82943725585938, 14.766520500183105
460,2888109422,0.5376028,0.5516491,-0.25567853,0.5842048,14.092095375061035,7.653753757476807,-51.59608459472656,-9.872636795043945,-269.9256591796875, -26.307235717773438
461,2888126089,0.5590329,0.5525655,-0.32549772,0.5255521,25.55910301208496,-0.8547166585922241,-17.490982055664062,-464.20562744140625,-438.96136474609375, -37.78329849243164
462,2888142756,0.5565522,0.5707944,-0.35939738,0.48505348,0.7713347673416138,-13.936079978942871,23.08684539794922,-135.9136962890625,-346.35882568359375, -55.96504592895508
463,2888159423,0.5466825,0.59396464,-0.38626522,0.44625503,21.83384895324707,1.9209187030792236,-0.3323853015899658,-59.60641098022461,-349.11614990234375, -64.86676025390625
464,2888176090,0.54082716,0.6080471,-0.4103033,0.4116261,4.590831279754639,-3.6609537601470947,0.16930899024009705,-90.29520416259766,-282.9434814453125, -48.79362487792969
465,2888192757,0.53130734,0.6213365,-0.42723608,0.38616472,8.214385032653809,-0.9328010678291321,-0.9314324855804443,-31.791610717773438,-226.43313598632812, -31.7793025970459
466,2888209424,0.52351046,0.6307702,-0.44057742,0.36600173,8.838919639587402,-2.83717942237854,-4.587871074676514,-28.02649688720703,-175.5069122314453, -21.046348571777344
467,2888226091,0.514128,0.6388696,-0.45009074,0.35346353,8.822811126708984,-3.269896984100342,-2.809131145477295,6.8630194664001465,-130.0350799560547, -2.373786211013794
468,2888242758,0.50400645,0.6458766,-0.45599896,0.3476864,10.673151969909668,3.266533136367798,-1.501228928565979,36.04399490356445,-87.27742004394531, 10.538034439086914
469,2888259425,0.49096835,0.65283984,-0.45852217,0.35001117,12.18970775604248,5.292534351348877,3.6439743041992188,82.45269012451172,-48.78594207763672, 30.54026985168457
470,2888276092,0.47616127,0.66031426,-0.45845315,0.35647768,14.224428176879883,0.9797359704971313,2.1303791999816895,111.60626983642578,-28.764631271362305, 35.36813735961914
471,2888292759,0.4580853,0.6692934,-0.45529693,0.36729965,13.652878761291504,-2.3058125972747803,9.73083209991455,152.86378479003906,-13.342948913574219, 38.438419342041016
472,2888309426,0.43958443,0.67670524,-0.45255423,0.37951326,10.868425369262695,-4.906491279602051,11.209181785583496,153.46888732910156,-6.5340423583984375, 50.12495422363281
473,2888326093,0.41243294,0.6893064,-0.44227436,0.3989351,6.522673606872559,2.8221001625061035,13.505311965942383,251.79722595214844,8.34286117553711, 42.62248611450195
474,2888342760,0.3973396,0.69473976,-0.4497001,0.3965197,1.5375440120697021,3.9586105346679688,8.40068244934082,59.50779724121094,-90.0719223022461, 53.25178146362305
475,2888359427,0.3819133,0.7009815,-0.4664725,0.3810128,2.7465994358062744,4.160322189331055,6.099009037017822,-2.5614099502563477,-181.97393798828125, 60.73341369628906
476,2888376094,0.36597085,0.70984757,-0.484802,0.3565797,5.733499526977539,5.384352207183838,1.371868371963501,-25.841157913208008,-238.09613037109375, 37.952266693115234
477,2888392761,0.35696235,0.7162076,-0.50623584,0.321481,8.519277572631836,1.3729329109191895,10.786630630493164,-109.14558410644531,-269.004638671875, 17.888574600219727
478,2888409428,0.33536744,0.7281408,-0.52178127,0.29169205,6.177281379699707,1.727699875831604,18.34465789794922,-1.8889803886413574,-285.3887634277344, 10.364937782287598
479,2888426095,0.31232902,0.74036187,-0.5337564,0.26347512,7.24233865737915,7.091055870056152,24.052833557128906,18.92279815673828,-276.17779541015625, -1.9869424104690552
480,2888442762,0.2924868,0.74968183,-0.54383767,0.23805328,6.063386917114258,-0.11049658060073853,24.13185691833496,10.35802173614502,-242.27659606933594, -0.49054643511772156
481,2888459429,0.2663974,0.76031923,-0.5481134,0.22476435,6.681183338165283,0.660842776298523,23.049936294555664,100.22533416748047,-194.82684326171875, -0.7236042618751526
482,2888476096,0.23972178,0.7691592,-0.5502992,0.21931368,5.920602798461914,2.4225473403930664,22.371957778930664,132.90109252929688,-150.61817932128906, 10.507258415222168
483,2888492763,0.21441497,0.7756961,-0.5518398,0.21862046,5.638384819030762,1.5647077560424805,20.185501098632812,140.97854614257812,-116.77900695800781, 21.858631134033203
484,2888509430,0.19298704,0.7803139,-0.5522832,0.22101934,5.588150501251221,2.060765027999878,18.17176628112793,130.9178009033203,-81.94700622558594, 22.28770637512207
485,2888526097,0.17780064,0.78281474,-0.5517817,0.22610886,5.673818588256836,1.4175390005111694,15.398104667663574,106.33102416992188,-40.09794235229492, 19.63507080078125
486,2888542764,0.17168757,0.7832581,-0.55014116,0.23318493,6.040750980377197,3.964751958847046,12.68497085571289,64.30724334716797,8.964895248413086, 9.856525421142578
487,2888559431,0.18084504,0.7803048,-0.5487828,0.239284,5.510022163391113,2.5161056518554688,9.674219131469727,-26.010438919067383,66.00726318359375, -1.2136280536651611
488,2888576098,0.19973277,0.7747609,-0.5458307,0.24883974,4.876487731933594,2.563270330429077,6.9252190589904785,-65.73865509033203,127.06220245361328, -11.705313682556152
489,2888592765,0.22925341,0.7654313,-0.5413833,0.2616526,4.645192623138428,2.9441750049591064,5.159616470336914,-112.77665710449219,192.53231811523438, -19.28595542907715
490,2888609432,0.26376596,0.75318354,-0.5335278,0.28016135,4.806502342224121,2.5509707927703857,3.3225061893463135,-116.28141784667969,251.48016357421875, -26.508394241333008
491,2888626099,0.30061245,0.7385621,-0.5213892,0.30382824,5.1853251457214355,4.147382736206055,1.7489584684371948,-105.46119689941406,298.94482421875, -35.2685661315918
492,2888642766,0.33881178,0.7216789,-0.50415504,0.33198503,5.453097343444824,4.53626823425293,0.9865093231201172,-90.19160461425781,341.7796630859375, -46.6114616394043
493,2888659433,0.37768447,0.7026054,-0.48132727,0.36335143,5.8635640144348145,3.615771770477295,-0.4912719428539276,-74.6573715209961,378.0545349121094, -60.80251693725586
494,2888676100,0.4183555,0.6795073,-0.454555,0.39576292,6.506775379180908,0.2379981279373169,-2.7715399265289307,-80.4258804321289,409.43798828125, -68.2998275756836
495,2888692767,0.45590168,0.65389967,-0.42334995,0.4305157,6.186502933502197,-3.4743430614471436,-4.317872047424316,-53.5999641418457,430.40966796875, -66.02212524414062
496,2888709434,0.4895585,0.6255919,-0.38949302,0.46611434,5.610988616943359,-6.327095031738281,-5.208507061004639,-34.19099807739258,439.54840087890625, -56.091426849365234
497,2888726101,0.5174334,0.59558874,-0.355653,0.5010467,6.2122697830200195,-5.997284412384033,-8.809786796569824,-16.763145446777344,426.9900817871094, -35.399871826171875
498,2888742768,0.5431239,0.5626825,-0.325192,0.5316533,9.918581008911133,-1.3253260850906372,-14.481624603271484,-40.32745361328125,402.5380554199219, -22.512516021728516
499,2888759435,0.55896366,0.53508544,-0.29388452,0.5611374,9.282422065734863,-2.9480109214782715,-20.763870239257812,18.10854148864746,360.8616027832031, -5.8407063484191895
500,2888776102,0.56797004,0.5135845,-0.26579052,0.585659,8.669458389282227,0.8439087867736816,-25.978036880493164,44.07771301269531,294.20343017578125, 0.9387229681015015
501,2888792769,0.57295334,0.4971656,-0.24655376,0.60312706,4.6235456466674805,-2.200681447982788,-30.22626304626465,29.176570892333984,208.4095916748047, 11.632746696472168
502,2888809436,0.57312703,0.4902084,-0.23272103,0.6140539,2.9647836685180664,-1.0041224956512451,-33.199493408203125,49.02223205566406,119.0177993774414, 8.166518211364746
503,2888826103,0.5681597,0.49525535,-0.22335266,0.618086,-0.37107783555984497,-1.1906182765960693,-34.309608459472656,83.32254791259766,20.984539031982422, -1.5330240726470947
504,2888842770,0.5629878,0.5064963,-0.22617844,0.6126578,-0.4718942642211914,0.623058557510376,-31.794944763183594,41.3866081237793,-83.87832641601562, -5.694173336029053
505,2888859437,0.5579109,0.5206005,-0.24286334,0.5989392,-0.6889511346817017,-2.0698609352111816,-26.894020080566406,-19.644853591918945,-176.86683654785156, 5.642486095428467
506,2888876104,0.5507499,0.5379399,-0.2669625,0.5796779,0.3769308924674988,-2.8106801509857178,-20.694625854492188,-39.8939323425293,-240.75611877441406, 14.142976760864258
507,2888892771,0.54316866,0.55580324,-0.29432914,0.5562563,1.3123576641082764,0.5122236013412476,-13.157879829406738,-57.19691467285156,-270.4480285644531, 11.274903297424316
508,2888909438,0.5456636,0.57174236,-0.32602707,0.5187179,10.583213806152344,24.24047088623047,-42.790679931640625,-148.2471466064453,-312.3325500488281, -59.2462158203125
509,2888926105,0.5613098,0.5716497,-0.3830545,0.45980126,12.52398681640625,-16.445974349975586,7.98612117767334,-399.75994873046875,-403.1748962402344, -49.218257904052734
510,2888942772,0.55469227,0.589535,-0.40891054,0.42137572,9.95954704284668,10.868512153625488,6.317566871643066,-89.31703186035156,-318.0697937011719, -69.66405487060547
511,2888959439,0.5452889,0.60619044,-0.42883506,0.38896498,15.771937370300293,-4.696324825286865,7.9940595626831055,-48.544044494628906,-275.84649658203125, -58.6782112121582
512,2888976106,0.5332458,0.61988026,-0.4457951,0.36423093,18.426942825317383,-14.018495559692383,-2.5547895431518555,-17.724685668945312,-233.16107177734375, -26.73069190979004
513,2888992773,0.51981485,0.6322981,-0.46054012,0.34335768,10.053289413452148,-5.7859930992126465,-2.992689847946167,1.2389706373214722,-209.72640991210938, -15.412002563476562
514,2889009440,0.5074119,0.642807,-0.47087097,0.32804427,9.791617393493652,1.0309350490570068,-1.816550612449646,18.11679458618164,-162.049560546875, -11.479976654052734
515,2889026107,0.49448383,0.65267247,-0.47706383,0.31924087,9.956602096557617,1.2245280742645264,0.052883684635162354,48.68337631225586,-119.21981811523438, -3.933687925338745
516,2889042774,0.4803525,0.6615504,-0.4810021,0.31662247,10.655928611755371,1.9886456727981567,-0.07920686155557632,76.05844116210938,-85.8150405883789, 12.658907890319824
517,2889059441,0.46577898,0.6683833,-0.4835232,0.32018608,11.327960014343262,-1.0888218879699707,1.3720704317092896,94.95519256591797,-50.27589797973633, 34.143653869628906
518,2889076108,0.45036355,0.6736434,-0.48313478,0.33159935,13.442726135253906,-1.9902009963989258,6.856853485107422,126.43190002441406,-4.554777145385742, 52.62061309814453
519,2889092775,0.43036416,0.6799956,-0.47149783,0.36066955,11.13187313079834,-0.5920969247817993,12.920207977294922,235.579833984375,93.72144317626953, 61.53317642211914
520,2889109442,0.40547803,0.6888818,-0.4649925,0.38054115,0.6934489011764526,2.5743560791015625,3.184098958969116,223.57505798339844,12.493184089660645, 61.8326301574707
521,2889126109,0.38899055,0.69297534,-0.4744984,0.37858012,6.680782794952393,10.277385711669922,2.8268344402313232,58.77920913696289,-96.40928649902344, 70.1414566040039
522,2889142776,0.3755565,0.69661534,-0.4907968,0.3644217,3.3164408206939697,5.689907550811768,-0.6914492249488831,-14.398409843444824,-161.88926696777344, 63.787818908691406
523,2889159443,0.35401544,0.7074657,-0.5030248,0.3480395,6.54595947265625,2.6113414764404297,1.2190219163894653,45.79058074951172,-207.5646514892578, 34.74473190307617
524,2889176110,0.32519245,0.7224808,-0.5130555,0.33022028,5.158866882324219,3.581197738647461,9.959731101989746,91.69013214111328,-244.63623046875, 23.611539840698242
525,2889192777,0.2923013,0.7388907,-0.52224916,0.30960673,8.406064987182617,6.6925225257873535,12.648552894592285,107.14277648925781,-274.7689208984375, 17.60653305053711
526,2889209444,0.2613681,0.7532851,-0.53240895,0.28423408,7.585853576660156,8.788334846496582,19.248023986816406,74.11190032958984,-290.33056640625, 16.231828689575195
527,2889226111,0.23298502,0.76540434,-0.54175556,0.25763395,7.601834774017334,5.074962615966797,20.98972511291504,54.095375061035156,-282.3724670410156, 13.474570274353027
528,2889242778,0.20403141,0.77660334,-0.5472414,0.23618911,7.1260881423950195,3.642185688018799,21.36045265197754,81.83464813232422,-250.46087646484375, 6.023808479309082
529,2889259445,0.17533562,0.7864788,-0.54970694,0.22029732,6.3041605949401855,4.617462635040283,22.130887985229492,104.54644775390625,-214.28292846679688, 2.392033338546753
530,2889276112,0.14963499,0.79447436,-0.5507191,0.20767409,6.076374053955078,4.10155725479126,21.062175750732422,100.79793548583984,-181.4380340576172, 1.2412711381912231
531,2889292779,0.12844318,0.80064225,-0.5508871,0.19747837,6.4167985916137695,4.8791656494140625,20.03338623046875,84.82428741455078,-148.2808837890625, -0.20745857059955597
532,2889309446,0.114089586,0.8050118,-0.5505743,0.18922907,7.4052910804748535,4.709051609039307,18.81099510192871,53.7631721496582,-109.39879608154297, -3.4185779094696045
533,2889326113,0.106488265,0.807457,-0.5500786,0.18462722,9.801871299743652,4.823193550109863,16.291122436523438,29.05344009399414,-61.5901985168457, -2.9114177227020264
534,2889342780,0.11081489,0.8078389,-0.5496742,0.18158937,9.769166946411133,5.340556621551514,13.430779457092285,-32.76573944091797,-5.872619152069092, -8.477235794067383
535,2889359447,0.12800898,0.80561495,-0.54931265,0.18125711,8.573901176452637,1.1395012140274048,10.798672676086426,-95.9500732421875,60.42266845703125, -12.348369598388672
536,2889376114,0.1496256,0.80223125,-0.54597497,0.18960102,6.997685432434082,1.1939524412155151,8.067829132080078,-85.00492858886719,128.7732696533203, -22.449634552001953
537,2889392781,0.17862555,0.79653,-0.54040384,0.20395263,5.528875350952148,1.1660281419754028,6.1079020500183105,-102.6766128540039,194.6128387451172, -29.627859115600586
538,2889409448,0.2120124,0.7882918,-0.53229773,0.22428998,4.848545551300049,0.6143386363983154,4.104922771453857,-104.05438232421875,250.14393615722656, -33.008277893066406
539,2889426115,0.24942923,0.7769676,-0.52175015,0.24876416,4.111766338348389,1.8531887531280518,2.6157846450805664,-111.54163360595703,295.4972839355469, -35.26896286010742
540,2889442782,0.29040346,0.76196367,-0.5089182,0.2758254,3.136220932006836,1.3980598449707031,2.196631908416748,-123.70860290527344,332.22674560546875, -36.029144287109375
541,2889459449,0.33246917,0.7438998,-0.49310163,0.30484152,2.3230345249176025,0.9997738599777222,1.1652042865753174,-123.07418060302734,358.0280456542969, -39.248313903808594
542,2889476116,0.37642983,0.7216436,-0.47552618,0.3337754,2.5479893684387207,-0.979017436504364,-0.07651998102664948,-138.99171447753906,376.8829345703125, -38.33372497558594
543,2889492783,0.4169738,0.6968889,-0.4538204,0.3667774,2.984440803527832,-4.416911602020264,-2.2901675701141357,-105.74925994873047,402.4207763671875, -32.47633743286133
544,2889509450,0.44922587,0.6727148,-0.42614135,0.40503672,2.4318583011627197,-6.4436116218566895,-3.335120916366577,-32.86737823486328,417.5928649902344, -27.123661041259766
545,2889526117,0.47150776,0.651756,-0.3907671,0.44743225,3.3152360916137695,-5.990749359130859,-6.8990478515625,56.796260833740234,422.6023864746094, -31.694894790649414
546,2889542784,0.4870726,0.632537,-0.3501898,0.48992297,4.1727447509765625,-2.5259287357330322,-10.97704029083252,108.85045623779297,416.9185791015625, -38.66961669921875
547,2889559451,0.499602,0.6131153,-0.31057796,0.5272844,5.568801403045654,0.4413483142852783,-16.956499099731445,105.6917953491211,385.2848815917969, -40.758975982666016
548,2889576118,0.51458365,0.59085095,-0.28197715,0.55370367,7.155662536621094,3.7559146881103516,-21.81844711303711,22.04827880859375,317.59149169921875, -34.60832595825195
549,2889592785,0.5304729,0.5694903,-0.26326865,0.5700606,7.0299072265625,0.0396101176738739,-27.749162673950195,-35.96879959106445,240.94970703125, -35.16948699951172
550,2889609452,0.54061776,0.55716765,-0.2491248,0.57899356,4.5854926109313965,-2.304981231689453,-33.15690994262695,-12.175910949707031,150.57516479492188, -38.31443405151367
551,2889626119,0.54498297,0.5547473,-0.24153182,0.5804406,2.116407871246338,-1.4672143459320068,-35.894630432128906,7.509225368499756,49.57712173461914, -35.1368408203125
552,2889642786,0.5409644,0.56299245,-0.24133202,0.57632977,1.467970371246338,-4.71735143661499,-34.988399505615234,40.285423278808594,-54.42850875854492, -12.114611625671387
553,2889659453,0.52890056,0.5808835,-0.24612848,0.5676789,4.9070844650268555,-4.557008266448975,-37.13602066040039,79.63847351074219,-140.8447265625, 6.047339916229248
554,2889676120,0.5228241,0.60794556,-0.26609808,0.5350225,19.752716064453125,35.74563980102539,-72.87496185302734,-11.168671607971191,-316.26324462890625, -59.69896697998047
555,2889692787,0.5469191,0.6026585,-0.33632854,0.4738834,9.489089965820312,-38.93354415893555,22.293453216552734,-492.837646484375,-439.866943359375, -2.3921525478363037
556,2889709454,0.5335043,0.62790334,-0.36355424,0.43467107,16.19752311706543,0.9157734513282776,-0.45683273673057556,-29.930395126342773,-373.80322265625, -47.157859802246094
557,2889726121,0.5210312,0.6453244,-0.39304453,0.3969875,8.289718627929688,-4.564918518066406,4.549337863922119,-65.49815368652344,-349.82391357421875, -14.94265079498291
558,2889742788,0.51392937,0.65366405,-0.41741318,0.36656025,10.49838924407959,-7.511035442352295,-8.319787979125977,-88.02655792236328,-260.1727294921875, -1.8238532543182373
559,2889759455,0.50716424,0.66031486,-0.43577072,0.34186667,7.58820915222168,-1.816288948059082,-0.7630276083946228,-63.771121978759766,-207.7262420654297, -4.764986515045166
560,2889776122,0.49702942,0.6692207,-0.44593805,0.3259522,10.179210662841797,-1.7129080295562744,-3.315871238708496,5.053091049194336,-154.80152893066406, -10.244951248168945
561,2889792789,0.4855563,0.67826027,-0.45123655,0.31714946,8.666374206542969,2.5592873096466064,-0.6671159863471985,44.45098114013672,-109.88846588134766, -5.94679594039917
562,2889809456,0.47158137,0.6870076,-0.4544994,0.3147412,11.002153396606445,0.4047855734825134,-0.45827412605285645,79.48307037353516,-80.54792785644531, 12.17378044128418
563,2889826123,0.45695347,0.6941806,-0.4561307,0.3182007,11.801173210144043,1.3800809383392334,3.4252607822418213,99.42503356933594,-46.357513427734375, 29.595855712890625
564,2889842790,0.44213077,0.70022374,-0.45665216,0.32507816,14.022835731506348,-1.6499956846237183,4.94909143447876,110.0811767578125,-25.035667419433594, 38.79161071777344
565,2889859457,0.42533746,0.70488405,-0.45729345,0.33631694,11.63567066192627,-3.4411134719848633,10.708076477050781,128.95143127441406,-7.9198503494262695, 61.045989990234375
566,2889876124,0.4063539,0.71046746,-0.45881036,0.34584063,9.46583080291748,-0.5543351173400879,7.8713507652282715,135.0282440185547,-28.400447845458984, 62.11273193359375
567,2889892791,0.39125073,0.71439016,-0.4622277,0.350593,6.3822455406188965,6.512078762054443,17.955421447753906,91.9769287109375,-41.2939567565918, 53.909889221191406
568,2889909458,0.38231373,0.7153927,-0.47338063,0.34345335,0.598818838596344,3.2670321464538574,10.023608207702637,-2.480374574661255,-94.62644958496094, 54.487213134765625
569,2889926125,0.36717293,0.72277045,-0.48962593,0.3210193,4.134856224060059,3.489356756210327,-7.6193084716796875,-16.972732543945312,-218.87994384765625, 33.35847854614258
570,2889942792,0.35366747,0.73150724,-0.5063081,0.28890944,13.103166580200195,3.0258584022521973,2.701005220413208,-55.258941650390625,-265.4482421875, 3.018758535385132
571,2889959459,0.32594383,0.7455017,-0.5194294,0.26111466,7.701328277587891,-3.157533884048462,11.570685386657715,51.17575454711914,-295.4158935546875, 5.556252479553223
572,2889976126,0.28619137,0.762432,-0.52857894,0.23957525,10.56737995147705,3.960660457611084,16.64593505859375,148.92218017578125,-303.2215576171875, 10.197083473205566
573,2889992793,0.25150073,0.774587,-0.53766996,0.21834326,7.085084915161133,3.3105337619781494,23.63987922668457,114.25005340576172,-275.9096984863281, 19.616514205932617
574,2890009460,0.21726057,0.78564686,-0.542503,0.20309457,5.9711079597473145,1.813673973083496,24.15057945251465,138.558349609375,-234.08981323242188, 10.796480178833008
575,2890026127,0.18286836,0.7956935,-0.54351056,0.19500634,4.674684524536133,5.3936262130737305,24.700016021728516,169.99493408203125,-189.4916534423828, 4.95833683013916
576,2890042794,0.15682994,0.80195653,-0.54484457,0.1881872,4.521885871887207,5.818485736846924,23.450275421142578,123.94633483886719,-147.218505859375, 11.53586483001709
577,2890059461,0.13843007,0.8057369,-0.5461374,0.18264498,5.276178359985352,4.172431468963623,20.598506927490234,84.10272216796875,-108.78667449951172, 12.338125228881836
578,2890076128,0.12442493,0.80865145,-0.5459709,0.18032512,5.6302080154418945,3.687333583831787,18.32642364501953,72.94966888427734,-72.38179779052734, 5.226152420043945
579,2890092795,0.11620133,0.8108822,-0.5443822,0.1805977,5.778645038604736,3.5185317993164062,15.79128360748291,51.78968811035156,-34.57733917236328, -4.919114589691162
580,2890109462,0.11508166,0.8120614,-0.5416834,0.184097,6.675886631011963,3.5349936485290527,11.330625534057617,24.870412826538086,11.864026069641113, -13.296568870544434
581,2890126129,0.12558664,0.81149054,-0.5383361,0.18948731,5.777998924255371,4.069663047790527,7.922876358032227,-33.48689270019531,68.1531982421875, -23.540630340576172
582,2890142796,0.14725354,0.80853915,-0.5341816,0.19806787,4.760366916656494,2.8285605907440186,6.012834072113037,-84.89449310302734,130.8516845703125, -30.995763778686523
583,2890159463,0.17538542,0.8030944,-0.5284943,0.21206935,4.458039283752441,2.1021218299865723,3.8368232250213623,-101.32823181152344,189.52880859375, -33.71803283691406
584,2890176130,0.20769802,0.7950521,-0.5205115,0.2319949,4.366058826446533,2.6971235275268555,2.3187241554260254,-102.65715026855469,243.89080810546875, -35.97359085083008
585,2890192797,0.24330738,0.784111,-0.5100364,0.2565828,4.380222320556641,3.021624803543091,1.6959643363952637,-104.14462280273438,289.3020935058594, -37.86748504638672
586,2890209464,0.281033,0.7701517,-0.4965116,0.2852425,4.429296970367432,2.566004753112793,0.44941580295562744,-100.93389892578125,329.0673828125, -40.6752815246582
587,2890226131,0.32003105,0.7530566,-0.4794419,0.31720898,3.6133315563201904,1.330443024635315,-0.3805028796195984,-95.49043273925781,363.92657470703125, -44.87646484375
588,2890242798,0.35946116,0.7325837,-0.45861107,0.35183045,3.5572879314422607,-0.9155009388923645,-1.9630026817321777,-88.21443176269531,394.8030700683594, -48.362552642822266
589,2890259465,0.39615983,0.7093664,-0.43422464,0.38898033,3.5126729011535645,-3.7893261909484863,-3.3987817764282227,-64.66878509521484,414.4616394042969, -44.83830261230469
590,2890276132,0.42919648,0.683898,-0.40737328,0.4267562,3.157322406768799,-4.8050127029418945,-4.584535121917725,-44.471046447753906,419.4693603515625, -38.7566032409668
591,2890292799,0.45659333,0.65808564,-0.3769323,0.46515384,4.209195137023926,-4.194640636444092,-7.344776630401611,-6.658539295196533,418.40118408203125, -36.38312911987305
592,2890309466,0.48086149,0.6305958,-0.3464038,0.50112444,6.300976753234863,-3.192870616912842,-12.319766998291016,-3.7716288566589355,405.2230529785156, -30.093786239624023
593,2890326133,0.50171006,0.6033721,-0.3178478,0.53216726,8.140430450439453,1.0352084636688232,-18.792495727539062,-6.627444267272949,368.66973876953125, -26.722707748413086
594,2890342800,0.52100945,0.57647663,-0.29608193,0.5554813,8.610346794128418,3.8821864128112793,-23.279319763183594,-40.951541900634766,309.1715087890625, -20.248048782348633
595,2890359467,0.5333953,0.55615443,-0.27751446,0.57373124,5.426368236541748,-1.3317006826400757,-28.03864288330078,-12.75228214263916,239.1781463623047, -12.646581649780273
596,2890376134,0.5355444,0.5483305,-0.25778025,0.5882817,3.9688143730163574,-1.935685157775879,-31.388607025146484,69.58123016357422,161.34857177734375, -14.183676719665527
597,2890392801,0.5325037,0.55043083,-0.24326225,0.59522206,0.6249510049819946,0.28433144092559814,-32.452457427978516,90.87490844726562,65.05975341796875, -19.200214385986328
598,2890409468,0.5297946,0.55699337,-0.24125288,0.5923455,-0.6271798610687256,1.7995394468307495,-29.902250289916992,38.04301834106445,-34.68064880371094, -16.65607261657715
599,2890426135,0.52479047,0.5677969,-0.2501267,0.5827851,-1.1350116729736328,-4.922690391540527,-27.027551651000977,6.555413246154785,-120.20381927490234, 3.002403974533081
600,2890442802,0.5179594,0.58148664,-0.26604912,0.5681629,-1.4844470024108887,-4.218703269958496,-19.772361755371094,-13.003817558288574,-179.38609313964844, 14.54715347290039
601,2890459469,0.51106185,0.598543,-0.28330013,0.54799926,6.2799072265625,2.8250038623809814,-29.261892318725586,-16.175798416137695,-219.0417938232422, -5.793361186981201
602,2890476136,0.5310714,0.60214883,-0.33147153,0.49548623,16.925941467285156,25.58449935913086,-42.5250244140625,-354.2876892089844,-357.2382507324219, -67.17627716064453
603,2890492803,0.5326285,0.6140562,-0.369801,0.44998828,4.008303165435791,-25.909875869750977,26.104768753051758,-198.4553985595703,-361.4757080078125, -37.37297439575195
604,2890509470,0.5264384,0.6299655,-0.3939238,0.41331628,18.1102294921875,9.351673126220703,-1.5846686363220215,-84.01244354248047,-304.9403381347656, -51.5981559753418
605,2890526137,0.51962817,0.6427588,-0.41517955,0.38009712,10.614251136779785,-7.513888835906982,5.260054588317871,-75.06688690185547,-272.501953125, -41.07933807373047
606,2890542804,0.5079532,0.65458256,-0.4329987,0.35498947,12.37139892578125,-12.40362548828125,-5.290760040283203,-24.6722412109375,-235.93492126464844, -11.968530654907227
607,2890559471,0.4984672,0.66268665,-0.4477095,0.33456406,8.538280487060547,-2.245837926864624,-3.2510690689086914,-25.82811737060547,-188.3259735107422, -4.217553615570068
608,2890576138,0.49058005,0.66895014,-0.45853582,0.31871945,9.265708923339844,-1.5063574314117432,-0.9399065375328064,-16.317729949951172,-144.99114990234375, -4.31997013092041
609,2890592805,0.48017836,0.67639405,-0.46495098,0.30941972,10.005975723266602,3.353055238723755,-0.32845640182495117,29.594879150390625,-110.61475372314453, -0.8636488914489746
610,2890609472,0.46847215,0.683271,-0.46921858,0.30579185,10.385481834411621,1.4329763650894165,2.6997458934783936,56.538936614990234,-80.24485778808594, 12.413066864013672
611,2890626139,0.45536005,0.68955076,-0.47174355,0.30761206,12.983838081359863,-0.1293400228023529,1.8771047592163086,82.53561401367188,-52.531402587890625, 26.53569984436035
612,2890642806,0.44050857,0.6949428,-0.47280487,0.31537673,12.032051086425781,-2.751863956451416,8.693875312805176,110.4689712524414,-23.7498836517334, 44.56743621826172
613,2890659473,0.42332053,0.7,-0.47293326,0.32731348,7.474158763885498,-2.188833475112915,8.971888542175293,136.3293914794922,-8.244128227233887, 58.65244674682617
614,2890676140,0.4056576,0.70544106,-0.472917,0.33785293,4.3108930587768555,3.0905070304870605,10.384801864624023,135.60980224609375,-17.3053035736084, 53.529720306396484
615,2890692807,0.38911518,0.7109167,-0.47291914,0.34573752,4.6864705085754395,9.4786958694458,9.328757286071777,121.6606674194336,-27.02679443359375, 43.49876403808594
616,2890709474,0.37663856,0.7143089,-0.48505077,0.33560696,1.282293677330017,4.836260795593262,4.849232196807861,8.839713096618652,-129.70018005371094, 51.89383316040039
617,2890726141,0.3581317,0.7220655,-0.4995907,0.31744635,3.774859666824341,1.6145609617233276,-2.519859552383423,17.44740867614746,-205.73831176757812, 42.40713882446289
618,2890742808,0.33472294,0.733618,-0.5117048,0.29651895,6.820153713226318,2.314683198928833,7.895632743835449,46.93408203125,-238.6519775390625, 21.225059509277344
619,2890759475,0.30545643,0.7464594,-0.5233426,0.27496782,5.680889129638672,2.1119606494903564,14.115432739257812,78.27090454101562,-264.2620849609375, 24.816957473754883
620,2890776142,0.27318192,0.75987136,-0.53315544,0.25241357,8.641144752502441,4.7830986976623535,16.54743003845215,94.80339813232422,-277.90155029296875, 17.00907325744629
621,2890792809,0.24598712,0.7705104,-0.5421452,0.22777808,7.195659160614014,5.04811954498291,20.68685531616211,56.91349792480469,-264.27520751953125, 10.245359420776367
622,2890809476,0.21990788,0.78034854,-0.5480604,0.20573428,7.123692512512207,3.5946474075317383,20.87103271484375,64.21562194824219,-240.4326629638672, -0.3055749833583832
623,2890826143,0.1930778,0.78970736,-0.55089974,0.18866093,7.096485614776611,4.126344680786133,20.2664852142334,90.69104766845703,-211.7301025390625, -6.334053039550781
624,2890842810,0.16807976,0.7974627,-0.55245113,0.17493002,6.22216272354126,4.683684825897217,20.16283416748047,93.04145812988281,-183.27120971679688, -5.075848579406738
625,2890859477,0.14758915,0.80347675,-0.5531822,0.16319337,6.203853130340576,3.9125654697418213,18.16303062438965,74.97720336914062,-152.53794860839844, -5.945826530456543
626,2890876144,0.13069777,0.8081904,-0.5528291,0.15532772,7.193442344665527,2.3612117767333984,15.883172988891602,69.80252838134766,-115.21895599365234, -6.991984844207764
627,2890892811,0.11706648,0.8115423,-0.5517299,0.15260655,8.110679626464844,3.176057815551758,14.461873054504395,70.8738021850586,-72.41036224365234, -4.742477893829346
628,2890909478,0.11140073,0.81318456,-0.55030894,0.1532345,7.80246114730835,4.033679962158203,12.042939186096191,38.152870178222656,-21.744718551635742, -5.626009464263916
629,2890926145,0.118905425,0.81264997,-0.5490152,0.15506095,6.2557501792907715,2.4645183086395264,9.976729393005371,-32.692596435546875,36.72037124633789, -9.56615924835205
630,2890942812,0.13433331,0.8106047,-0.5464636,0.1620257,5.637088775634766,0.919999897480011,7.967535972595215,-57.44053268432617,97.7689208984375, -15.137211799621582
631,2890959479,0.15710133,0.8069834,-0.5419895,0.17419608,4.767345905303955,2.2885849475860596,6.167202472686768,-78.11609649658203,157.72479248046875, -23.34444808959961
632,2890976146,0.18768129,0.80107164,-0.5357723,0.18975766,5.097421646118164,2.6125950813293457,4.332096099853516,-109.21509552001953,210.1578826904297, -30.21131706237793
633,2890992813,0.22323798,0.7926171,-0.5273389,0.20937183,5.669707775115967,2.9268574714660645,2.662881374359131,-122.09452056884766,256.88604736328125, -34.365875244140625
634,2891009480,0.26080728,0.78155446,-0.5162858,0.23366927,5.566775321960449,3.6428627967834473,2.126620054244995,-116.31952667236328,297.39208984375, -34.93974304199219
635,2891026147,0.29965797,0.76789474,-0.50225854,0.26130277,5.06212854385376,3.039090633392334,1.180454134941101,-111.24612426757812,329.30047607421875, -37.80363082885742
636,2891042814,0.33914927,0.7515184,-0.4856008,0.29049912,4.263817310333252,1.3142942190170288,-0.007389277219772339,-110.11717224121094,350.01983642578125, -40.27204132080078
637,2891059481,0.37667707,0.7329426,-0.4654044,0.32296818,3.6416895389556885,-1.254922866821289,-2.400068759918213,-87.12124633789062,373.02850341796875, -39.707576751708984
638,2891076148,0.41026944,0.7132537,-0.44101712,0.35840234,1.8391112089157104,-2.3926429748535156,-4.228503704071045,-51.38958740234375,388.786376953125, -40.915557861328125
639,2891092815,0.43980178,0.69294894,-0.41311547,0.3946286,0.2474430799484253,-2.617844820022583,-5.474274158477783,-22.168418884277344,391.9400939941406, -44.08449172973633
640,2891109482,0.4636857,0.6729981,-0.38136718,0.4320049,0.059968262910842896,-2.992635488510132,-7.580870151519775,19.505943298339844,392.2486877441406, -44.60747528076172
641,2891126149,0.48214468,0.6538002,-0.3466795,0.46892986,1.7537860870361328,-2.3290247917175293,-12.885344505310059,54.529052734375,383.3200378417969, -45.47075271606445
642,2891142816,0.49959266,0.63410777,-0.31515297,0.49899238,3.2232537269592285,1.6314560174942017,-19.04279899597168,30.790794372558594,341.4986877441406, -49.537132263183594
643,2891159483,0.5204174,0.6111704,-0.2925413,0.51966935,6.069511413574219,-0.6644221544265747,-23.763519287109375,-46.19584655761719,288.85479736328125, -47.42604064941406
644,2891176150,0.5326573,0.59575117,-0.271054,0.53655064,4.159469127655029,-5.589757442474365,-27.603893280029297,4.966829776763916,225.3245086669922, -40.78007888793945
645,2891192817,0.53573155,0.59091496,-0.25188166,0.54805726,3.2608840465545654,-2.7369134426116943,-31.47468376159668,62.56758499145508,139.3985137939453, -36.999542236328125
646,2891209484,0.53580797,0.5924419,-0.24215865,0.55071014,0.648390531539917,0.06836508214473724,-31.951351165771484,47.01163101196289,40.2147216796875, -31.01643943786621
647,2891226151,0.52887267,0.60200405,-0.24073184,0.54766154,-0.8912606239318848,-6.614444732666016,-31.013227462768555,63.97768020629883,-54.93685531616211, -5.082634449005127
648,2891242818,0.5166887,0.6175046,-0.2458017,0.53972465,-0.4908563494682312,-6.303981781005859,-24.607276916503906,74.55387878417969,-129.1331787109375, 13.850143432617188
649,2891259485,0.5099196,0.6297528,-0.2627158,0.5238071,-0.8635067343711853,-3.8481061458587646,-16.621000289916992,-17.566843032836914,-183.31912231445312, 21.102985382080078
650,2891276152,0.5083695,0.64656794,-0.28336635,0.49316752,12.436814308166504,22.185476303100586,-60.46685028076172,-64.31397247314453,-266.8753967285156, -41.375240325927734
651,2891292819,0.5396729,0.63786095,-0.35101175,0.42270243,23.978713989257812,-17.443058013916016,-5.403790473937988,-538.1387329101562,-457.1662292480469, -32.6696891784668
652,2891309486,0.5262979,0.65819246,-0.3726452,0.38849556,8.37434196472168,-1.2684022188186646,16.27043914794922,-11.9734468460083,-318.85076904296875, -40.19224166870117
653,2891326153,0.51491135,0.6767451,-0.39074436,0.35242218,18.146440505981445,3.6506619453430176,8.149199485778809,-22.550907135009766,-305.0994567871094, -63.69904327392578
654,2891342820,0.50570554,0.6879477,-0.4061067,0.32568005,10.12549877166748,-11.782598495483398,-6.309901237487793,-26.86167335510254,-228.57225036621094, -28.9357852935791
655,2891359487,0.4937705,0.69783753,-0.42128482,0.30287436,9.182753562927246,-4.721190452575684,-1.433988094329834,-7.009587287902832,-213.89059448242188, -6.598859786987305
656,2891376154,0.48360246,0.70556736,-0.43274727,0.28466347,8.14552116394043,2.1295056343078613,-1.059492826461792,-1.6958483457565308,-169.6416015625, -6.39190149307251
657,2891392821,0.47245187,0.713593,-0.43927845,0.27314606,9.195257186889648,2.019239664077759,-1.5725071430206299,33.66737747192383,-124.34571075439453, -7.043701171875
658,2891409488,0.4592024,0.72141343,-0.44330037,0.26866463,9.367241859436035,0.37596452236175537,0.08838450163602829,69.3050308227539,-87.70331573486328, 7.987693786621094
659,2891426155,0.44534653,0.7278623,-0.44599706,0.27012894,11.62088680267334,0.9093593955039978,0.5486142039299011,88.6124267578125,-53.4522705078125, 25.357669830322266
660,2891442822,0.42958573,0.7335174,-0.44694746,0.2786508,14.068747520446777,-1.997347354888916,5.356736660003662,120.67788696289062,-17.30207061767578, 44.04530334472656
661,2891459489,0.41228253,0.73777956,-0.44638285,0.29401833,10.890559196472168,-2.7784042358398438,8.259161949157715,148.40245056152344,19.35873794555664, 63.62444305419922
662,2891476156,0.38592708,0.7463814,-0.43893984,0.31828758,8.21186637878418,2.204556941986084,13.030517578125,248.00637817382812,47.15559005737305, 58.725318908691406
663,2891492823,0.36588556,0.7516056,-0.43786237,0.3308979,1.9638968706130981,4.929621696472168,3.105835437774658,157.5978240966797,-3.5268845558166504, 56.7534294128418
664,2891509490,0.35142437,0.7543048,-0.4497001,0.32449192,3.4666645526885986,7.155320644378662,5.7212443351745605,35.796417236328125,-111.8690185546875, 70.63459777832031
665,2891526157,0.33558655,0.7589794,-0.464152,0.30966914,5.097231864929199,1.095741629600525,0.7010241746902466,15.887035369873047,-170.6938934326172, 60.95645523071289
666,2891542824,0.3141596,0.7690889,-0.4746233,0.29075563,6.95352840423584,3.2676703929901123,7.383760452270508,53.027156829833984,-212.37188720703125, 25.299039840698242
667,2891559491,0.29013965,0.78057396,-0.48423225,0.2684077,5.697956085205078,4.607882499694824,15.19968032836914,60.2607307434082,-240.1439971923828, 14.052488327026367
668,2891576158,0.26504555,0.7918096,-0.49360922,0.243184,8.589818000793457,4.821425437927246,16.24287986755371,56.43926239013672,-258.6025695800781, 9.965362548828125
669,2891592825,0.23746853,0.8022885,-0.5014748,0.22014786,6.780012130737305,3.7658774852752686,20.177433013916016,78.6060562133789,-251.5027313232422, 12.518760681152344
670,2891609492,0.2084367,0.81145424,-0.5073982,0.20160198,5.426515102386475,2.541712760925293,21.567949295043945,102.98855590820312,-226.98959350585938, 15.941205978393555
671,2891626159,0.17842239,0.8192912,-0.51111275,0.18892133,5.140588283538818,2.8526878356933594,20.926610946655273,130.15853881835938,-193.047119140625, 18.09467124938965
672,2891642826,0.14922851,0.825382,-0.5135371,0.18098438,4.796712875366211,3.6475396156311035,20.79488182067871,141.80279541015625,-159.9104766845703, 21.81317901611328
673,2891659493,0.12518883,0.8292576,-0.5156919,0.17527553,4.3847527503967285,3.8960275650024414,19.077449798583984,118.53694915771484,-126.31616973876953, 24.092205047607422
674,2891676160,0.107344,0.8316663,-0.517228,0.17112543,4.968270778656006,4.134775161743164,16.160480499267578,88.27580261230469,-93.40159606933594, 19.750659942626953
675,2891692827,0.095842935,0.8329675,-0.51783985,0.1697682,5.932926654815674,4.8660688400268555,14.23095989227295,62.252174377441406,-53.0975341796875, 13.100500106811523
676,2891709494,0.09204235,0.8329896,-0.5180085,0.17124265,6.407251358032227,5.190622329711914,11.019450187683105,27.961273193359375,-7.887109756469727, 8.090558052062988
677,2891726161,0.0986089,0.83173746,-0.51768523,0.17461719,5.476371765136719,6.095128536224365,8.513272285461426,-24.82063865661621,41.537940979003906, -1.11458420753479
678,2891742828,0.11530112,0.8291203,-0.5162843,0.18087572,5.595243453979492,4.412606716156006,5.972232818603516,-72.03792572021484,96.28770446777344, -12.558347702026367
679,2891759495,0.13773173,0.8255039,-0.51262033,0.19181763,4.773895263671875,4.312441349029541,3.9733266830444336,-86.07305145263672,146.2607421875, -25.322341918945312
680,2891776162,0.16748768,0.8201725,-0.50696415,0.20555386,4.5595293045043945,5.066796779632568,2.673741340637207,-116.77732849121094,191.99766540527344, -37.602535247802734
681,2891792829,0.2033673,0.81234914,-0.4995423,0.22178431,4.923654556274414,3.9164092540740967,1.4401068687438965,-142.9722137451172,232.893310546875, -44.663150787353516
682,2891809496,0.24071103,0.8023604,-0.48922533,0.2427649,4.756912708282471,3.4579427242279053,0.7596031427383423,-133.4331512451172,271.7439880371094, -49.01984786987305
683,2891826163,0.27867934,0.79002714,-0.4758155,0.26794562,3.748526096343994,2.762112617492676,0.411598801612854,-121.46138000488281,306.0104675292969, -52.3128662109375
684,2891842830,0.31713378,0.7749231,-0.45987988,0.29568747,2.6635730266571045,0.5794711709022522,-0.3123511075973511,-116.38236999511719,331.44873046875, -52.98075866699219
685,2891859497,0.35398984,0.75718653,-0.4409542,0.32698524,2.0248539447784424,-2.5121476650238037,-1.8608351945877075,-96.29391479492188,357.24395751953125, -49.62834167480469
686,2891876164,0.38691688,0.7373998,-0.41917053,0.36170873,1.1488311290740967,-4.988295078277588,-2.9149839878082275,-64.02886962890625,374.80615234375, -41.18806838989258
687,2891892831,0.41267022,0.7183481,-0.3922452,0.39977887,0.7968424558639526,-4.87050724029541,-4.698655128479004,-3.2591168880462646,383.0614013671875, -42.698265075683594
688,2891909498,0.43396086,0.6995201,-0.36267585,0.43682486,1.794018268585205,-3.1278975009918213,-9.627705574035645,23.92160987854004,372.9905090332031, -47.02185821533203
689,2891926165,0.45515165,0.67858016,-0.3341939,0.46976644,2.4773097038269043,-0.5010992884635925,-13.246292114257812,4.549910068511963,356.31622314453125, -48.467350006103516
690,2891942832,0.47675204,0.65538114,-0.31077784,0.49658865,3.138615846633911,1.4754841327667236,-17.49942398071289,-34.953548431396484,320.4068603515625, -40.094482421875
691,2891959499,0.49438307,0.63411677,-0.29219815,0.51778543,4.465367317199707,-0.31502628326416016,-23.630630493164062,-39.393829345703125,264.4401550292969, -27.304426193237305
692,2891976166,0.505238,0.6192453,-0.2771324,0.53335494,5.605841159820557,-1.828670859336853,-28.86663818359375,-12.091621398925781,192.0507354736328, -19.86157989501953
693,2891992833,0.50957716,0.61209387,-0.26610157,0.5430122,2.293776512145996,-1.5270928144454956,-29.342105865478516,16.229413986206055,112.72869110107422, -14.0969877243042
694,2892009500,0.505529,0.6151168,-0.25787523,0.547332,0.13949136435985565,-3.409822940826416,-30.4024658203125,66.74371337890625,27.7067813873291, -8.340407371520996
695,2892026167,0.4956521,0.62610185,-0.25396925,0.54573363,-1.1416083574295044,-4.563205242156982,-27.129863739013672,92.13407135009766,-52.02848815917969, -2.8893163204193115
696,2892042834,0.4876353,0.6382887,-0.26036742,0.5357314,-1.7170435190200806,-3.1364409923553467,-21.763010025024414,34.7309684753418,-124.05428314208984, 3.6751959323883057
697,2892059501,0.48000205,0.6539862,-0.27112973,0.5180628,4.831833362579346,3.1808223724365234,-33.34281921386719,14.88606071472168,-184.1769256591797, -10.602131843566895
