Acc_X,Acc_Y,Acc_Z
4.970519065856934,-0.1430895924568176,-1.2336511611938477
2.2571229934692383,1.160485863685608,0.6620352268218994
0.6550697088241577,0.7932963967323303,2.372367143630981
-1.377172589302063,2.0827066898345947,5.556591510772705
-1.7956395149230957,2.6735916137695312,5.769783973693848
-2.564236879348755,2.0041067600250244,3.6839637756347656
-3.1354522705078125,1.973915934562683,2.611366271972656
-2.9089972972869877,3.412962913513184,-0.1919208168983459
-0.1281693130731582,0.3261857628822326,0.6325809359550476
7.619478702545166,-2.9345974922180176,-1.3298968076705933
7.08159875869751,2.479532480239868,-1.4350639581680298
5.398041248321533,-0.6767504215240479,-4.563554763793945
-0.6476865410804749,0.5577861666679382,-4.359115123748779
4.569273948669434,-4.19173002243042,-7.427328109741211
11.660859107971191,-2.942561149597168,-1.421543002128601
11.270301818847656,-1.6912338733673096,0.1971872597932815
4.601754188537598,-0.0172436349093914,-2.2610230445861816
4.257568359375,0.2586362361907959,-5.122907638549805
3.168578863143921,12.871564865112305,-7.682942867279053
4.263482570648193,1.9201196432113647,-12.242844581604004
2.0381319522857666,0.3667036890983581,-10.895543098449709
-3.057947158813477,-2.5033414363861084,-3.5919511318206787
-5.8348565101623535,-6.4858503341674805,1.859710693359375
-9.26500415802002,-5.836406707763672,9.352154731750488
-13.24809741973877,-5.164974212646484,13.277247428894045
-13.1747465133667,-8.05093765258789,12.429393768310549
-8.436461448669434,7.409931182861328,-8.861449241638184
6.521162033081055,7.37993860244751,-7.4182820320129395
3.783329963684082,9.958477973937988,11.45319366455078
12.07557773590088,5.849265098571777,6.025805473327637
11.928550720214844,-5.072798252105713,5.866754055023193
10.351428985595703,-3.492323637008667,0.7637678980827332
8.962629318237305,-2.4427132606506348,-0.5232684016227722
3.509528160095215,1.1076526641845703,-2.586104393005371
0.735486626625061,1.1120609045028689,-5.58253288269043
2.274864673614502,2.2418465614318848,-5.963291168212891
5.93336296081543,2.228431940078736,-4.242793560028076
8.403196334838867,0.1076415181159973,-2.757509469985962
8.666119575500488,1.490274429321289,-0.760033130645752
7.100367546081543,-0.9369919896125792,0.1612939685583114
6.182706832885742,-3.046450138092041,4.500459671020508
1.4581308364868164,-0.904037594795227,7.826541423797607
-7.434468746185303,3.837224721908569,6.649137496948242
-8.084955215454102,3.127166986465454,1.9063355922698972
-5.625453948974609,3.159018039703369,-6.18037748336792
-6.48383903503418,4.648060321807861,-8.351361274719238
-7.59686803817749,-2.645857334136963,-4.576937198638916
-6.623011589050293,-8.920397758483887,-4.246801376342773
-7.810525417327881,-3.0507307052612305,3.849433898925781
-10.81993007659912,-3.87899112701416,13.98240852355957
-12.78067111968994,-2.9856460094451904,-1.780552625656128
7.439238548278809,3.4724349975585938,-21.259546279907227
11.284557342529297,13.21652889251709,13.238946914672852
21.497238159179688,10.751874923706056,3.444120407104492
14.0806303024292,-9.326749801635742,-0.4271590113639831
6.386059284210205,-9.490103721618652,-5.286054611206055
3.202833652496338,-5.476656913757324,-5.7802839279174805
2.3470351696014404,2.548441171646118,-4.019796848297119
4.451385498046875,7.376988887786865,-1.280434012413025
7.11174201965332,5.440465450286865,2.004791021347046
9.253289222717283,2.5500760078430176,3.806756019592285
7.488480091094971,-1.5426666736602783,2.8839964866638184
3.1087327003479004,0.4801025390625,5.273862361907959
-8.202383995056152,5.060742378234863,-0.8644759654998779
-9.221400260925291,3.530130386352539,-5.277758121490479
-8.588757514953613,4.136582374572754,-9.482939720153809
-11.129364013671877,1.0389292240142822,-1.6812286376953125
-13.339146614074709,-4.996616363525391,0.8215610980987549
-13.59732437133789,-9.465653419494627,5.090446949005127
-13.08090877532959,-8.178301811218262,15.77242374420166
-10.929455757141112,-6.439539909362793,6.967337131500244
-9.47272491455078,4.666311740875244,-23.246456146240234
14.35486125946045,5.643540859222412,-18.962055206298828
1.002371907234192,-0.7905322313308716,16.84902000427246
18.07804107666016,-0.814359188079834,1.0452053546905518
14.588529586791992,0.0402305275201797,2.1477293968200684
19.087425231933597,-2.36472749710083,1.3233729600906372
11.319324493408203,1.676877498626709,-2.468083143234253
6.128904342651367,0.4567390978336334,-5.358650207519531
5.203598976135254,3.847409009933472,-4.294256687164307
7.460875034332275,3.5343470573425293,-0.5832839012145996
7.668277740478516,2.7598564624786377,2.8396592140197754
5.220127582550049,0.5624128580093384,4.782191276550293
-1.867692351341248,-0.1027557551860809,5.179570198059082
-9.113265991210938,1.7003581523895264,-1.997601628303528
-10.48372745513916,-3.435917377471924,-8.772653579711914
-10.489184379577637,-4.581371784210205,2.614386320114136
-14.487863540649414,-6.022741794586182,6.657827854156494
-12.846620559692385,-4.507614612579346,9.403749465942385
-9.625405311584473,-5.803732395172119,-1.6641855239868164
-10.332304954528809,-4.738761425018311,-8.336798667907715
-9.581101417541504,-1.3580780029296875,-5.841829776763916
-5.001214981079102,17.623741149902344,-23.328502655029297
4.341304779052734,-8.152377128601074,7.308030605316162
6.834632873535156,7.720071792602539,5.186395168304443
16.593318939208984,10.734051704406738,7.6093316078186035
20.39776611328125,-9.189002990722656,3.06945538520813
11.580982208251951,-0.6420526504516602,-3.80693793296814
4.087939262390137,-1.3495358228683472,-9.224270820617676
4.477148532867432,3.10325288772583,-6.090479373931885
8.394861221313477,2.3843114376068115,0.2499945163726806
7.594964504241943,-0.8544317483901978,-3.096419334411621
5.542494297027588,-1.2877556085586548,-0.0559653341770172
4.316041469573975,-0.2740700840950012,3.4046616554260254
-5.155557155609131,0.4002914428710937,1.8196170330047607
-9.147522926330566,3.698744535446167,-6.583133697509766
-8.197348594665527,-3.000537157058716,-15.01480484008789
-8.607012748718262,4.761365413665772,-10.285210609436035
-11.906331062316896,-3.2985286712646484,-1.8946970701217647
-11.729997634887695,-3.248874425888061,5.689744472503662
-12.14073657989502,-6.004781723022461,7.375483989715576
-12.168356895446776,-7.398104667663574,5.321676254272461
-12.6267671585083,-0.477795273065567,1.6741459369659424
-5.072942733764648,14.88579273223877,-13.105873107910156
5.727989196777344,4.33105993270874,3.4323596954345703
8.463513374328613,3.937401056289673,8.888952255249023
21.736560821533203,2.929469347000122,7.725106716156006
18.44710350036621,-7.453034400939941,1.0729146003723145
13.806861877441406,-5.442569255828857,-4.484260559082031
8.928049087524414,0.511389434337616,-3.203869342803955
6.153578758239746,1.1524434089660645,-2.4326632022857666
2.493878126144409,1.8432453870773315,-3.785889625549317
1.27961003780365,4.182247161865234,-2.813039302825928
2.0872392654418945,4.966643810272217,0.8036883473396301
-0.3170962929725647,5.38637113571167,3.4926412105560303
-5.349949359893799,5.897793292999268,1.599302887916565
-7.525056838989258,1.97290313243866,-4.094689846038818
-8.278675079345703,2.362011432647705,-10.795646667480469
-9.365801811218262,-2.670882225036621,-3.3965299129486084
-10.030763626098633,-4.001580238342285,2.13596248626709
-10.069835662841797,-4.973508358001709,7.468428611755371
-8.722795486450195,-8.364090919494629,5.426159858703613
-9.168280601501465,-7.119596004486084,5.358823776245117
-8.135087966918945,1.7242356538772583,-11.646159172058104
1.3834712505340576,1.1111688613891602,-4.55476188659668
1.7173755168914795,1.7465674877166748,1.67971932888031
15.42658233642578,4.744374752044678,6.1210103034973145
14.956209182739258,5.259067058563232,4.554001331329346
15.895623207092283,-4.731586456298828,-2.446706771850586
13.211769104003906,-1.7508997917175293,-2.291125535964966
9.712105751037598,1.385384440422058,-3.7557549476623535
5.878629684448242,3.114565134048462,-4.772491931915283
6.036084175109863,3.352104902267456,-1.757646560668945
6.463750839233398,1.4152082204818726,1.4721109867095947
5.017122745513916,0.1956662833690643,4.7781662940979
1.6519283056259155,0.9739297032356262,6.814816951751709
-6.028536319732666,1.0362998247146606,3.74054741859436
-9.211230278015137,1.6310170888900757,-1.7032551765441897
-9.972419738769531,-2.314060926437378,-4.564160346984863
-12.029553413391112,-6.558189868927002,4.284128665924072
-14.43337345123291,-4.706668376922607,4.495147705078125
-14.267001152038574,-3.711127281188965,4.821634292602539
-10.285849571228027,-2.1912782192230225,4.917769432067871
-8.084014892578125,-0.4835488498210907,-5.941420555114746
-7.476706504821777,9.139053344726562,-25.17838859558105
7.160194873809815,1.17975652217865,-6.045254707336426
3.6342079639434814,1.3885215520858765,12.432939529418944
13.97805404663086,2.9761459827423096,0.0276699960231781
11.864561080932615,-1.4566762447357178,2.0582399368286133
12.075274467468262,-0.9082491397857666,-5.906632900238037
6.263717651367188,2.900115966796875,-3.834582805633545
5.655058860778809,3.472659111022949,-7.316974639892578
8.280896186828613,2.6795132160186768,-4.551685810089111
11.435135841369627,1.9481745958328247,0.1153191179037094
10.170055389404297,-2.389780282974243,1.9428470134735107
5.739670276641846,-1.9796476364135744,4.041945457458496
-1.5843316316604614,-1.3815988302230835,3.3786768913269043
-8.397199630737305,1.916645050048828,-1.979467868804932
-10.494304656982422,-0.2867362201213836,-7.357760906219482
-10.224282264709473,1.2872400283813477,-5.1876630783081055
-13.318294525146484,-6.296990394592285,1.230603575706482
-14.534172058105469,-1.254702091217041,3.661426782608032
-12.519189834594728,-1.0367920398712158,4.380744934082031
-11.46735954284668,-1.5195658206939695,-3.805379867553711
-11.076786994934082,1.3747143745422363,-4.487897872924805
-5.923099517822266,8.33206558227539,-15.18002986907959
3.3575103282928467,0.3698278963565826,3.467841386795044
3.670308113098145,-1.0043809413909912,6.275885581970215
15.927501678466797,3.693312168121338,6.141741752624512
18.88407516479492,-5.1029953956604,2.6442575454711914
17.661930084228516,-3.240494966506958,-2.052729606628418
9.379440307617188,0.3965106308460235,-4.19378137588501
4.50730562210083,2.408238887786865,-7.080272674560547
4.09315299987793,3.041080474853516,-5.367010593414307
4.978426456451416,3.88493537902832,-2.6483383178710938
6.437896728515625,0.9661173224449158,-0.0374007374048233
4.332400321960449,1.2641271352767944,2.767096996307373
1.0639495849609375,0.8132297396659851,5.238271713256836
-6.57062578201294,2.1183760166168213,1.2036352157592771
-9.238877296447754,2.20046329498291,-4.870400905609131
-8.970648765563965,2.116007089614868,-12.05640983581543
-9.413713455200195,-2.952344417572021,-4.417162895202637
-10.592768669128418,-5.07636022567749,0.151599496603012
-11.251648902893066,-3.11102557182312,6.213001251220703
-10.144954681396484,-3.6174590587615967,5.353410720825195
-10.525958061218262,-3.1580512523651123,1.3811887502670288
-8.618212699890137,-1.5122435092926023,-3.5543477535247803
1.2235069274902344,5.553255558013916,-14.155438423156738
2.942503929138184,6.038749694824219,8.410981178283691
8.881219863891602,3.428065061569214,6.748694896697998
16.350223541259766,-0.9841604232788086,1.5649996995925903
14.515661239624023,-4.8837995529174805,-4.358510971069336
13.750645637512209,-0.6424660682678223,-1.2817288637161257
11.406031608581545,0.0804496705532074,-2.866085767745972
8.10794734954834,-0.4049998819828033,-4.680866241455078
5.364995956420898,1.1947402954101562,-2.6552000045776367
4.636973857879639,1.4988404512405396,-1.0165971517562866
2.144427537918091,1.8478553295135496,1.7997841835021973
-2.4550321102142334,2.70870304107666,3.643834829330444
-9.138993263244627,6.115520477294922,-0.971317172050476
-8.995074272155762,1.1957876682281494,-4.98042631149292
-8.548964500427246,2.542307615280152,-7.953299045562744
-10.683706283569336,-2.8543002605438232,-3.8575198650360103
-11.870223999023438,-2.3541502952575684,-0.4750832915306091
-11.382155418395996,-5.561192512512207,4.475910186767578
-9.528528213500977,-6.663136959075928,4.408155918121338
-9.599267959594728,-2.310687303543091,-0.9473851323127748
-2.9268240928649902,-2.3612735271453857,-7.591518878936768
4.769455909729004,4.038288593292236,2.7091782093048096
1.998880386352539,1.5857499837875366,1.8938480615615845
12.900757789611816,5.497598648071289,7.790441513061523
15.332806587219238,1.75959575176239,3.073894500732422
14.230809211730955,-6.364114284515381,-5.524262428283691
10.378944396972656,-1.400074124336243,-3.511658906936645
7.916189670562744,0.7705731391906738,-4.1313252449035645
7.432073593139648,0.6854641437530518,-4.046911239624023
6.784937858581543,0.8896504044532776,-2.271151065826416
6.401429653167725,0.4554795026779175,0.4516141414642334
3.431628465652466,0.6626071333885193,2.858915328979492
-0.8285640478134155,0.4703314900398254,4.668756008148193
-7.967583179473877,3.6587235927581783,0.9256575703620912
-9.866841316223145,3.564256429672241,-4.1525492668151855
-9.679885864257812,1.651271104812622,-6.453163146972656
-10.555065155029297,-3.528078556060791,-1.7847565412521362
-10.998103141784668,-6.257648468017578,0.1893319189548492
-11.583100318908691,-4.881165981292725,4.918148040771484
-9.624211311340332,-4.694628715515137,3.3761961460113525
-9.164212226867676,-0.6391169428825378,-0.509660542011261
-5.866207122802734,7.315005779266357,-14.945477485656738
5.433248043060303,1.552809715270996,1.3396059274673462
2.4468677043914795,3.1044015884399414,7.474748134613037
13.74860954284668,4.641026973724365,4.095677375793457
14.12690258026123,-2.519758939743042,-0.1073603332042694
14.353677749633787,-3.653510093688965,-2.2538535594940186
11.27023696899414,-0.1533526182174682,-1.737545609474182
8.65404987335205,0.7388216853141785,-4.495564937591553
6.76922607421875,0.873506486415863,-3.1752960681915283
7.204707622528076,1.7668133974075315,-0.2239075899124145
3.6979029178619385,0.775561511516571,1.918505072593689
1.9292529821395876,1.3526417016983032,4.888356685638428
-6.745439052581787,3.4216787815093994,2.511785984039306
-9.246520042419434,2.990819215774536,-2.915863037109375
-9.2605619430542,-1.089819312095642,-5.94635534286499
-9.922335624694824,-3.572592496871948,1.678258776664734
-12.615269660949709,-1.9714654684066768,2.57195782661438
-13.055509567260742,-3.3700172901153564,6.2818145751953125
-9.778448104858398,-3.922622203826904,2.705369234085083
-9.641533851623535,-0.649131178855896,-4.940575122833252
-7.764865875244141,9.804647445678713,-18.160860061645508
6.636890888214111,-3.3835690021514893,-0.0409835278987884
2.235509157180786,0.8454684615135193,4.711691856384277
14.549365997314451,1.510108232498169,0.9184330701828004
12.463969230651855,-3.2163846492767334,-0.1962345540523529
16.12091827392578,0.1991815716028213,0.7896121740341187
12.470794677734377,-1.1624072790145874,-1.7655693292617798
7.496088981628418,1.2530347108840942,-5.380864143371582
5.26271915435791,2.7450881004333496,-4.2313666343688965
4.806199073791504,3.7088446617126474,-0.9958658814430236
3.6301848888397217,2.350204467773437,1.4927493333816528
1.008222222328186,1.5707651376724243,3.7480082511901855
-3.2611873149871826,0.7741900682449341,3.336386442184448
-8.49538516998291,-0.0426037684082984,-1.0479698181152344
-10.025399208068848,-2.0171446800231934,-5.239816188812256
-11.325164794921877,-1.6968411207199097,-7.56789493560791
-10.637393951416016,-5.026355743408203,-1.7744090557098389
-13.186635971069336,-5.997395992279053,3.357759952545166
-12.377490043640137,-3.243018388748169,6.222503662109375
-11.27570629119873,0.3520996272563934,0.3148307204246521
-8.829364776611328,12.181761741638184,-23.00638771057129
4.996152877807617,-0.5998414158821106,1.0022528171539309
1.6817775964736938,1.932433843612671,8.131610870361328
10.014589309692385,3.498364925384521,4.664926528930664
12.50057601928711,1.1473528146743774,3.7029643058776855
18.64257431030273,-5.796006202697754,-0.84872967004776
12.619969367980955,-1.4696485996246338,-1.3952209949493408
4.938083648681641,0.0792886540293693,-8.161731719970703
1.460809588432312,0.9272255301475524,-8.933553695678711
4.247961521148682,3.097486972808838,-4.871502876281738
8.169843673706055,3.060938835144043,-0.1815076619386673
7.570756912231445,1.5219699144363403,3.787726640701294
2.53541111946106,1.030937433242798,6.798103332519531
-6.429035186767578,2.8524057865142822,1.4060728549957275
-7.337108135223389,1.384926438331604,-5.570852756500244
-8.213831901550293,0.9814440011978148,-7.728940486907959
-9.547722816467283,-1.9019774198532104,-5.495970249176025
-11.004877090454102,-3.335296869277954,-2.0133631229400635
-11.049448013305664,-4.604896545410156,2.6613669395446777
-10.099888801574709,-4.506801605224609,3.4698257446289062
-11.492351531982422,-0.4979468882083893,2.641619682312012
-6.741540908813477,1.8906391859054563,-4.34967851638794
2.946202754974365,7.956008434295654,-2.934412240982056
4.515005111694336,2.541655302047729,5.929800510406494
11.850510597229004,3.336076498031616,7.90251350402832
16.615158081054688,-1.8420215845108032,2.60734486579895
14.055169105529783,-7.777726173400879,-2.8493146896362305
7.974213600158691,-1.10456645488739,-3.786684989929199
3.223888874053955,0.7143431305885315,-5.920601844787598
1.4165220260620115,2.5956292152404785,-7.035780906677246
3.3387320041656494,2.4820876121521,-4.789613246917725
6.2438249588012695,3.0462570190429688,-1.2002092599868774
6.134513854980469,1.909113049507141,3.0116119384765625
1.2345315217971802,0.904048502445221,4.801517009735107
-6.20725679397583,4.071652412414551,0.4635060131549835
-7.514898300170898,0.4287683963775635,-5.738104343414307
-8.202169418334961,2.132781982421875,-8.20527458190918
-9.96356201171875,-1.9163683652877808,-3.5302116870880127
-10.050569534301758,-1.621480941772461,-0.1123559474945068
-9.260238647460938,-6.5777363777160645,6.093181133270264
-9.908992767333984,-5.167708873748779,6.33245849609375
-8.748831748962402,-1.917437434196472,7.0101823806762695
-2.1934561729431152,3.808685064315796,-15.976773262023926
3.381999254226685,4.091930389404297,4.692142963409424
3.674811363220215,0.3480798900127411,4.657392978668213
12.346982955932615,3.606745958328247,7.537088871002197
12.075014114379885,-2.694211483001709,-2.129058599472046
11.856136322021484,-3.749973773956299,-2.582006454467773
9.444072723388672,1.1259194612503052,-1.0063636302947998
6.811606407165527,0.828985333442688,-4.080761432647705
4.922386169433594,1.5419692993164062,-5.047643184661865
7.149851799011231,3.000427484512329,-1.4777565002441406
7.215559959411621,2.1275784969329834,1.7039220333099363
5.398960113525391,-0.0775866955518722,3.815133571624756
1.2090803384780884,1.0751100778579712,6.101912975311279
-6.782849311828613,1.9260756969451904,2.861859083175659
-8.11164379119873,0.7421387434005737,-2.1067347526550293
-9.03982162475586,-1.7737040519714355,-4.569568157196045
-10.023636817932127,-2.6695072650909424,2.142969846725464
-12.393909454345703,-3.438791990280152,2.0478076934814453
-11.860551834106444,-3.7426366806030273,2.9685282707214355
-10.233314514160156,-2.50770902633667,6.309734344482422
-8.691618919372559,-0.7313269376754761,-0.7317741513252258
-7.2819905281066895,6.978470325469971,-21.198637008666992
6.233541011810303,3.704989910125733,-10.013612747192385
-0.6976672410964966,3.152735471725464,13.131267547607422
15.497907638549805,0.03213332593441,-3.169098138809204
12.594258308410645,-2.1832408905029297,-0.1587120294570922
17.35658836364746,-2.580364227294922,-0.393351674079895
15.006010055541992,0.6895157098770142,1.6176674365997314
10.336685180664062,0.4838494658470154,-2.904444456100464
6.303747177124023,0.756253719329834,-3.274932384490967
3.1683056354522705,3.2823798656463623,-0.4539455771446228
2.16921329498291,3.561396598815918,2.671990871429444
-3.77987003326416,3.578092575073242,3.0660343170166016
-8.043447494506836,4.78980016708374,-0.7609734535217285
-8.245474815368652,-1.312317967414856,-2.633300542831421
-10.58204746246338,-2.019427299499512,-0.4038653075695038
-11.764018058776855,-5.807247638702393,6.711321830749512
-12.86141872406006,-4.146046161651611,6.094098567962647
-10.617803573608398,-6.591245174407959,7.243848323822021
-7.867643356323242,-4.62150764465332,-5.2335944175720215
-9.222431182861328,8.864774703979492,-27.296255111694336
3.8707852363586426,2.4280359745025635,-8.730274200439453
3.380237579345703,-3.567832469940185,17.691957473754883
13.445599555969238,8.526993751525879,-1.0296612977981567
10.096683502197266,-4.866376876831055,0.5856104493141174
16.474124908447266,-1.4785465002059937,-0.4840005338191986
8.67190170288086,-0.2485603392124176,-1.8888787031173704
4.0863356590271,0.6440398693084717,-8.08086109161377
2.249910593032837,3.849262952804565,-6.585152626037598
5.7201995849609375,3.8560831546783447,-3.316208839416504
7.719704627990723,1.3622422218322754,-0.460369199514389
7.2932281494140625,-0.3560276627540588,2.9566526412963867
1.2406519651412964,-2.2243666648864746,4.125912189483643
-6.211016178131104,1.2600070238113403,-1.1180065870285034
-7.506445407867432,-2.3386929035186768,-5.487019062042236
-8.11876392364502,-1.8360848426818848,-8.761908531188965
-9.76352310180664,-2.808269023895264,-4.11147403717041
-11.638372421264648,-2.7944037914276123,0.9679280519485474
-11.91848087310791,-1.8742766380310056,5.853670120239258
-11.603543281555176,-4.284130573272705,2.062342882156372
-11.421344757080078,1.1813825368881226,-0.7617709636688232
-6.174399375915527,10.142096519470217,-11.813934326171877
4.280263900756836,6.893890857696533,3.61014461517334
2.724682331085205,-1.2087185382843018,0.3586984276771545
8.265125274658203,2.0349879264831543,6.940027236938477
15.407642364501951,1.4903717041015625,3.6721303462982178
20.19379997253418,-7.517426490783691,-1.0039781332015991
12.744382858276367,-1.582675576210022,-0.6348162889480591
5.663853645324707,-1.2952772378921509,-6.77269458770752
3.6338706016540527,1.146951675415039,-5.745226860046387
5.113779067993164,3.4070193767547607,-3.126704692840576
6.619950294494629,3.2642433643341064,0.6307768821716309
5.335270881652832,2.840046167373657,3.533026695251465
-1.1176581382751465,2.149288892745972,4.402552604675293
-6.954347610473633,4.566404342651367,-1.5123223066329956
-7.674787521362305,2.671914339065552,-7.50016975402832
-8.244213104248047,3.192188501358032,-7.651605606079102
-10.267694473266602,-2.331959724426269,-4.700837135314941
-10.329730987548828,-1.961071252822876,-1.56928288936615
-9.950571060180664,-3.972970485687256,2.490497589111328
-8.521590232849121,-7.30457592010498,5.954462051391602
-8.53548526763916,-6.614726066589356,1.7558234930038452
-6.638006210327148,1.2761762142181396,1.01465904712677
3.317911386489868,2.513577699661255,-9.491012573242188
5.3445539474487305,3.9717512130737305,5.809321403503418
9.306049346923828,2.920359373092652,5.093667984008789
17.531051635742188,4.40496301651001,6.678403854370117
16.04840660095215,-6.11143159866333,-3.2507412433624268
11.908506393432615,-3.804354190826416,-2.633755922317505
7.958103179931641,0.4519081115722656,-3.802334070205689
5.067576408386231,1.3618435859680176,-4.564260482788086
4.092617034912109,2.8789703845977783,-3.5137360095977783
4.060240268707275,3.2620978355407715,-0.7346152663230896
2.7211742401123047,0.994088351726532,1.4688565731048584
-1.3883070945739746,1.705152153968811,3.8344552516937256
-7.7615065574646,4.510187149047852,-0.6338506937026978
-7.909637451171875,-0.5027552247047424,-5.141300201416016
-7.514073848724365,-0.0999781265854835,-4.299993515014648
-10.026119232177734,-2.977545976638794,0.2872337102890014
-10.975214958190918,-3.2959015369415283,2.2534797191619877
-10.539789199829102,-5.6786208152771,5.391637325286865
-9.447758674621582,-7.327805519104004,-2.556350946426392
-9.026203155517578,4.603512287139893,-3.1337969303131104
0.0795131623744964,7.083067893981934,-9.06988525390625
3.0358846187591557,-0.141537070274353,6.425177097320557
10.684578895568848,2.0356011390686035,4.038881778717041
14.3974609375,3.159717082977295,4.997660636901856
13.71844482421875,-7.912905216217041,-3.9241480827331534
10.61099624633789,0.0180565770715475,-2.23840856552124
8.2225923538208,1.8693097829818728,-3.677089929580689
7.721054077148437,0.8690207004547119,-3.5453126430511475
8.399017333984375,1.4410498142242432,-0.2665417790412903
6.453879356384277,1.297698736190796,1.8014307022094729
3.500235080718994,-0.0148754827678203,2.703075408935547
-0.2008111774921417,1.1766997575759888,3.809736728668213
-7.661596775054932,2.6851580142974854,0.2051675617694854
-10.394725799560549,5.170013427734375,-4.856535911560059
-10.035573959350586,-2.4379444122314453,-8.312298774719238
-10.539695739746094,-2.8267321586608887,-0.8315404653549194
-10.87827205657959,-6.044205188751221,2.975139617919922
-10.998980522155762,-2.648202896118164,5.641901016235352
-8.966711044311523,-2.248939037322998,4.361950397491455
-7.233509063720703,1.101373314857483,-4.025740146636963
-1.1228647232055664,8.658879280090332,-20.33809471130371
5.013108253479004,2.3566291332244877,13.664860725402832
9.02969741821289,2.6871414184570312,0.2277049720287323
14.826683044433594,-2.5316309928894043,0.2486260533332824
14.495814323425291,-2.133413076400757,-1.944675087928772
14.7035551071167,0.3198661506175995,-0.060836236923933
12.124944686889648,0.6536914706230164,-1.9015212059021
6.796511173248291,1.23457670211792,-4.338100433349609
3.714209079742432,2.3864026069641118,-3.954931497573853
1.939809799194336,3.8302295207977295,-1.2644023895263672
-0.7288962602615356,3.8791792392730713,0.6289687156677246
-5.928319931030273,5.005465030670166,-0.5166183114051819
-7.308330059051514,1.888637900352478,-4.006372451782227
-8.809863090515137,0.8507415652275085,-6.164287090301514
-9.095741271972656,-2.1325697898864746,-0.5233823657035828
-12.258302688598633,-2.94504189491272,2.9045870304107666
-12.258111000061035,-4.164232730865479,5.879522800445557
-9.971922874450684,-6.0296735763549805,2.631227493286133
-9.761065483093262,-3.071993589401245,-4.333021640777588
-7.7793288230896,3.0546932220458984,-13.184274673461914
3.445776462554932,2.3775267601013184,-0.5632790327072144
2.89541244506836,-1.1716662645339966,8.824577331542969
14.815474510192873,2.112160444259644,1.3380842208862305
13.53148078918457,0.2452200800180435,3.24334979057312
18.245946884155277,-3.3046820163726807,-1.0958069562911987
11.572718620300291,-0.312181681394577,-2.335352659225464
8.362251281738281,0.8970004320144653,-6.056564331054688
8.079255104064941,2.1187753677368164,-4.027567386627197
7.968657970428467,3.560149908065796,-0.2109810411930084
6.762263298034668,1.0461395978927612,2.395676612854004
3.508651733398437,1.1175988912582395,4.254673480987549
-2.2785065174102783,0.5738850831985474,3.766651153564453
-8.041236877441406,0.2402401566505432,-2.75342345237732
-8.851096153259277,-2.47564435005188,-7.012431144714356
-9.220887184143066,-1.104631781578064,-5.812849998474121
-10.542030334472656,-7.046123504638672,-0.3604499697685241
-12.425006866455078,-3.513260841369629,0.3578374087810516
-12.80493450164795,-3.7819321155548096,4.296369552612305
-10.431936264038086,-4.174917697906494,2.745356321334839
-10.03979206085205,-0.8910756707191467,-3.1390085220336914
-7.903930187225342,18.42314720153809,-19.88195037841797
5.986208438873291,-0.497230052947998,4.633769989013672
1.93653416633606,-2.52692985534668,-0.3965153992176056
8.306113243103027,5.093310832977295,3.431368112564087
13.700543403625488,0.2894282341003418,2.212311267852783
19.03838539123535,-3.457314729690552,-1.2379504442214966
12.288415908813477,0.904966115951538,-1.7814195156097412
7.236726760864258,-1.4468443393707275,-6.937977313995361
5.921758651733398,-0.4293599724769592,-5.443876266479492
8.302976608276367,1.7447940111160278,-2.102224826812744
7.586081027984619,1.215623378753662,0.794593334197998
5.434741020202637,0.5669218301773071,4.175304412841797
-4.279130935668945,0.390598863363266,2.50179123878479
-7.844100952148437,2.674093723297119,-3.1757936477661133
-7.555209159851074,-0.7592341899871826,-6.555196285247803
-8.334005355834961,2.27689528465271,-5.715301513671875
-10.343100547790527,-3.646184682846069,-2.793078660964966
-11.230355262756348,-3.0141749382019043,0.978135108947754
-9.95742416381836,-5.363640785217285,0.5837512016296387
-9.481221199035645,-3.4761250019073486,1.452889084815979
-9.599724769592283,5.050139427185059,3.2858731746673584
-1.5631158351898191,4.102659702301025,-7.190958499908447
4.391682624816895,4.993652820587158,5.65225887298584
8.679243087768555,7.900637149810791,9.547741889953612
15.872552871704102,1.096057415008545,4.132577419281006
14.985079765319824,-10.379324913024902,-3.834127426147461
10.116543769836426,-0.4306845664978027,-5.667657852172852
8.997481346130371,1.596697449684143,-5.111561298370361
8.86052417755127,2.30481481552124,-2.631366729736328
7.902779579162598,1.0054233074188232,-1.2664308547973633
6.676084518432617,-0.7014164924621582,1.1709814071655271
2.945577383041382,0.6340629458427429,2.964751482009888
-1.502213954925537,2.1619679927825928,4.5139994621276855
-8.67629337310791,4.105557441711426,-1.102753758430481
-8.900181770324707,2.52338981628418,-6.7149152755737305
-8.909709930419922,1.5313401222229004,-7.561716079711914
-9.493748664855955,-3.203868865966797,-3.905832052230835
-10.452767372131348,-1.4266676902770996,-1.0292932987213137
-10.125040054321287,-3.28092622756958,4.4031829833984375
-8.888199806213379,-6.290097236633301,6.771839141845703
-9.915539741516112,0.5212690830230713,3.405186653137207
-5.078723907470703,3.154560804367065,-15.3012056350708
5.626439571380615,2.1781976222991943,1.5273103713989258
2.923912286758423,1.703948736190796,0.9925827980041504
12.316122055053713,1.3012646436691284,4.636765956878662
13.77743911743164,1.6974626779556274,0.385258138179779
14.167350769042969,-1.6116749048233032,-1.4112966060638428
12.315337181091309,-0.0329156182706356,-1.6128861904144287
10.085606575012209,0.7933390140533447,-2.759512186050415
7.830483436584473,0.7532187700271606,-1.870395541191101
5.249367713928223,1.2380520105361938,-0.6985934376716614
2.4133591651916504,0.5773801803588867,0.4455621242523193
-0.5274479389190674,1.8360365629196167,2.2146782875061035
-7.236010551452637,3.75935173034668,0.7859841585159302
-9.574551582336426,3.484392642974853,-3.1083083152771
-9.262330055236816,0.0846907943487167,-5.257524013519287
-9.40706729888916,-3.92379641532898,1.592265009880066
-11.677420616149902,-3.3128836154937744,2.96321964263916
-11.312800407409668,-2.375713348388672,5.075778007507324
-9.008489608764648,-4.467388153076172,-0.0281591955572366
-8.73771858215332,-1.4985628128051758,-4.207873344421387
-5.18723201751709,8.905949592590332,-16.155908584594727
4.965318202972412,0.3974725008010864,7.705748081207275
8.1282320022583,-0.8554056286811829,2.2192418575286865
16.260679244995117,-0.0686966404318809,3.246344804763794
15.923372268676758,-2.6837947368621826,0.4379059672355652
14.663946151733398,-0.1122932061553001,-0.581366777420044
10.29757308959961,0.5124123692512512,-2.95294189453125
6.393280982971191,1.874658226966858,-4.755994319915772
4.937077522277832,3.5603418350219727,-2.3336174488067627
3.680365562438965,4.294785976409912,0.7427840828895569
2.265418291091919,4.067213535308838,3.658034324645996
-3.071578025817871,2.351680994033813,2.7483084201812744
-6.71661901473999,1.3819713592529297,-2.1131765842437744
-9.189805030822754,-1.7062718868255615,-4.592200756072998
-9.423382759094238,-2.741237163543701,-3.93372106552124
-11.416861534118652,-3.0018599033355717,2.000840187072754
-12.656579971313477,-4.270688533782959,1.4162609577178955
-11.659028053283691,-6.325502395629883,2.3792648315429688
-9.807988166809082,-5.035932540893555,0.5675790905952454
-9.681530952453612,0.5140742659568787,-3.8742942810058594
-5.015800476074219,14.449418067932127,-19.321069717407227
4.435286045074463,-0.6320117712020874,6.580335140228272
5.0238871574401855,0.2816064357757568,4.267723083496094
12.147146224975586,4.560635089874268,1.4414255619049072
14.566226959228516,-7.541903972625732,-1.834349632263184
17.640905380249023,-1.809818744659424,-0.0556890293955802
12.893348693847656,0.8392252922058105,-2.139907121658325
8.532003402709961,-0.5217333436012268,-5.396575450897217
7.8855414390563965,0.0958871692419052,-3.560364246368408
6.689361572265625,0.8939626216888428,-0.4811857938766479
4.883391857147217,-0.2142918109893798,1.6827516555786133
1.173471450805664,1.4679138660430908,4.814732074737549
-7.29818868637085,3.2094647884368896,0.9191558361053468
-9.494596481323242,2.894527673721313,-5.015485763549805
-8.432629585266113,-2.6817400455474854,-8.818582534790039
-9.018208503723145,-1.8927969932556152,-2.870374917984009
-12.078817367553713,-3.4136972427368164,-1.5915623903274536
-12.986123085021973,-2.987311601638794,0.86803138256073
-12.212638854980469,-3.981804847717285,5.844485759735107
-11.241631507873535,-4.700733661651611,-0.5787568092346191
-9.683911323547363,7.270509243011475,-8.232512474060059
0.8720046281814575,11.12485694885254,-10.391402244567873
5.963962554931641,0.3126245737075805,10.412590980529783
8.447247505187988,-1.5885009765625,1.7962071895599363
11.392610549926758,4.393740653991699,6.708745956420898
17.418405532836914,-6.862520694732666,-2.130002021789551
13.452134132385254,-2.411106586456299,-0.3077614307403564
6.529996871948242,0.0064244559034705,-5.069094657897949
4.1174397468566895,0.1774027645587921,-6.998023986816406
5.810740947723389,2.5080676078796387,-3.985549926757813
8.058478355407715,1.574791669845581,-0.4894566535949707
6.055476188659668,1.051948070526123,3.066884756088257
1.8487340211868288,0.1248664706945419,5.987960338592529
-6.892755508422852,2.0109875202178955,1.778688907623291
-8.122827529907227,1.582810401916504,-5.04108476638794
-8.502082824707031,0.7854341268539429,-6.501920223236084
-8.826492309570312,-0.0505033507943153,-4.9474873542785645
-10.932413101196287,-2.638778686523437,-1.6300150156021118
-10.844789505004885,-2.4440505504608154,2.145071506500244
-10.221256256103516,-4.412913799285889,2.1959054470062256
-10.329176902770996,-1.647047519683838,2.192948341369629
-6.432446479797363,6.09839391708374,-7.942111015319824
3.753339290618897,3.934680223464966,0.1281459778547287
4.116299629211426,-1.3214887380599976,4.089499473571777
10.735274314880373,3.9247753620147705,8.00893497467041
14.446507453918455,1.3174368143081665,1.922501921653748
11.87574291229248,-6.372244358062744,-4.265971183776856
8.613687515258789,-0.4449769258499145,-2.2055206298828125
5.766211032867432,0.4213103950023651,-4.297114849090576
5.001137733459473,1.5457803010940552,-4.001461505889893
5.446262836456299,1.876478910446167,-2.135357141494751
6.417810440063477,2.1439967155456543,0.5851485729217529
3.2476203441619877,0.9762691855430604,2.3657784461975098
1.9013797044754028,1.1478191614151,4.697481632232666
-6.322333812713623,1.2424520254135132,1.8427796363830569
-9.137784957885742,2.973649024963379,-3.338327407836914
-7.915180206298828,-2.046445608139038,-6.97135066986084
-8.147843360900879,-3.5810389518737797,-2.232062339782715
-10.143269538879396,-3.988935470581055,-0.2355958968400955
-11.476862907409668,-3.8095602989196777,4.130738258361816
-10.663687705993652,-7.179865837097168,6.442415714263916
-9.33199691772461,-3.4089560508728027,0.0936780348420143
-4.54052209854126,14.459022521972656,-23.48538589477539
5.207494735717773,2.5911245346069336,9.95336627960205
5.808192729949951,-0.3173065483570099,4.544123649597168
12.837416648864746,1.5207856893539429,3.8555948734283447
11.147461891174316,-3.137489318847656,-0.9176480770111084
11.75380516052246,-3.264155387878418,-1.8493245840072632
6.760894298553467,2.1144165992736816,-3.642061948776245
4.776739597320557,2.4549660682678223,-5.066277980804443
5.598641872406006,1.6216150522232056,-3.2821619510650635
6.826876640319824,0.8734075427055359,-0.7581661939620972
5.0559186935424805,0.5754820704460144,1.6633449792861938
3.80885648727417,0.8217810392379761,4.651883602142334
-4.920814514160156,0.4630098044872284,2.339528083801269
-8.179268836975098,3.3403964042663574,-2.0761733055114746
-7.178073406219482,-1.94862163066864,-5.820434093475342
-7.567977428436279,-1.288468837738037,-4.828819274902344
-9.64654541015625,-4.329550266265869,0.0024001933634281
-10.679187774658203,-3.168816566467285,3.5761172771453857
-10.138944625854492,-4.499621391296387,6.262014865875244
-9.58869171142578,-2.684823513031006,3.1337506771087646
-8.642752647399902,10.914419174194336,-19.354555130004883
3.2414798736572266,5.560153484344482,2.504178047180176
1.9515392780303955,-0.3923276662826538,5.3119330406188965
12.150416374206545,0.7745754718780518,3.6543896198272714
13.801108360290527,-2.457843780517578,0.4916272759437561
15.145872116088867,-4.772188663482666,-0.3407952785491943
11.291471481323242,0.9633640050888062,-2.0250320434570312
7.798446178436279,1.1511834859848022,-3.946635007858277
6.341438293457031,1.1885714530944824,-2.772118091583252
5.675537109375,1.7090436220169067,-0.7681407332420349
2.623903512954712,1.2955186367034912,1.1154876947402954
-0.2134175300598144,1.663548707962036,2.5560927391052246
-4.516684055328369,1.80584180355072,2.800140857696533
-9.459075927734377,2.6721715927124023,-1.671894669532776
-9.71152400970459,-1.0096707344055176,-5.093744277954102
-10.04000759124756,-2.9188008308410645,-5.01054048538208
-9.692131042480469,-4.788370609283447,1.4806424379348757
-11.237711906433104,-2.739288806915283,2.9954864978790283
-10.65797519683838,-2.322214841842652,6.8413825035095215
-6.996023654937744,-3.339353561401367,-3.286052942276001
-3.1563313007354736,12.560874938964844,-18.26296806335449
4.140809059143066,3.2928295135498047,9.91567325592041
5.833372592926025,-0.7260883450508118,1.991069197654724
12.622361183166504,-3.6440799236297607,1.7017714977264404
11.42320442199707,-1.7884598970413208,-0.672602653503418
12.543607711791992,-3.549654006958008,-0.4719812572002411
8.144023895263672,1.435423493385315,-3.293485164642334
6.123617172241211,0.3299274444580078,-4.673307418823242
6.9610443115234375,1.5232537984848022,-2.2255613803863525
7.18532133102417,2.618072032928467,1.0430145263671875
3.769567251205444,1.0884255170822144,2.5856735706329346
1.023679494857788,1.5755937099456787,4.554471015930176
-6.858084201812744,2.450669527053833,1.25231671333313
-9.097881317138672,2.786802053451538,-4.626513481140137
-8.743461608886719,-3.163582801818848,-7.431552886962891
-9.268599510192873,-2.7382259368896484,-1.2121809720993042
-11.578075408935549,-2.91511869430542,0.8440952897071838
-11.8743314743042,-2.3083431720733643,5.664217472076416
-9.75880527496338,-5.509366035461426,1.7938262224197388
-8.811050415039062,-1.70556378364563,-1.085986852645874
-5.511606693267822,12.380002975463867,-20.01834487915039
5.002166271209717,2.1575889587402344,6.073570251464844
4.284329414367676,-1.9848299026489256,2.67094349861145
14.712078094482422,1.7331066131591797,4.895126819610596
16.240299224853516,-5.189453125,2.110029935836792
14.932568550109863,-3.568962335586548,0.0969595909118652
6.249590396881104,1.344907283782959,-3.955844163894653
2.718935012817383,1.8637665510177608,-7.073920726776123
4.446682453155518,3.6782381534576416,-3.8346803188323975
6.275237560272217,3.089148998260498,-0.4377488791942596
5.260719299316406,0.3043131530284881,1.7309426069259644
3.244047880172729,0.6094988584518433,4.284177303314209
-3.201508045196533,-0.077891319990158,3.817713737487793
-8.456347465515137,2.872459888458252,-2.5505690574646
-8.804397583007812,-0.633118748664856,-7.297044277191162
-8.684002876281738,-1.7962113618850708,-8.854541778564453
-9.494783401489258,-3.249481201171875,-2.042729377746582
-10.97765827178955,-2.7547085285186768,0.1731503903865814
-11.265134811401367,-2.909297466278076,6.249380111694336
-10.417858123779297,-3.4952733516693115,4.141226768493652
-9.295812606811523,3.000097751617432,-5.3808441162109375
1.213821530342102,6.80598783493042,-14.10170555114746
2.9953651428222656,2.1894843578338623,10.97837734222412
6.062408924102783,-0.1751865148544311,0.2670668363571167
10.794127464294434,3.882434606552124,6.124460697174072
16.102127075195312,-2.2097012996673584,0.924945592880249
13.219338417053224,-5.651264667510986,-3.0030128955841064
5.229924201965332,-1.280212640762329,-5.644889831542969
3.209437847137451,0.0787343531847,-6.687822341918945
5.56318998336792,1.9639896154403689,-3.573809862136841
7.035853862762451,3.225486993789673,-0.3572137951850891
6.867612838745117,1.214276671409607,2.5317485332489014
4.308376312255859,0.3273942172527313,5.624695777893066
-6.332324504852295,-0.4126316905021667,1.698936939239502
-8.054502487182617,1.5369898080825806,-5.77172327041626
-6.884476184844971,-0.1360794603824615,-7.40045166015625
-6.985362529754639,-0.3396279513835907,-5.87827730178833
-9.634547233581545,-2.0890917778015137,-3.2175981998443604
-10.551362991333008,-1.7169288396835327,2.5480806827545166
-9.326091766357422,-6.78240966796875,5.575779438018799
-10.562799453735352,-0.6579337120056152,4.034867286682129
-8.370837211608887,5.1625823974609375,-1.8822166919708248
3.520489454269409,8.729360580444336,-6.6357831954956055
3.980878591537476,0.6976163983345032,5.453385353088379
10.105840682983398,0.5876806378364563,5.260510444641113
13.397555351257324,0.4898153245449066,4.919153690338135
13.320059776306152,-7.539700508117676,-3.060093879699707
8.752603530883789,-0.4277541637420654,-2.15700364112854
6.0823163986206055,0.8408198356628418,-3.298593521118164
3.964639902114868,2.0356760025024414,-3.064150810241699
4.119656562805176,2.466886043548584,-2.6795730590820312
5.373621463775635,2.956581115722656,-0.4293834567070007
3.48856520652771,1.9781525135040283,1.3901559114456177
2.2053985595703125,1.162628412246704,3.5048344135284424
-4.615297794342041,1.1436667442321775,2.497745990753174
-8.367639541625977,2.981945753097534,-1.6141492128372192
-7.810283184051514,-1.5916106700897217,-4.666106224060059
-8.332329750061035,0.1972644627094268,-4.839544773101807
-10.275235176086426,-3.2118828296661377,0.1518341302871704
-10.828207015991213,-3.301121473312378,2.608245611190796
-10.144762992858888,-5.3096137046813965,5.944850921630859
-8.562539100646973,-3.71215558052063,1.0984803438186646
-7.2435712814331055,7.742523193359375,-17.934181213378906
5.413968563079834,1.6593255996704102,0.1495016068220138
2.2386715412139893,-0.3584349453449249,10.266603469848633
12.722698211669922,2.3205597400665283,4.151273250579834
10.719599723815918,-1.1886237859725952,-1.457566261291504
13.652135848999023,-3.780916929244995,-1.0039576292037964
10.150507926940918,0.8354179263114929,-1.1184254884719849
6.455008506774902,1.2548253536224363,-5.058643817901611
5.171797752380371,1.1528927087783811,-4.539731502532959
5.98555326461792,1.333601474761963,-2.6767828464508057
5.3732781410217285,1.094875693321228,0.1491981446743011
3.4749228954315186,0.1519249081611633,2.2233211994171143
-2.1214191913604736,-0.5117464661598206,3.447312831878662
-8.000673294067383,3.446233034133911,-1.111283302307129
-7.712294578552246,-1.5960330963134766,-5.010148048400879
-8.234915733337402,-0.6832048296928406,-4.343415260314941
-10.226381301879885,-5.730546474456787,1.541201114654541
-11.424863815307615,-1.74154794216156,4.057199954986572
-10.569672584533691,-2.397934913635254,2.726491928100586
-10.722570419311523,-2.999064445495605,-1.0983593463897705
-10.754274368286133,7.095541000366211,-12.429909706115724
1.3467512130737305,5.817499160766602,-5.119035243988037
0.451742947101593,1.5271905660629272,7.338136672973633
9.494811058044434,1.7328766584396362,4.205571174621582
13.3511323928833,-1.627357840538025,1.6364734172821045
15.448004722595217,-7.836305618286133,-1.2160310745239258
12.240371704101562,0.9345653653144836,0.2042559683322906
8.086989402770996,2.335150957107544,-3.738626718521118
7.36215877532959,2.608219146728516,-2.168332576751709
8.258130073547363,2.840062379837036,-0.2855405807495117
8.159039497375488,1.527500867843628,1.9622682332992556
5.090188503265381,0.1067146509885788,3.5801539421081543
1.728379249572754,2.180063486099243,5.773333549499512
-6.474760055541992,1.0699385404586792,1.418004035949707
-9.29173469543457,0.7296823263168335,-4.057150840759277
-10.493545532226562,-4.394506931304932,-7.920928001403809
-11.56337547302246,-2.4923653602600098,1.563652753829956
-13.701205253601074,-3.3670332431793213,2.781921625137329
-13.336905479431152,-2.938422918319702,1.869761109352112
-11.262028694152832,-2.987762928009033,3.664917469024658
-8.83582592010498,0.2197409719228744,-3.0865111351013184
-6.794676303863525,11.2937650680542,-27.873191833496094
4.840782642364502,-2.4098970890045166,0.9807106852531432
3.1917998790740967,1.501129150390625,12.056145668029783
11.515832901000977,0.1721053272485733,-2.9547078609466557
11.178625106811523,0.1866828054189682,3.364516496658325
18.69123077392578,-1.43587327003479,2.418591022491455
9.55711841583252,-0.1347908526659011,-1.7375197410583496
4.31232213973999,-0.3067785799503326,-7.12960147857666
4.095780849456787,1.8138964176177976,-5.363396167755127
6.949553489685059,2.708637952804565,-1.492140531539917
7.844789505004883,-0.296847939491272,1.1914044618606567
5.949693202972412,-1.4060111045837402,3.104707717895508
1.8075261116027832,-1.2674299478530884,4.898944854736328
-6.916330814361572,0.8211768269538879,-0.1246555373072624
-10.009929656982422,3.3597252368927,-6.080541133880615
-9.323195457458496,-2.1530873775482178,-9.76817226409912
-10.07573413848877,-2.5568172931671143,-1.978285551071167
-12.891161918640137,-1.5639135837554932,-0.2192654609680175
-13.178832054138184,-0.8231267333030701,4.1896843910217285
-10.785547256469728,-2.931155204772949,4.58574104309082
-10.919440269470217,-1.2260639667510986,-2.1641955375671387
-5.698573112487793,9.908249855041504,-20.543750762939453
4.878488540649414,2.6805760860443115,7.220543384552002
2.306601524353028,-2.438753366470337,2.8660755157470703
12.96820831298828,3.927288055419922,6.618026256561279
17.33745574951172,-0.3291220664978027,5.441301345825195
19.21963119506836,-7.676465511322021,-0.3038276731967926
7.890649795532227,0.1558303534984588,-3.191052198410034
1.4716432094573977,0.6483915448188782,-9.279680252075195
1.367260217666626,3.24407696723938,-6.401683807373047
5.600129127502441,3.653536796569824,-2.405860662460327
6.611021995544434,0.731584370136261,1.0472090244293213
5.998911380767822,-0.1552687585353851,5.227484703063965
-5.0310540199279785,0.0467719882726669,2.91304874420166
-8.155081748962402,2.5533392429351807,-3.5833957195281982
-7.305263519287109,-0.2473121881484985,-9.151812553405762
-7.856850147247314,2.1336686611175537,-7.089451789855957
-9.848430633544922,-1.1548808813095093,-5.570265293121338
-9.289983749389648,-1.781765341758728,-2.634882688522339
-8.733622550964355,-3.5064890384674072,2.321030616760254
-8.480941772460938,-5.057027339935303,4.6099162101745605
-8.362935066223145,-3.7168118953704834,2.803030490875244
-5.683731555938721,3.668331861495972,8.609223365783691
4.931925296783447,7.127409934997559,-5.870569229125977
4.701065540313721,-1.7877161502838137,1.830522537231445
9.923200607299805,2.6410105228424072,3.941276788711548
11.926437377929688,4.697524547576904,5.415977954864502
10.646120071411133,-5.6746506690979,-8.119940757751465
7.447904109954834,-1.4310529232025146,-2.9794201850891118
5.79915189743042,-1.0208556652069092,-3.182518243789673
5.601773262023926,-0.3003777265548706,-3.523625373840332
4.722595691680908,1.5621315240859983,-2.889169454574585
5.201611042022705,1.5912246704101562,-0.2178313434123993
5.332643985748291,1.5019187927246094,1.7263456583023071
4.0172505378723145,0.6692800521850586,4.56673526763916
-5.289013862609863,0.7897963523864746,1.0640439987182615
-7.637986660003662,3.78277039527893,-4.508076190948486
-6.273270606994629,1.764628291130066,-7.850321292877197
-7.560177803039551,-1.337985277175903,-4.575470447540283
-9.928950309753418,0.9058939218521118,-2.943340301513672
-8.891287803649902,-4.485120296478272,1.0458072423934937
-8.789596557617188,-4.2328057289123535,5.259250640869141
-10.385271072387695,-2.686028480529785,8.080451965332031
-10.096423149108888,-2.72692608833313,2.534389972686768
-0.1970543712377548,4.330507755279541,-16.68412208557129
1.4277324676513672,5.94966459274292,8.786301612854004
11.108595848083496,4.543890953063965,6.847116947174072
17.15397834777832,-1.4905847311019895,5.807311058044434
14.385153770446776,-5.867494106292725,-2.198220729827881
10.591944694519045,-2.280014514923096,-2.392815113067627
7.079986095428467,1.8632029294967647,-4.781166076660156
7.133976459503174,2.481243133544922,-2.7814526557922363
7.898779392242432,1.9255582094192505,-0.0571436025202274
7.358500957489014,0.0902590677142143,2.8390462398529053
6.055985927581787,0.1605259478092193,6.289904594421387
-1.2652348279953003,-0.4529130458831787,6.235719680786133
-8.692267417907715,4.197108745574951,-0.8465492129325867
-9.758170127868652,-3.6070926189422607,-6.069494724273682
-11.513267517089844,-4.857304096221924,3.739166021347046
-11.13747501373291,-6.0617218017578125,6.63841724395752
-11.886606216430664,-0.6153383255004883,3.232093095779419
-9.993806838989258,-3.1520512104034424,3.5982794761657715
-8.117254257202148,-1.6031585931777954,-3.425686836242676
-8.47750186920166,4.808517932891846,-18.338775634765625
-0.1500238627195358,13.764055252075195,-18.14703941345215
1.9016612768173216,-1.094616174697876,17.557653427124023
11.204898834228516,3.49543833732605,-2.94827938079834
8.715673446655273,-5.534274578094482,0.1078635603189468
15.017465591430664,-3.5824766159057617,-0.4847152233123779
10.028879165649414,2.4806127548217773,-0.0023114904761314
4.826217174530029,0.6753416657447815,-7.060539245605469
3.2471508979797363,3.365329504013061,-6.508399486541748
6.924774169921875,3.6628453731536874,-2.267057418823242
8.275521278381348,1.7659207582473757,2.065801858901977
6.466488361358643,1.0011698007583618,6.549295425415039
0.4181619882583618,-1.2977348566055298,8.022479057312012
-7.148557662963867,2.355299949645996,1.9482282400131223
-9.072432518005373,-1.9717035293579104,-4.951650142669678
-11.479300498962402,-0.9026758670806884,-5.98112154006958
-13.13497829437256,-3.871505498886109,3.803700685501098
-14.110920906066896,-1.9213643074035645,1.549913763999939
-12.07264804840088,-3.755459308624268,4.420618057250977
-9.009439468383787,-3.145554780960083,-0.9707741737365724
-9.920663833618164,5.436306953430176,-18.130151748657227
1.04213547706604,4.649280071258545,-13.938543319702148
1.5004466772079468,-0.0912227928638458,13.03993320465088
11.183274269104004,0.159700721502304,-1.4247117042541504
12.294540405273438,-1.0843734741210938,3.681375503540039
19.563257217407227,-4.208510875701904,0.835030198097229
11.621253967285156,-0.6794527173042297,1.0329689979553225
3.689801216125488,0.0610352084040641,-7.316078662872314
