PacketCounter,SampleTimeFine,Quat_W,Quat_X,Quat_Y,Quat_Z,Acc_X,Acc_Y,Acc_Z,Gyr_X,Gyr_Y,Gyr_Z 
1,1136810855,0.42619452,-0.56852216,-0.4554186,-0.53640914,-0.07547056674957275,-1.655452847480774,-1.9503611326217651,-1.182865023612976,3.2553725242614746, -0.3761739134788513
2,1136827522,0.42693156,-0.56806916,-0.45569962,-0.53606427,9.874526977539062,0.05125777795910835,-0.5807474255561829,0.5251820087432861,0.39659345149993896, -0.06815539300441742
3,1136844189,0.42740795,-0.5675193,-0.45599943,-0.53601193,9.772453308105469,0.03264748677611351,-0.6761963367462158,0.32750317454338074,0.643038809299469, -0.0662984773516655
4,1136860856,0.42719877,-0.56774086,-0.45617443,-0.53579515,9.72134017944336,0.12719854712486267,-0.7151341438293457,0.517856776714325,0.6089611053466797, -0.06377562135457993
5,1136877523,0.42659378,-0.56793225,-0.4567334,-0.5355981,9.657105445861816,0.12523706257343292,-0.6860712766647339,0.7279961705207825,0.5567111968994141, -0.20231470465660095
6,1136894190,0.426215,-0.56787294,-0.4575012,-0.5353072,9.638755798339844,0.15400761365890503,-0.7174578309059143,1.71637761592865,0.27353721857070923, -0.30686578154563904
7,1136910857,0.42610228,-0.567551,-0.45856377,-0.534829,9.708060264587402,0.17763274908065796,-0.6699641942977905,2.3891847133636475,0.02678447961807251, -0.48466911911964417
8,1136927524,0.42612028,-0.5671063,-0.45957112,-0.5344216,9.733621597290039,0.16341987252235413,-0.6117643713951111,2.515019655227661,0.020842332392930984, -0.42987072467803955
9,1136944191,0.4259718,-0.5668413,-0.46016836,-0.5343073,9.836945533752441,0.10825937241315842,-0.6299092173576355,2.729731321334839,-0.20784707367420197, -0.46507543325424194
10,1136960858,0.42517865,-0.5672604,-0.45982763,-0.5347873,9.927772521972656,0.11355853080749512,-0.5672472715377808,2.024306058883667,-0.3159198760986328, -0.23748093843460083
11,1136977525,0.42508784,-0.56715304,-0.45997566,-0.5348459,9.940289497375488,0.0460687018930912,-0.5090873837471008,0.6627990007400513,-0.1506538987159729, 0.04206245392560959
12,1136994192,0.4250579,-0.56711,-0.4599322,-0.5349527,9.912531852722168,0.05748733505606651,-0.5536180138587952,0.3697769343852997,-0.20181526243686676, 0.3217659294605255
13,1137010859,0.42471457,-0.5673806,-0.459459,-0.53534496,9.868232727050781,0.1340898871421814,-0.5698829293251038,-0.4071010649204254,-0.15078194439411163, 0.3499270975589752
14,1137027526,0.42480457,-0.56727153,-0.45945972,-0.53538865,9.797964096069336,0.10793709009885788,-0.6196136474609375,-0.6082631349563599,-0.21258540451526642, 0.32805386185646057
15,1137044193,0.4250564,-0.5670451,-0.4596519,-0.53526366,9.770953178405762,0.14055567979812622,-0.6656680703163147,0.04527684673666954,-0.3234115540981293, 0.33160120248794556
16,1137060860,0.42501593,-0.5670699,-0.45956895,-0.5353407,9.72533130645752,0.1390286386013031,-0.6195492744445801,0.4347819685935974,-0.27719342708587646, 0.3094334006309509
17,1137077527,0.42466155,-0.56736666,-0.45914194,-0.5356738,9.723285675048828,0.11739972978830338,-0.6667194962501526,0.48724958300590515,-0.13492770493030548, 0.3486849069595337
18,1137094194,0.4247053,-0.5673576,-0.459098,-0.5356863,9.757463455200195,0.1311931610107422,-0.6616090536117554,0.4665033221244812,-0.005007282830774784, 0.5735003352165222
19,1137110861,0.42415002,-0.5678649,-0.4584081,-0.53617936,9.812698364257812,0.13437241315841675,-0.6082913875579834,0.33201104402542114,0.1474330872297287, 0.6085385084152222
20,1137127528,0.42468634,-0.56743056,-0.45883307,-0.5358511,9.85356330871582,0.11171714216470718,-0.6256645917892456,0.2676078975200653,0.4575388431549072, 0.6037874221801758
21,1137144195,0.4247617,-0.56739473,-0.45873564,-0.5359126,9.87808609008789,0.12032720446586609,-0.5821885466575623,0.5263090133666992,0.6628887057304382, 0.6107411980628967
22,1137160862,0.42515483,-0.5670711,-0.458969,-0.5357437,9.824761390686035,0.10677892714738846,-0.5719131231307983,0.3271830081939697,0.784203290939331, 0.5124268531799316
23,1137177529,0.4253406,-0.56691325,-0.4589684,-0.53576386,9.885133743286133,0.08324138820171356,-0.5676800608634949,0.5410362482070923,0.9385324716567993, 0.4114743769168854
24,1137194196,0.42592773,-0.56641394,-0.45941806,-0.5354399,9.795681953430176,0.11471042782068253,-0.5768172144889832,0.03110021911561489,0.724410355091095, 0.38716793060302734
25,1137210863,0.42607024,-0.5662913,-0.45944425,-0.5354338,9.762784957885742,0.04583624750375748,-0.5876602530479431,-0.14395618438720703,0.45951107144355774, 0.31540122628211975
26,1137227530,0.42513576,-0.56709754,-0.45835188,-0.53625894,9.739886283874512,0.052724022418260574,-0.6193884015083313,-0.0025228504091501236,0.2952183485031128, 0.2606668472290039
27,1137244197,0.42527136,-0.5669823,-0.45842087,-0.53621435,9.734941482543945,0.06474021822214127,-0.6345155239105225,-0.06241815164685249,0.18945074081420898, 0.15388751029968262
28,1137260864,0.4253326,-0.5669442,-0.45842543,-0.53620195,9.684086799621582,0.07941683381795883,-0.6532121300697327,0.2954488694667816,0.0438041165471077, 0.17394223809242249
29,1137277531,0.4241089,-0.56800777,-0.45708004,-0.53719336,9.71617603302002,0.11158839613199234,-0.6580257415771484,0.023096252232789993,-0.0023947875015437603, 0.2047671228647232
30,1137294198,0.4240425,-0.5680896,-0.45696664,-0.5372557,9.720661163330078,0.13246630132198334,-0.6172104477882385,-0.08667337894439697,-0.052147455513477325, 0.24720735847949982
31,1137310865,0.42405334,-0.56809896,-0.45693338,-0.53726566,9.726207733154297,0.1192164495587349,-0.6550539135932922,0.5918774604797363,0.03280346840620041, 0.18387998640537262
32,1137327532,0.4241915,-0.56798524,-0.45707837,-0.5371535,9.765454292297363,0.14949721097946167,-0.6030279397964478,1.3169986009597778,-0.0862891897559166, 0.011199153028428555
33,1137344199,0.42456904,-0.56763726,-0.45754135,-0.53682894,9.796211242675781,0.12474362552165985,-0.5843274593353271,1.7672955989837646,-0.2525540292263031, -0.24894265830516815
34,1137360866,0.4246856,-0.5675095,-0.4577281,-0.5367125,9.852568626403809,0.09754330664873123,-0.5713841915130615,1.947391152381897,-0.2442682981491089, -0.2648737132549286
35,1137377533,0.4251573,-0.5670659,-0.45827797,-0.53633857,9.87276554107666,0.06161842122673988,-0.537176787853241,1.971313238143921,-0.08344615995883942, -0.3389328122138977
36,1137394200,0.4251359,-0.5670334,-0.4582776,-0.53639007,9.854835510253906,0.08678688853979111,-0.5705941319465637,1.7337429523468018,0.1447822004556656, -0.37785136699676514
37,1137410867,0.42343193,-0.56842214,-0.456499,-0.53778285,9.81246566772461,0.061575841158628464,-0.6178447008132935,1.1711983680725098,0.21982741355895996, -0.42437684535980225
38,1137427534,0.42366937,-0.56814855,-0.4567793,-0.53764707,9.74673843383789,0.08793792873620987,-0.621390700340271,1.1572521924972534,0.264726459980011, -0.5091548562049866
39,1137444201,0.42349565,-0.56824917,-0.4566307,-0.5378037,9.727163314819336,0.06750637292861938,-0.6215323209762573,1.0223501920700073,0.04379131644964218, -0.35478711128234863
40,1137460868,0.42380416,-0.56795764,-0.45699653,-0.5375578,9.645281791687012,0.14631575345993042,-0.6964238882064819,1.642382264137268,-0.10467909276485443, -0.3026268482208252
41,1137477535,0.42304936,-0.5685185,-0.45638075,-0.5380825,9.635231971740723,0.1503811627626419,-0.6731442809104919,2.4733991622924805,-0.5546429753303528, -0.804136335849762
42,1137494202,0.42320573,-0.56825745,-0.45682392,-0.537859,9.765013694763184,0.11972159147262573,-0.6056279540061951,3.4404709339141846,-0.7473658323287964, -1.2518209218978882
43,1137510869,0.42331514,-0.56800485,-0.45724195,-0.53768474,9.881482124328613,0.08772802352905273,-0.5680888891220093,3.519512176513672,-0.6560822129249573, -1.4760345220565796
44,1137527536,0.42357552,-0.56762576,-0.45779476,-0.53740937,9.985516548156738,0.04914940148591995,-0.4582306444644928,2.7879488468170166,-0.5422208309173584, -1.3973264694213867
45,1137544203,0.42368785,-0.56736356,-0.45819804,-0.53725404,10.066953659057617,0.023301584646105766,-0.39202144742012024,1.6583776473999023,-0.5723029971122742, -1.4089034795761108
46,1137560870,0.4237065,-0.56721675,-0.45842513,-0.53720057,10.117535591125488,0.10865815728902817,-0.4153183400630951,-0.11565415561199188,-0.44213926792144775, -1.0196031332015991
47,1137577537,0.42322364,-0.56746686,-0.4581032,-0.5375917,9.952381134033203,0.21544405817985535,-0.461350679397583,-1.857240915298462,-0.14462211728096008, -1.0830329656600952
48,1137594204,0.4228277,-0.56772625,-0.4577157,-0.5379593,9.803696632385254,0.06358117610216141,-0.6702306270599365,-3.6600167751312256,0.1426563262939453, -0.26085254549980164
49,1137610871,0.42247877,-0.56796825,-0.4574824,-0.53817624,9.633318901062012,0.3069995045661926,-0.6684038639068604,-0.19968941807746887,-0.6291888356208801, -0.45965835452079773
50,1137627538,0.4225113,-0.56790966,-0.4576997,-0.53802776,9.569719314575195,0.23092690110206604,-0.6989920139312744,1.098932147026062,-1.077526330947876, -0.4031951129436493
51,1137644205,0.42232075,-0.5680151,-0.45778447,-0.5379937,9.724827766418457,0.2773732542991638,-0.680589497089386,1.629409670829773,-1.4910305738449097, -0.6811954379081726
52,1137660872,0.42198944,-0.5682262,-0.45778644,-0.53802925,9.640400886535645,0.1980578452348709,-0.7464404702186584,2.739335775375366,-1.760360836982727, -0.8841503262519836
53,1137677539,0.4222622,-0.5679326,-0.458474,-0.5375395,9.557836532592773,0.11027126014232635,-0.688605785369873,3.787612199783325,-2.092839241027832, -0.930675745010376
54,1137694206,0.42097217,-0.5690164,-0.457449,-0.5382781,9.59691333770752,0.1375991404056549,-0.7476702928543091,3.6624557971954346,-2.054497003555298, -0.5815619230270386
55,1137710873,0.4211839,-0.56884015,-0.45802188,-0.5378115,9.71989917755127,0.09846411645412445,-0.7457257509231567,2.8205149173736572,-2.251753091812134, -0.42935848236083984
56,1137727540,0.4214139,-0.5686892,-0.4585043,-0.5373795,9.721321105957031,0.09342201054096222,-0.6384537220001221,1.894424319267273,-1.877385139465332, -0.00468712393194437
57,1137744207,0.42105716,-0.5691,-0.45826003,-0.53743273,9.786958694458008,0.1249789297580719,-0.7141355276107788,0.8348267078399658,-1.7046915292739868, 0.5461844205856323
58,1137760874,0.42093652,-0.56939083,-0.45819232,-0.5372769,10.311128616333008,0.2570340633392334,-0.40548887848854065,1.1282458305358887,-1.8680238723754883, 1.1041570901870728
59,1137777541,0.42102697,-0.56924474,-0.45840317,-0.53718084,10.603333473205566,0.33912453055381775,-0.07250062376260757,-0.1182154044508934,-0.26240211725234985, -0.4539722502231598
60,1137794208,0.4204325,-0.56954044,-0.4575331,-0.53807425,10.868847846984863,0.3149828314781189,-0.22104084491729736,-7.038191795349121,2.9039621353149414, -0.48009735345840454
61,1137810875,0.4193331,-0.5700344,-0.45613265,-0.5395957,11.045328140258789,0.32650238275527954,-0.4770813286304474,-15.3875732421875,4.479581832885742, -1.3164042234420776
62,1137827542,0.41771355,-0.5701193,-0.4548836,-0.54181206,12.212991714477539,0.9091828465461731,0.19123834371566772,-16.841524124145508,6.640427589416504, -7.174330711364746
63,1137844209,0.41404432,-0.5704677,-0.4447451,-0.55257225,16.620559692382812,0.22108039259910583,4.689084053039551,-79.76053619384766,58.24323654174805, -3.8916120529174805
64,1137860876,0.4045216,-0.5728747,-0.423427,-0.57348627,11.84002685546875,1.0973650217056274,-0.5932672619819641,-195.6573028564453,103.15172576904297, -4.374085426330566
65,1137877543,0.38888136,-0.5806712,-0.41157857,-0.584975,6.402351379394531,-0.4099505841732025,-2.4291651248931885,-171.66445922851562,0.6036078929901123, -23.923843383789062
66,1137894210,0.38118148,-0.58474916,-0.40590653,-0.589923,7.826539039611816,-2.4251058101654053,-3.813148260116577,-73.74070739746094,-3.8891468048095703, -9.973652839660645
67,1137910877,0.38001308,-0.585349,-0.4060674,-0.5899712,8.15003776550293,0.9359226226806641,-2.2835233211517334,-5.428920745849609,-6.164940357208252, -4.095869064331055
68,1137927544,0.3793899,-0.58604956,-0.40714493,-0.5889333,8.645730018615723,1.698933482170105,-2.462454080581665,3.255472421646118,-11.532561302185059, -2.3620047569274902
69,1137944211,0.37819117,-0.5866644,-0.40886015,-0.587903,8.890361785888672,2.8607518672943115,-0.6629223227500916,3.711315631866455,-14.143486976623535, -7.342988967895508
70,1137960878,0.3756877,-0.58790994,-0.41060483,-0.58704704,8.299196243286133,2.2311604022979736,-1.5154900550842285,-3.554997682571411,-19.687286376953125, -11.108977317810059
71,1137977545,0.37391856,-0.5886981,-0.4132362,-0.5855385,7.548906326293945,1.4064362049102783,-0.6449952721595764,6.017696857452393,-20.552684783935547, -11.120633125305176
72,1137994212,0.37288278,-0.589205,-0.4162014,-0.58358574,7.610841274261475,1.038748860359192,-0.5501862168312073,12.318896293640137,-19.961259841918945, -9.071089744567871
73,1138010879,0.3728856,-0.58842,-0.419756,-0.5818275,7.361723899841309,1.3772695064544678,-0.14460037648677826,21.651235580444336,-12.5126953125, -11.433411598205566
74,1138027546,0.37395883,-0.58655596,-0.42418423,-0.57980573,7.0915446281433105,0.6926130056381226,-1.1143196821212769,33.00981903076172,-8.44418716430664, -13.03721809387207
75,1138044213,0.37825808,-0.5824826,-0.4302746,-0.57662714,8.607714653015137,0.4591384828090668,0.29008835554122925,61.695186614990234,0.9143282771110535, -10.347942352294922
76,1138060880,0.38364854,-0.57837677,-0.4343877,-0.57410914,8.228017807006836,-1.9332590103149414,2.8010871410369873,56.360076904296875,11.977079391479492, 0.04780025780200958
77,1138077547,0.38909426,-0.5745489,-0.43833488,-0.57128096,9.430567741394043,-0.5571309924125671,-0.18714576959609985,56.12184143066406,9.899236679077148, 2.2982091903686523
78,1138094214,0.39452842,-0.57158923,-0.4425553,-0.56725496,11.445656776428223,-0.6572290062904358,-2.2540783882141113,58.432151794433594,0.9662573933601379, 6.86588191986084
79,1138110881,0.3993997,-0.5693789,-0.44812933,-0.5616652,11.758164405822754,0.10884693264961243,-1.5183908939361572,64.21123504638672,-13.309432983398438, 5.7268500328063965
80,1138127548,0.40389845,-0.56714016,-0.45437887,-0.55566007,10.535940170288086,0.15178655087947845,0.8957594037055969,66.71192169189453,-17.73891258239746, 2.634201765060425
81,1138144215,0.40731975,-0.5655107,-0.4600418,-0.55013645,10.375944137573242,0.10667188465595245,1.5314890146255493,57.088809967041016,-20.081409454345703, 1.3297964334487915
82,1138160882,0.40987438,-0.5646637,-0.46499863,-0.5449168,11.398483276367188,-0.0629725381731987,0.2628723382949829,47.882938385009766,-22.841249465942383, 2.3841500282287598
83,1138177549,0.4117982,-0.5640721,-0.46910685,-0.5405403,11.870409965515137,0.5187157988548279,-0.3007880449295044,41.569374084472656,-20.13117218017578, 1.4992187023162842
84,1138194216,0.4124907,-0.5639153,-0.47148246,-0.5381035,11.060047149658203,0.8812610507011414,-0.0769534558057785,23.770097732543945,-13.308507919311523, -0.5292364954948425
85,1138210883,0.41198444,-0.564285,-0.47269374,-0.53704,9.987421989440918,0.5206069350242615,-0.3410587012767792,9.236900329589844,-10.570867538452148, -2.6418111324310303
86,1138227550,0.4111197,-0.56488806,-0.47356638,-0.5362995,9.553861618041992,0.0107733104377985,-0.9054209589958191,5.336760520935059,-10.404011726379395, -2.849414348602295
87,1138244217,0.4104079,-0.56549054,-0.47454998,-0.5353394,9.193361282348633,0.028470585122704506,-1.2854176759719849,6.5271124839782715,-11.077780723571777, -2.10322642326355
88,1138260884,0.40946287,-0.5664044,-0.47540563,-0.53433675,8.968204498291016,0.19404540956020355,-1.3975961208343506,5.813363075256348,-12.678691864013672, -1.5060789585113525
89,1138277551,0.4086732,-0.5672778,-0.4765884,-0.5329597,9.029037475585938,0.19351211190223694,-1.3394203186035156,5.90304708480835,-14.481226921081543, -1.0332939624786377
90,1138294218,0.40794566,-0.5682371,-0.4776322,-0.5315586,9.231063842773438,0.24482353031635284,-1.2765966653823853,7.037907600402832,-14.183196067810059, -0.09790462255477905
91,1138310885,0.40729874,-0.569136,-0.47846135,-0.530346,9.427826881408691,0.43817704916000366,-1.1875485181808472,6.712562084197998,-12.301673889160156, 0.2176889032125473
92,1138327552,0.4067189,-0.5699909,-0.47894582,-0.5294347,9.515279769897461,0.46796438097953796,-1.166756272315979,5.140643119812012,-9.74704360961914, 0.7795547246932983
93,1138344219,0.4062831,-0.57071525,-0.47927842,-0.52868795,9.722431182861328,0.48972848057746887,-1.1202250719070435,4.586204528808594,-7.735023498535156, 1.0461829900741577
94,1138360886,0.40600923,-0.5712791,-0.47947845,-0.5281075,10.003325462341309,0.500917911529541,-0.911224365234375,4.272435188293457,-5.609437465667725, 1.2008706331253052
95,1138377553,0.4058605,-0.57163775,-0.47958124,-0.5277401,10.146889686584473,0.5655449628829956,-0.74509596824646,4.001492023468018,-3.374819040298462, 0.8001856207847595
96,1138394220,0.40575773,-0.5718542,-0.4796428,-0.5275286,10.196887969970703,0.5122556090354919,-0.835297703742981,4.584359645843506,-1.985714077949524, 0.15751168131828308
97,1138410887,0.40578717,-0.57194537,-0.4797031,-0.5273522,10.296649932861328,0.5365966558456421,-0.935856282711029,4.90798807144165,-0.9991641640663147, 0.1853783130645752
98,1138427554,0.40577102,-0.5719525,-0.4797729,-0.5272935,10.136693000793457,0.6865697503089905,-0.7790970802307129,3.969245433807373,-0.45571401715278625, -0.5395187735557556
99,1138444221,0.40553254,-0.5720989,-0.47962475,-0.5274529,10.014420509338379,0.5527560710906982,-0.8336924314498901,2.340200185775757,-0.20996011793613434, -0.7480957508087158
100,1138460888,0.40552285,-0.5721193,-0.47959566,-0.52746445,10.141158103942871,0.4853992164134979,-0.9189306497573853,3.705421209335327,0.030511125922203064, -0.28615787625312805
101,1138477555,0.4056097,-0.5720297,-0.47965756,-0.5274387,10.125097274780273,0.6972259879112244,-0.8535869121551514,3.763242244720459,0.28405120968818665, -0.42266079783439636
102,1138494222,0.40545523,-0.57210135,-0.47947937,-0.52764165,9.863414764404297,0.6083176136016846,-0.9341486096382141,1.1401045322418213,0.4671052098274231, -0.48404163122177124
103,1138510889,0.40539685,-0.57216704,-0.47938085,-0.52770483,9.695398330688477,0.5073481798171997,-1.1011483669281006,1.914965271949768,0.004398980177938938, -0.020899958908557892
104,1138527556,0.40520224,-0.5724309,-0.47908208,-0.52783954,9.584132194519043,0.5390419960021973,-1.0831316709518433,0.961417555809021,-0.2761305272579193, 0.6065535545349121
105,1138544223,0.40486646,-0.5728696,-0.47865173,-0.5280116,9.540473937988281,0.4537532329559326,-1.0628069639205933,-1.570455551147461,-0.8989418148994446, 1.1955431699752808
106,1138560890,0.40452874,-0.57339424,-0.4781313,-0.5281725,9.728283882141113,0.34556952118873596,-1.0799013376235962,-1.9604088068008423,-1.0058107376098633, 1.8426992893218994
107,1138577557,0.40429157,-0.5738821,-0.47766474,-0.52824634,9.850411415100098,0.39804863929748535,-1.0192811489105225,-1.9641228914260864,-1.0767836570739746, 2.224085569381714
108,1138594224,0.40409225,-0.57430875,-0.47722206,-0.52833533,9.929186820983887,0.4458712935447693,-0.9723013639450073,-2.027501344680786,-0.7614911198616028, 2.070882797241211
109,1138610891,0.4039303,-0.57469094,-0.47675085,-0.52846885,9.934622764587402,0.4522456228733063,-0.9952406287193298,-1.3651570081710815,-0.2080775797367096, 1.9775243997573853
110,1138627558,0.4038267,-0.5749849,-0.47631943,-0.5286174,9.867788314819336,0.4502843916416168,-0.9807528257369995,-0.39507585763931274,0.2582080066204071, 1.6582621335983276
111,1138644225,0.40376797,-0.57520473,-0.47593385,-0.52877027,9.814515113830566,0.4622928202152252,-1.029249906539917,0.274740993976593,0.5597720146179199, 1.373961329460144
112,1138660892,0.40369782,-0.57539874,-0.4755392,-0.52896774,9.743701934814453,0.43213990330696106,-1.0685080289840698,0.500504195690155,0.8262337446212769, 1.1219195127487183
113,1138677559,0.40368715,-0.5755288,-0.47523648,-0.5291066,9.616853713989258,0.37008148431777954,-1.1050033569335938,0.7127053737640381,0.7358720302581787, 1.0155882835388184
114,1138694226,0.40376678,-0.5756059,-0.47502837,-0.5291488,9.66746997833252,0.3010166585445404,-1.1139277219772339,1.3402420282363892,0.5596054792404175, 1.1262478828430176
115,1138710893,0.40385363,-0.5756669,-0.47480825,-0.5292138,9.829385757446289,0.3065688908100128,-1.0596795082092285,1.764298915863037,0.7859194278717041, 1.024552822113037
116,1138727560,0.40406343,-0.5755866,-0.47466332,-0.529271,9.76792049407959,0.3500894010066986,-1.0299766063690186,1.1591731309890747,1.3917620182037354, 0.9337685108184814
117,1138744227,0.4041172,-0.5756442,-0.47436315,-0.52943623,9.764505386352539,0.3038616180419922,-1.029689073562622,0.39126601815223694,1.279117465019226, 0.9968910813331604
118,1138760894,0.40420982,-0.5756484,-0.4740945,-0.52960145,9.759108543395996,0.3454032242298126,-1.04590904712677,0.170791894197464,1.4856199026107788, 0.9073107242584229
119,1138777561,0.40418306,-0.5757658,-0.47368583,-0.52986,9.719399452209473,0.3563555181026459,-1.0316472053527832,-0.8164175748825073,1.4626706838607788, 1.0654561519622803
120,1138794228,0.4042985,-0.57575357,-0.47345325,-0.52999294,9.748671531677246,0.3220165967941284,-1.013593316078186,-0.9105699062347412,1.3331090211868286, 1.0465412139892578
121,1138810895,0.40436465,-0.5758008,-0.47313076,-0.5301793,9.864936828613281,0.3409406542778015,-0.9552227854728699,-0.1784052550792694,1.4730054140090942, 1.0845632553100586
122,1138827562,0.40443125,-0.5758395,-0.47277564,-0.53040326,9.932210922241211,0.36715811491012573,-0.9595105648040771,0.5560965538024902,1.7707405090332031, 0.977323055267334
123,1138844229,0.40445483,-0.5758763,-0.47238967,-0.5306892,9.846760749816895,0.49388813972473145,-0.9552690386772156,0.9964428544044495,1.9938910007476807, 0.6630679965019226
124,1138860896,0.4045713,-0.57580775,-0.47213,-0.53090566,9.71005916595459,0.4496903121471405,-1.0004523992538452,1.0268964767456055,1.9993594884872437, 0.5097119212150574
125,1138877563,0.40461546,-0.57578075,-0.47188553,-0.53111875,9.609819412231445,0.454738974571228,-1.0399469137191772,1.2892597913742065,1.5760964155197144, 0.2724614143371582
126,1138894230,0.40472287,-0.5757328,-0.47175336,-0.5312063,9.530692100524902,0.4448624849319458,-1.0384809970855713,1.5822820663452148,1.020698070526123, 0.4386494755744934
127,1138910897,0.40484738,-0.57568926,-0.47171825,-0.5311897,9.46627140045166,0.4235893189907074,-1.0891656875610352,1.8192123174667358,0.36187541484832764, 0.4853670299053192
128,1138927564,0.40484577,-0.57577556,-0.4716277,-0.5311779,9.489341735839844,0.4487515985965729,-1.1605972051620483,1.4208452701568604,-0.31714928150177, 0.5824136137962341
129,1138944231,0.40486178,-0.575868,-0.4716322,-0.53106135,9.505563735961914,0.4459657371044159,-1.122551679611206,2.0810766220092773,-0.9537658095359802, 0.5955016016960144
130,1138960898,0.40509412,-0.5757468,-0.4719666,-0.53071845,9.54629135131836,0.44507575035095215,-1.095088005065918,2.2379159927368164,-1.3899245262145996, 0.3786901831626892
131,1138977565,0.40498742,-0.57591105,-0.47198847,-0.53060204,9.671392440795898,0.371651291847229,-1.0622702836990356,2.378568410873413,-1.616276741027832, 0.22909922897815704
132,1138994232,0.40506116,-0.5759139,-0.4721943,-0.53035957,9.852863311767578,0.28960558772087097,-0.9799345135688782,2.5390830039978027,-1.5220602750778198, 0.2127198874950409
133,1139010899,0.40513885,-0.57589924,-0.4723357,-0.53019035,9.905966758728027,0.2837081253528595,-0.9408129453659058,2.0906176567077637,-0.9829258322715759, 0.2213001400232315
134,1139027566,0.40518963,-0.57590055,-0.47233787,-0.530148,9.88332748413086,0.26708343625068665,-0.8865475654602051,1.076597809791565,-0.24419145286083221, 0.3625669777393341
135,1139044233,0.405291,-0.57584405,-0.47234803,-0.5301229,9.727535247802734,0.28447428345680237,-0.9743853211402893,0.9466004967689514,0.1498918980360031, 0.3229697048664093
136,1139060900,0.40542135,-0.57575256,-0.47245318,-0.530029,9.664453506469727,0.3370751142501831,-1.1785054206848145,1.7117544412612915,-0.17028604447841644, 0.13008050620555878
137,1139077567,0.4055366,-0.5756309,-0.47264922,-0.5298981,9.830680847167969,0.39262422919273376,-1.0834280252456665,1.1809055805206299,-0.5332435965538025, -0.16919751465320587
138,1139094234,0.40522987,-0.57582045,-0.47248283,-0.53007525,9.768771171569824,0.28831419348716736,-0.8811120390892029,0.292874813079834,-0.6723204851150513, -0.5565511584281921
139,1139110901,0.40538004,-0.57563215,-0.4727842,-0.52989614,9.8648681640625,0.20927202701568604,-0.9053117036819458,1.9282842874526978,-0.6749330759048462, -0.5283387899398804
140,1139127568,0.40546978,-0.57549495,-0.47297382,-0.5298075,9.974632263183594,0.3483489155769348,-0.8920338749885559,2.045206308364868,-0.3569130003452301, -0.5349724888801575
141,1139144235,0.40544206,-0.5754163,-0.4730305,-0.52986324,9.771430015563965,0.3707045018672943,-0.9574831128120422,0.9650543928146362,-0.004341352265328169, -0.706923246383667
142,1139160902,0.40542948,-0.5753527,-0.4730992,-0.52988064,9.692193031311035,0.3703444302082062,-1.084793210029602,1.2003966569900513,-0.19867771863937378, -0.5472921133041382
143,1139177569,0.4054668,-0.57526696,-0.47319856,-0.5298565,9.719329833984375,0.4361329674720764,-1.0826078653335571,0.956038773059845,-0.22851648926734924, -0.3582960069179535
144,1139194236,0.40479293,-0.57580745,-0.47252882,-0.530382,9.645771026611328,0.40077483654022217,-1.0281703472137451,0.05856984481215477,-0.2165297567844391, -0.3124365210533142
145,1139210903,0.40465593,-0.57591873,-0.47239172,-0.5304879,9.67097282409668,0.3757842779159546,-1.0395855903625488,0.7400213479995728,-0.25698503851890564, -0.014893784187734127
146,1139227570,0.40483376,-0.57578725,-0.4725378,-0.53036475,9.71479606628418,0.44418853521347046,-1.0217663049697876,1.5352189540863037,-0.14466054737567902, 0.17700296640396118
147,1139244237,0.4048519,-0.5757914,-0.47251454,-0.5303672,9.766043663024902,0.49826642870903015,-1.0371025800704956,1.5658386945724487,-0.11899659782648087, 0.12842847406864166
148,1139260904,0.4048977,-0.5757562,-0.4725137,-0.53037107,9.824071884155273,0.4517786204814911,-0.9499775171279907,1.560869812965393,0.047351475805044174, 0.050770774483680725
149,1139277571,0.40495163,-0.5757272,-0.4724675,-0.5304026,9.812954902648926,0.38809263706207275,-0.9330044984817505,1.6397697925567627,0.29141488671302795, 0.17382699251174927
150,1139294238,0.40509006,-0.5756398,-0.47246534,-0.53039366,9.855993270874023,0.33256658911705017,-0.9353422522544861,1.6805325746536255,0.4629303812980652, 0.31478649377822876
151,1139310905,0.40590107,-0.57491285,-0.4725309,-0.53050375,10.360735893249512,0.1098761260509491,-0.8377332091331482,6.831093788146973,5.283817768096924, -0.003944356460124254
152,1139327572,0.4141345,-0.566203,-0.4731522,-0.53294855,13.365667343139648,-0.7001411318778992,1.2035592794418335,52.527591705322266,66.16563415527344, -7.543835639953613
153,1139344239,0.41235358,-0.5655354,-0.45482087,-0.5507016,12.633829116821289,0.7616477608680725,2.345283269882202,-127.86387634277344,117.55843353271484, 12.012877464294434
154,1139360906,0.39634764,-0.576035,-0.43811837,-0.5649289,6.584636211395264,1.0047929286956787,-3.7856976985931396,-200.14527893066406,12.166980743408203, -3.119863748550415
155,1139377573,0.38392422,-0.5843553,-0.42536706,-0.5746252,9.784607887268066,-2.603107452392578,-4.012269973754883,-146.65383911132812,3.098801612854004, 0.7594420909881592
156,1139394240,0.37912107,-0.58773714,-0.4200994,-0.57822925,10.087099075317383,-1.4685251712799072,-3.427429437637329,-59.13359832763672,0.7605977058410645, 2.406028985977173
157,1139410907,0.3761145,-0.5903068,-0.41641614,-0.5802357,10.513728141784668,-1.1980788707733154,-0.5352801084518433,-38.8167610168457,-1.2136001586914062, 4.847965240478516
158,1139427574,0.3716121,-0.59445345,-0.41249496,-0.5817023,9.630465507507324,-1.6824266910552979,-1.8808046579360962,-48.380924224853516,-13.35478401184082, 5.6604437828063965
159,1139444241,0.36940312,-0.5983748,-0.4101249,-0.580764,9.893296241760254,-1.465994119644165,-2.3945300579071045,-25.417808532714844,-19.64781951904297, 13.876681327819824
160,1139460908,0.3690446,-0.60165554,-0.41007653,-0.5776281,9.721609115600586,-0.3218466639518738,-1.8001928329467773,-0.7176573872566223,-26.692209243774414, 15.381763458251953
161,1139477575,0.37082586,-0.60384256,-0.41345498,-0.571767,9.196189880371094,-0.5758243799209595,-2.706587791442871,32.18388748168945,-36.21397399902344, 13.501604080200195
162,1139494242,0.37478557,-0.6054384,-0.41854304,-0.5637394,9.196866035461426,-1.1696478128433228,-2.706045389175415,55.61616134643555,-40.93410110473633, 18.759281158447266
163,1139510909,0.3787231,-0.6074855,-0.42333135,-0.5552666,9.07990550994873,-0.028791461139917374,-1.782063603401184,54.47243881225586,-43.724361419677734, 22.280954360961914
164,1139527576,0.38141587,-0.6102384,-0.42703173,-0.5475172,9.176324844360352,0.7805358171463013,-1.5441824197769165,40.98200225830078,-44.14683532714844, 22.25234031677246
165,1139544243,0.3833428,-0.613258,-0.42999905,-0.5404293,9.276262283325195,0.9554818272590637,-1.452649474143982,32.64063262939453,-42.67855453491211, 21.509258270263672
166,1139560910,0.38515317,-0.6160182,-0.43296131,-0.53359467,9.435219764709473,1.069678783416748,-1.2856537103652954,31.9101619720459,-40.96665954589844, 19.742961883544922
167,1139577577,0.3874315,-0.6179569,-0.436323,-0.52692354,9.386153221130371,1.065740942955017,-1.0123121738433838,37.125823974609375,-36.93431091308594, 16.95075035095215
168,1139594244,0.39077997,-0.6186006,-0.440825,-0.519902,9.192265510559082,0.8481473326683044,-0.8756330609321594,50.30195999145508,-33.59022903442383, 13.104804039001465
169,1139610911,0.39564955,-0.61745375,-0.44730505,-0.5119869,8.845590591430664,0.8032962679862976,-0.9223544597625732,71.36807250976562,-31.73825454711914, 7.16241979598999
170,1139627578,0.40138468,-0.6151847,-0.45485085,-0.50353646,8.861308097839355,0.5349718332290649,-0.7411688566207886,83.49945831298828,-30.34065055847168, 3.746685028076172
171,1139644245,0.40662336,-0.6130443,-0.46159387,-0.49574733,9.053802490234375,0.6944019198417664,-1.0518900156021118,76.20344543457031,-27.383710861206055, 4.044050693511963
172,1139660912,0.41116104,-0.6111543,-0.46711725,-0.48912066,9.056903839111328,0.8813319802284241,-0.23360374569892883,64.70862579345703,-22.19341468811035, 4.398484706878662
173,1139677579,0.41323328,-0.6108955,-0.47049055,-0.48444182,8.805020332336426,0.7252903580665588,0.14210990071296692,36.26273727416992,-21.424558639526367, 4.9486165046691895
174,1139694246,0.41528532,-0.61003494,-0.4733937,-0.48093042,8.999306678771973,1.0245922803878784,0.2559789717197418,32.54994201660156,-13.355350494384766, 1.661086916923523
175,1139710913,0.41691113,-0.60847014,-0.47575364,-0.47917423,8.948941230773926,1.2079260349273682,0.5812537670135498,25.27662467956543,-3.6195952892303467, -4.685842037200928
176,1139727580,0.41741195,-0.60713845,-0.47695583,-0.4792322,8.936219215393066,0.6829939484596252,0.6344860196113586,10.166025161743164,2.7055540084838867, -7.888113975524902
177,1139744247,0.4154772,-0.6076847,-0.47627813,-0.48089236,9.043211936950684,0.33966484665870667,-0.3259871304035187,-16.83076286315918,0.4778246581554413, -6.440064430236816
178,1139760914,0.41519338,-0.6070375,-0.47688523,-0.4813531,9.2759370803833,0.09215166419744492,-2.270660400390625,1.6570203304290771,1.0675311088562012, -6.788506507873535
179,1139777581,0.41722754,-0.60440826,-0.47973326,-0.48007095,8.735279083251953,0.8828609585762024,-2.492861747741699,30.125871658325195,1.5857069492340088, -9.963438987731934
180,1139794248,0.41946298,-0.6009741,-0.4843555,-0.4777878,8.558714866638184,1.3697398900985718,-3.648015260696411,42.44536590576172,-4.291682720184326, -16.383014678955078
181,1139810915,0.42248267,-0.59725666,-0.48983273,-0.47419104,8.739919662475586,1.008355975151062,-3.842698574066162,53.70989227294922,-8.52291202545166, -14.397866249084473
182,1139827582,0.42264032,-0.595681,-0.49409574,-0.47160235,8.938362121582031,1.4896824359893799,-2.0610437393188477,28.400959014892578,-17.351530075073242, -14.385233879089355
183,1139844249,0.42166185,-0.59509736,-0.49730903,-0.46983442,9.820755958557129,0.2037791758775711,-0.9749060869216919,14.6943941116333,-17.99716567993164, -12.686102867126465
184,1139860916,0.41974598,-0.59503263,-0.49974903,-0.46904227,10.259637832641602,-0.6803194284439087,-0.4306497573852539,3.5263943672180176,-16.702146530151367, -13.579695701599121
185,1139877583,0.41749772,-0.59529865,-0.50184256,-0.46847582,11.804499626159668,-1.8399865627288818,-1.4090110063552856,-0.6859091520309448,-17.084016799926758, -12.774520874023438
186,1139894250,0.4143366,-0.59636396,-0.5033993,-0.46825704,12.635605812072754,-2.7153213024139404,-0.3944229781627655,-9.6625394821167,-19.90633773803711, -11.84798812866211
187,1139910917,0.40978977,-0.59886056,-0.5042469,-0.46815994,12.067474365234375,-3.4634921550750732,-0.38219213485717773,-22.15422821044922,-26.92371940612793, -8.933444023132324
188,1139927584,0.4050235,-0.60193026,-0.50534433,-0.4671863,9.548624038696289,-3.0490469932556152,-2.057929754257202,-20.868358612060547,-33.97024154663086, -6.395706653594971
189,1139944251,0.4012596,-0.6050065,-0.5072,-0.46444187,6.516119956970215,-2.251278877258301,-3.306703805923462,-8.186493873596191,-39.95462417602539, -1.5205963850021362
190,1139960918,0.40007752,-0.6071257,-0.5101765,-0.4594091,6.160871982574463,-0.9616678357124329,-4.424476146697998,16.7231502532959,-40.408485412597656, 4.920598030090332
191,1139977585,0.40091518,-0.607513,-0.51543695,-0.45223865,7.909415245056152,0.5856145620346069,-2.719365358352661,44.61833190917969,-42.90563201904297, 1.529630422592163
192,1139994252,0.40431568,-0.6046985,-0.5249612,-0.4419102,11.941306114196777,0.6519477367401123,-2.3211617469787598,88.60982513427734,-48.78399658203125, -10.907489776611328
193,1140010919,0.4114198,-0.5967639,-0.5402,-0.42754048,14.245098114013672,2.2551069259643555,-2.199493646621704,150.21282958984375,-52.61249923706055, -30.603466033935547
194,1140027586,0.41737786,-0.5867421,-0.5573371,-0.4134065,13.25561237335205,2.001995086669922,-2.673083782196045,156.1644744873047,-55.24492645263672, -50.027645111083984
195,1140044253,0.42117333,-0.5785953,-0.57061285,-0.40279216,11.100968360900879,-0.14225120842456818,-3.2376675605773926,117.6328353881836,-43.6495246887207, -43.3720817565918
196,1140060920,0.4250374,-0.5731572,-0.5777542,-0.39627543,10.213072776794434,-0.360113263130188,-4.015748023986816,76.99962615966797,-16.829193115234375, -19.998620986938477
197,1140077587,0.42963308,-0.5702438,-0.57882667,-0.39395103,11.494956016540527,1.1483629941940308,-4.264257431030273,39.31480407714844,13.489374160766602, 3.688488006591797
198,1140094254,0.43467623,-0.5688916,-0.575288,-0.39555392,14.021634101867676,0.9829448461532593,-3.4901676177978516,8.360998153686523,40.08225631713867, 17.66948699951172
199,1140110921,0.442465,-0.5668971,-0.56887925,-0.39903522,17.407699584960938,-0.038997773081064224,-2.431964874267578,5.797476291656494,68.55642700195312, 28.285274505615234
200,1140127588,0.4510126,-0.56430906,-0.5596865,-0.4060717,20.382986068725586,1.6332966089248657,-0.567314863204956,-10.989477157592773,95.3260726928711, 28.113855361938477
201,1140144255,0.4572368,-0.5617361,-0.5481099,-0.41828567,19.275304794311523,1.333290457725525,0.7215822339057922,-46.62776184082031,113.5506362915039, 15.005144119262695
202,1140160922,0.4639597,-0.557174,-0.5356569,-0.4328632,15.642768859863281,-0.5487514734268188,1.8255186080932617,-49.885318756103516,132.74232482910156, 4.99766731262207
203,1140177589,0.47076976,-0.5530071,-0.5113098,-0.45947936,13.813773155212402,0.23881842195987701,2.0939860343933105,-130.61572265625,215.70790100097656, 13.845783233642578
204,1140194256,0.46967804,-0.55291545,-0.4967745,-0.47634262,0.267712265253067,-1.3836828470230103,-7.962094783782959,-108.57839965820312,105.93954467773438, -2.5492851734161377
205,1140210923,0.47411492,-0.5490759,-0.48926297,-0.4841,3.840283155441284,-2.9688732624053955,-5.264049053192139,-21.350597381591797,80.218994140625, 5.3649210929870605
206,1140227590,0.4774569,-0.54571396,-0.4834524,-0.49041313,4.4827141761779785,1.6463289260864258,-4.508088111877441,-16.532472610473633,64.21883392333984, 1.4610927104949951
207,1140244257,0.476376,-0.54611933,-0.47539926,-0.49881387,5.818206310272217,-0.24370494484901428,-3.026547431945801,-59.98720932006836,52.23226547241211, 0.7202643156051636
208,1140260924,0.4763792,-0.5469742,-0.46860424,-0.5042743,4.377262592315674,-3.4056007862091064,-1.203803300857544,-43.463966369628906,39.21458053588867, 10.804397583007812
209,1140277591,0.48040926,-0.54603153,-0.4645108,-0.50525874,1.7299154996871948,-4.715302467346191,0.21024979650974274,1.3487404584884644,32.799560546875, 23.302431106567383
210,1140294258,0.4883456,-0.5425109,-0.463347,-0.50250405,0.6211934089660645,-3.1286768913269043,1.5027153491973877,46.64004135131836,30.512006759643555, 29.752593994140625
211,1140310925,0.4929861,-0.542359,-0.46012214,-0.5010981,1.0453088283538818,-0.6007856130599976,0.9817318916320801,11.608654975891113,20.254718780517578, 32.099517822265625
212,1140327592,0.4928087,-0.5457073,-0.4559188,-0.50147915,1.9327996969223022,0.4879382252693176,-1.6862776279449463,-27.251808166503906,2.890502691268921, 24.137859344482422
213,1140344259,0.4900955,-0.5498789,-0.45402604,-0.50129837,1.1676489114761353,1.3198484182357788,-3.1819260120391846,-29.824321746826172,-17.74112892150879, 11.242395401000977
214,1140360926,0.48089623,-0.5581418,-0.451779,-0.5031028,-0.21942046284675598,2.072885036468506,-4.356250286102295,-75.54095458984375,-43.22468948364258, -3.6185693740844727
215,1140377593,0.46693903,-0.57019126,-0.4511817,-0.50327444,2.678557872772217,2.1334879398345947,-11.24848461151123,-95.5269775390625,-82.6031494140625, -9.139780044555664
216,1140394260,0.4491046,-0.5865435,-0.45123017,-0.50066257,7.107001781463623,0.8800255656242371,-8.25122356414795,-113.63309478759766,-121.9571304321289, -2.659153461456299
217,1140410927,0.43200812,-0.5979409,-0.45443317,-0.4993258,13.481459617614746,-0.5657882690429688,4.574556827545166,-88.41488647460938,-106.83512115478516, -32.05068588256836
218,1140427594,0.4205819,-0.60498524,-0.46207997,-0.49354446,10.419135093688965,-3.2094919681549072,1.2989702224731445,-23.042062759399414,-105.95930480957031, -31.23520278930664
219,1140444261,0.4126725,-0.6100961,-0.47364774,-0.482848,14.851859092712402,-1.2908257246017456,3.2665040493011475,26.080251693725586,-120.15298461914062, -27.67729949951172
220,1140460928,0.40793228,-0.6140687,-0.4880669,-0.46722785,18.64411735534668,-5.2094292640686035,1.971379041671753,68.08834075927734,-135.09292602539062, -18.889429092407227
221,1140477595,0.40665823,-0.6132433,-0.50746673,-0.44837445,22.97976303100586,-1.2619645595550537,0.03792977333068848,122.97917938232422,-135.96487426757812, -36.02850341796875
222,1140494262,0.4019493,-0.6141238,-0.5240419,-0.43205222,15.234052658081055,-0.39134490489959717,-4.646035194396973,86.16717529296875,-134.9205322265625, -35.82954788208008
223,1140510929,0.39700887,-0.61459196,-0.5355717,-0.4216917,12.880955696105957,0.5703127384185791,-6.818479537963867,49.864013671875,-95.39799499511719, -33.148963928222656
224,1140527596,0.3967571,-0.61229795,-0.5444936,-0.41376552,13.361137390136719,2.600869655609131,-5.863734722137451,60.7132453918457,-52.59664535522461, -25.29037857055664
225,1140544263,0.40148404,-0.6056567,-0.5534997,-0.4069751,15.161880493164062,3.923905849456787,-5.900821685791016,89.57471466064453,-16.985857009887695, -30.70458221435547
226,1140560930,0.4107449,-0.596161,-0.5584565,-0.40497833,15.957125663757324,3.2370879650115967,-5.535319805145264,86.83562469482422,39.418373107910156, -25.041467666625977
227,1140577597,0.42371467,-0.58628494,-0.55702907,-0.40798855,19.225296020507812,1.587169885635376,-2.5396299362182617,66.16201782226562,93.27167510986328, -3.966374635696411
228,1140594264,0.43693632,-0.57900995,-0.5455327,-0.41979572,22.06145668029785,2.5568346977233887,-0.8900272846221924,-2.331012487411499,151.56434631347656, 21.77012825012207
229,1140610931,0.44744396,-0.5731618,-0.5304837,-0.4357366,20.341609954833984,1.690176248550415,1.9300929307937622,-43.18753433227539,164.13174438476562, 21.166231155395508
230,1140627598,0.4592118,-0.5642754,-0.5103434,-0.45854932,20.19120979309082,0.5417441725730896,6.238585472106934,-69.23622131347656,220.26341247558594, 12.881767272949219
231,1140644265,0.45868817,-0.56533647,-0.484355,-0.4851806,5.847734451293945,-4.099239349365234,2.8978564739227295,-180.26010131835938,178.5594024658203, 19.66755485534668
232,1140660932,0.45403114,-0.56904215,-0.46808276,-0.5009448,0.3303529918193817,-4.583837985992432,-8.357880592346191,-136.095458984375,82.88118743896484, 10.917423248291016
233,1140677599,0.4536274,-0.5680431,-0.46169752,-0.5083155,4.192101955413818,-3.4403772354125977,-6.25415563583374,-43.70673370361328,49.47104263305664, -2.3006319999694824
234,1140694266,0.45557344,-0.5648687,-0.46084896,-0.51087636,2.6147708892822266,-3.196512222290039,-4.269254684448242,6.872312545776367,28.772687911987305, -7.768062114715576
235,1140710933,0.4578385,-0.56226444,-0.4604034,-0.51212454,3.084214925765991,-1.631905436515808,-2.2647552490234375,11.897795677185059,21.625389099121094, -2.4325711727142334
236,1140727600,0.46289012,-0.5592233,-0.4598189,-0.5114378,1.7200347185134888,-0.7812363505363464,-0.1349526196718216,29.679651260375977,25.049875259399414, 12.559818267822266
237,1140744267,0.46753305,-0.55731004,-0.45660028,-0.51218617,0.6394422650337219,0.4088544249534607,1.4851738214492798,10.714859008789062,33.703582763671875, 20.2209415435791
238,1140760934,0.4729421,-0.5556971,-0.4529555,-0.5122087,-0.8238480091094971,-1.8807076215744019,0.004257405176758766,13.457452774047852,33.57831954956055, 27.84843635559082
239,1140777601,0.4774154,-0.5541642,-0.4507514,-0.51166373,0.7446941137313843,0.3251689672470093,-3.9032623767852783,16.455408096313477,23.54083251953125, 21.0584659576416
240,1140794268,0.4797842,-0.55320626,-0.45109847,-0.5101768,2.815458059310913,3.193868398666382,-7.503931522369385,18.454086303710938,3.2167232036590576, 8.833456039428711
241,1140810935,0.4777096,-0.55545634,-0.45318493,-0.50782406,1.3704750537872314,3.5969998836517334,-7.132474422454834,-0.2188996821641922,-30.508283615112305, -0.4000076651573181
242,1140827602,0.46999234,-0.5628964,-0.45868593,-0.50185883,1.9742164611816406,2.647394895553589,-14.95547866821289,-15.609562873840332,-90.90752410888672, -4.932667255401611
243,1140844269,0.45861697,-0.5727389,-0.46588796,-0.49455965,7.372710227966309,2.331794261932373,-1.9650253057479858,-27.40294647216797,-120.73857879638672, -12.10969066619873
244,1140860936,0.4443615,-0.5837898,-0.47147733,-0.48932773,6.451138496398926,-8.347041130065918,3.6557328701019287,-54.63410568237305,-120.80514526367188, -18.071426391601562
245,1140877603,0.44045898,-0.58659893,-0.48605514,-0.47502437,12.173589706420898,-3.8387184143066406,0.6720833778381348,71.71060180664062,-123.58331298828125, -18.685815811157227
246,1140894270,0.43325254,-0.5915291,-0.49791807,-0.46310177,18.20877456665039,-1.0087740421295166,3.4153144359588623,35.10111618041992,-123.83769989013672, -18.798765182495117
247,1140910937,0.424621,-0.5966885,-0.50870967,-0.45263058,17.327009201049805,0.6280651688575745,1.8644193410873413,20.226533889770508,-120.64987182617188, -22.52829933166504
248,1140927604,0.41451558,-0.60251766,-0.5204585,-0.4407637,13.114530563354492,-2.192120313644409,0.6392816305160522,20.08879852294922,-136.65794372558594, -24.567508697509766
249,1140944271,0.41439727,-0.6017888,-0.5378578,-0.4205168,13.988128662109375,-1.3318859338760376,-7.926403045654297,127.249755859375,-132.03933715820312, -17.36305809020996
250,1140960938,0.4170576,-0.59819186,-0.5528528,-0.4032163,13.452387809753418,1.8583728075027466,-4.9886794090271,129.06256103515625,-94.26725006103516, -18.405553817749023
251,1140977605,0.4171089,-0.5954426,-0.56192696,-0.39459658,19.2428035736084,-1.039452314376831,-4.048698425292969,66.51892852783203,-53.82803726196289, -22.849811553955078
252,1140994272,0.41901714,-0.5915625,-0.5671257,-0.39095658,20.874818801879883,0.14995387196540833,-4.161700248718262,47.60497283935547,-12.195966720581055, -20.595979690551758
253,1141010939,0.42418954,-0.5866928,-0.5663273,-0.39386338,20.324438095092773,3.28647780418396,-4.761236190795898,22.09707260131836,46.9583854675293, -10.099096298217773
254,1141027606,0.43180344,-0.58178365,-0.55972755,-0.40221748,21.07453155517578,4.150426387786865,-2.559933662414551,-4.807133197784424,95.36395263671875, 4.047045707702637
255,1141044273,0.44075632,-0.5771125,-0.5467823,-0.41677812,19.527610778808594,5.020767688751221,-0.9616074562072754,-41.5496940612793,143.34495544433594, 15.826899528503418
256,1141060940,0.4511242,-0.5709654,-0.5303043,-0.43504366,16.54767608642578,4.2584943771362305,0.786503791809082,-55.49104309082031,178.1024627685547, 17.3538875579834
257,1141077607,0.46376267,-0.56193787,-0.5070532,-0.46048582,14.431971549987793,2.965327024459839,2.673285484313965,-84.10120391845703,243.99725341796875, 18.15961265563965
258,1141094274,0.46250555,-0.5643303,-0.48402953,-0.4830483,3.2871391773223877,-2.8018174171447754,-0.14747215807437897,-163.49375915527344,147.26644897460938, 22.379695892333984
259,1141110941,0.45877212,-0.5685135,-0.4659731,-0.49918902,1.7155905961990356,-3.818061351776123,-8.107666015625,-140.9715118408203,92.32042694091797, 21.08864974975586
260,1141127608,0.46191663,-0.5660122,-0.45721927,-0.50716263,4.203304290771484,-1.8910518884658813,-12.657231330871582,-34.91290283203125,76.3551254272461, 12.501407623291016
261,1141144275,0.4612092,-0.5637248,-0.453964,-0.5132417,4.622683048248291,1.4246505498886108,-8.961249351501465,-25.442502975463867,39.180137634277344, -15.701845169067383
262,1141160942,0.45784557,-0.56381315,-0.45344934,-0.5166004,2.51663875579834,-1.0292824506759644,-7.72745943069458,-25.0881290435791,3.626675605773926, -19.583452224731445
263,1141177609,0.45113313,-0.56717384,-0.45262852,-0.5195385,2.335728406906128,-0.4577775299549103,-2.8836231231689453,-48.135459899902344,-18.79794692993164, -18.796964645385742
264,1141194276,0.4454947,-0.5719557,-0.45235085,-0.5194036,1.3834282159805298,-2.3378758430480957,-0.6333534121513367,-36.844871520996094,-34.09809112548828, -3.1376729011535645
265,1141210943,0.4429951,-0.5755194,-0.45433325,-0.5158627,0.9844731688499451,-2.1231391429901123,0.39480334520339966,-2.1090004444122314,-40.284297943115234, 5.730523109436035
266,1141227610,0.44281062,-0.57764363,-0.45891753,-0.5095501,0.5185869336128235,-2.6531107425689697,-0.5698950886726379,29.320236206054688,-46.860023498535156, 7.499091148376465
267,1141244277,0.44139573,-0.5795072,-0.46305677,-0.504896,0.9647191762924194,3.113966464996338,1.782762885093689,18.431615829467773,-41.8662223815918, -1.0285367965698242
268,1141260944,0.43181932,-0.5860031,-0.46207625,-0.50657505,1.65360689163208,4.541360855102539,1.571526288986206,-66.06764221191406,-43.24654769897461, -13.311464309692383
269,1141277611,0.42174888,-0.5960163,-0.46151307,-0.50388324,3.182095766067505,-4.145244598388672,-10.435209274291992,-63.13176727294922,-76.00579833984375, 7.615040302276611
270,1141294278,0.41627195,-0.6005995,-0.4675484,-0.4973899,10.629504203796387,-1.7093956470489502,-4.23750114440918,6.360517978668213,-76.93726348876953, -9.868181228637695
271,1141310945,0.41323087,-0.6030955,-0.47650108,-0.48832673,8.97362232208252,-4.72095251083374,1.866477370262146,40.63186264038086,-80.8321304321289, -13.000375747680664
272,1141327612,0.41011187,-0.60526067,-0.48881283,-0.47595182,11.888150215148926,-4.138402462005615,4.124870300292969,63.339813232421875,-103.38883209228516, -19.053415298461914
273,1141344279,0.40344086,-0.6102825,-0.5061911,-0.4566853,16.079858779907227,-6.844922065734863,1.7311993837356567,80.20906829833984,-167.90594482421875, -22.888690948486328
274,1141360946,0.4043227,-0.60984826,-0.5285111,-0.43044648,22.330219268798828,3.2624378204345703,0.24044036865234375,166.7578887939453,-167.6828155517578, -19.803058624267578
275,1141377613,0.3998801,-0.6119469,-0.54044706,-0.41657415,17.56706428527832,3.0800273418426514,-2.2789955139160156,61.72927474975586,-114.04054260253906, -17.040184020996094
276,1141394280,0.3953217,-0.6140029,-0.54800934,-0.40793037,9.725369453430176,2.6327483654022217,-6.270908355712891,29.446847915649414,-80.45494842529297, -13.364805221557617
277,1141410947,0.3921437,-0.6152595,-0.55292904,-0.40242845,11.929378509521484,-0.6066122055053711,-5.810667037963867,18.246286392211914,-52.46573257446289, -9.777681350708008
278,1141427614,0.39240456,-0.61508065,-0.55382997,-0.40120712,14.166302680969238,-0.16013912856578827,-6.878523826599121,9.272011756896973,-6.432849884033203, -0.26621851325035095
279,1141444281,0.3934722,-0.6142456,-0.55388016,-0.40137142,14.364376068115234,1.3157657384872437,-5.751745223999023,6.83923864364624,6.649857997894287, -0.6672238111495972
280,1141460948,0.39682233,-0.610655,-0.5551063,-0.4018579,20.747547149658203,-0.9463517665863037,-2.697213649749756,25.977313995361328,21.126361846923828, -10.633952140808105
281,1141477615,0.40587762,-0.604568,-0.549983,-0.40899846,26.43451690673828,-0.25990885496139526,-1.2615406513214111,13.786041259765625,94.87303924560547, 4.096660614013672
282,1141494282,0.41558096,-0.5996645,-0.53770256,-0.42257658,23.678686141967773,1.6683238744735718,0.5433105826377869,-31.309314727783203,140.43505859375, 22.201200485229492
283,1141510949,0.4225965,-0.5969221,-0.52031404,-0.44087383,17.87495231628418,1.762306809425354,1.6617560386657715,-80.86251068115234,157.97918701171875, 30.031959533691406
284,1141527616,0.43028867,-0.5914154,-0.5008096,-0.4628925,12.162497520446777,0.8834577202796936,3.6394684314727783,-89.80123901367188,189.96788024902344, 20.121828079223633
285,1141544283,0.4370789,-0.5838428,-0.47791258,-0.48958087,5.157460689544678,-1.9995193481445312,0.22370871901512146,-114.27298736572266,222.24925231933594, 10.11974048614502
286,1141560950,0.43440342,-0.58561563,-0.46060288,-0.5061554,-0.0011591911315917969,-4.776098728179932,-10.438736915588379,-128.33460998535156,102.23006439208984, 16.812122344970703
287,1141577617,0.4385214,-0.5810365,-0.45470998,-0.5131612,5.027279376983643,1.0060149431228638,-8.871687889099121,-11.978717803955078,73.61297607421875, 2.762274742126465
288,1141594284,0.44219264,-0.5764273,-0.4538234,-0.5159861,3.6012728214263916,0.08452554792165756,-7.584259033203125,17.08046531677246,40.83871841430664, -6.2505035400390625
289,1141610951,0.44129643,-0.57521033,-0.45388106,-0.51805645,3.130549907684326,1.4910736083984375,-6.379363059997559,-5.615794658660889,8.960938453674316, -13.30216121673584
290,1141627618,0.4408857,-0.57521975,-0.4574436,-0.5152549,2.2457096576690674,-0.07415992766618729,-4.539440155029297,20.287246704101562,-23.568958282470703, -6.7638397216796875
291,1141644285,0.443068,-0.5744318,-0.46454656,-0.50785375,1.1774722337722778,-2.298142910003662,-2.104489803314209,59.97747039794922,-41.352962493896484, -0.14316484332084656
292,1141660952,0.44786543,-0.5715315,-0.47397324,-0.49811432,-0.02827051468193531,-1.9078242778778076,-0.8639421463012695,92.31898498535156,-41.863746643066406, 0.10475333034992218
293,1141677619,0.45173302,-0.56800836,-0.4824277,-0.4904768,0.9273067712783813,3.2065343856811523,-1.194231390953064,80.39462280273438,-31.474973678588867, -7.832814693450928
294,1141694286,0.45002776,-0.5682569,-0.485827,-0.48839664,0.6688858866691589,3.617016553878784,0.1554976999759674,11.45557975769043,-25.238323211669922, -11.522344589233398
295,1141710953,0.4444609,-0.57175356,-0.48703563,-0.48820978,0.07966545224189758,0.47050341963768005,-1.3084766864776611,-27.342754364013672,-34.8830451965332, -10.814772605895996
296,1141727620,0.4408608,-0.57528555,-0.49260938,-0.48168913,2.815441608428955,-1.0916684865951538,-9.628305435180664,16.151500701904297,-66.61127471923828, -1.8854331970214844
297,1141744287,0.43897843,-0.57591134,-0.50487757,-0.46981162,5.388389587402344,3.050140380859375,-8.829394340515137,72.08283996582031,-92.33164978027344, -16.320178985595703
298,1141760954,0.43690076,-0.5754891,-0.51917535,-0.45649445,9.406869888305664,-3.100257635116577,1.9315239191055298,86.0656509399414,-101.1816177368164, -24.188087463378906
299,1141777621,0.438519,-0.57256466,-0.53664374,-0.43804604,8.40489673614502,-2.403538227081299,-3.732041597366333,136.4575958251953,-110.0931625366211, -18.776525497436523
300,1141794288,0.43571064,-0.5740973,-0.55279803,-0.4183097,15.983498573303223,-0.7782552242279053,4.303396224975586,106.37144470214844,-140.90078735351562, -6.7055158615112305
301,1141810955,0.42933023,-0.57770133,-0.5679346,-0.39923316,15.418355941772461,-1.4536272287368774,0.6052449941635132,80.61331176757812,-155.0667724609375, -7.0925116539001465
302,1141827622,0.4254331,-0.578398,-0.584433,-0.37802202,16.97682762145996,0.2631615996360779,0.5443140864372253,111.11920928955078,-150.06646728515625, -10.77646255493164
303,1141844289,0.422275,-0.5788836,-0.59455013,-0.36481225,18.7697811126709,1.2712478637695312,-2.8582794666290283,65.92554473876953,-96.26022338867188, -7.701879501342773
304,1141860956,0.42085806,-0.57841945,-0.6004103,-0.3575151,18.093591690063477,-0.3105926811695099,-4.864975929260254,40.78670120239258,-51.00736999511719, -7.371767997741699
305,1141877623,0.41975752,-0.57745457,-0.6041734,-0.35401186,17.431232452392578,-1.2940682172775269,-5.106872081756592,22.68118667602539,-27.3939266204834, -11.27698040008545
306,1141894290,0.42071953,-0.57573444,-0.6046475,-0.354861,15.263043403625488,-0.44761744141578674,-6.987358093261719,6.956140041351318,9.71427059173584, -8.90683650970459
307,1141910957,0.42444414,-0.5727675,-0.6020976,-0.35953185,14.323190689086914,0.277259886264801,-6.635718822479248,-1.7629880905151367,48.13212585449219, -6.42083740234375
308,1141927624,0.43157876,-0.5682171,-0.59643483,-0.36760685,16.617347717285156,0.6193829774856567,-4.902067184448242,-5.486367225646973,88.67282104492188, -2.1891398429870605
309,1141944291,0.43930566,-0.5642731,-0.58713293,-0.3793171,20.201488494873047,-0.8344451189041138,-1.4410762786865234,-29.07020378112793,114.5199966430664, 5.268221855163574
310,1141960958,0.44543946,-0.5632179,-0.57222885,-0.39613616,20.942550659179688,-0.9838395118713379,1.3917442560195923,-79.23884582519531,137.1202850341797, 19.074932098388672
311,1141977625,0.45040753,-0.5624887,-0.55477566,-0.4158892,16.516489028930664,-0.9961172938346863,3.085099220275879,-103.27639770507812,150.56680297851562, 18.04442596435547
312,1141994292,0.44729224,-0.5684735,-0.5260929,-0.44720697,11.920997619628906,-0.9401590824127197,3.665224313735962,-231.6443328857422,179.83456420898438, 28.100099563598633
313,1142010959,0.44185913,-0.5731271,-0.5036841,-0.47179297,3.237222194671631,-2.1185760498046875,-6.956976413726807,-192.9661865234375,129.7135772705078, 12.239351272583008
314,1142027626,0.4432348,-0.57115173,-0.49424523,-0.4827528,3.3716843128204346,-5.386510372161865,-5.363483905792236,-56.708126068115234,81.89539337158203, 1.5629734992980957
315,1142044293,0.44908634,-0.56520766,-0.49211583,-0.48650187,1.2328734397888184,-3.6909544467926025,-2.138702869415283,21.7091064453125,59.85508728027344, -3.962059497833252
316,1142060960,0.45825285,-0.5568592,-0.4913504,-0.4883517,2.3838999271392822,-1.2817058563232422,0.6353834867477417,52.994544982910156,67.59475708007812, -0.5493170619010925
317,1142077627,0.46029103,-0.5542482,-0.4798942,-0.5006424,1.2983757257461548,3.227271556854248,5.914240837097168,-63.54559326171875,97.89105224609375, 2.8961737155914307
318,1142094294,0.46689448,-0.553173,-0.46538952,-0.5093349,1.548075556755066,-2.8469808101654053,-0.17162445187568665,-49.623653411865234,103.42493438720703, 46.76728057861328
319,1142110961,0.4778868,-0.5506021,-0.4546497,-0.5116203,2.459196090698242,-2.1257026195526123,-4.186511993408203,5.54287052154541,86.26949310302734, 63.507904052734375
320,1142127628,0.48703143,-0.5478546,-0.450734,-0.50940615,2.0574846267700195,0.46886372566223145,-8.321063995361328,37.2010612487793,41.79590606689453, 45.354549407958984
321,1142144295,0.49294242,-0.5447661,-0.45460817,-0.5035567,1.8898214101791382,4.875166416168213,-9.351805686950684,64.73571014404297,-6.5493855476379395, 15.840813636779785
322,1142160962,0.48612064,-0.5517329,-0.45663998,-0.5007569,1.1998780965805054,5.270758152008057,-10.13003158569336,-32.91380310058594,-63.20765686035156, -0.07942639291286469
323,1142177629,0.47167832,-0.56348526,-0.46044978,-0.49798608,4.202516555786133,5.002492427825928,-7.640779972076416,-71.74475860595703,-109.14311218261719, -17.954526901245117
324,1142194296,0.45107433,-0.57983416,-0.46095613,-0.49783966,5.460682392120361,-1.5055768489837646,3.832159996032715,-130.1063690185547,-123.29926300048828, -20.035539627075195
325,1142210963,0.43761042,-0.59175974,-0.46486822,-0.49215364,6.566265106201172,-0.7995002865791321,-5.126577854156494,-58.71609878540039,-118.30528259277344, -6.0450592041015625
326,1142227630,0.42723492,-0.5988753,-0.47404104,-0.483843,15.239229202270508,2.2086997032165527,-2.35638165473938,-5.469247341156006,-118.53670501708984, -24.48394775390625
327,1142244297,0.42034253,-0.60239565,-0.48976162,-0.4696439,12.959897994995117,-1.6006617546081543,5.016342639923096,60.43398666381836,-138.7138214111328, -34.19536209106445
328,1142260964,0.41423097,-0.6055516,-0.5088786,-0.4502917,16.18175506591797,-3.97936749458313,2.9257688522338867,93.02662658691406,-166.29469299316406, -32.11923599243164
329,1142277631,0.4128259,-0.6044735,-0.5308879,-0.4270187,19.376922607421875,-0.5047622323036194,-5.149051189422607,147.3271026611328,-161.47760009765625, -33.338279724121094
330,1142294298,0.40958634,-0.60343283,-0.5482256,-0.40933672,12.151276588439941,0.913486123085022,-5.509183883666992,105.46204376220703,-131.781005859375, -35.02750015258789
331,1142310965,0.40375188,-0.6045244,-0.55871266,-0.3992181,10.207673072814941,-1.0975394248962402,-5.549269676208496,40.91996383666992,-96.83780670166016, -27.12891960144043
332,1142327632,0.40309027,-0.6042453,-0.5632652,-0.39387602,11.387788772583008,-2.150440216064453,-6.374704837799072,31.584880828857422,-36.82209014892578, -6.8077216148376465
333,1142344299,0.40849626,-0.60173017,-0.56382614,-0.39134642,15.838990211486816,0.20069532096385956,-6.119871139526367,41.27200698852539,15.532938003540039, 9.708633422851562
334,1142360966,0.41738355,-0.5970615,-0.5592534,-0.3956571,21.964889526367188,2.974668502807617,-4.08456563949585,21.404449462890625,77.53937530517578, 12.780757904052734
335,1142377633,0.43019906,-0.589229,-0.5461927,-0.41159666,25.89291000366211,2.095191717147827,-1.3788762092590332,-21.16506004333496,173.24343872070312, 12.88630199432373
336,1142394300,0.44626617,-0.5786042,-0.5246289,-0.4368393,23.402938842773438,1.8509728908538818,0.19637882709503174,-58.74479293823242,256.0338134765625, 18.629436492919922
337,1142410967,0.45418933,-0.57275295,-0.5025878,-0.46159717,18.150217056274414,2.899071216583252,0.9077663421630859,-105.49301147460938,211.65025329589844, 14.847564697265625
338,1142427634,0.45482847,-0.5736056,-0.48426166,-0.47916454,11.393829345703125,1.8825949430465698,1.4737961292266846,-118.47988891601562,125.1206283569336, 22.808059692382812
339,1142444301,0.4523152,-0.5782118,-0.4640297,-0.4957407,8.440773963928223,1.2538518905639648,3.258728504180908,-145.647705078125,104.20587158203125, 35.57673263549805
340,1142460968,0.44384223,-0.5851255,-0.44345784,-0.5137877,5.181725978851318,-1.1675249338150024,0.8745176792144775,-182.39920043945312,84.09388732910156, 19.405075073242188
341,1142477635,0.43970186,-0.58658814,-0.43038526,-0.52663577,3.17305064201355,-3.0369491577148438,-9.403288841247559,-105.99275207519531,72.7071533203125, 3.7187516689300537
342,1142494302,0.44344005,-0.58194786,-0.42638445,-0.531878,5.0410475730896,-1.2863857746124268,-11.110331535339355,-0.4045194089412689,60.27969741821289, 0.5089244842529297
343,1142510969,0.44163802,-0.5799705,-0.42463398,-0.536914,4.163785934448242,3.7062666416168213,-7.7869768142700195,-21.833337783813477,26.92226791381836, -20.341222763061523
344,1142527636,0.43682328,-0.5804934,-0.42613286,-0.53909534,2.8919620513916016,1.1718896627426147,-7.012142181396484,-21.080928802490234,-12.143436431884766, -28.339065551757812
345,1142544303,0.43385237,-0.5809462,-0.43203527,-0.53630173,1.7960491180419922,-0.3796652853488922,-4.1471710205078125,13.849021911621094,-39.25109100341797, -24.2380428314209
346,1142560970,0.4331549,-0.5802568,-0.44082522,-0.53042644,1.0295745134353638,-0.7442219853401184,-1.7393968105316162,45.784507751464844,-49.107696533203125, -21.544628143310547
347,1142577637,0.43300048,-0.57920194,-0.44991997,-0.5240305,0.4146610200405121,0.10101998597383499,0.004735928028821945,49.88201904296875,-49.0462760925293, -20.22442054748535
348,1142594304,0.4289698,-0.5812908,-0.45546496,-0.5202286,0.9242693781852722,2.1044561862945557,-1.6850790977478027,5.246772289276123,-51.51226806640625, -18.032068252563477
349,1142610971,0.42181033,-0.5863581,-0.45637527,-0.5195981,2.0877280235290527,2.037414073944092,1.4010236263275146,-44.590476989746094,-45.58086013793945, -10.448444366455078
350,1142627638,0.415099,-0.5909773,-0.4567757,-0.5194178,-0.3191371560096741,0.9364769458770752,1.3489348888397217,-45.32926940917969,-39.35793685913086, -9.310002326965332
351,1142644305,0.40677324,-0.59737426,-0.45695636,-0.51852757,1.295122504234314,0.5557497143745422,-5.260195255279541,-56.9459114074707,-53.103729248046875, -6.305635929107666
352,1142660972,0.40119597,-0.60276645,-0.4619735,-0.51214755,9.416401863098145,-0.9899349212646484,-13.292784690856934,0.4920238256454468,-76.8619155883789, -5.0600996017456055
353,1142677639,0.3936253,-0.60687464,-0.46823722,-0.5074609,14.676847457885742,-2.538259506225586,5.559168815612793,-5.20115852355957,-74.78022003173828, -26.020673751831055
354,1142694306,0.37930822,-0.61772525,-0.46994314,-0.5036811,12.629377365112305,-5.631834030151367,3.3558638095855713,-70.44087982177734,-104.12857818603516, -11.362278938293457
355,1142710973,0.36891025,-0.6262785,-0.47535697,-0.49569798,15.030440330505371,-5.638182163238525,3.153791666030884,-21.421045303344727,-111.18765258789062, -10.150262832641602
356,1142727640,0.36741242,-0.6288403,-0.4860618,-0.48302406,15.536956787109375,-4.633118629455566,-3.3717243671417236,65.41465759277344,-95.46556091308594, -10.43780517578125
357,1142744307,0.37656543,-0.62398136,-0.5017082,-0.46597734,16.663455963134766,3.785276412963867,-2.866407871246338,161.20550537109375,-66.63447570800781, -10.309220314025879
358,1142760974,0.37778822,-0.62355655,-0.51111996,-0.4552032,14.085614204406738,0.3233413100242615,-2.0535454750061035,74.11405944824219,-65.185546875, -9.825591087341309
359,1142777641,0.37854192,-0.6238008,-0.516308,-0.44833595,17.61439323425293,-0.9333353638648987,-3.399448871612549,43.41366195678711,-41.2611083984375, -0.9739865064620972
360,1142794308,0.38405073,-0.6198931,-0.52021384,-0.44453958,19.22650909423828,1.7403315305709839,-3.5727627277374268,59.75234603881836,4.872154712677002, -3.570840358734131
361,1142810975,0.39093167,-0.6129321,-0.5236538,-0.4441552,17.605173110961914,1.7050498723983765,-2.8768787384033203,60.05021286010742,34.81827163696289, -17.273401260375977
362,1142827642,0.3975177,-0.6060689,-0.5255096,-0.44553337,18.20240592956543,1.2468067407608032,-2.4982035160064697,47.37503433227539,45.07926940917969, -15.835546493530273
363,1142844309,0.40384534,-0.60045636,-0.52220917,-0.45128587,19.603519439697266,1.368551254272461,0.1591428816318512,11.286879539489746,72.56273651123047, -2.5425055027008057
364,1142860976,0.4076472,-0.5975055,-0.50867975,-0.46696493,19.172718048095703,2.821388006210327,0.6934586763381958,-73.91810607910156,124.48362731933594, 13.879796981811523
365,1142877643,0.40912446,-0.59635264,-0.49035597,-0.4863455,15.16412353515625,3.043646812438965,-0.10567206144332886,-116.85086059570312,139.0878143310547, 22.08519172668457
366,1142894310,0.40804565,-0.59684163,-0.46867007,-0.5075701,10.43547248840332,0.5386591553688049,2.1434149742126465,-149.418212890625,141.91526794433594, 27.72640609741211
367,1142910977,0.40129638,-0.60456246,-0.44484848,-0.5249529,4.699209213256836,-3.4145712852478027,-2.7666659355163574,-188.07789611816406,88.51792907714844, 50.764610290527344
368,1142927644,0.40333718,-0.6007479,-0.4326114,-0.5378372,3.384287118911743,-1.1242077350616455,-8.446953773498535,-64.1478271484375,106.42017364501953, 11.353933334350586
369,1142944311,0.41407213,-0.5912467,-0.43030345,-0.54204345,6.509883880615234,-2.1545627117156982,-11.348433494567871,50.0638542175293,90.13436126708984, 9.618515014648438
370,1142960978,0.42174992,-0.5834426,-0.43117625,-0.54388326,5.120175838470459,1.319717526435852,-7.91795539855957,55.22513961791992,56.31428909301758, -3.121142625808716
371,1142977645,0.42552808,-0.5791858,-0.4335212,-0.54362607,3.331711530685425,-0.295885294675827,-6.9350128173828125,38.302425384521484,19.035873413085938, -6.866554260253906
372,1142994312,0.42712608,-0.57719165,-0.43759972,-0.5412207,2.261094331741333,-0.7592270970344543,-3.2266485691070557,34.725830078125,-9.364662170410156, -8.866069793701172
373,1143010979,0.4292221,-0.57519835,-0.4437896,-0.5366251,-0.03064270131289959,-0.3144814372062683,1.5173051357269287,52.57667922973633,-22.697078704833984, -9.018696784973145
374,1143027646,0.426221,-0.57710063,-0.4476804,-0.53373504,-0.600547730922699,-1.2861602306365967,0.11322162300348282,3.4360342025756836,-39.10920715332031, -11.75633716583252
375,1143044313,0.42522866,-0.57776564,-0.45423672,-0.5282394,2.3012468814849854,1.9044241905212402,-2.8721389770507812,30.854393005371094,-46.54460906982422, -11.032719612121582
376,1143060980,0.4245315,-0.57859933,-0.4605873,-0.52235574,1.2229588031768799,1.2910820245742798,1.6360803842544556,33.5116081237793,-47.121063232421875, -7.4711198806762695
377,1143077647,0.4207116,-0.5815233,-0.4653595,-0.51795095,-0.16904288530349731,-1.039598822593689,1.8477338552474976,2.5222952365875244,-54.08305740356445, -9.862006187438965
378,1143094314,0.41744837,-0.584292,-0.47168833,-0.511713,1.598913311958313,0.11756740510463715,-6.942689895629883,15.997503280639648,-63.64313507080078, -9.176020622253418
379,1143110981,0.42360803,-0.57999045,-0.4873859,-0.49661094,10.246702194213867,-0.15940918028354645,-10.880265235900879,141.7333221435547,-70.52184295654297, -11.722335815429688
380,1143127648,0.42383814,-0.5773998,-0.5005813,-0.48619893,14.169544219970703,-2.611482620239258,5.896994113922119,88.84639739990234,-70.01844787597656, -29.938846588134766
381,1143144315,0.423411,-0.5782287,-0.5119303,-0.47360578,11.246131896972656,-4.512279510498047,1.8326568603515625,77.58145904541016,-87.18421936035156, -6.751422882080078
382,1143160982,0.4221189,-0.5809316,-0.5212496,-0.46112183,14.815459251403809,-1.1721179485321045,-0.8159269690513611,61.65712356567383,-90.08125305175781, 4.670896530151367
383,1143177649,0.4275981,-0.5785708,-0.5330013,-0.44533765,13.029300689697266,2.427492618560791,-3.13970947265625,122.92741394042969,-70.06076049804688, 7.826622486114502
384,1143194316,0.43328333,-0.5743213,-0.5448425,-0.43077546,16.791309356689453,2.4163296222686768,-1.2010434865951538,125.11600494384766,-58.926734924316406, -2.3620216846466064
385,1143210983,0.4329764,-0.5746039,-0.5503896,-0.4235958,20.670228958129883,0.995744526386261,-0.06939389556646347,41.667362213134766,-46.96373748779297, -0.21304939687252045
386,1143227650,0.4360914,-0.57102376,-0.5547618,-0.41951883,24.650184631347656,0.4148264527320862,-1.1490057706832886,51.52285385131836,-7.1322712898254395, -9.42518138885498
387,1143244317,0.43877825,-0.5672927,-0.55701566,-0.41879168,21.392444610595703,2.0354366302490234,-1.4428179264068604,31.4043025970459,11.047619819641113, -12.935151100158691
388,1143260984,0.43808302,-0.5674097,-0.556384,-0.42019862,19.77797508239746,0.7325454950332642,-1.020297646522522,-9.865643501281738,3.9463229179382324, -3.0622682571411133
389,1143277651,0.4371868,-0.5685535,-0.5520224,-0.42530704,21.099580764770508,-0.4863916039466858,0.4183604121208191,-38.67815399169922,25.790512084960938, 3.713012218475342
390,1143294318,0.43741676,-0.56912035,-0.5422399,-0.4367433,19.788013458251953,0.3220095932483673,0.7832340002059937,-72.42827606201172,72.650634765625, 6.97982931137085
391,1143310985,0.4359768,-0.5715782,-0.5264623,-0.45393878,14.42535400390625,0.6912190914154053,1.1422630548477173,-124.14300537109375,101.19144439697266, 15.154308319091797
392,1143327652,0.43834695,-0.57012624,-0.51187384,-0.46988657,8.438977241516113,-0.7689700126647949,0.9046244621276855,-89.22917938232422,118.62181091308594, 11.959382057189941
393,1143344319,0.44585976,-0.56272405,-0.4935204,-0.49090603,6.529000282287598,-1.1328941583633423,1.7295811176300049,-81.17295837402344,187.13694763183594, 7.07248067855835
394,1143360986,0.4389577,-0.57001203,-0.4724521,-0.5091089,-0.7746711373329163,-3.2889404296875,-9.800808906555176,-181.60879516601562,86.00001525878906, 27.35202980041504
395,1143377653,0.44378746,-0.5665787,-0.465377,-0.51523364,5.13102912902832,-0.4329550564289093,-9.601445198059082,-21.81561279296875,72.3492202758789, 15.543846130371094
396,1143394320,0.44760436,-0.5624112,-0.46271697,-0.5188806,4.175965785980225,2.2584025859832764,-6.134119033813477,1.367659330368042,48.79108810424805, -0.2135476917028427
397,1143410987,0.44853088,-0.56090325,-0.46051323,-0.52166593,3.5585856437683105,0.7968905568122864,-4.513626575469971,-14.017049789428711,25.503986358642578, -1.1650865077972412
398,1143427654,0.44794545,-0.56149215,-0.45949048,-0.5224368,1.9186155796051025,1.2341868877410889,-3.579939842224121,-15.25559139251709,1.8756773471832275, 1.695146083831787
399,1143444321,0.447244,-0.5625345,-0.45992884,-0.52153015,0.8008639216423035,0.8961909413337708,-0.4586378335952759,-6.000214099884033,-11.023879051208496, 2.2571139335632324
400,1143460988,0.44292223,-0.5663441,-0.4594331,-0.5215321,0.04096762835979462,-0.4727359712123871,-1.3225847482681274,-34.93394088745117,-25.99777603149414, -1.0996627807617188
401,1143477655,0.43924564,-0.5698921,-0.46197757,-0.51852024,1.341381549835205,-1.4560247659683228,-4.351018905639648,-11.30191707611084,-43.99076843261719, -2.224632740020752
402,1143494322,0.43763492,-0.5716495,-0.46861795,-0.51194733,1.6232532262802124,0.8152260780334473,-3.623863935470581,26.44188117980957,-57.26689529418945, -5.688109874725342
403,1143510989,0.43277338,-0.57517713,-0.4740394,-0.5071147,0.7893203496932983,4.164081573486328,-0.13691367208957672,-1.158658742904663,-63.410499572753906, -11.765776634216309
404,1143527656,0.42037782,-0.58337617,-0.47609478,-0.50624967,0.8890989422798157,2.606760263442993,-3.7181262969970703,-71.29137420654297,-78.58707427978516, -20.898773193359375
405,1143544323,0.41843772,-0.58685505,-0.48682114,-0.49347386,5.199059963226318,-2.2164478302001953,-15.254463195800781,61.64223098754883,-100.7060546875, -1.0912443399429321
406,1143560990,0.4188704,-0.58287615,-0.5049585,-0.47939563,11.929169654846191,-0.1383005678653717,1.2038650512695312,122.19255065917969,-93.73607635498047, -44.22291946411133
407,1143577657,0.4185431,-0.5805996,-0.529582,-0.45526803,8.271254539489746,-7.32630729675293,3.4761619567871094,170.52748107910156,-161.02943420410156, -37.900634765625
408,1143594324,0.41400105,-0.5804588,-0.55384177,-0.43003544,18.641788482666016,-5.476863861083984,4.249868869781494,150.37327575683594,-186.5439453125, -38.850868225097656
409,1143610991,0.40995765,-0.5832976,-0.5679276,-0.4112871,23.597862243652344,1.184518575668335,-1.199339509010315,89.02598571777344,-138.78724670410156, -3.9874470233917236
410,1143627658,0.40366602,-0.58708256,-0.5760391,-0.40070847,17.36716651916504,2.6462419033050537,-1.7919362783432007,28.535741806030273,-100.75984191894531, -5.687891960144043
411,1143644325,0.39861792,-0.5888823,-0.58120775,-0.39562517,13.958245277404785,0.8355970978736877,-4.464963436126709,9.21153450012207,-60.102699279785156, -13.442035675048828
412,1143660992,0.39872223,-0.58791083,-0.5843187,-0.39236924,12.83784294128418,1.5676034688949585,-8.188714981079102,24.776052474975586,-18.95551300048828, -7.158416271209717
413,1143677659,0.4011764,-0.58455116,-0.5860983,-0.39223266,15.098811149597168,1.8950709104537964,-6.254851818084717,24.720136642456055,13.243827819824219, -13.55265998840332
414,1143694326,0.40452403,-0.58091503,-0.58538085,-0.39525652,18.605836868286133,1.0689128637313843,-4.820745468139648,9.624044418334961,37.18183517456055, -10.90124797821045
415,1143710993,0.41027778,-0.5758322,-0.58438516,-0.39822558,20.09119987487793,1.9018614292144775,-3.859908103942871,22.728139877319336,51.30571746826172, -8.898272514343262
416,1143727660,0.41683844,-0.5709109,-0.58123946,-0.40307286,21.273448944091797,2.3211305141448975,-2.2169456481933594,12.045243263244629,67.5366439819336, -2.7876040935516357
417,1143744327,0.42256138,-0.56711036,-0.57414657,-0.41253337,21.12323570251465,2.5620343685150146,-0.08960500359535217,-23.821325302124023,90.40200805664062, 1.6877304315567017
418,1143760994,0.42646635,-0.56689894,-0.55885595,-0.4294561,18.82713508605957,0.7636677622795105,3.374612331390381,-94.05075073242188,125.83287811279297, 21.028820037841797
419,1143777661,0.43321103,-0.56545925,-0.5397146,-0.44865614,12.401679039001465,0.5816102623939514,1.294116735458374,-99.5279312133789,160.37278747558594, 33.029273986816406
420,1143794328,0.44528785,-0.5562118,-0.52422774,-0.46640408,8.338451385498047,0.09804078936576843,1.3510737419128418,-38.890380859375,187.63356018066406, 10.617132186889648
421,1143810995,0.4498426,-0.55321616,-0.5065715,-0.48474655,1.9370721578598022,-3.0601372718811035,-3.7297112941741943,-95.91307830810547,149.3262176513672, 15.492030143737793
422,1143827662,0.45408532,-0.55035985,-0.49629444,-0.49457315,1.974454641342163,-1.822385311126709,-10.0446195602417,-53.24232482910156,92.5731430053711, 14.024336814880371
423,1143844329,0.4594295,-0.5459698,-0.49262762,-0.49815637,4.407821178436279,0.13907963037490845,-9.422654151916504,1.8229734897613525,57.51019287109375, 6.607443809509277
424,1143860996,0.46230698,-0.5426684,-0.4914577,-0.5002527,4.035817623138428,1.330448865890503,-6.308372497558594,4.489685535430908,32.145328521728516, -3.016021490097046
425,1143877663,0.46098363,-0.5416291,-0.49081814,-0.5032195,1.7730594873428345,2.355311632156372,-2.6746599674224854,-19.787784576416016,11.833194732666016, -14.558592796325684
426,1143894330,0.45881468,-0.5413829,-0.49236256,-0.50395745,1.5729535818099976,0.01700551062822342,-2.641416549682617,-8.383598327636719,-8.945964813232422, -15.926587104797363
427,1143910997,0.459362,-0.54065824,-0.4964906,-0.5001726,1.3360364437103271,-2.8821451663970947,-1.8524625301361084,28.941007614135742,-23.022659301757812, -3.538487434387207
428,1143927664,0.45922953,-0.54265165,-0.49935552,-0.49525946,0.9977260828018188,-2.210012912750244,-1.771353006362915,19.0918025970459,-34.837501525878906, 11.521283149719238
429,1143944331,0.45995367,-0.5438084,-0.50415474,-0.4884088,1.020733118057251,1.2348361015319824,-2.4341673851013184,35.27347183227539,-42.368133544921875, 10.64319896697998
430,1143960998,0.45848328,-0.5456951,-0.5094997,-0.48209998,-0.14780715107917786,2.8613555431365967,-3.104948043823242,22.80583953857422,-52.08074188232422, 2.2929325103759766
431,1143977665,0.452745,-0.5492857,-0.51351136,-0.47918022,0.6749330163002014,5.665900230407715,-1.3452324867248535,-16.188013076782227,-55.71828079223633, -11.285399436950684
432,1143994332,0.44015852,-0.5573099,-0.51701736,-0.47786945,3.839505910873413,2.139754056930542,-8.839343070983887,-64.88157653808594,-86.90082550048828, -20.82876968383789
433,1144010999,0.43273678,-0.5606222,-0.52806705,-0.46860132,8.231142044067383,-2.373675584793091,-4.822969436645508,31.00396728515625,-106.12718963623047, -26.472314834594727
434,1144027666,0.430121,-0.55980694,-0.5441309,-0.4533585,7.410972595214844,-7.252898693084717,-2.6866557598114014,99.65560913085938,-113.26860046386719, -27.5822696685791
435,1144044333,0.43502462,-0.5520881,-0.5684546,-0.42756513,11.737372398376465,0.32708054780960083,-1.3351103067398071,214.224365234375,-128.6499786376953, -30.721343994140625
436,1144061000,0.42905524,-0.5536838,-0.58295524,-0.41171515,17.364299774169922,2.671452045440674,3.7755680084228516,77.30955505371094,-131.41700744628906, -18.7431640625
437,1144077667,0.41569573,-0.56097937,-0.59303874,-0.4010045,22.947500228881836,-0.8851285576820374,3.128384590148926,-0.7394810318946838,-144.73670959472656, -15.122366905212402
438,1144094334,0.40715837,-0.5645675,-0.60191554,-0.39138666,20.971939086914062,-0.7483437657356262,-3.3901185989379883,20.65165901184082,-107.37352752685547, -15.432622909545898
439,1144111001,0.4043705,-0.56487775,-0.60915434,-0.3825297,16.3185977935791,3.5019123554229736,-4.501500606536865,44.57331085205078,-67.29288482666016, -9.31394100189209
440,1144127668,0.40042558,-0.5662487,-0.61154866,-0.38082838,14.807132720947266,3.5576374530792236,-5.432751178741455,-5.55347204208374,-33.702884674072266, -8.93979263305664
441,1144144335,0.39893144,-0.56784415,-0.60963273,-0.3830859,12.184527397155762,0.5114854574203491,-7.106845378875732,-24.532590866088867,3.2790415287017822, 4.355686664581299
442,1144161002,0.40444335,-0.5656913,-0.6062887,-0.38578895,15.440135955810547,0.6194586157798767,-6.142694473266602,7.476195335388184,48.206172943115234, 11.455085754394531
443,1144177669,0.41549692,-0.559082,-0.6016027,-0.39097863,17.852954864501953,1.2575629949569702,-4.874879360198975,27.497129440307617,96.52995300292969, 5.889011383056641
444,1144194336,0.42798036,-0.551424,-0.593063,-0.4012991,18.615814208984375,1.1899142265319824,-3.096430778503418,4.407074451446533,135.9647216796875, 5.570492267608643
445,1144211003,0.435572,-0.54911906,-0.5778852,-0.41808408,17.249652862548828,1.3020377159118652,-1.5084888935089111,-74.5768814086914,145.23593139648438, 20.064668655395508
446,1144227670,0.43942195,-0.5513344,-0.55602634,-0.44019714,16.665008544921875,2.193188428878784,0.661565899848938,-142.63861083984375,157.44117736816406, 36.55554962158203
447,1144244337,0.44486853,-0.5521757,-0.52832633,-0.46697477,14.265804290771484,-0.009531136602163315,1.7772903442382812,-167.97647094726562,202.96194458007812, 44.21280288696289
448,1144261004,0.45139176,-0.55045986,-0.50760776,-0.48535967,6.709568500518799,-3.85640549659729,0.3589468002319336,-103.16239929199219,161.75230407714844, 37.52231216430664
449,1144277671,0.4532163,-0.552341,-0.4871802,-0.5021654,5.840036869049072,-4.586250305175781,-0.8038669228553772,-129.01156616210938,126.43319702148438, 38.37821578979492
450,1144294338,0.45438397,-0.5534162,-0.47386086,-0.5125639,3.8725547790527344,-3.553133249282837,-10.856388092041016,-85.21683502197266,80.567138671875, 26.295148849487305
451,1144311005,0.4570385,-0.55118656,-0.47086796,-0.51535684,5.234032154083252,1.6433173418045044,-10.172598838806152,-1.5263575315475464,36.010520935058594, 4.8757781982421875
452,1144327672,0.4563867,-0.5513392,-0.46976838,-0.5167728,3.3760578632354736,0.46143659949302673,-4.254539966583252,-9.069140434265137,5.858082294464111, -1.9681317806243896
453,1144344339,0.45486513,-0.5523026,-0.47063446,-0.5162977,1.2864679098129272,1.0791064500808716,-3.140688419342041,-1.7513461112976074,-13.095830917358398, -3.9514267444610596
454,1144361006,0.45514593,-0.5526679,-0.47344416,-0.51308036,2.191344976425171,1.153157353401184,-1.4912797212600708,22.964933395385742,-21.581092834472656, 1.7064201831817627
455,1144377673,0.4567876,-0.55240643,-0.47716781,-0.5084323,0.5046424865722656,0.45128870010375977,1.3426568508148193,37.15758514404297,-23.210039138793945, 5.505557060241699
456,1144394340,0.4542048,-0.5561092,-0.4786326,-0.50532347,-0.8681051135063171,-1.7068361043930054,-0.05856847018003464,-7.485826015472412,-37.9796257019043, 7.633874416351318
457,1144411007,0.45027,-0.5608977,-0.4814178,-0.500887,0.7461954951286316,0.46259260177612305,-4.446346282958984,-8.914114952087402,-55.37300491333008, 5.710960388183594
458,1144427674,0.4443618,-0.5657069,-0.48525736,-0.49703512,2.600513458251953,5.030715465545654,-2.4127037525177,-16.514663696289062,-62.89375686645508, -6.695414066314697
459,1144444341,0.43402362,-0.5727375,-0.48854053,-0.49489787,1.6863466501235962,3.7909231185913086,-1.2247687578201294,-49.00537872314453,-76.88053131103516, -17.221078872680664
460,1144461008,0.4189564,-0.58414733,-0.4906902,-0.49241337,1.4324239492416382,-1.3348554372787476,-7.960597515106201,-77.5665283203125,-105.69158935546875, -13.618671417236328
461,1144477675,0.41462052,-0.58662945,-0.50159883,-0.48203203,8.409358024597168,-1.1553784608840942,-8.923196792602539,47.55598449707031,-96.07855224609375, -19.859689712524414
462,1144494342,0.40981954,-0.5878969,-0.51226974,-0.47329223,11.812231063842773,-1.213049054145813,3.115753173828125,42.694366455078125,-86.2367172241211, -29.3355770111084
463,1144511009,0.40112668,-0.59204614,-0.5222863,-0.46453848,14.550395965576172,-1.9724336862564087,4.308303356170654,16.749977111816406,-107.62905883789062, -29.194305419921875
464,1144527676,0.3859961,-0.6033206,-0.5275189,-0.45687574,19.073434829711914,-1.8030040264129639,0.7736894488334656,-48.325218200683594,-136.0022430419922, -7.739972114562988
465,1144544343,0.38066706,-0.6090532,-0.53532946,-0.44448814,12.275575637817383,3.772101879119873,-3.8897507190704346,32.261474609375,-109.57911682128906, 4.761242866516113
466,1144561010,0.38077754,-0.60781485,-0.54952765,-0.42847288,12.667189598083496,2.321988344192505,-3.3723392486572266,106.18977355957031,-100.16546630859375, -21.47908592224121
467,1144577677,0.3800418,-0.60816145,-0.5603157,-0.41443282,14.285926818847656,-1.9628894329071045,-4.340126037597656,81.00735473632812,-90.86251831054688, -8.876073837280273
468,1144594344,0.38125953,-0.6094634,-0.56533676,-0.40446293,19.856243133544922,-4.686395168304443,-4.252815246582031,54.54878234863281,-53.98394012451172, 13.815921783447266
469,1144611011,0.3778863,-0.6130968,-0.5646253,-0.4031287,22.08667755126953,0.6200677156448364,-3.310389995574951,-20.347780227661133,-27.15361976623535, 11.426767349243164
470,1144627678,0.373691,-0.6147675,-0.56357497,-0.40595517,23.331052780151367,2.0767698287963867,-2.835075616836548,-35.81049346923828,-6.576732635498047, -7.839688777923584
471,1144644345,0.37429595,-0.6129374,-0.56180996,-0.41058508,22.402976989746094,2.7331855297088623,-2.658021926879883,-15.497726440429688,31.148265838623047, -9.590310096740723
472,1144661012,0.3825365,-0.60623115,-0.55685365,-0.41959998,20.498414993286133,3.8045895099639893,-1.8893951177597046,3.2942259311676025,101.00226593017578, -4.666942596435547
473,1144677679,0.39302906,-0.59673995,-0.55047035,-0.4317548,15.433440208435059,2.332383871078491,-1.584791660308838,3.881591320037842,134.41221618652344, -11.089139938354492
474,1144694346,0.39710647,-0.5928142,-0.53433186,-0.45317504,15.061989784240723,0.923719584941864,1.7136011123657227,-101.50756072998047,157.93893432617188, 5.946208477020264
475,1144711013,0.40078744,-0.5900189,-0.51239043,-0.4782296,7.370875835418701,-2.00388765335083,-3.2969343662261963,-137.66806030273438,183.5320281982422, 22.5909423828125
476,1144727680,0.40114686,-0.58967686,-0.4990536,-0.49224803,0.2296973168849945,-5.819508075714111,-5.167869567871094,-90.7331771850586,95.27877807617188, 15.767313957214355
477,1144744347,0.4003946,-0.59266853,-0.48553056,-0.50268155,3.4186415672302246,-3.7098610401153564,-8.506738662719727,-92.79302215576172,66.2430648803711, 33.98866271972656
478,1144761014,0.40821302,-0.5880418,-0.47965583,-0.5074441,5.734596252441406,-0.96172696352005,-8.88237190246582,8.459371566772461,77.1463851928711, 22.563343048095703
479,1144777681,0.416652,-0.5821275,-0.47709846,-0.50980985,4.647933006286621,1.1971555948257446,-4.2005157470703125,34.061885833740234,64.80884552001953, 13.784465789794922
480,1144794348,0.42251617,-0.5780066,-0.47544605,-0.511214,3.892443895339966,-0.45731663703918457,-1.8141735792160034,24.9548282623291,43.68998718261719, 9.793994903564453
481,1144811015,0.4314463,-0.5733183,-0.4768514,-0.50771385,2.4711697101593018,-0.565936803817749,-1.3652163743972778,65.56645965576172,27.355451583862305, 20.806129455566406
482,1144827682,0.43928054,-0.57003856,-0.47809032,-0.50350606,1.1103962659835815,0.31514227390289307,-0.2604523301124573,58.806312561035156,16.56580924987793, 24.34638786315918
483,1144844349,0.44464603,-0.56861055,-0.47899118,-0.49953935,1.279289722442627,-0.21141499280929565,-1.3647792339324951,46.37485885620117,3.93230938911438, 22.099950790405273
484,1144861016,0.4489033,-0.56691927,-0.48169696,-0.4950319,1.5980786085128784,3.268913984298706,-1.4977152347564697,47.37238693237305,-6.3796281814575195, 12.300893783569336
485,1144877683,0.44689533,-0.5676825,-0.48328266,-0.49442837,2.470668077468872,5.980776786804199,-1.510925054550171,-4.7917962074279785,-16.712703704833984, -8.239487648010254
486,1144894350,0.4386106,-0.57196385,-0.48411497,-0.4960962,1.2637959718704224,3.2017300128936768,-2.744314432144165,-53.560813903808594,-38.28334426879883, -21.504043579101562
487,1144911017,0.42961782,-0.57891464,-0.48797306,-0.4921069,1.9970773458480835,-3.4377143383026123,-8.616055488586426,-29.75675392150879,-81.17909240722656, -10.331822395324707
488,1144927684,0.43175572,-0.57793474,-0.50173086,-0.4773311,5.0361857414245605,2.4172894954681396,-11.025534629821777,107.66459655761719,-89.05522155761719, -6.875768184661865
489,1144944351,0.42974126,-0.5776013,-0.5152651,-0.46497473,10.5081148147583,-0.6733667850494385,-0.047632381319999695,80.18773651123047,-95.0685806274414, -24.54105567932129
490,1144961018,0.421983,-0.58210653,-0.52589124,-0.4544462,11.08912467956543,-3.1195905208587646,2.0071377754211426,27.30478286743164,-115.06401824951172, -19.62752914428711
491,1144977685,0.41297126,-0.58851194,-0.5374421,-0.4407547,15.239227294921875,-2.8854074478149414,2.056450128555298,31.079072952270508,-140.94589233398438, -11.244779586791992
492,1144994352,0.41099724,-0.5879984,-0.5565149,-0.419083,18.315296173095703,-0.6052958965301514,-1.5614681243896484,131.47634887695312,-147.71893310546875, -23.307485580444336
493,1145011019,0.4148732,-0.5813848,-0.5789919,-0.3932439,17.085750579833984,2.3169987201690674,-2.3532803058624268,198.13099670410156,-134.28952026367188, -31.791183471679688
494,1145027686,0.4152759,-0.5755033,-0.5969767,-0.37411383,13.605733871459961,2.305199146270752,-4.43877649307251,143.2964324951172,-110.4995346069336, -39.41231918334961
495,1145044353,0.41482505,-0.5715669,-0.60651284,-0.36520392,12.010702133178711,-3.0998804569244385,-6.169144153594971,70.68978881835938,-54.4423828125, -29.33754539489746
496,1145061020,0.41651523,-0.5694125,-0.6090997,-0.36232895,12.396469116210938,-2.859619140625,-6.070987224578857,31.387065887451172,-6.434523105621338, -6.469394683837891
497,1145077687,0.41835082,-0.5689275,-0.6059158,-0.3662927,15.702258110046387,0.8989235162734985,-5.70951509475708,-15.85477352142334,33.32560729980469, 3.8591034412384033
498,1145094354,0.42120546,-0.5673229,-0.60143584,-0.37283486,18.143081665039062,2.1491994857788086,-4.937283992767334,-22.645370483398438,54.19206237792969, -0.5661500096321106
499,1145111021,0.42706823,-0.5639793,-0.5967491,-0.37872258,19.711563110351562,3.4954299926757812,-4.245527267456055,-3.68697190284729,69.10093688964844, 2.6921002864837646
500,1145127688,0.43450382,-0.5603381,-0.5898959,-0.38633,20.194353103637695,3.947941780090332,-2.2611453533172607,-9.390334129333496,89.31378173828125, 8.971714973449707
501,1145144355,0.44110578,-0.5586188,-0.5777589,-0.39945668,19.081439971923828,3.652189016342163,-0.07788926362991333,-54.75247573852539,117.80975341796875, 18.481355667114258
502,1145161022,0.44475976,-0.5618002,-0.5556445,-0.4216974,18.055757522583008,1.7717504501342773,1.7571947574615479,-144.55892944335938,157.83164978027344, 40.58845520019531
503,1145177689,0.4520848,-0.5605132,-0.5302555,-0.44751924,13.205875396728516,1.333805799484253,1.4937853813171387,-139.91506958007812,208.57371520996094, 35.88199234008789
504,1145194356,0.46092686,-0.5536882,-0.50548804,-0.47482398,6.450149059295654,-1.8966622352600098,0.71109938621521,-120.3641357421875,234.8670654296875, 13.35971450805664
505,1145211023,0.45574743,-0.5603869,-0.4827474,-0.49519295,-1.303267002105713,-7.242640972137451,-6.045492172241211,-185.90599060058594,109.09088897705078, 28.809680938720703
506,1145227690,0.4578879,-0.56020886,-0.47103763,-0.5046073,3.821564197540283,-4.519041061401367,-11.588034629821777,-68.11833953857422,80.26596069335938, 22.942276000976562
507,1145244357,0.46516174,-0.5537572,-0.46970424,-0.5063159,5.864238739013672,1.351335048675537,-10.412646293640137,36.178192138671875,56.37047576904297, 4.417524814605713
508,1145261024,0.46924594,-0.5497007,-0.47102305,-0.5057421,4.6053853034973145,-0.10288835316896439,-6.090037822723389,31.912925720214844,20.736970901489258, -1.7213741540908813
509,1145277691,0.4693921,-0.54759586,-0.47489426,-0.50426733,1.5087536573410034,1.18715238571167,-3.6073672771453857,20.586565017700195,-10.310638427734375, -15.791129112243652
510,1145294358,0.46819362,-0.5480695,-0.47998548,-0.50002897,1.2614744901657104,-1.6646794080734253,-2.899003505706787,21.49398422241211,-37.978172302246094, -7.685642242431641
511,1145311025,0.4722836,-0.54336643,-0.49159202,-0.48993748,1.1908533573150635,-0.4724903106689453,-0.9682034254074097,101.03534698486328,-45.75852584838867, -12.325770378112793
512,1145327692,0.4751272,-0.53927284,-0.50357467,-0.4794286,0.41874492168426514,1.805918574333191,-0.5587689280509949,94.48774719238281,-54.74479293823242, -14.341072082519531
513,1145344359,0.47326556,-0.5389884,-0.5123905,-0.47219464,0.5776403546333313,3.237884283065796,0.1879439800977707,42.12870407104492,-61.100215911865234, -15.45686149597168
514,1145361026,0.46679893,-0.5418035,-0.517174,-0.47019053,1.154395580291748,4.194894313812256,2.1179630756378174,-17.143138885498047,-54.912872314453125, -21.361543655395508
515,1145377693,0.4541435,-0.5505754,-0.51783043,-0.47166988,0.18308740854263306,0.7756496071815491,-5.014666557312012,-85.64469909667969,-70.03382873535156, -15.746854782104492
516,1145394360,0.44860128,-0.5540453,-0.52630967,-0.4634537,6.016420841217041,-0.5288820862770081,-15.067100524902344,25.00511360168457,-88.62096405029297, -11.670114517211914
517,1145411027,0.44682887,-0.5508164,-0.540117,-0.45301133,10.536971092224121,-2.223965883255005,1.5353840589523315,85.0785140991211,-78.35824584960938, -37.342227935791016
518,1145427694,0.44602013,-0.547458,-0.560255,-0.43297845,7.435765743255615,-6.758751392364502,1.591456651687622,144.45928955078125,-130.20254516601562, -29.379690170288086
519,1145444361,0.44120303,-0.54737616,-0.58200675,-0.40864128,17.572067260742188,-4.871385097503662,4.0921831130981445,140.675537109375,-176.6027069091797, -21.66717529296875
520,1145461028,0.4359084,-0.5491941,-0.598362,-0.38772795,25.971969604492188,1.9669705629348755,0.1774473786354065,104.20087432861328,-154.69830322265625, -5.5483527183532715
521,1145477695,0.42865834,-0.5524119,-0.6086139,-0.37507665,19.992183685302734,2.97245717048645,-0.5370633602142334,42.351966857910156,-117.08240509033203, -6.690826416015625
522,1145494362,0.42337444,-0.5541557,-0.61488545,-0.36821443,17.164947509765625,2.0852034091949463,-4.317820072174072,19.685726165771484,-71.41510009765625, -9.693099975585938
523,1145511029,0.42332575,-0.553107,-0.617067,-0.36619195,14.258524894714355,1.6255730390548706,-7.643459320068359,16.957857131958008,-11.89710521697998, -6.722204685211182
524,1145527696,0.4269819,-0.5505624,-0.61575896,-0.36797938,12.462817192077637,0.2625010013580322,-7.274116039276123,10.466256141662598,32.255645751953125, -1.5378824472427368
525,1145544363,0.4324955,-0.548423,-0.6105735,-0.37333643,16.861934661865234,0.19522471725940704,-4.986236572265625,-8.60853099822998,64.01847076416016, 9.080829620361328
526,1145561030,0.4402368,-0.54511917,-0.6031978,-0.38103744,22.295228958129883,-0.07830879837274551,-2.851074457168579,-12.209628105163574,91.69331359863281, 11.205650329589844
527,1145577697,0.44827133,-0.54230046,-0.5926234,-0.39212376,24.401119232177734,-1.5347154140472412,0.45776256918907166,-35.007633209228516,113.94776153564453, 15.732397079467773
528,1145594364,0.45330217,-0.5465636,-0.57209307,-0.41048166,21.69891357421875,0.4967162311077118,2.7641260623931885,-124.54254150390625,140.3219757080078, 51.18974304199219
529,1145611031,0.46129403,-0.54786885,-0.5488765,-0.4310249,13.079864501953125,2.848519802093506,1.403800368309021,-120.39179992675781,176.7998504638672, 51.1979866027832
530,1145627698,0.4705367,-0.54243946,-0.52541596,-0.45639116,8.360686302185059,3.408169746398926,1.85757577419281,-113.24974822998047,220.3778076171875, 15.134710311889648
531,1145644365,0.4692144,-0.54708725,-0.50238,-0.4776485,1.8681058883666992,-3.6977789402008057,-6.568596363067627,-169.07884216308594,133.8230438232422, 30.125207901000977
532,1145661032,0.47404307,-0.5448121,-0.49259102,-0.4856104,2.68854022026062,-0.9880518913269043,-6.5721564292907715,-42.240509033203125,85.34458923339844, 19.939733505249023
533,1145677699,0.4778132,-0.54255766,-0.48785216,-0.48920974,3.3325698375701904,-0.8500012755393982,-5.991450786590576,-13.25709342956543,48.95958709716797, 11.55085563659668
534,1145694366,0.47993436,-0.5405438,-0.4857782,-0.49142185,4.310953617095947,2.258039951324463,-6.837283611297607,-5.952396392822266,28.75494384765625, 1.3258389234542847
535,1145711033,0.47691765,-0.54231715,-0.48332104,-0.4948159,2.7169744968414307,3.226560115814209,-5.10495138168335,-42.2108268737793,4.514645576477051, -5.869483470916748
536,1145727700,0.470587,-0.54703736,-0.48126215,-0.4976799,0.7622998952865601,0.893773078918457,-2.629185438156128,-60.57169723510742,-19.7747859954834, -7.0550689697265625
537,1145744367,0.46512255,-0.55077386,-0.48202786,-0.4979546,0.25508394837379456,0.3464783728122711,-2.2118144035339355,-30.093311309814453,-32.55947494506836, -9.774287223815918
538,1145761034,0.45724875,-0.5568464,-0.4823833,-0.49814898,1.1184507608413696,-1.1636520624160767,-3.7406632900238037,-44.105323791503906,-47.59345626831055, -8.673269271850586
539,1145777701,0.45079777,-0.56162727,-0.4852953,-0.49582762,1.6048657894134521,-0.6099536418914795,-3.351120710372925,-16.677772521972656,-56.07585525512695, -10.103898048400879
540,1145794368,0.4444825,-0.56595826,-0.48984915,-0.49211267,0.33033978939056396,0.26474806666374207,-1.4461990594863892,-3.6101396083831787,-64.51526641845703, -13.344420433044434
541,1145811035,0.43937477,-0.5681561,-0.49666342,-0.4873133,-0.023592423647642136,-0.20001140236854553,1.9764231443405151,12.646872520446777,-64.24012756347656, -21.38564109802246
542,1145827702,0.43933073,-0.5667948,-0.50880814,-0.4762842,2.237802028656006,0.07960471510887146,-8.01791000366211,82.31327819824219,-75.48773956298828, -18.583982467651367
543,1145844369,0.44099024,-0.5643355,-0.5253777,-0.45938164,7.7193732261657715,3.2028591632843018,-12.2384614944458,127.31889343261719,-102.09671783447266, -16.35469627380371
544,1145861036,0.43634954,-0.56428224,-0.5403091,-0.44637516,12.135225296020508,-0.06194091588258743,1.553017020225525,76.35406494140625,-112.23472595214844, -32.993141174316406
545,1145877703,0.43259746,-0.5649861,-0.5583299,-0.4265189,4.052902698516846,-5.891585826873779,-0.9476052522659302,112.46442413330078,-147.15878295898438, -18.901830673217773
546,1145894370,0.43035674,-0.5639646,-0.5785734,-0.40247995,15.917338371276855,-3.1620569229125977,2.4698586463928223,146.0247802734375,-159.16427612304688, -17.370424270629883
547,1145911037,0.42964035,-0.56290686,-0.5928119,-0.3835614,22.970394134521484,0.5448111891746521,-0.6441383957862854,115.0148696899414,-115.44783020019531, -5.203207969665527
548,1145927704,0.42488706,-0.5643147,-0.6010346,-0.3738686,24.0065860748291,1.8283698558807373,-0.41064518690109253,38.629642486572266,-85.00494384765625, -9.760725975036621
549,1145944371,0.41775754,-0.56673557,-0.6055644,-0.37091982,16.926937103271484,2.388585090637207,-1.5328468084335327,-10.909309387207031,-60.57106018066406, -17.029203414916992
550,1145961038,0.4112093,-0.5688695,-0.6080655,-0.37087908,12.766667366027832,1.447385311126709,-6.386404037475586,-25.09028434753418,-40.31992721557617, -17.158613204956055
551,1145977705,0.40886486,-0.5701447,-0.6078448,-0.37187296,8.676972389221191,3.131866216659546,-7.693997859954834,-17.472368240356445,-8.802264213562012, -2.291430711746216
552,1145994372,0.40903792,-0.56996167,-0.6064372,-0.37425372,13.076566696166992,-0.8673523664474487,-4.658656597137451,-12.311564445495605,14.26340103149414, -1.1613579988479614
553,1146011039,0.41423684,-0.56863385,-0.60306597,-0.37599897,17.784151077270508,-2.358510971069336,-4.914459228515625,8.194348335266113,41.18718719482422, 16.472036361694336
554,1146027706,0.42135552,-0.56607574,-0.5981154,-0.37983686,18.93699073791504,1.3124055862426758,-4.347108840942383,6.42610502243042,64.9808120727539, 16.52632713317871
555,1146044373,0.4258039,-0.5649417,-0.58933604,-0.39014757,21.15924644470215,1.6436659097671509,-2.1549577713012695,-44.70783233642578,86.53080749511719, 11.578581809997559
556,1146061040,0.4321513,-0.56318796,-0.5780312,-0.40242353,19.839031219482422,1.9809867143630981,-1.021728515625,-50.25462341308594,110.85340881347656, 18.239038467407227
557,1146077707,0.43827292,-0.5626088,-0.5635176,-0.41693708,19.174131393432617,1.510416030883789,2.583660125732422,-72.3927001953125,124.84222412109375, 28.0836124420166
558,1146094374,0.44505307,-0.5631999,-0.54221576,-0.43673366,14.038662910461426,3.550316572189331,1.6994986534118652,-113.32255554199219,164.84619140625, 44.8629150390625
559,1146111041,0.45020628,-0.56117654,-0.52338004,-0.45658374,7.483815670013428,1.9071073532104492,1.3464230298995972,-104.41132354736328,159.2235870361328, 20.545663833618164
560,1146127708,0.4601474,-0.55366933,-0.5008831,-0.48044848,6.1271772384643555,-2.3573896884918213,1.0490779876708984,-94.9211196899414,220.4766387939453, 17.557844161987305
561,1146144375,0.45960325,-0.5551758,-0.48245114,-0.49778113,-1.3451589345932007,-2.797853708267212,-10.070514678955078,-131.40684509277344,116.89910888671875, 19.393556594848633
562,1146161042,0.4640203,-0.55087656,-0.47616482,-0.50446767,5.373110771179199,0.8870185613632202,-13.886164665222168,-9.881665229797363,74.14677429199219, 3.9336442947387695
563,1146177709,0.46611238,-0.5471893,-0.4739775,-0.5085949,5.152785301208496,1.38711416721344,-9.449767112731934,4.0048089027404785,41.753936767578125, -9.469781875610352
564,1146194376,0.46535254,-0.54528224,-0.47466904,-0.5106897,2.988381862640381,2.0745489597320557,-6.6111674308776855,3.7935476303100586,9.499258041381836, -17.891021728515625
565,1146211043,0.46003988,-0.5476629,-0.47638464,-0.5113576,1.7926949262619019,0.5689746141433716,-4.682000637054443,-18.910829544067383,-28.93714141845703, -19.144100189208984
566,1146227710,0.45695442,-0.5493406,-0.48257494,-0.50649697,1.4840420484542847,-2.275399923324585,-2.498382329940796,25.94902229309082,-54.070404052734375, -13.046205520629883
567,1146244377,0.45571518,-0.5493822,-0.49198526,-0.49845153,0.20491772890090942,-2.6892106533050537,-0.7977422475814819,60.21721649169922,-64.34904479980469, -14.339735984802246
568,1146261044,0.45253167,-0.55083895,-0.50033236,-0.49138525,-0.01893722079694271,-0.1527266651391983,-0.8087490200996399,42.03030776977539,-68.7173080444336, -15.4508695602417
569,1146277711,0.44844684,-0.5527847,-0.50768065,-0.4853712,0.44942706823349,2.6797096729278564,-0.31769758462905884,31.029680252075195,-66.34268951416016, -16.515933990478516
570,1146294378,0.44090512,-0.55797064,-0.5109276,-0.48293337,1.844085693359375,2.9810714721679688,0.7108892202377319,-25.208555221557617,-62.99733352661133, -11.519516944885254
571,1146311045,0.43352634,-0.56744105,-0.51385623,-0.475413,3.305779457092285,-5.563323497772217,-10.749403953552246,-20.760433197021484,-95.20065307617188, 20.731828689575195
572,1146327712,0.42534894,-0.57272184,-0.52303374,-0.46637332,8.403043746948242,0.0431162491440773,-7.346118450164795,14.394163131713867,-108.7689208984375, -16.592872619628906
573,1146344379,0.41683394,-0.5763696,-0.53881264,-0.45136335,9.296968460083008,-8.816455841064453,1.1783177852630615,60.492069244384766,-147.50723266601562, -32.09013366699219
574,1146361046,0.41560143,-0.5742708,-0.55953014,-0.42943543,15.1294584274292,-3.5541090965270996,5.238491058349609,146.74635314941406,-144.30718994140625, -30.629404067993164
575,1146377713,0.41097268,-0.5768724,-0.5744605,-0.41026208,21.98392105102539,2.802180051803589,2.3208811283111572,92.1814193725586,-143.93479919433594, -7.637085437774658
576,1146394380,0.40518585,-0.5792576,-0.5852724,-0.39716703,15.25621509552002,5.7856926918029785,-3.9546332359313965,52.57499694824219,-112.24583435058594, -12.573424339294434
577,1146411047,0.4008034,-0.5786125,-0.59722286,-0.384564,12.107415199279785,0.5654295086860657,-2.2027480602264404,67.77041625976562,-99.54925537109375, -26.783279418945312
578,1146427714,0.4004314,-0.57718956,-0.60503465,-0.37475342,16.62969970703125,-0.14792674779891968,-5.252301216125488,63.459991455078125,-58.534358978271484, -10.598587036132812
579,1146444381,0.4005964,-0.57581645,-0.6089166,-0.3703762,16.118268966674805,0.44021350145339966,-6.396735191345215,32.72205352783203,-24.065208435058594, -8.372047424316406
580,1146461048,0.40168232,-0.5746641,-0.6082458,-0.37208855,14.956392288208008,-0.19620133936405182,-6.029475212097168,-1.3247541189193726,15.869637489318848, -3.8462626934051514
581,1146477715,0.40569177,-0.5726743,-0.6046379,-0.3766586,17.24176597595215,0.9900642037391663,-4.437246322631836,-6.926311492919922,49.63395309448242, 3.8425862789154053
582,1146494382,0.41217434,-0.569093,-0.599491,-0.38321835,19.80859375,2.3179454803466797,-3.3445301055908203,-5.004606246948242,76.1351547241211, 4.152115345001221
583,1146511049,0.41936517,-0.5653049,-0.5921158,-0.39238068,19.96950912475586,2.2409446239471436,-1.4053713083267212,-18.23904800415039,96.05034637451172, 6.533487796783447
584,1146527716,0.4236685,-0.56543416,-0.57865334,-0.40736943,19.697437286376953,0.6845704913139343,1.6377325057983398,-80.90064239501953,113.86482238769531, 21.575153350830078
585,1146544383,0.4295519,-0.5661805,-0.5606947,-0.42490765,14.6400146484375,0.30568766593933105,0.5512975454330444,-99.30765533447266,141.3500518798828, 38.51370620727539
586,1146561050,0.43565094,-0.5642629,-0.5447359,-0.44167745,8.052436828613281,1.583326816558838,-0.7568700313568115,-81.80208587646484,141.0120086669922, 23.35352897644043
587,1146577717,0.44189543,-0.56152266,-0.5232494,-0.464361,8.070991516113281,-1.2167110443115234,-0.382648766040802,-117.72309112548828,183.55596923828125, 24.456937789916992
588,1146594384,0.44125098,-0.56492645,-0.49976844,-0.48619702,1.471215844154358,-3.0376815795898438,-7.657290935516357,-166.3264923095703,141.92237854003906, 34.818756103515625
589,1146611051,0.4459558,-0.56162447,-0.49038756,-0.4951986,3.411750078201294,-0.9866217374801636,-9.463438987731934,-33.9505615234375,90.15061950683594, 13.78805160522461
590,1146627718,0.4524972,-0.5564826,-0.4870926,-0.49831176,3.3877413272857666,-1.2316601276397705,-8.989384651184082,26.178302764892578,61.22202682495117, 7.8776373863220215
591,1146644385,0.45764232,-0.5523068,-0.4861268,-0.49920103,3.706321954727173,1.6432889699935913,-5.810267448425293,32.941951751708984,37.5622444152832, 4.442196846008301
592,1146661052,0.45889804,-0.551458,-0.4857164,-0.49938622,1.6118409633636475,0.31750205159187317,-2.7197964191436768,9.418288230895996,8.810791969299316, 2.5163660049438477
593,1146677719,0.4571826,-0.5531637,-0.4864119,-0.4983952,1.4668869972229004,-0.010781555436551571,-2.476273775100708,-3.5782387256622314,-17.783723831176758, 0.4378175735473633
594,1146694386,0.4557291,-0.5548561,-0.489671,-0.4946396,1.6772541999816895,-1.2051539421081543,-2.5962910652160645,15.53134822845459,-35.41120529174805, 0.20836681127548218
595,1146711053,0.4530642,-0.5572634,-0.4941431,-0.48991144,1.3413809537887573,-0.13374745845794678,-1.6968133449554443,16.175966262817383,-49.40815734863281, -3.137521982192993
596,1146727720,0.44759837,-0.5615953,-0.49755976,-0.4865192,1.7960691452026367,2.2765519618988037,-0.02725677564740181,-8.268068313598633,-56.9879035949707, -6.228210926055908
597,1146744387,0.43682292,-0.5706024,-0.49711943,-0.48628294,0.9775515198707581,3.82011342048645,-0.8618544340133667,-67.25575256347656,-66.72787475585938, -2.803513765335083
598,1146761054,0.42825243,-0.5796957,-0.5004208,-0.4797207,4.109348297119141,-1.4047423601150513,-11.81070327758789,-27.32407569885254,-95.50225067138672, 9.5058012008667
599,1146777721,0.4204547,-0.5819343,-0.51090604,-0.47280595,11.0509614944458,3.245422840118408,-2.5736985206604004,20.853376388549805,-92.67804718017578, -39.137935638427734
600,1146794388,0.41706118,-0.5811333,-0.5252619,-0.4609169,8.493721008300781,-6.967959880828857,1.46336030960083,77.33551025390625,-98.41635131835938, -36.5789680480957
601,1146811055,0.41686252,-0.5773245,-0.54400104,-0.44383016,13.28166675567627,-4.61863374710083,2.8572492599487305,131.3634490966797,-110.72052001953125, -40.00418472290039
602,1146827722,0.42244005,-0.56978405,-0.5649085,-0.42162696,17.190256118774414,-0.3967326879501343,-1.6078847646713257,190.73146057128906,-104.31964874267578, -30.331073760986328
603,1146844389,0.42896578,-0.56079316,-0.58435905,-0.40003034,16.473371505737305,4.33503532409668,-0.7365615963935852,192.07217407226562,-89.85594940185547, -29.27915382385254
604,1146861056,0.4316461,-0.5555736,-0.5993185,-0.38188642,13.764875411987305,0.635381281375885,-2.5400216579437256,139.89862060546875,-89.15727233886719, -17.529848098754883
605,1146877723,0.4307263,-0.5542787,-0.6095184,-0.368426,12.174036026000977,1.0814043283462524,-6.034453868865967,82.69666290283203,-82.29818725585938, -6.522152423858643
606,1146894390,0.42984295,-0.55366886,-0.61508185,-0.3610545,13.676469802856445,-1.1238089799880981,-5.43152379989624,43.55307388305664,-46.92796325683594, -3.9101808071136475
607,1146911057,0.42903063,-0.5542896,-0.61620533,-0.35914773,18.779041290283203,-1.4818466901779175,-3.338014602661133,6.050756454467773,-15.757152557373047, 2.2139956951141357
608,1146927724,0.4261837,-0.55784476,-0.6134932,-0.36166725,20.389741897583008,0.5787187218666077,-3.5299055576324463,-38.592350006103516,-3.480055809020996, 11.175671577453613
609,1146944391,0.4227606,-0.56241566,-0.608517,-0.36697346,20.094573974609375,2.2987172603607178,-3.2553207874298096,-61.162574768066406,8.840572357177734, 14.55688190460205
610,1146961058,0.42279503,-0.5647965,-0.6013118,-0.37506482,22.208829879760742,1.9995698928833008,-1.0046374797821045,-58.694759368896484,46.03346633911133, 14.665840148925781
611,1146977725,0.4252534,-0.56655973,-0.5894217,-0.38826805,20.79489517211914,1.7941327095031738,0.7156261801719666,-80.7031021118164,91.04609680175781, 21.71771812438965
612,1146994392,0.430674,-0.5646898,-0.576426,-0.40420157,15.293615341186523,0.527280867099762,0.8527380228042603,-72.56071472167969,126.53923034667969, 11.240436553955078
613,1147011059,0.4327796,-0.56567574,-0.5530123,-0.43230808,13.77623462677002,-0.3844720125198364,4.646135330200195,-171.12368774414062,183.5471649169922, 17.74993133544922
614,1147027726,0.42739177,-0.57017124,-0.53188753,-0.4575337,0.7479029893875122,-0.04817575216293335,-10.934833526611328,-192.96652221679688,126.50688171386719, 8.466581344604492
615,1147044393,0.42877617,-0.5688018,-0.52117664,-0.4700966,3.8958182334899902,-4.636019706726074,-8.645757675170898,-70.07867431640625,89.56675720214844, 4.696680545806885
616,1147061060,0.4365415,-0.56321853,-0.51677394,-0.47451186,1.864585280418396,-3.1891908645629883,-3.417900800704956,16.870389938354492,75.66853332519531, 9.527801513671875
617,1147077727,0.439805,-0.56012887,-0.507808,-0.48472553,2.283965587615967,3.1086037158966064,1.3785666227340698,-43.5462760925293,87.7219009399414, 3.9358952045440674
618,1147094394,0.437884,-0.56246454,-0.49159923,-0.50022167,2.5103821754455566,-0.2513929605484009,2.538907289505005,-122.49893951416016,93.77197265625, 17.54683494567871
619,1147111061,0.44339022,-0.56348556,-0.47764316,-0.5076877,2.280270576477051,-3.7113425731658936,1.3374321460723877,-54.930259704589844,85.5302505493164, 54.10337448120117
620,1147127728,0.45225313,-0.56335783,-0.4664961,-0.5103693,1.9141508340835571,-3.7709548473358154,-0.693473219871521,-7.25485372543335,73.33068084716797, 65.42025756835938
621,1147144395,0.4610223,-0.56371766,-0.4584714,-0.50939685,3.059826135635376,-1.4027327299118042,-4.250185012817383,14.696338653564453,47.30991744995117, 65.9441146850586
622,1147161062,0.46957013,-0.5609127,-0.45940882,-0.5038103,1.4224047660827637,5.005807399749756,-6.033647537231445,63.177303314208984,11.711198806762695, 35.296356201171875
623,1147177729,0.4732685,-0.55769217,-0.46536696,-0.49842772,2.705171585083008,5.848341941833496,-7.1268792152404785,57.20610427856445,-17.20969581604004, -2.648463487625122
624,1147194396,0.4657365,-0.56200594,-0.46862078,-0.49762803,1.6297187805175781,6.62479305267334,-6.619524955749512,-35.70210266113281,-52.46061706542969, -21.404409408569336
625,1147211063,0.44797808,-0.57481813,-0.4709546,-0.49709335,3.418311834335327,0.9556803703308105,-12.027840614318848,-106.51986694335938,-110.51231384277344, -26.06760597229004
626,1147227730,0.4371902,-0.58366567,-0.4794647,-0.4881734,7.904259204864502,-4.808131694793701,-0.686924159526825,-11.79547119140625,-126.76554107666016, -14.046073913574219
627,1147244397,0.42383316,-0.5911906,-0.48801392,-0.48239172,8.017802238464355,-0.06613558530807495,-3.359691619873047,-28.339628219604492,-118.32259368896484, -36.66569137573242
628,1147261064,0.41593686,-0.59454036,-0.5003346,-0.47242317,11.091042518615723,-1.5307831764221191,-2.4824907779693604,32.58262634277344,-114.14108276367188, -35.691184997558594
629,1147277731,0.4084456,-0.5987117,-0.5133825,-0.4595163,13.693984031677246,-5.352474212646484,2.9986002445220947,44.357398986816406,-129.505859375, -26.13471794128418
630,1147294398,0.4056192,-0.5987421,-0.5318189,-0.44062433,21.04454803466797,-3.2856605052948,-0.6210943460464478,113.32133483886719,-139.792724609375, -31.439456939697266
631,1147311065,0.4059707,-0.5955412,-0.5518843,-0.41945502,19.316638946533203,2.4344253540039062,-3.3854804039001465,148.6666717529297,-132.3529052734375, -34.01250076293945
632,1147327732,0.4029202,-0.59393024,-0.56727064,-0.40386456,14.523980140686035,1.92118239402771,-2.3165628910064697,95.63306427001953,-113.96114349365234, -34.177188873291016
633,1147344399,0.4017578,-0.59111196,-0.58034426,-0.39035663,12.311399459838867,1.8615500926971436,-6.175710678100586,92.15167999267578,-88.35617065429688, -29.948760986328125
634,1147361066,0.40360427,-0.58792114,-0.5880166,-0.3816924,7.241559982299805,2.1883275508880615,-8.331076622009277,71.59559631347656,-40.72800064086914, -14.769850730895996
635,1147377733,0.40942794,-0.58291227,-0.5932459,-0.3750226,10.187898635864258,1.2739499807357788,-7.111484050750732,78.26082611083984,-4.987387657165527, -7.3235344886779785
636,1147394400,0.4182148,-0.57537943,-0.59748805,-0.3701935,16.27475357055664,0.9781008362770081,-4.632700443267822,87.20030975341797,23.790748596191406, -11.192039489746094
637,1147411067,0.42825344,-0.5677769,-0.59723717,-0.3708589,21.195270538330078,1.1896634101867676,-3.462092161178589,58.349822998046875,63.747684478759766, -6.304309844970703
638,1147427734,0.4382341,-0.5614328,-0.59134895,-0.3782207,22.16317367553711,2.1399898529052734,-1.6973657608032227,12.548797607421875,102.997802734375, 1.0223889350891113
639,1147444401,0.44618502,-0.5584794,-0.5788666,-0.3923437,19.497873306274414,2.010646104812622,-0.847852349281311,-50.138370513916016,131.84007263183594, 14.64181900024414
640,1147461068,0.4523195,-0.5572386,-0.563225,-0.4094757,17.03687858581543,1.727266788482666,1.0362447500228882,-82.8709945678711,141.18641662597656, 19.484323501586914
641,1147477735,0.45637083,-0.55692923,-0.545441,-0.42901057,14.137093544006348,1.8837536573410034,2.0435187816619873,-109.09457397460938,146.30882263183594, 17.98121452331543
642,1147494402,0.4616955,-0.55453634,-0.52627116,-0.44985098,10.330854415893555,-0.31999045610427856,1.2731554508209229,-106.67300415039062,166.5262908935547, 15.150111198425293
643,1147511069,0.46388125,-0.5549431,-0.502259,-0.47390774,5.2452712059021,-2.5610663890838623,-2.0668630599975586,-154.17198181152344,174.11697387695312, 23.819053649902344
644,1147527736,0.46266678,-0.5574558,-0.48453036,-0.49031967,2.639812707901001,-4.154681205749512,-7.5480523109436035,-126.98609924316406,106.29044342041016, 20.38556671142578
645,1147544403,0.46547014,-0.5550644,-0.4777311,-0.49700543,2.4698281288146973,-1.899453043937683,-8.146053314208984,-27.433713912963867,64.24949645996094, 6.637550354003906
646,1147561070,0.46764407,-0.5524257,-0.4757076,-0.49983758,3.3851089477539062,0.6095042824745178,-10.206331253051758,0.755776047706604,33.08361053466797, -2.274928569793701
647,1147577737,0.46730378,-0.55099994,-0.47662774,-0.5008517,3.6965224742889404,4.12492036819458,-7.248868942260742,4.930980205535889,4.364157676696777, -12.324853897094727
648,1147594404,0.46157137,-0.55361074,-0.47724012,-0.50270206,2.129861831665039,2.2049880027770996,-3.1889545917510986,-30.26828384399414,-23.034915924072266, -19.22177505493164
649,1147611071,0.45554808,-0.5568666,-0.47928962,-0.5026504,0.39111271500587463,-0.03482306748628616,-0.6598417162895203,-21.252201080322266,-37.99472427368164, -17.601118087768555
650,1147627738,0.44779575,-0.5625112,-0.48055437,-0.5021234,-0.16056539118289948,-1.9564626216888428,-2.181096315383911,-35.233890533447266,-51.30900573730469, -11.349544525146484
651,1147644405,0.44241813,-0.5659478,-0.48468366,-0.4990506,0.4520852863788605,-1.101783275604248,-1.6876220703125,-0.3534592092037201,-54.47016143798828, -13.843804359436035
652,1147661072,0.4357847,-0.57000357,-0.4887566,-0.49629095,0.13281169533729553,1.215605616569519,-1.6447798013687134,-8.614054679870605,-59.342220306396484, -16.920188903808594
653,1147677739,0.42681113,-0.5749423,-0.4914937,-0.4956891,2.874584197998047,2.437981605529785,1.7461481094360352,-38.41183853149414,-57.68081283569336, -22.594356536865234
654,1147694406,0.41340652,-0.5855664,-0.49030825,-0.4957874,3.2970378398895264,-1.9344172477722168,-7.542699337005615,-88.33890533447266,-77.77902221679688, -5.010409355163574
655,1147711073,0.40019768,-0.5938594,-0.49277306,-0.49431568,10.956132888793945,2.5765042304992676,-8.09249496459961,-63.189727783203125,-85.8067626953125, -22.44991683959961
656,1147727740,0.38183963,-0.6051334,-0.49375072,-0.4941888,10.961403846740723,-9.102272987365723,0.583798885345459,-102.01896667480469,-103.75353240966797, -27.452735900878906
657,1147744407,0.37561086,-0.6093679,-0.50322974,-0.48409447,10.443357467651367,-5.881042003631592,-0.28754040598869324,29.623716354370117,-102.47103118896484, -19.423824310302734
658,1147761074,0.37662935,-0.6082377,-0.5215522,-0.46495247,13.910125732421875,-2.9437127113342285,-1.32094407081604,134.56275939941406,-120.31568145751953, -27.611480712890625
659,1147777741,0.38312164,-0.6027528,-0.54499125,-0.43919435,14.59272575378418,6.895009994506836,-2.063924789428711,208.82077026367188,-127.72101593017578, -30.03402328491211
660,1147794408,0.3833798,-0.60009605,-0.56054777,-0.42271876,14.978117942810059,5.863524913787842,-0.8060387372970581,116.95044708251953,-100.39344024658203, -29.995677947998047
661,1147811075,0.38184342,-0.5963319,-0.576373,-0.4078954,11.572236061096191,0.9486984014511108,-4.14196252822876,106.90491485595703,-98.02104187011719, -44.902923583984375
662,1147827742,0.38514066,-0.59147656,-0.5880164,-0.39504322,13.253870964050293,-2.6541216373443604,-5.960384368896484,110.05000305175781,-56.74172592163086, -23.697710037231445
663,1147844409,0.39099026,-0.5860366,-0.5944641,-0.3876861,19.302732467651367,-0.3857235312461853,-4.172140121459961,85.63117218017578,-8.723162651062012, -12.576658248901367
664,1147861076,0.39104635,-0.58430177,-0.5957749,-0.38823557,20.8143253326416,-0.5557123422622681,-2.2429275512695312,6.3117356300354,3.3537614345550537, -13.437058448791504
665,1147877743,0.39207712,-0.58268726,-0.5948659,-0.39100638,21.360944747924805,1.9948368072509766,-4.0235185623168945,-5.128697395324707,21.858797073364258, -7.402802467346191
666,1147894410,0.39637902,-0.58015907,-0.5924533,-0.3940792,19.244905471801758,4.466423511505127,-3.778427839279175,5.167620658874512,42.91263961791992, 2.8784961700439453
667,1147911077,0.40366364,-0.5760176,-0.58865416,-0.39842957,18.370586395263672,4.837028503417969,-2.889249801635742,12.520270347595215,68.2724380493164, 6.4723944664001465
668,1147927744,0.4115727,-0.5712259,-0.5821258,-0.4067416,16.91748809814453,2.7234609127044678,-1.753255009651184,-6.694301605224609,95.80887603759766, 5.404693126678467
669,1147944411,0.41697094,-0.57109684,-0.56653416,-0.4231109,14.437885284423828,-0.4403916895389557,0.2496657520532608,-87.34638977050781,129.97793579101562, 29.86324691772461
670,1147961078,0.42574176,-0.5704381,-0.5447109,-0.44343507,10.270185470581055,-1.3444898128509521,-1.7194700241088867,-106.14147186279297,178.01834106445312, 50.7390022277832
671,1147977745,0.44011196,-0.56069845,-0.5240338,-0.4661627,9.47813606262207,0.4284704625606537,0.5438121557235718,-63.120147705078125,232.7525177001953, 22.253089904785156
672,1147994412,0.43631902,-0.56707126,-0.49810812,-0.4898414,0.6376873254776001,-5.0487871170043945,-5.820060729980469,-202.180908203125,135.17294311523438, 39.446624755859375
673,1148011079,0.4387176,-0.5670257,-0.48394212,-0.50180584,2.919532060623169,-0.3692665696144104,-8.561711311340332,-79.04618072509766,97.07282257080078, 27.55218505859375
674,1148027746,0.44421217,-0.5631837,-0.47725946,-0.50766456,4.8416876792907715,0.9864975810050964,-7.808456897735596,-9.387744903564453,74.1681137084961, 14.841022491455078
675,1148044413,0.44935882,-0.55931777,-0.47603405,-0.508559,4.598921298980713,0.4225822985172272,-7.568138122558594,30.145814895629883,37.207218170166016, 7.290555000305176
676,1148061080,0.45297867,-0.5562083,-0.47846296,-0.5064743,3.4262096881866455,1.0536270141601562,-4.300283432006836,44.75542068481445,6.873236656188965, -0.39580869674682617
677,1148077747,0.45449868,-0.5550187,-0.48241776,-0.5026517,1.7466961145401,-0.48875898122787476,-1.8359788656234741,41.74129867553711,-18.081289291381836, -1.8127646446228027
678,1148094414,0.4546679,-0.5554947,-0.486823,-0.497701,0.865302324295044,-1.5822620391845703,-0.22787462174892426,36.811771392822266,-34.017513275146484, 0.7921885848045349
679,1148111081,0.45392987,-0.556975,-0.49111697,-0.49247438,1.0067157745361328,-0.5348753333091736,-0.5071462392807007,31.261444091796875,-41.209774017333984, 2.220212697982788
680,1148127748,0.45174104,-0.55905527,-0.49439782,-0.48883355,1.6706852912902832,2.6800954341888428,-0.5206226706504822,15.335420608520508,-38.909690856933594, -1.8398993015289307
681,1148144415,0.4460534,-0.56359005,-0.49464732,-0.48859712,0.40785542130470276,1.9400070905685425,2.121722936630249,-29.85899543762207,-36.50291442871094, -4.012286186218262
682,1148161082,0.43637937,-0.5731939,-0.49520358,-0.48558775,2.0258069038391113,0.201371967792511,-10.71739387512207,-54.59223937988281,-78.7269515991211, 7.55092716217041
683,1148177749,0.43067756,-0.5776525,-0.5047615,-0.47544792,9.168000221252441,1.4433891773223877,-9.716626167297363,30.842132568359375,-103.03961181640625, -10.784941673278809
684,1148194416,0.42394212,-0.58004004,-0.5175261,-0.4647512,10.162817001342773,-8.255531311035156,4.747096061706543,45.297245025634766,-111.49090576171875, -32.4278564453125
