PacketCounter,SampleTimeFine,Quat_W,Quat_X,Quat_Y,Quat_Z,Acc_X,Acc_Y,Acc_Z,Gyr_X,Gyr_Y,Gyr_Z 
1,1137196399,0.675286,-0.017436959,-0.73526806,-0.05537051,0.5780453681945801,2.099280834197998,-0.7395726442337036,-1.08767831325531,1.7301783561706543, -0.7776843309402466
2,1137213066,0.6754321,-0.01737347,-0.7351497,-0.055180453,9.895453453063965,0.5827053785324097,-0.7977833151817322,0.9627877473831177,0.7059820294380188, 1.3913521766662598
3,1137229733,0.67561346,-0.017510733,-0.7349808,-0.055166498,9.905341148376465,0.5211767554283142,-0.7435857057571411,0.9766057729721069,0.8316251039505005, 1.3605272769927979
4,1137246400,0.67599857,-0.017621202,-0.7346596,-0.054685842,9.909627914428711,0.5532050132751465,-0.7194353938102722,1.3712592124938965,0.7699113488197327, 1.5296738147735596
5,1137263067,0.6764142,-0.017920058,-0.7342845,-0.054489378,9.943578720092773,0.5360472798347473,-0.7183340191841125,0.8754355907440186,0.6991562247276306, 1.5174305438995361
6,1137279734,0.6768037,-0.018258529,-0.7339305,-0.05430886,9.962822914123535,0.5094952583312988,-0.6753722429275513,0.6259807348251343,0.6978115439414978, 1.7146228551864624
7,1137296401,0.6771983,-0.01866349,-0.7335656,-0.05418268,9.977789878845215,0.5180226564407349,-0.6790189146995544,0.4096815586090088,0.6535145044326782, 1.6190876960754395
8,1137313068,0.6775515,-0.019139368,-0.73323107,-0.05412943,9.976097106933594,0.5309828519821167,-0.723412811756134,0.363027960062027,0.5743327140808105, 1.7170689105987549
9,1137329735,0.67781734,-0.019553455,-0.7329782,-0.054076858,9.89255428314209,0.5038421750068665,-0.7610563635826111,0.31538838148117065,0.42960822582244873, 1.6613487005233765
10,1137346402,0.67800266,-0.019910064,-0.7328037,-0.053990364,9.858287811279297,0.5592559576034546,-0.7701670527458191,0.6527461409568787,0.41760867834091187, 1.5691173076629639
11,1137363069,0.6781104,-0.020250969,-0.7326935,-0.054005697,9.864450454711914,0.5590431690216064,-0.7612416744232178,0.5598616003990173,0.3014422655105591, 1.3361825942993164
12,1137379736,0.6781804,-0.020540696,-0.7326186,-0.054033183,9.863186836242676,0.5386713147163391,-0.7567340135574341,0.7805534601211548,0.27650830149650574, 1.2497525215148926
13,1137396403,0.67824924,-0.020751005,-0.7325496,-0.05402503,9.902741432189941,0.5699729919433594,-0.7525088787078857,0.998735249042511,0.43816283345222473, 1.1297699213027954
14,1137413070,0.67831755,-0.0209281,-0.7324817,-0.05401688,9.941141128540039,0.5257071256637573,-0.7418312430381775,0.8670347332954407,0.533954381942749, 1.1360447406768799
15,1137429737,0.678391,-0.021082718,-0.7324131,-0.05396613,9.981021881103516,0.5283435583114624,-0.7082672715187073,0.8165904879570007,0.5870879292488098, 1.2306454181671143
16,1137446404,0.678485,-0.021353431,-0.7323163,-0.053991806,10.004201889038086,0.5236366987228394,-0.7043113708496094,0.03586418181657791,0.7474362254142761, 1.4490833282470703
17,1137463071,0.67859674,-0.021705741,-0.73219943,-0.054032575,10.043251037597656,0.5143102407455444,-0.6632075309753418,-0.4272453486919403,0.8631286025047302, 1.7832263708114624
18,1137479738,0.6787246,-0.022070676,-0.7320692,-0.05404356,9.938787460327148,0.5264102816581726,-0.7187841534614563,-0.013818052597343922,0.9156861305236816, 1.9427809715270996
19,1137496405,0.6788593,-0.02246632,-0.7319301,-0.054073133,9.882674217224121,0.5843712687492371,-0.7203020453453064,-0.20896120369434357,1.0216970443725586, 2.023653268814087
20,1137513072,0.6789918,-0.02277788,-0.7317982,-0.05406417,9.81752872467041,0.5647633075714111,-0.7629918456077576,-0.0900670662522316,1.0218892097473145, 1.9131470918655396
21,1137529739,0.67908144,-0.023015987,-0.7317111,-0.054015785,9.783266067504883,0.580951988697052,-0.7706444263458252,0.26877325773239136,0.7059563994407654, 1.7745821475982666
22,1137546406,0.67913795,-0.023255557,-0.7316512,-0.054013994,9.800620079040527,0.5753276944160461,-0.7665659785270691,-0.04311898350715637,0.5054858922958374, 1.6184217929840088
23,1137563073,0.6791607,-0.023466052,-0.73162496,-0.05399174,9.830312728881836,0.5331077575683594,-0.7725321054458618,0.10545389354228973,0.2465798407793045, 1.6001086235046387
24,1137579740,0.67916685,-0.023685213,-0.7316147,-0.05395804,9.845643997192383,0.5277525186538696,-0.762292206287384,0.22030121088027954,0.14250265061855316, 1.6733736991882324
25,1137596407,0.6791557,-0.023914097,-0.7316181,-0.053950462,9.907806396484375,0.5193399786949158,-0.6878400444984436,0.03968047350645065,0.024453725665807724, 1.5801563262939453
26,1137613074,0.67915106,-0.024281189,-0.73160225,-0.054060504,9.978291511535645,0.5081847906112671,-0.688039243221283,-0.5262641310691833,0.10823286324739456, 1.6650750637054443
27,1137629741,0.6791648,-0.024480721,-0.73158807,-0.05398951,9.945638656616211,0.5015510320663452,-0.7167446613311768,0.0934799462556839,0.14118359982967377, 1.7265071868896484
28,1137646408,0.6791862,-0.024653811,-0.73156947,-0.053893607,9.899192810058594,0.5273466110229492,-0.7295058965682983,0.38588735461235046,0.20052824914455414, 1.68666672706604
29,1137663075,0.67922336,-0.024800735,-0.73153883,-0.05377483,9.837985038757324,0.545439600944519,-0.7750781178474426,0.46157294511795044,0.33914417028427124, 1.6806093454360962
30,1137679742,0.67926484,-0.02499148,-0.73149735,-0.053725604,9.8002290725708,0.5490731596946716,-0.800244927406311,0.7387150526046753,0.47765758633613586, 1.532222032546997
31,1137696409,0.6793154,-0.025127577,-0.73144966,-0.05367273,9.8544282913208,0.5458968877792358,-0.781596302986145,0.5877153873443604,0.5957705974578857, 1.3229023218154907
32,1137713076,0.67937267,-0.025255514,-0.73139673,-0.053608205,9.909571647644043,0.4945478141307831,-0.7655908465385437,0.4379707872867584,0.6683826446533203, 1.3662645816802979
33,1137729743,0.67943126,-0.025377605,-0.7313441,-0.053525988,9.910669326782227,0.5097874999046326,-0.7271134257316589,0.6344586610794067,0.6871055364608765, 1.3958218097686768
34,1137746410,0.67949134,-0.025537867,-0.7312869,-0.053469207,9.924480438232422,0.5271465182304382,-0.7216548323631287,0.23805081844329834,0.693892776966095, 1.4679853916168213
35,1137763077,0.6795626,-0.025697956,-0.7312192,-0.053412747,9.922897338867188,0.5244175791740417,-0.6888784170150757,0.1342809796333313,0.7863803505897522, 1.4790629148483276
36,1137779744,0.6796462,-0.025871186,-0.73114115,-0.053333454,9.953316688537598,0.5228090882301331,-0.698777437210083,0.30445173382759094,0.8716449737548828, 1.6492335796356201
37,1137796411,0.6797304,-0.026052825,-0.73106134,-0.0532659,9.911992073059082,0.5287450551986694,-0.6998807787895203,0.4980004131793976,0.8799497485160828, 1.6157512664794922
38,1137813078,0.67982197,-0.026157053,-0.7309817,-0.053139757,9.883605003356934,0.5206434726715088,-0.7144430875778198,0.7933852672576904,0.90761798620224, 1.5311590433120728
39,1137829745,0.6799139,-0.02622915,-0.73090297,-0.05300977,9.88314437866211,0.5359282493591309,-0.7638710737228394,0.791361927986145,0.9065806269645691, 1.399868369102478
40,1137846412,0.67999536,-0.026356937,-0.7308255,-0.052969724,9.876463890075684,0.5122464299201965,-0.7662351131439209,0.5803261995315552,0.8790982365608215, 1.2254973649978638
41,1137863079,0.68006456,-0.026464216,-0.73076165,-0.05290939,9.831958770751953,0.47650137543678284,-0.8029136657714844,0.627415120601654,0.7642253637313843, 1.2189788818359375
42,1137879746,0.6801216,-0.026556736,-0.7307126,-0.052808452,9.83102798461914,0.534873366355896,-0.7825474739074707,0.9185547828674316,0.6565111875534058, 1.3147447109222412
43,1137896413,0.6801816,-0.02671221,-0.7306531,-0.052778885,9.8792085647583,0.5444157123565674,-0.7620349526405334,0.3314603269100189,0.7289822101593018, 1.3018485307693481
44,1137913080,0.6802728,-0.026844444,-0.730566,-0.05274161,9.898324966430664,0.5417964458465576,-0.7510208487510681,0.4258815348148346,1.0271269083023071, 1.2490224838256836
45,1137929747,0.68040377,-0.026895534,-0.7304503,-0.052628074,9.922192573547363,0.5314203500747681,-0.7063103318214417,1.1093308925628662,1.377290964126587, 1.229710578918457
46,1137946414,0.6805585,-0.026817665,-0.7303232,-0.052429993,9.943634033203125,0.522616982460022,-0.6696726083755493,2.148847818374634,1.5743165016174316, 0.9908592700958252
47,1137963081,0.6807073,-0.02670001,-0.73020214,-0.052245613,9.927974700927734,0.555149495601654,-0.6551761031150818,2.238236427307129,1.5165727138519287, 0.7266899347305298
48,1137979748,0.6808285,-0.02652295,-0.7301079,-0.052072797,9.928117752075195,0.5309940576553345,-0.6656800508499146,2.4429967403411865,1.2608044147491455, 0.3694823980331421
49,1137996415,0.680922,-0.026371721,-0.7300344,-0.0519587,9.869427680969238,0.5238357186317444,-0.6581394672393799,2.1899564266204834,1.0215561389923096, 0.20205219089984894
50,1138013082,0.6809618,-0.026281916,-0.73000675,-0.051871285,9.89875602722168,0.5348823666572571,-0.7442340850830078,1.5689507722854614,0.5020536780357361, 0.37260714173316956
51,1138029749,0.680937,-0.026378633,-0.730026,-0.0518755,9.931002616882324,0.553403913974762,-0.6892450451850891,0.6068992614746094,-0.06939760595560074, 0.8261311650276184
52,1138046416,0.68087673,-0.026592165,-0.7300763,-0.05185064,9.88352108001709,0.5684818625450134,-0.7226660847663879,-0.046090055257081985,-0.45408758521080017, 1.553160548210144
53,1138063083,0.68077046,-0.02686284,-0.73017067,-0.051775392,9.83862018585205,0.696191668510437,-0.7246216535568237,-0.2571515440940857,-0.926475465297699, 2.0736491680145264
54,1138079750,0.6806209,-0.027233416,-0.73029906,-0.051739555,9.731125831604004,0.7162010073661804,-0.7149067521095276,-0.8047894239425659,-1.3239587545394897, 2.393256902694702
55,1138096417,0.68042386,-0.027543135,-0.73048186,-0.051588383,9.62678337097168,0.7145984768867493,-0.7746850848197937,0.03430180624127388,-1.8167855739593506, 2.636923313140869
56,1138113084,0.6801568,-0.027895909,-0.7307271,-0.051445365,9.675052642822266,0.7548596858978271,-0.7306170463562012,-0.1892009973526001,-2.4615085124969482, 2.8100008964538574
57,1138129751,0.679821,-0.028331676,-0.7310305,-0.051334444,9.741272926330566,0.637428343296051,-0.7312749028205872,-0.7315755486488342,-3.1014034748077393, 3.078512191772461
58,1138146418,0.6794418,-0.028846111,-0.73136973,-0.05123587,9.881086349487305,0.5867162346839905,-0.6913100481033325,-1.2056536674499512,-3.5141518115997314, 3.4131417274475098
59,1138163085,0.67900497,-0.029655587,-0.73172176,-0.05153796,10.30903434753418,0.5697309374809265,-0.551201581954956,-4.652982234954834,-3.899662494659424, 3.0127899646759033
60,1138179752,0.6785939,-0.031176483,-0.7319694,-0.052530885,10.87805461883545,0.20577213168144226,-0.35621294379234314,-11.755249977111816,-3.442028760910034, 3.4201619625091553
61,1138196419,0.6781761,-0.033350326,-0.73213327,-0.05427767,11.465458869934082,0.1567208468914032,-0.23089294135570526,-18.523229598999023,-3.226999282836914, 3.1440460681915283
62,1138213086,0.67771494,-0.037278235,-0.7320686,-0.058212694,13.109936714172363,-0.27950912714004517,0.23884977400302887,-38.065635681152344,-2.635124683380127, 1.7667409181594849
63,1138229753,0.6774612,-0.043917947,-0.7315146,-0.063277036,15.391312599182129,-1.5821014642715454,1.552221655845642,-56.743736267089844,-0.2856873869895935, 10.2521333694458
64,1138246420,0.68057126,-0.061811417,-0.7261098,-0.07593978,16.175527572631836,-1.582662582397461,2.064633846282959,-148.94117736816406,36.255977630615234, 34.10240936279297
65,1138263087,0.68013155,-0.073225066,-0.7243937,-0.085516416,8.84939956665039,0.11784186214208603,-0.8564080595970154,-103.29967498779297,2.945784091949463, 12.486929893493652
66,1138279754,0.6784156,-0.08047959,-0.7243843,-0.09242654,7.450044631958008,3.2303686141967773,-2.2946743965148926,-70.35492706298828,-10.204435348510742, 2.6163904666900635
67,1138296421,0.67670405,-0.08537112,-0.7247185,-0.09780943,6.952054023742676,1.912764072418213,-2.484513998031616,-51.45534896850586,-10.863182067871094, -1.8273814916610718
68,1138313088,0.6753627,-0.08657783,-0.72564316,-0.099154055,7.257453441619873,1.1987638473510742,-2.887782096862793,-13.44508171081543,-11.381400108337402, -1.2928922176361084
69,1138329755,0.6742467,-0.086851284,-0.7266005,-0.09949961,8.562276840209961,1.8522981405258179,-1.171307921409607,-3.9834423065185547,-10.064079284667969, -1.0611602067947388
70,1138346422,0.67323697,-0.08600775,-0.7277061,-0.09898777,6.57381534576416,0.9144513607025146,-1.86287260055542,5.705251216888428,-9.896661758422852, -2.5055763721466064
71,1138363089,0.6729567,-0.08402222,-0.7284003,-0.097482495,6.119713306427002,0.993992030620575,-0.7976542115211487,16.125764846801758,-3.9898600578308105, -2.816439151763916
72,1138379756,0.6733705,-0.081506446,-0.72856,-0.09554762,5.910417556762695,0.5859940052032471,-0.5557172894477844,20.755962371826172,2.102491617202759, -2.6381242275238037
73,1138396423,0.6744534,-0.07790841,-0.7283444,-0.0925065,5.7895097732543945,0.38877132534980774,-0.6761349439620972,31.3780460357666,7.29181432723999, -2.2636842727661133
74,1138413090,0.6759338,-0.072087385,-0.7282819,-0.08673391,6.97586727142334,1.2037423849105835,-2.208070993423462,55.673667907714844,8.552770614624023, -0.5637289881706238
75,1138429757,0.6779966,-0.06534309,-0.72785234,-0.07925859,9.990403175354004,0.2933778762817383,-3.3765153884887695,68.48632049560547,13.072924613952637, 3.33404278755188
76,1138446424,0.6781195,-0.059590343,-0.7288688,-0.07316655,13.141998291015625,1.7821043729782104,-3.8380889892578125,57.07120132446289,-3.002406597137451, 0.08666157722473145
77,1138463091,0.67664444,-0.056976706,-0.7306735,-0.07087058,12.033703804016113,-0.9919904470443726,0.01374315470457077,23.1741943359375,-14.412906646728516, -2.893512725830078
78,1138479758,0.6754158,-0.052935332,-0.73256046,-0.06608265,9.066512107849121,-1.3742878437042236,1.235300898551941,42.656105041503906,-13.947301864624023, 1.4367097616195679
79,1138496425,0.6743365,-0.05070956,-0.7338835,-0.06413943,11.095975875854492,0.8541148900985718,0.9190979599952698,19.839561462402344,-10.579638481140137, -2.5526301860809326
80,1138513092,0.67301077,-0.051539365,-0.7348972,-0.06577537,12.414998054504395,0.1765415221452713,-0.054065655916929245,-12.547891616821289,-10.684693336486816, -3.68888521194458
81,1138529759,0.6715904,-0.05240561,-0.736016,-0.067086965,12.490508079528809,-0.919289231300354,-0.4571780264377594,-11.225225448608398,-11.89830207824707, -2.0958893299102783
82,1138546426,0.67043585,-0.05250761,-0.7370878,-0.06678738,11.506131172180176,-0.5421760678291321,-0.05072757974267006,0.41717344522476196,-10.64072322845459, 1.4924334287643433
83,1138563093,0.6698275,-0.05234764,-0.7377435,-0.06576778,10.430312156677246,0.3500657379627228,-0.12202107906341553,5.3459038734436035,-6.1932806968688965, 3.7884843349456787
84,1138579760,0.6695609,-0.05196621,-0.7381003,-0.0647738,9.834805488586426,1.2753599882125854,-0.5840418338775635,6.2548980712890625,-3.0577218532562256, 2.8067235946655273
85,1138596427,0.66938496,-0.051510517,-0.738331,-0.06432717,9.297438621520996,1.6527087688446045,-1.0626369714736938,3.775151491165161,-1.8226637840270996, 0.08634680509567261
86,1138613094,0.6692595,-0.05072344,-0.73852617,-0.06401654,8.8515043258667,1.4144660234451294,-1.2977087497711182,4.66213321685791,-1.1918487548828125, -2.069993019104004
87,1138629761,0.6692157,-0.049445484,-0.7387011,-0.06345432,8.748697280883789,1.1509051322937012,-1.4683895111083984,8.24449348449707,-0.5154685378074646, -3.2681427001953125
88,1138646428,0.6692343,-0.04774189,-0.7388736,-0.0625494,9.199713706970215,1.0447885990142822,-1.4115004539489746,11.896931648254395,-0.06546609103679657, -3.7500851154327393
89,1138663095,0.6692706,-0.046098102,-0.7390251,-0.061594147,9.598408699035645,0.7290228009223938,-1.193769097328186,12.128278732299805,0.13147644698619843, -3.1700470447540283
90,1138679762,0.66934735,-0.044489283,-0.7391429,-0.060521577,9.799466133117676,0.5560052990913391,-1.0638889074325562,12.563233375549316,0.460458904504776, -2.401012420654297
91,1138696429,0.66946304,-0.04311187,-0.7392025,-0.059500754,9.97751235961914,0.49735406041145325,-1.0184695720672607,11.311834335327148,0.8551508188247681, -1.4305466413497925
92,1138713096,0.6695869,-0.04215722,-0.7392052,-0.05875375,10.089909553527832,0.4244091808795929,-0.9918544292449951,7.936883926391602,1.0676207542419434, -0.5186828970909119
93,1138729763,0.6697082,-0.041520197,-0.7391928,-0.05797654,10.023338317871094,0.25975948572158813,-1.0150138139724731,6.850611686706543,0.991717517375946, 1.2110519409179688
94,1138746430,0.669796,-0.041067228,-0.73920774,-0.057087053,9.954058647155762,0.4643721580505371,-1.0395305156707764,6.5148162841796875,0.5882534384727478, 2.6303162574768066
95,1138763097,0.6698422,-0.040918153,-0.7392256,-0.05641859,9.956559181213379,0.6513583064079285,-1.0004521608352661,4.100305080413818,0.31326255202293396, 3.129084587097168
96,1138779764,0.66984123,-0.040956333,-0.73925775,-0.055977948,9.97968864440918,0.6573834419250488,-0.8858088850975037,2.08256196975708,-0.0013958921190351248, 3.02569842338562
97,1138796431,0.66979504,-0.04112913,-0.7393003,-0.05584001,10.139664649963379,0.5920394659042358,-0.7498924732208252,-0.02762329764664173,-0.2553970515727997, 2.30838942527771
98,1138813098,0.6697664,-0.041518833,-0.7392988,-0.055915944,10.50598430633545,0.4313364326953888,-0.6232056617736816,-2.2818098068237305,-0.012665479443967342, 2.4737961292266846
99,1138829765,0.6697413,-0.041797075,-0.73932105,-0.055717364,10.498536109924316,0.3037037253379822,-0.7789498567581177,-0.27218613028526306,-0.17415353655815125, 3.1567330360412598
100,1138846432,0.66970265,-0.042083807,-0.73935884,-0.055460498,10.31702995300293,0.33654287457466125,-0.7556135058403015,-0.15671129524707794,-0.3591156601905823, 3.4627790451049805
101,1138863099,0.6696777,-0.0422937,-0.73940015,-0.055051245,10.038860321044922,0.39237725734710693,-0.9174559116363525,1.128604531288147,-0.33890730142593384, 3.757364273071289
102,1138879766,0.66961616,-0.04259325,-0.73945016,-0.054898202,9.815489768981934,0.5562719106674194,-1.0516513586044312,-0.5805118083953857,-0.5313225984573364, 3.0156967639923096
103,1138896433,0.6695513,-0.04283685,-0.7395042,-0.054769702,9.649627685546875,0.44109898805618286,-1.167144536972046,-0.441140353679657,-0.5330643057823181, 2.6293294429779053
104,1138913100,0.6694967,-0.04294078,-0.73956406,-0.054545987,9.654565811157227,0.49114373326301575,-1.229385256767273,0.5021178126335144,-0.47222134470939636, 2.3838701248168945
105,1138929767,0.66944325,-0.042958304,-0.7396289,-0.05430844,9.696615219116211,0.48021501302719116,-1.1880192756652832,1.2106034755706787,-0.4359537959098816, 1.9934171438217163
106,1138946434,0.66940975,-0.042996276,-0.7396728,-0.054093923,9.760765075683594,0.4496360719203949,-1.1490073204040527,0.9152379035949707,-0.22480268776416779, 2.0224366188049316
107,1138963101,0.6694218,-0.04303607,-0.7396796,-0.053819627,9.960341453552246,0.4300096929073334,-1.067799687385559,1.267809510231018,0.1732635200023651, 2.3362176418304443
108,1138979768,0.6694768,-0.04294913,-0.7396686,-0.053354558,9.95937442779541,0.5056838393211365,-1.0499863624572754,2.7433574199676514,0.4656966030597687, 2.604818105697632
109,1138996435,0.6695428,-0.042892203,-0.73963815,-0.05299439,9.91606330871582,0.6058530807495117,-0.9948377013206482,2.2010467052459717,0.6367509365081787, 2.282879114151001
110,1139013102,0.66965234,-0.042871915,-0.7395589,-0.052729025,9.874354362487793,0.5518361330032349,-1.0257132053375244,1.4530022144317627,1.0953079462051392, 2.0919876098632812
111,1139029769,0.66977006,-0.042791553,-0.7394789,-0.0524234,9.871341705322266,0.47339552640914917,-1.0345960855484009,1.962169885635376,1.152347445487976, 1.9883846044540405
112,1139046436,0.66988504,-0.042646796,-0.739408,-0.052068766,9.862390518188477,0.4975827932357788,-1.0110151767730713,2.6469507217407227,1.1110340356826782, 1.8796967267990112
113,1139063103,0.6700207,-0.04258251,-0.73930764,-0.0518025,10.005097389221191,0.4469855725765228,-0.9860498905181885,1.7622498273849487,1.3486688137054443, 1.916015625
114,1139079770,0.67015505,-0.04248002,-0.7392146,-0.05147477,9.985723495483398,0.4572339355945587,-0.997903048992157,2.330275297164917,1.3040897846221924, 2.003380537033081
115,1139096437,0.6702958,-0.04249721,-0.73909765,-0.051305283,9.940232276916504,0.43136221170425415,-0.9841960668563843,0.9307847023010254,1.4501718282699585, 1.9050021171569824
116,1139113104,0.6704402,-0.042522818,-0.7389774,-0.051128175,9.928227424621582,0.44574326276779175,-1.0054067373275757,1.0235539674758911,1.4800106287002563, 1.9842990636825562
117,1139129771,0.6705894,-0.042590853,-0.73884714,-0.05099741,9.875198364257812,0.5129739046096802,-1.0358093976974487,0.5061005353927612,1.5480890274047852, 2.008387804031372
118,1139146438,0.67073065,-0.04268605,-0.7387205,-0.050895765,9.849047660827637,0.4707949459552765,-1.013420581817627,0.37109601497650146,1.4966334104537964, 2.0093867778778076
119,1139163105,0.6708788,-0.04277471,-0.73858905,-0.050775886,9.869339942932129,0.510962188243866,-1.0045150518417358,0.44042953848838806,1.5523791313171387, 2.0809738636016846
120,1139179772,0.6710323,-0.042958856,-0.73844165,-0.05073669,9.85998821258545,0.527899444103241,-1.0140252113342285,-0.35787340998649597,1.6468771696090698, 2.2097418308258057
121,1139196439,0.6711854,-0.043119807,-0.7382985,-0.050658442,9.796276092529297,0.4929320514202118,-1.076357364654541,-0.14825911819934845,1.6228399276733398, 2.2959415912628174
122,1139213106,0.67132264,-0.043176606,-0.73818576,-0.05043587,9.7489652633667,0.498035728931427,-1.0796295404434204,1.1866300106048584,1.4058876037597656, 2.4214823246002197
123,1139229773,0.6714517,-0.04312444,-0.7380903,-0.05015707,9.678044319152832,0.5214030742645264,-1.112291932106018,1.9252104759216309,1.3147958517074585, 2.1393837928771973
124,1139246440,0.6715519,-0.043003846,-0.7380231,-0.04990722,9.669705390930176,0.5656223893165588,-1.0433722734451294,2.1337876319885254,1.0815668106079102, 1.6524866819381714
125,1139263107,0.6716112,-0.042910114,-0.73798263,-0.04978869,9.626550674438477,0.5529392957687378,-1.0533576011657715,1.3386286497116089,0.7879682779312134, 1.1800858974456787
126,1139279774,0.6716286,-0.04278708,-0.73797524,-0.049768236,9.79488468170166,0.5120128393173218,-1.0191421508789062,1.0517407655715942,0.47093433141708374, 0.5656116604804993
127,1139296441,0.6716081,-0.042753395,-0.7379905,-0.049848665,9.988739967346191,0.3849179148674011,-0.9340481162071228,0.1012405976653099,0.17756642401218414, 0.5507306456565857
128,1139313108,0.6715519,-0.042663086,-0.7380513,-0.049783695,10.196671485900879,0.30317187309265137,-0.9119811058044434,1.0320062637329102,-0.24115636944770813, 0.9220379590988159
129,1139329775,0.6714949,-0.042645145,-0.73811316,-0.049650468,10.21642780303955,0.2622043192386627,-0.8562145829200745,1.1347898244857788,-0.29815739393234253, 1.5953956842422485
130,1139346442,0.67145056,-0.042690974,-0.73816067,-0.0495046,10.286721229553223,0.3644660413265228,-0.8238605856895447,0.8983719348907471,-0.20253244042396545, 1.9837100505828857
131,1139363109,0.6714409,-0.042803302,-0.7381755,-0.04931598,10.124951362609863,0.3654768168926239,-0.906871497631073,0.7331828474998474,0.07590965181589127, 2.5515053272247314
132,1139379776,0.67145586,-0.04295339,-0.73815596,-0.049275685,9.951831817626953,0.5279156565666199,-0.9520770907402039,-0.07870782911777496,0.38716796040534973, 2.0707547664642334
133,1139396443,0.6714984,-0.04322254,-0.73809475,-0.049373828,9.772298812866211,0.42654934525489807,-1.0456798076629639,-1.3331283330917358,0.7190189361572266, 2.0737900733947754
134,1139413110,0.6715428,-0.043346547,-0.73804706,-0.049375374,9.640583992004395,0.4857991635799408,-1.244312047958374,-0.1588115245103836,0.6921255588531494, 1.7889636754989624
135,1139429777,0.6715687,-0.043365356,-0.73802435,-0.049347434,9.68351936340332,0.5270794034004211,-1.2023009061813354,0.47857967019081116,0.5304070115089417, 1.3917492628097534
136,1139446444,0.67157537,-0.043238282,-0.73803586,-0.049195893,9.614208221435547,0.4207008481025696,-1.1182451248168945,1.6910659074783325,0.3036898076534271, 1.2309849262237549
137,1139463111,0.6715846,-0.043030992,-0.73805195,-0.049009606,9.741364479064941,0.5496596693992615,-1.0795543193817139,2.3392908573150635,0.32638901472091675, 0.9839950799942017
138,1139479778,0.6715654,-0.042907633,-0.7380812,-0.04894065,9.89486026763916,0.5142131447792053,-0.9985703825950623,1.349603533744812,0.1365348994731903, 0.8728743195533752
139,1139496445,0.67153734,-0.042763572,-0.7381213,-0.0488472,9.859983444213867,0.4348113536834717,-0.9768360257148743,1.5054569244384766,0.043048545718193054, 0.8959770798683167
140,1139513112,0.67151105,-0.04267288,-0.7381561,-0.048761744,9.993603706359863,0.4786127805709839,-0.9632092714309692,1.2704986333847046,0.062437355518341064, 1.1369283199310303
141,1139529779,0.67148584,-0.04267163,-0.73818266,-0.0487061,10.159351348876953,0.42964088916778564,-0.8965762853622437,0.8162703514099121,0.08556562662124634, 1.457919716835022
142,1139546446,0.67146283,-0.042642113,-0.7382116,-0.048612524,10.05098819732666,0.43656012415885925,-0.8681418299674988,1.1340214014053345,0.07820197194814682, 1.4993096590042114
143,1139563113,0.67147565,-0.042675495,-0.73820007,-0.04858089,10.030989646911621,0.4869938790798187,-0.8918491005897522,0.49732810258865356,0.4349612593650818, 1.5686177015304565
144,1139579780,0.67150307,-0.04273988,-0.7381713,-0.048581015,9.949216842651367,0.4756533205509186,-0.9514097571372986,0.12185882031917572,0.5818116068840027, 1.6088424921035767
145,1139596447,0.6715369,-0.042796038,-0.7381385,-0.04856292,9.831892967224121,0.49027639627456665,-1.055605173110962,0.37057098746299744,0.6304630041122437, 1.6557906866073608
146,1139613114,0.67156106,-0.042859506,-0.7381145,-0.048538998,9.800970077514648,0.5003013014793396,-1.1025826930999756,0.3384782075881958,0.5422400236129761, 1.7297855615615845
147,1139629781,0.67159647,-0.04290287,-0.7380825,-0.04849424,9.762767791748047,0.4925270974636078,-1.06309175491333,0.4644542634487152,0.6449981927871704, 1.7506855726242065
148,1139646448,0.67163455,-0.04290028,-0.73805237,-0.048429336,9.781586647033691,0.5221318602561951,-1.0671647787094116,0.8260799646377563,0.6671915650367737, 1.619766354560852
149,1139663115,0.6716962,-0.042884722,-0.7380032,-0.048339095,9.965065956115723,0.6218070387840271,-0.9433616399765015,0.9822278618812561,0.8778048753738403, 1.7027003765106201
150,1139679782,0.6717963,-0.043367732,-0.7378593,-0.048712295,10.667526245117188,1.0496913194656372,-0.578744649887085,-3.695388078689575,1.4790247678756714, 2.15455961227417
151,1139696449,0.672596,-0.049678292,-0.7364355,-0.053005293,13.321205139160156,2.5024514198303223,2.650174856185913,-50.7113151550293,10.120199203491211, 14.278641700744629
152,1139713116,0.67734975,-0.06625832,-0.72932684,-0.06992666,11.445054054260254,4.200741767883301,1.5759550333023071,-163.08428955078125,56.71966552734375, 11.41768741607666
153,1139729783,0.6787544,-0.07638349,-0.7254453,-0.08477796,9.468153953552246,4.033775806427002,-0.6551775932312012,-123.22821044921875,26.830177307128906, -14.112360000610352
154,1139746450,0.6790279,-0.0811882,-0.7235526,-0.09381512,9.791708946228027,2.145838737487793,-1.6662676334381104,-69.08126831054688,11.906720161437988, -14.984046936035156
155,1139763117,0.679232,-0.07896986,-0.7234578,-0.09495653,10.298188209533691,1.6682686805725098,-2.333087682723999,3.9529836177825928,3.3379967212677, -13.998183250427246
156,1139779784,0.6790134,-0.07302092,-0.7246366,-0.092253104,10.289436340332031,1.646782636642456,-2.765930414199829,41.14374542236328,-4.242849349975586, -15.49864387512207
157,1139796451,0.67860943,-0.06727613,-0.7256345,-0.091748536,10.061721801757812,4.4471635818481445,1.1638133525848389,29.020610809326172,-3.1947009563446045, -24.70795440673828
158,1139813118,0.67732865,-0.06572679,-0.7259882,-0.09923165,9.332963943481445,5.0425825119018555,0.17359545826911926,-31.130596160888672,-3.62911057472229, -41.06949234008789
159,1139829785,0.67603546,-0.06522997,-0.7257356,-0.10967688,9.294206619262695,2.837939500808716,-0.14501570165157318,-50.39303207397461,-0.27431681752204895, -49.13456726074219
160,1139846452,0.6745389,-0.064208746,-0.7255134,-0.12043664,9.05533218383789,1.8941539525985718,-0.325834721326828,-49.58049774169922,-0.9470473527908325, -53.2679328918457
161,1139863119,0.6723999,-0.063414186,-0.7255493,-0.13204342,8.453484535217285,2.3110721111297607,-1.0970959663391113,-54.91652297973633,-5.204371929168701, -56.66807556152344
162,1139879786,0.66989446,-0.06326795,-0.72546875,-0.14468507,8.803823471069336,2.304213762283325,-0.6727176308631897,-63.332950592041016,-6.628177642822266, -58.4390869140625
163,1139896453,0.66766214,-0.06346264,-0.7249419,-0.15703243,8.960091590881348,0.49110040068626404,-0.6799914240837097,-63.74998092651367,-3.703855276107788, -54.8702507019043
164,1139913120,0.6661076,-0.061591607,-0.72470266,-0.16526727,9.043170928955078,-0.37604257464408875,-1.3093425035476685,-33.16115188598633,-1.225901484489441, -45.754600524902344
165,1139929787,0.66519195,-0.057831448,-0.7249451,-0.16920355,9.110001564025879,-0.35964271426200867,-1.3613842725753784,-2.2846882343292236,0.12184654921293259, -35.09038543701172
166,1139946454,0.6646162,-0.053128317,-0.7256486,-0.16999097,9.1802339553833,-0.27484890818595886,-1.4987165927886963,18.38014030456543,-0.3860999643802643, -25.312271118164062
167,1139963121,0.6640496,-0.048779834,-0.7266496,-0.16923133,9.256477355957031,-0.38283970952033997,-1.3312667608261108,24.81310272216797,-2.605178117752075, -16.705167770385742
168,1139979788,0.66369617,-0.045788128,-0.72711813,-0.16944051,9.432546615600586,1.1574827432632446,-1.2812201976776123,13.214664459228516,-0.30376702547073364, -14.066474914550781
169,1139996455,0.66267383,-0.04534156,-0.7274306,-0.17219839,9.111624717712402,1.7031208276748657,-2.830383777618408,-11.54218578338623,-5.052559852600098, -13.758262634277344
170,1140013122,0.66070145,-0.04523834,-0.72852445,-0.17515537,9.403773307800293,1.640051007270813,-1.773531198501587,-13.49489688873291,-13.579676628112793, -14.339415550231934
171,1140029789,0.65808696,-0.046019584,-0.72993976,-0.17886224,9.442811965942383,1.0623847246170044,-1.1515427827835083,-21.08840560913086,-19.026243209838867, -14.220144271850586
172,1140046456,0.65544623,-0.046942357,-0.73151803,-0.18184619,9.519267082214355,0.23791128396987915,-1.540341854095459,-17.909887313842773,-20.277198791503906, -10.390117645263672
173,1140063123,0.65280384,-0.047759503,-0.7334243,-0.18345271,9.43012523651123,-0.01591012068092823,-1.4395509958267212,-10.105818748474121,-22.034666061401367, -4.940238952636719
174,1140079790,0.650075,-0.048718102,-0.73571545,-0.18371724,9.16443157196045,-0.42462971806526184,-1.0966150760650635,-3.5259156227111816,-24.78146743774414, 1.4287883043289185
175,1140096457,0.6475484,-0.04974838,-0.73810136,-0.18279146,9.073273658752441,-0.3376728594303131,-0.49517256021499634,2.355381488800049,-24.65691566467285, 7.1839752197265625
176,1140113124,0.6455549,-0.05231463,-0.73962504,-0.1829672,8.981175422668457,0.36616212129592896,-1.02196204662323,-10.975616455078125,-19.689884185791016, 10.897863388061523
177,1140129791,0.6441382,-0.056172032,-0.74023664,-0.18433824,9.066123962402344,1.3970656394958496,-0.2647775411605835,-23.729576110839844,-13.903270721435547, 13.115236282348633
178,1140146458,0.64304733,-0.060053203,-0.7403477,-0.18646505,8.361957550048828,1.8802504539489746,-1.4120618104934692,-28.181982040405273,-9.812836647033691, 10.460000038146973
179,1140163125,0.64193517,-0.06221759,-0.7408462,-0.18760379,8.350173950195312,3.32651424407959,-3.3977272510528564,-15.076421737670898,-9.816975593566895, 5.902767658233643
180,1140179792,0.63963354,-0.062861845,-0.74232596,-0.18939294,9.765722274780273,5.324317932128906,-3.6664907932281494,-10.937922477722168,-17.828737258911133, -6.5851521492004395
181,1140196459,0.6360076,-0.06318108,-0.7444525,-0.1931146,10.594498634338379,3.05918025970459,-1.1548517942428589,-19.104490280151367,-26.029953002929688, -18.572229385375977
182,1140213126,0.6329053,-0.061296348,-0.74701154,-0.19402994,9.02050495147705,-0.4869439899921417,1.4008721113204956,5.71051549911499,-23.543071746826172, -17.039745330810547
183,1140229793,0.6308099,-0.05621592,-0.7497737,-0.19172448,9.4953031539917,1.7827529907226562,0.22831086814403534,36.868743896484375,-16.489503860473633, -18.32756233215332
184,1140246460,0.62802386,-0.05186161,-0.75258726,-0.19107296,12.138223648071289,2.353355646133423,-1.4143728017807007,25.011829376220703,-20.666847229003906, -22.71747589111328
185,1140263127,0.62448704,-0.046993345,-0.7564322,-0.1887269,11.178744316101074,-0.29113438725471497,-1.1842845678329468,37.09085464477539,-28.94230842590332, -19.44934844970703
186,1140279794,0.6205416,-0.042252123,-0.7605514,-0.18629216,9.240619659423828,2.0919203758239746,-1.9962934255599976,37.216644287109375,-32.46125030517578, -19.196866989135742
187,1140296461,0.6153917,-0.041271027,-0.76410604,-0.18902977,7.103549480438232,3.3394858837127686,-2.81567645072937,-6.947920799255371,-39.635948181152344, -22.99799919128418
188,1140313128,0.6089536,-0.04274426,-0.7673417,-0.1963042,5.311705112457275,4.787447929382324,-1.1851693391799927,-41.946258544921875,-46.87555694580078, -30.806705474853516
189,1140329795,0.60354626,-0.045697514,-0.768552,-0.2072963,8.213871002197266,8.085935592651367,1.7104833126068115,-70.15081024169922,-33.86403274536133, -36.39960479736328
190,1140346462,0.60003924,-0.04806128,-0.7684697,-0.21701953,13.34365177154541,6.210018634796143,2.536879777908325,-62.13597869873047,-18.206979751586914, -30.82828712463379
191,1140363129,0.59768605,-0.04716626,-0.7696465,-0.21952508,15.632957458496094,3.6123433113098145,0.13740414381027222,-8.196247100830078,-15.105759620666504, -16.84537696838379
192,1140379796,0.59577703,-0.04560599,-0.7719281,-0.21701871,14.245631217956543,2.0171124935150146,-1.8280360698699951,22.90817642211914,-18.079586029052734, 0.479247123003006
193,1140396463,0.5941007,-0.046434943,-0.77375746,-0.21491265,11.744894981384277,1.5228739976882935,-4.461859703063965,10.387167930603027,-18.481698989868164, 11.880277633666992
194,1140413130,0.59352267,-0.050382733,-0.77375096,-0.215643,10.221610069274902,0.8485885262489319,-5.638063430786133,-19.855661392211914,-8.740307807922363, 18.97626495361328
195,1140429797,0.59502286,-0.056397606,-0.7716237,-0.21763307,12.120759963989258,0.6696151494979858,-5.691152572631836,-37.49321746826172,8.511942863464355, 28.51944923400879
196,1140446464,0.5991603,-0.06284119,-0.76763886,-0.2186065,14.593457221984863,0.8536009788513184,-4.190580368041992,-35.689125061035156,29.21597671508789, 39.45990753173828
197,1140463131,0.6064676,-0.067782186,-0.7621046,-0.21633217,17.563880920410156,1.040545105934143,-1.7087527513504028,-13.373085021972656,53.23776626586914, 50.1675910949707
198,1140479798,0.6168638,-0.07115306,-0.7549738,-0.21078636,19.673341751098633,1.0040260553359985,0.43570950627326965,9.359447479248047,76.80254364013672, 60.73101806640625
199,1140496465,0.62932533,-0.073444135,-0.74674994,-0.20228739,18.936378479003906,-0.3078523278236389,1.1118472814559937,28.698375701904297,92.08224487304688, 70.98492431640625
200,1140513132,0.64265543,-0.075077295,-0.73830056,-0.19044615,16.495159149169922,-0.5686836838722229,2.317133665084839,48.83189010620117,96.54033660888672, 83.16553497314453
201,1140529799,0.65927684,-0.08609193,-0.7229122,-0.18799016,14.074731826782227,2.1834356784820557,5.809963226318359,-47.6472053527832,136.25027465820312, 97.023681640625
202,1140546466,0.67114025,-0.09056928,-0.71279347,-0.18246573,1.8639154434204102,5.563757419586182,-6.101428031921387,1.272673487663269,94.98041534423828, 69.16503143310547
203,1140563133,0.67783093,-0.093768604,-0.7064405,-0.18081674,3.701289415359497,10.704239845275879,-6.981136798858643,-10.356242179870605,56.60142135620117, 36.452476501464844
204,1140579800,0.6827153,-0.09442009,-0.7031962,-0.17464246,5.073445796966553,-0.8229894042015076,-5.660829544067383,26.16192626953125,33.97871398925781, 41.43901824951172
205,1140596467,0.68639916,-0.08637189,-0.7039687,-0.1606994,4.4654645919799805,1.5715973377227783,-2.8219544887542725,108.57526397705078,15.02411937713623, 31.702743530273438
206,1140613134,0.6886913,-0.08028813,-0.7044612,-0.15163346,3.4786131381988525,4.098982334136963,0.47411173582077026,74.5484390258789,10.493582725524902, 16.860891342163086
207,1140629801,0.6907641,-0.078480504,-0.7031802,-0.14907579,2.2295000553131104,3.4695117473602295,2.0225679874420166,20.809017181396484,16.952259063720703, 7.6911301612854
208,1140646468,0.69336337,-0.08155924,-0.6996359,-0.15200265,-0.017152443528175354,1.6957488059997559,2.0876541137695312,-30.94484519958496,28.095535278320312, 7.191521644592285
209,1140663135,0.69638544,-0.08593539,-0.69541484,-0.15511598,-0.21183635294437408,-2.8772830963134766,1.4703212976455688,-38.496238708496094,31.991172790527344, 13.446378707885742
210,1140679802,0.6994104,-0.08341538,-0.6937877,-0.15008534,0.9008879661560059,-2.843766927719116,-0.7108919024467468,36.23075866699219,22.047378540039062, 17.783178329467773
211,1140696469,0.7010017,-0.07689061,-0.69469273,-0.1417265,2.3402554988861084,0.680721640586853,-2.090898275375366,73.15480041503906,5.29871129989624, 11.594769477844238
212,1140713136,0.70073324,-0.06965866,-0.6972499,-0.13402736,2.0801901817321777,3.0627527236938477,-4.186604976654053,74.03276062011719,-10.386884689331055, 2.3632214069366455
213,1140729803,0.6962154,-0.0613823,-0.7033737,-0.12954575,4.179959774017334,10.1553316116333,-11.155641555786133,63.43486404418945,-45.328697204589844, -23.668737411499023
214,1140746470,0.6848541,-0.054962307,-0.7137019,-0.13632184,6.737209796905518,8.885165214538574,-6.33066463470459,2.370636463165283,-94.74268341064453, -75.97181701660156
215,1140763137,0.6667661,-0.04583899,-0.73087174,-0.13837735,11.49928092956543,-2.808147668838501,5.359915256500244,42.1486930847168,-158.90252685546875, -75.52710723876953
216,1140779804,0.649121,-0.039527357,-0.74634004,-0.14161962,7.434631824493408,-4.289701461791992,0.18002893030643463,21.873973846435547,-151.479248046875, -66.1089096069336
217,1140796471,0.63233316,-0.027718568,-0.76050735,-0.14496541,18.117843627929688,0.022363577038049698,3.0345444679260254,44.84677505493164,-135.9477996826172, -93.88256072998047
218,1140813138,0.615494,-0.020028843,-0.7726585,-0.15415879,17.07579231262207,4.29304838180542,2.83093523979187,-5.624884605407715,-130.72193908691406, -97.5943374633789
219,1140829805,0.6014493,-0.018775273,-0.78045285,-0.1697049,17.93341827392578,4.283588886260986,-1.0417696237564087,-70.7659683227539,-103.6792984008789, -86.68627166748047
220,1140846472,0.5902514,-0.015613397,-0.78689694,-0.17931199,14.530022621154785,3.015531063079834,-4.000212669372559,-32.16312026977539,-81.501708984375, -68.87496948242188
221,1140863139,0.58308375,-0.01343192,-0.7913446,-0.18332192,14.535890579223633,6.273067951202393,-4.890259265899658,-7.8926310539245605,-53.385475158691406, -35.725833892822266
222,1140879806,0.5807931,-0.011460621,-0.79321086,-0.18266043,18.518558502197266,5.549728870391846,-2.432343006134033,13.89384651184082,-17.1458797454834, -9.38779067993164
223,1140896473,0.58237654,-0.012723385,-0.79234135,-0.18130344,19.111223220825195,3.5952000617980957,-3.7654919624328613,1.6738497018814087,10.668106079101562, 16.10416603088379
224,1140913140,0.5880937,-0.01621904,-0.7887118,-0.17837265,17.911718368530273,2.1458075046539307,-5.9802374839782715,-1.7877615690231323,41.24388885498047, 39.865806579589844
225,1140929807,0.5982483,-0.020187216,-0.78219354,-0.17281534,18.363203048706055,-0.26600202918052673,-6.109276294708252,7.434988975524902,76.16158294677734, 58.669944763183594
226,1140946474,0.61263597,-0.024457546,-0.7727891,-0.16393934,18.225934982299805,-0.8976887464523315,-3.1141960620880127,21.114723205566406,110.04303741455078, 79.1329574584961
227,1140963141,0.63072884,-0.032573093,-0.7594738,-0.15594813,18.055896759033203,-0.12005052715539932,-0.28105372190475464,-3.6162970066070557,141.97312927246094, 100.42801666259766
228,1140979808,0.650232,-0.04236902,-0.74392396,-0.14825773,15.372593879699707,0.006104354280978441,4.254154205322266,-14.560552597045898,157.15219116210938, 109.73204040527344
229,1140996475,0.66972905,-0.054348007,-0.72616976,-0.14555724,8.928751945495605,0.8686972260475159,3.759432315826416,-52.0690803527832,165.9109649658203, 99.1041259765625
230,1141013142,0.6820091,-0.05441249,-0.7172005,-0.13238767,3.134612798690796,6.436620712280273,-2.612300157546997,61.186038970947266,97.21392822265625, 77.30076599121094
231,1141029809,0.68719697,-0.055485107,-0.7133886,-0.12553301,5.0280561447143555,10.862502098083496,-8.143647193908691,27.348188400268555,39.63026809692383, 44.55867385864258
232,1141046476,0.68780804,-0.057000626,-0.71285707,-0.12452361,4.341372013092041,6.7961602210998535,-3.063875675201416,-2.3513245582580566,3.926513195037842, 14.378103256225586
233,1141063143,0.6864869,-0.057971522,-0.71384436,-0.12570387,1.6421632766723633,0.9278871417045593,-1.5526095628738403,-9.966676712036133,-11.25465202331543, -0.6118109822273254
234,1141079810,0.6861103,-0.058187068,-0.71399397,-0.12680575,2.344881296157837,-0.5713303685188293,0.19746285676956177,-6.366920471191406,-1.9746623039245605, -2.7757253646850586
235,1141096477,0.68799496,-0.06276704,-0.7109351,-0.13150841,0.8470454812049866,-1.0304930210113525,3.0678491592407227,-46.52595901489258,21.875415802001953, 4.872113227844238
236,1141113144,0.6914509,-0.07003747,-0.705738,-0.13756591,-0.3416181802749634,-1.5674927234649658,3.302466869354248,-67.12690734863281,37.666786193847656, 13.901277542114258
237,1141129811,0.6949241,-0.074687645,-0.70128083,-0.14038344,0.33990153670310974,-0.8666998744010925,0.613406777381897,-38.23656463623047,34.989322662353516, 16.173479080200195
238,1141146478,0.6975091,-0.07684692,-0.69818854,-0.14180501,1.0810394287109375,1.2224498987197876,-0.8474368453025818,-18.74648094177246,25.839941024780273, 9.22490406036377
239,1141163145,0.6979835,-0.077665366,-0.6974474,-0.14266798,1.0668954849243164,1.0910905599594116,-2.556729793548584,-8.463359832763672,5.487259864807129, 2.208923101425171
240,1141179812,0.69458693,-0.075328104,-0.70096666,-0.14325008,2.7217764854431152,6.025455951690674,-8.602117538452148,10.134153366088867,-30.45442008972168, -17.614343643188477
241,1141196479,0.68567044,-0.06552663,-0.7102864,-0.14510566,7.1185173988342285,16.047285079956055,-14.006628036499023,42.47854232788086,-76.34764862060547, -67.8773193359375
242,1141213146,0.67038816,-0.062407944,-0.72261757,-0.15655352,12.366813659667969,0.017194686457514763,-0.42148250341415405,-35.76166534423828,-123.34200286865234, -87.5252456665039
243,1141229813,0.65498865,-0.054334804,-0.7362894,-0.1609837,9.03785228729248,0.38329070806503296,13.887309074401855,23.365503311157227,-127.79960632324219, -80.58260345458984
244,1141246480,0.63649833,-0.0542718,-0.7484739,-0.17807731,8.405172348022461,5.089670658111572,-1.9653010368347168,-79.49267578125,-141.5482635498047, -99.9749984741211
245,1141263147,0.6199833,-0.055583384,-0.7579599,-0.1950078,17.967275619506836,-5.902125358581543,-5.441965103149414,-87.17675018310547,-121.29742431640625, -88.62385559082031
246,1141279814,0.6052628,-0.05049875,-0.7680875,-0.20285101,11.88833999633789,-1.1060612201690674,-5.602643966674805,-11.064621925354004,-109.48373413085938, -81.49535369873047
247,1141296481,0.5930647,-0.04715517,-0.7759962,-0.20947702,13.324488639831543,0.32851025462150574,-3.165651798248291,-14.153315544128418,-89.64325714111328, -63.134056091308594
248,1141313148,0.5844381,-0.040900875,-0.7826766,-0.2101828,18.300430297851562,4.816905498504639,-1.861100673675537,28.664691925048828,-63.297794342041016, -49.13108825683594
249,1141329815,0.58137524,-0.03994025,-0.7847682,-0.21106037,19.91958999633789,9.078714370727539,-1.7344436645507812,1.4284172058105469,-22.620676040649414, -12.034564971923828
250,1141346482,0.58421105,-0.038867876,-0.7831534,-0.20942193,21.518604278564453,5.114614486694336,-0.7324473261833191,11.75825023651123,23.364675521850586, 7.114054203033447
251,1141363149,0.5914363,-0.037901692,-0.77943176,-0.20310797,23.780315399169922,0.5991865396499634,-4.510084629058838,34.6773681640625,53.87325668334961, 33.289825439453125
252,1141379816,0.60163283,-0.039058104,-0.7734956,-0.19549167,22.62955665588379,-0.711621105670929,-4.017243385314941,30.64898109436035,75.44410705566406, 54.423583984375
253,1141396483,0.6148284,-0.04403692,-0.76451004,-0.1886035,21.113718032836914,-3.0399508476257324,-3.215776205062866,7.614595413208008,99.01654815673828, 76.30607604980469
254,1141413150,0.6297159,-0.049373448,-0.7545836,-0.17783144,16.48228645324707,-4.040679931640625,-1.64119291305542,25.756511688232422,110.20049285888672, 96.74356079101562
255,1141429817,0.64738387,-0.05521448,-0.74231267,-0.16376062,11.891718864440918,-1.1025629043579102,2.084780693054199,38.73725509643555,132.98904418945312, 117.53063201904297
256,1141446484,0.6679257,-0.06587728,-0.7240901,-0.1588366,6.838116645812988,2.4193620681762695,1.377847671508789,-34.999176025390625,172.04815673828125, 106.79533386230469
257,1141463151,0.6824546,-0.067602,-0.7132288,-0.14488064,2.1462554931640625,2.936272382736206,-5.000033855438232,56.36466979980469,113.88707733154297, 93.93338775634766
258,1141479818,0.69134223,-0.06755968,-0.70698756,-0.1328544,3.624526023864746,12.821430206298828,-6.753233909606934,57.160430908203125,67.40010833740234, 68.5533676147461
259,1141496485,0.69451433,-0.07117227,-0.7044586,-0.12775949,3.4415574073791504,8.161791801452637,-9.034850120544434,6.8168158531188965,22.14849281311035, 46.93156814575195
260,1141513152,0.6937449,-0.072439365,-0.7054081,-0.12597662,4.086063861846924,9.271950721740723,-5.038589000701904,3.0815887451171875,-9.491616249084473, 14.899109840393066
261,1141529819,0.689684,-0.07653294,-0.7080888,-0.13072498,2.253880500793457,5.142533302307129,-3.1097640991210938,-42.220436096191406,-32.70024108886719, -5.8999834060668945
262,1141546486,0.6834484,-0.08335144,-0.7114882,-0.14048333,0.9284403324127197,1.8918226957321167,0.2861935794353485,-80.02970123291016,-46.40247344970703, -18.520061492919922
263,1141563153,0.6764029,-0.0875427,-0.7163566,-0.14713503,-0.8808777332305908,-2.70824933052063,0.09543158113956451,-51.517093658447266,-56.54935836791992, -18.32049560546875
264,1141579820,0.66932917,-0.08545701,-0.72309774,-0.14773427,1.987399697303772,1.1062381267547607,-0.8963350653648376,9.36942195892334,-62.712345123291016, -22.3582820892334
265,1141596487,0.6620675,-0.08439838,-0.72915137,-0.1512681,2.240692377090454,1.7027666568756104,-0.47870007157325745,-10.746377944946289,-59.778682708740234, -30.52007293701172
266,1141613154,0.654733,-0.08083619,-0.735865,-0.15262055,2.200415849685669,-1.1961846351623535,2.690173387527466,12.241983413696289,-61.80393600463867, -33.55479049682617
267,1141629821,0.6484482,-0.071455315,-0.7434186,-0.14743863,1.3224684000015259,1.4961856603622437,1.8032397031784058,72.97737121582031,-57.914466857910156, -33.01918411254883
268,1141646488,0.6389571,-0.063328825,-0.75223535,-0.1478698,3.257991075515747,6.318669319152832,-4.637607574462891,38.42367935180664,-78.51752471923828, -55.47193145751953
269,1141663155,0.62408787,-0.051723834,-0.76575786,-0.14647117,12.07866382598877,7.252541542053223,-6.396546840667725,65.64185333251953,-124.09069061279297, -72.74852752685547
270,1141679822,0.6079477,-0.04399374,-0.7777347,-0.15359981,16.9735050201416,0.7647480368614197,5.658578872680664,2.1357197761535645,-124.83629608154297, -89.49433135986328
271,1141696489,0.59255713,-0.03847665,-0.78795296,-0.16286744,17.37750816345215,-3.211134433746338,5.356290817260742,-20.11500358581543,-115.5225830078125, -85.37109375
272,1141713156,0.57644284,-0.034291748,-0.7976396,-0.1740948,18.678234100341797,-2.3674404621124268,-3.1050405502319336,-36.912837982177734,-118.6256103515625, -87.06906127929688
273,1141729823,0.5626741,-0.03381912,-0.8051778,-0.18423608,15.035041809082031,-3.374394178390503,-9.796651840209961,-47.724178314208984,-102.03546905517578, -59.34955596923828
274,1141746490,0.55161333,-0.033003528,-0.81155026,-0.1897893,12.985990524291992,-0.029149001464247704,-5.970984935760498,-21.971906661987305,-82.99571228027344, -40.072330474853516
275,1141763157,0.5446446,-0.03496808,-0.8146867,-0.1960233,13.062211990356445,3.8881874084472656,-4.564971923828125,-39.6689453125,-51.318485260009766, -21.203399658203125
276,1141779824,0.5429048,-0.037634682,-0.814779,-0.19993323,13.377284049987793,6.580870628356934,-6.192865371704102,-32.12417984008789,-12.145155906677246, -0.7915893197059631
277,1141796491,0.5470411,-0.039507538,-0.81209666,-0.19920938,14.619258880615234,7.886935710906982,-2.955528974533081,-5.481273651123047,31.062610626220703, 20.932668685913086
278,1141813158,0.55675244,-0.041919086,-0.80589724,-0.19697481,16.965450286865234,7.354963302612305,-2.2844791412353516,-2.314049005508423,74.19065856933594, 38.32707595825195
279,1141829825,0.57072645,-0.044340752,-0.79721534,-0.19171132,20.34550666809082,2.9815516471862793,-2.4404144287109375,12.348308563232422,106.30699920654297, 56.545494079589844
280,1141846492,0.58779246,-0.04721133,-0.7868866,-0.18188177,21.223962783813477,0.745664656162262,-1.4340730905532837,34.382659912109375,127.5971450805664, 81.4085693359375
281,1141863159,0.60771877,-0.054502193,-0.77302444,-0.17361031,20.437091827392578,-0.5583422780036926,1.3390086889266968,4.578144550323486,152.17430114746094, 103.59398651123047
282,1141879826,0.6275639,-0.060603075,-0.75923556,-0.16140752,14.937545776367188,-2.147768974304199,3.1442437171936035,30.4973201751709,151.16287231445312, 113.39973449707031
283,1141896493,0.6500492,-0.06963761,-0.74133885,-0.1516697,11.530191421508789,0.9012459516525269,6.198579788208008,1.5036596059799194,180.23419189453125, 122.55919647216797
284,1141913160,0.6680928,-0.07261446,-0.7268588,-0.14161785,2.1352713108062744,5.163619041442871,-5.149075031280518,31.63713264465332,148.20004272460938, 86.7958984375
285,1141929827,0.6779337,-0.07472784,-0.71891063,-0.13412495,4.311140060424805,8.666399002075195,-7.379083633422852,25.054611206054688,79.50439453125, 59.65242004394531
286,1141946494,0.6834227,-0.07527338,-0.71484184,-0.12754868,3.28591251373291,4.404200553894043,-6.754580974578857,29.151487350463867,42.106178283691406, 41.91490936279297
287,1141963161,0.6854651,-0.075553946,-0.7132618,-0.12524709,3.212064027786255,4.883620262145996,-4.748722553253174,9.766098022460938,16.168224334716797, 16.352930068969727
288,1141979828,0.68591505,-0.074974,-0.71321166,-0.12340517,2.3363711833953857,0.09789560735225677,-1.488290548324585,12.048510551452637,2.304433822631836, 7.955342769622803
289,1141996495,0.68623924,-0.073155954,-0.7134727,-0.121163726,0.5036618113517761,-0.9242827296257019,1.200564980506897,20.041793823242188,1.1177974939346313, 3.4882566928863525
290,1142013162,0.6860767,-0.071286514,-0.7139026,-0.12066639,1.1527005434036255,1.631536602973938,0.005966473370790482,11.626910209655762,-1.1891086101531982, -5.52418851852417
291,1142029829,0.6850925,-0.07152852,-0.714374,-0.12329607,1.39765202999115,1.319015383720398,-1.282989263534546,-14.04654598236084,-5.637528419494629, -10.565380096435547
292,1142046496,0.6821987,-0.07207013,-0.7163126,-0.12770052,0.9531872868537903,3.385085344314575,-1.231588363647461,-23.869964599609375,-21.2683162689209, -19.75996208190918
293,1142063163,0.6779484,-0.07397489,-0.71877086,-0.13521199,0.4153447449207306,2.1161205768585205,-1.9459197521209717,-45.77584457397461,-30.006975173950195, -28.960773468017578
294,1142079830,0.67281276,-0.069533154,-0.72405064,-0.13505164,2.5250532627105713,-2.221424102783203,-3.551332712173462,23.896385192871094,-45.470069885253906, -26.76137351989746
295,1142096497,0.6642381,-0.0542622,-0.73441327,-0.12837681,4.438140869140625,12.568785667419434,-11.288484573364258,109.49464416503906,-79.04044342041016, -56.26893997192383
296,1142113164,0.64771646,-0.049603503,-0.747236,-0.14014813,11.181007385253906,6.32925271987915,-4.066191673278809,-32.912479400634766,-132.49412536621094, -94.47589111328125
297,1142129831,0.6311054,-0.037981458,-0.76178855,-0.14121474,14.107669830322266,-1.2279503345489502,12.312317848205566,54.76845932006836,-137.4987030029297, -83.11011505126953
298,1142146498,0.61461055,-0.03361294,-0.7736965,-0.15006047,4.5856499671936035,3.170367956161499,-3.5361039638519287,-19.89085578918457,-130.91107177734375, -78.19364929199219
299,1142163165,0.59730256,-0.029319966,-0.7851161,-0.16112997,13.031591415405273,2.403555393218994,-5.394828796386719,-32.703941345214844,-132.6568603515625, -87.85889434814453
300,1142179832,0.5846966,-0.027564343,-0.7918099,-0.17437723,18.9895076751709,-2.4675004482269287,-1.7440989017486572,-59.16728591918945,-90.17071533203125, -76.96878814697266
301,1142196499,0.57318133,-0.027806262,-0.7981488,-0.18343563,18.292478561401367,-1.863175630569458,-1.8833868503570557,-44.63032531738281,-86.12018585205078, -48.114112854003906
302,1142213166,0.56399924,-0.0293235,-0.8028731,-0.19089319,17.504253387451172,1.1350432634353638,-3.534024953842163,-42.48220443725586,-68.98919677734375, -31.77699089050293
303,1142229833,0.5590782,-0.03210556,-0.80493915,-0.19614846,16.200326919555664,4.193347454071045,-5.923355579376221,-37.87367630004883,-37.33256530761719, -10.254583358764648
304,1142246500,0.5588474,-0.035653815,-0.80399823,-0.20001316,17.76813507080078,6.231271743774414,-2.796977996826172,-36.15642166137695,-1.1432151794433594, 6.292537212371826
305,1142263167,0.5638807,-0.0376613,-0.80034316,-0.20017779,20.467859268188477,3.7713427543640137,-1.4560312032699585,-12.191940307617188,39.5005989074707, 19.91722869873047
306,1142279834,0.57280874,-0.037093174,-0.79527617,-0.1950649,21.522798538208008,3.095001459121704,-1.890002965927124,25.91620635986328,68.43046569824219, 31.85633659362793
307,1142296501,0.58483297,-0.037559453,-0.7881504,-0.1880921,21.866724014282227,0.13937175273895264,-0.1457069218158722,30.043020248413086,91.46937561035156, 49.420135498046875
308,1142313168,0.6000046,-0.04005949,-0.77854013,-0.17962457,18.603439331054688,-2.21527361869812,2.3343310356140137,27.55593490600586,115.31951904296875, 70.9918212890625
309,1142329835,0.61648005,-0.044498697,-0.7676139,-0.16953267,14.66251277923584,-3.0999810695648193,1.4073197841644287,26.977476119995117,124.67091369628906, 89.84695434570312
310,1142346502,0.6307502,-0.049403574,-0.75742936,-0.16129005,8.201498031616211,3.110344886779785,-3.352552890777588,15.412693977355957,109.76656341552734, 81.48014068603516
311,1142363169,0.6398438,-0.05657324,-0.74919754,-0.16156335,5.642704010009766,6.444121360778809,-2.7811529636383057,-38.366729736328125,74.78607940673828, 49.984066009521484
312,1142379836,0.6471313,-0.06635877,-0.7417313,-0.16325575,1.7674561738967896,0.8817668557167053,-3.3381409645080566,-57.034061431884766,59.83573532104492, 55.07598876953125
313,1142396503,0.65386814,-0.07355353,-0.73553246,-0.16136405,1.9361077547073364,0.751761794090271,-1.5409395694732666,-26.081918716430664,52.7645149230957, 56.624977111816406
314,1142413170,0.66304725,-0.07710026,-0.7287677,-0.1527147,2.584944486618042,-2.7526285648345947,0.8026968240737915,25.08550262451172,68.33805847167969, 71.56785583496094
315,1142429837,0.6742536,-0.081449606,-0.71934426,-0.14591816,2.300447463989258,0.2704739272594452,2.098231315612793,10.413209915161133,90.72496795654297, 70.58915710449219
316,1142446504,0.68624383,-0.08413135,-0.7087286,-0.14033903,3.1342601776123047,0.6425590515136719,0.9748787879943848,11.367636680603027,102.41817474365234, 58.15854263305664
317,1142463171,0.6959661,-0.08119037,-0.70093524,-0.13315149,3.744126081466675,5.656775951385498,-3.775402307510376,47.144771575927734,82.51651000976562, 34.546226501464844
318,1142479838,0.7003473,-0.08274391,-0.6962475,-0.13381577,2.0091490745544434,8.985690116882324,-7.227171897888184,-12.355387687683105,42.3115119934082, 12.177858352661133
319,1142496505,0.6994035,-0.08779232,-0.6954167,-0.13972445,0.3516908586025238,4.395291805267334,-7.263265609741211,-57.17156219482422,-1.872489094734192, -3.276299238204956
320,1142513172,0.69395447,-0.08450366,-0.7011753,-0.14014167,1.4833323955535889,2.64654803276062,-9.559473037719727,16.132217407226562,-50.05265426635742, -24.809833526611328
321,1142529839,0.6858564,-0.074131556,-0.7108192,-0.13726494,4.6954731941223145,3.8678226470947266,-4.094372749328613,67.99207305908203,-76.14868927001953, -47.993995666503906
322,1142546506,0.67405045,-0.0606642,-0.72355723,-0.135797,4.4454145431518555,3.041841983795166,0.7353997826576233,76.73332214355469,-105.09009552001953, -74.75800323486328
323,1142563173,0.6581547,-0.050692804,-0.73809266,-0.13957776,7.716436386108398,2.7409276962280273,2.6339452266693115,34.413455963134766,-134.8633270263672, -86.19720458984375
324,1142579840,0.6394856,-0.048863333,-0.7521749,-0.15133984,7.01836633682251,4.3656158447265625,-7.730208396911621,-44.2971305847168,-152.023681640625, -83.45467376708984
325,1142596507,0.62024945,-0.046847034,-0.7647408,-0.16812938,14.87022876739502,1.8040426969528198,-3.209415912628174,-71.25419616699219,-146.21844482421875, -106.51959991455078
326,1142613174,0.6039483,-0.044644162,-0.7744641,-0.18291792,14.295585632324219,-3.49540114402771,4.871334075927734,-62.270389556884766,-119.08250427246094, -94.68415069580078
327,1142629841,0.58738106,-0.04204838,-0.7845459,-0.19417308,19.512861251831055,3.5857465267181396,0.8176804780960083,-41.421485900878906,-122.81719970703125, -82.74127197265625
328,1142646508,0.5733031,-0.042825714,-0.7919827,-0.20555541,14.322028160095215,4.560728549957275,-5.620055198669434,-58.49143981933594,-103.33097839355469, -61.01493453979492
329,1142663175,0.56452453,-0.042560063,-0.79661894,-0.21189387,11.675456047058105,7.1828765869140625,-3.3659353256225586,-29.3134822845459,-63.398136138916016, -38.49102783203125
330,1142679842,0.56330276,-0.039268147,-0.7972995,-0.21321741,17.220935821533203,5.512748718261719,-1.615553379058838,6.380131244659424,-3.712453842163086, -23.344223022460938
331,1142696509,0.5663222,-0.034768704,-0.796558,-0.20872435,19.034912109375,4.3330302238464355,-4.215426921844482,42.03243637084961,25.15349006652832, -0.8408336043357849
332,1142713176,0.57347065,-0.03260184,-0.79302573,-0.20292586,18.899219512939453,2.4523465633392334,-5.5668535232543945,37.072628021240234,54.940269470214844, 23.55655860900879
333,1142729843,0.58431953,-0.034266558,-0.786417,-0.1973457,20.79947853088379,-0.7242529988288879,-6.604822635650635,17.27220916748047,81.95207977294922, 49.34196090698242
334,1142746510,0.5978775,-0.03849342,-0.77787346,-0.18966751,19.730318069458008,-2.749298095703125,-5.633208751678467,16.266300201416016,100.42443084716797, 75.56725311279297
335,1142763177,0.6144867,-0.043786656,-0.7669803,-0.17952797,17.106958389282227,-2.6492974758148193,-3.1375553607940674,22.726530075073242,124.37995910644531, 95.76641082763672
336,1142779844,0.6343876,-0.049937833,-0.75292474,-0.1678185,15.330141067504883,-3.163273334503174,-1.1384131908416748,24.438678741455078,153.55722045898438, 111.75402069091797
337,1142796511,0.65532523,-0.055432227,-0.7380281,-0.15096636,13.29166316986084,-2.1698617935180664,2.810009241104126,53.30940246582031,161.54444885253906, 132.0994873046875
338,1142813178,0.67543805,-0.059185863,-0.7225242,-0.13505265,5.091242790222168,2.720341205596924,1.4006855487823486,55.47125244140625,162.1257781982422, 118.29322052001953
339,1142829845,0.6888833,-0.056624573,-0.7126436,-0.11988506,2.0968892574310303,13.950522422790527,-6.160526752471924,83.62064361572266,108.98926544189453, 75.03374481201172
340,1142846512,0.6940738,-0.060057845,-0.708142,-0.11484565,5.297490119934082,11.007143020629883,-10.711833953857422,6.811918258666992,42.24552536010742, 47.91450500488281
341,1142863179,0.69561213,-0.057324596,-0.70836973,-0.10512025,3.986854314804077,3.2475457191467285,-6.1513671875,59.05720901489258,5.053335666656494, 35.6826171875
342,1142879846,0.6933715,-0.04977575,-0.71269137,-0.09396679,2.8406569957733154,3.813391923904419,-4.727351188659668,91.779296875,-29.781076431274414, 14.791797637939453
343,1142896513,0.68886435,-0.04567591,-0.7175185,-0.09244897,1.621760368347168,5.375885963439941,-1.1588797569274902,29.194961547851562,-42.04164505004883, -15.801733016967773
344,1142913180,0.68218625,-0.04449941,-0.72332394,-0.09718234,1.3850661516189575,3.2263426780700684,-1.2520701885223389,-16.50864028930664,-57.28776168823242, -32.5224609375
345,1142929847,0.6738718,-0.04434506,-0.73029053,-0.10298651,1.4274131059646606,1.8702683448791504,-0.6577414870262146,-27.91364097595215,-71.28871154785156, -33.75381088256836
346,1142946514,0.6649888,-0.046850402,-0.7369596,-0.11173959,1.3367840051651,0.901239275932312,-1.1205307245254517,-53.505859375,-73.65190887451172, -34.40790557861328
347,1142963181,0.6565595,-0.04893748,-0.74321544,-0.11901991,2.440540313720703,-3.6873092651367188,3.7991628646850586,-44.29425048828125,-69.60765075683594, -29.289621353149414
348,1142979848,0.6494041,-0.045811746,-0.7498602,-0.11783695,0.0023658759891986847,-5.287018775939941,4.069433212280273,23.24345588684082,-63.55717086791992, -16.920766830444336
349,1142996515,0.64183533,-0.041426014,-0.7564948,-0.11852144,1.7894046306610107,5.200476169586182,-1.1481962203979492,19.106081008911133,-64.15019226074219, -32.23519515991211
350,1143013182,0.6279273,-0.03593539,-0.76742953,-0.124370985,7.922569274902344,9.61623764038086,-12.821281433105469,-1.158917784690857,-113.70769500732422, -67.04530334472656
351,1143029849,0.61312366,-0.03261582,-0.77762383,-0.13533928,13.684103012084961,2.942068338394165,2.727729320526123,-38.40088653564453,-115.53441619873047, -78.06013488769531
352,1143046516,0.59707975,-0.029415758,-0.7881332,-0.14654848,11.197417259216309,0.8708800673484802,0.5456106662750244,-40.130218505859375,-123.71002960205078, -79.64655303955078
353,1143063183,0.58192164,-0.024988176,-0.7977775,-0.1558653,15.906723022460938,-1.3403146266937256,2.2074124813079834,-25.50259017944336,-114.59693908691406, -77.49989318847656
354,1143079850,0.56771314,-0.019320874,-0.8067064,-0.1629524,12.77784252166748,-0.7250791788101196,-6.384467601776123,-8.892614364624023,-105.75251007080078, -74.36674499511719
355,1143096517,0.55646217,-0.015430195,-0.8132846,-0.16935259,11.47879409790039,-0.4605255424976349,-5.473541736602783,-14.302167892456055,-82.20013427734375, -58.306724548339844
356,1143113184,0.5491507,-0.0151240155,-0.8165235,-0.17746605,10.7660551071167,3.1436493396759033,-5.9211812019348145,-41.10697555541992,-51.36013412475586, -39.96552276611328
357,1143129851,0.5474676,-0.014446537,-0.81732774,-0.17901446,12.60461139678955,4.818460464477539,-5.2484869956970215,-5.251005172729492,-10.760313987731934, -10.144545555114746
358,1143146518,0.5503693,-0.01390512,-0.81568235,-0.17765872,17.63433265686035,11.114463806152344,0.5596251487731934,7.999154090881348,23.77735710144043, 7.4549336433410645
359,1143163185,0.55700296,-0.016719002,-0.81093293,-0.17848222,23.331989288330078,6.600382328033447,0.20229971408843994,-20.249305725097656,52.39712905883789, 23.010921478271484
360,1143179852,0.5658504,-0.018475426,-0.80576265,-0.17383496,24.339948654174805,2.186931610107422,-1.9973403215408325,14.096667289733887,66.81922912597656, 40.81964111328125
361,1143196519,0.5772419,-0.02263802,-0.79823154,-0.17060532,22.788192749023438,-0.7556169033050537,-5.05043363571167,-5.620309352874756,87.25408935546875, 51.8612060546875
362,1143213186,0.59030366,-0.02846546,-0.78962564,-0.16499402,19.975940704345703,-3.860110282897949,-4.696377277374268,-0.2081013023853302,98.31065368652344, 72.41375732421875
363,1143229853,0.6060539,-0.037012264,-0.778622,-0.1583557,17.132221221923828,-1.8351383209228516,-0.9275497198104858,-7.926936626434326,119.32816314697266, 94.65637969970703
364,1143246520,0.62500757,-0.048030477,-0.7640185,-0.15275624,12.423535346984863,0.01835988461971283,1.084958553314209,-26.912052154541016,148.9781036376953, 107.83167266845703
365,1143263187,0.6431992,-0.057601444,-0.74933285,-0.14655145,6.383688449859619,2.630310535430908,2.0463829040527344,-17.84646987915039,146.5608367919922, 102.0000228881836
366,1143279854,0.65876466,-0.062108736,-0.7369914,-0.13789621,1.9003158807754517,7.003927707672119,-0.5745929479598999,18.511159896850586,126.7188720703125, 83.21312713623047
367,1143296521,0.6684588,-0.06369664,-0.7295655,-0.12976879,1.9052283763885498,12.059896469116211,-6.051194667816162,31.221010208129883,77.7081298828125, 58.53006362915039
368,1143313188,0.67361516,-0.06686273,-0.724984,-0.12716284,3.4669485092163086,6.3466386795043945,-6.507471561431885,-3.1836304664611816,43.03775405883789, 36.062252044677734
369,1143329855,0.6764668,-0.062068153,-0.72427195,-0.11819697,4.412168979644775,3.2458548545837402,-5.405794143676758,67.69483947753906,17.830381393432617, 22.18364906311035
370,1143346522,0.6769404,-0.058182452,-0.7247038,-0.11476543,2.5035557746887207,2.96917986869812,-2.769453287124634,35.80765914916992,2.427780866622925, -1.392030954360962
371,1143363189,0.67623174,-0.0550814,-0.72546035,-0.11568908,1.816643476486206,2.566161870956421,0.17231661081314087,10.234601974487305,-3.7823359966278076, -18.75758171081543
372,1143379856,0.67354107,-0.057356723,-0.72618216,-0.12534839,0.20523130893707275,3.445808172225952,-0.5619097948074341,-59.106441497802734,-14.487354278564453, -34.06862258911133
373,1143396523,0.6682917,-0.062589,-0.7283748,-0.13761929,0.7338588833808899,1.2865099906921387,-3.0080642700195312,-85.57266998291016,-35.595462799072266, -34.10781478881836
374,1143413190,0.6630001,-0.065543756,-0.731556,-0.14477873,1.4193904399871826,-5.124062538146973,-1.4010722637176514,-48.5934944152832,-40.3381462097168, -22.469865798950195
375,1143429857,0.6584544,-0.060170688,-0.7369007,-0.14069466,1.8337980508804321,-2.817850351333618,-1.6244505643844604,48.39850997924805,-43.20054244995117, -13.47216796875
376,1143446524,0.65206575,-0.0537413,-0.7428152,-0.14194293,1.4086992740631104,6.010941982269287,-4.619383811950684,25.943822860717773,-51.85337448120117, -45.06636428833008
377,1143463191,0.63729185,-0.040369928,-0.7567223,-0.1400035,9.918858528137207,8.772242546081543,-6.456866264343262,78.06243133544922,-124.80781555175781, -77.25013732910156
378,1143479858,0.62270635,-0.03553554,-0.76674783,-0.15189503,13.367640495300293,0.9875826239585876,5.808770179748535,-34.97956085205078,-111.07019805908203, -92.02364349365234
379,1143496525,0.6088022,-0.034297798,-0.77500504,-0.16598421,12.964000701904297,-1.2585978507995605,4.170939922332764,-63.59058380126953,-103.32559204101562, -81.36568450927734
380,1143513192,0.594973,-0.033856016,-0.7820284,-0.18246283,19.522199630737305,-2.584597587585449,-2.4175286293029785,-81.0077133178711,-98.27384948730469, -86.84888458251953
381,1143529859,0.58223844,-0.03402261,-0.7889579,-0.19335578,15.453378677368164,-2.0839591026306152,-6.091760635375977,-53.33782958984375,-94.12269592285156, -59.500755310058594
382,1143546526,0.57197005,-0.03358625,-0.794801,-0.20003448,13.68526840209961,2.0189201831817627,-3.850578784942627,-28.977319717407227,-76.5396499633789, -42.51009750366211
383,1143563193,0.56572104,-0.033609863,-0.79819673,-0.2042358,13.805343627929688,5.763700485229492,-3.024533748626709,-19.69520378112793,-46.156002044677734, -24.207456588745117
384,1143579860,0.56505245,-0.034689233,-0.79839337,-0.20513609,15.442401885986328,7.4183831214904785,-3.9882025718688965,-8.86830997467041,-5.356642246246338, 3.0291316509246826
385,1143596527,0.569071,-0.036827754,-0.79576063,-0.2038797,18.385568618774414,7.038883686065674,-1.3782669305801392,-3.996408700942993,29.341707229614258, 24.55731964111328
386,1143613194,0.5771747,-0.0413744,-0.78981125,-0.20336108,20.986356735229492,3.1029393672943115,-3.0823569297790527,-21.03550910949707,61.39421463012695, 41.43791961669922
387,1143629861,0.58770406,-0.045957606,-0.7827647,-0.1994277,21.18840217590332,-0.27476930618286133,-3.1224050521850586,-3.4888997077941895,77.83518981933594, 58.822628021240234
388,1143646528,0.60067755,-0.05101846,-0.77391726,-0.19399996,20.62613868713379,-1.7924482822418213,-1.9190213680267334,0.8972395062446594,97.08736419677734, 71.2194595336914
389,1143663195,0.61540025,-0.057271015,-0.76337767,-0.18776919,18.88625717163086,-3.186408758163452,0.8995590209960938,-1.4205904006958008,111.45034790039062, 83.65290832519531
390,1143679862,0.6310305,-0.06071225,-0.75303,-0.17624038,12.798105239868164,-3.5603771209716797,1.3365648984909058,38.87870407104492,116.84471893310547, 92.25190734863281
391,1143696529,0.64726436,-0.06322397,-0.7423772,-0.16102086,9.161216735839844,0.8456743955612183,5.124405384063721,61.89903259277344,120.80426025390625, 104.18917846679688
392,1143713196,0.6647954,-0.067993626,-0.7281028,-0.15261129,2.797205686569214,5.310784816741943,-0.9221771359443665,13.66696834564209,143.86724853515625, 88.41340637207031
393,1143729863,0.6735841,-0.06855993,-0.72182006,-0.14338757,1.694952368736267,11.380383491516113,-7.281065464019775,41.253761291503906,67.61363220214844, 58.29283905029297
394,1143746530,0.6777657,-0.07260693,-0.71814376,-0.1401125,2.7574024200439453,5.9598822593688965,-6.011366844177246,-4.0074286460876465,32.21820068359375, 42.49068832397461
395,1143763197,0.6800292,-0.06936707,-0.7180556,-0.13093805,2.438565969467163,2.7923550605773926,-5.047018527984619,61.558311462402344,10.237948417663574, 30.48450469970703
396,1143779864,0.6815648,-0.059741735,-0.72016776,-0.11514774,3.820059299468994,-0.14114773273468018,-3.3720011711120605,125.69892120361328,-0.9313578605651855, 28.240861892700195
397,1143796531,0.6817838,-0.048481736,-0.7230463,-0.100123554,2.409888505935669,1.9722129106521606,-1.1570621728897095,129.61976623535156,-9.35193920135498, 15.183297157287598
398,1143813198,0.6800611,-0.042454295,-0.72561556,-0.095900126,0.9960708618164062,1.825771689414978,1.8336611986160278,50.53349304199219,-17.523595809936523, -10.634439468383789
399,1143829865,0.67703557,-0.037298054,-0.7288789,-0.09469736,-0.5840187072753906,3.72784161567688,0.09521402418613434,31.479768753051758,-26.997798919677734, -21.439313888549805
400,1143846532,0.6717801,-0.037965775,-0.7323945,-0.10425379,0.319128155708313,8.483573913574219,-1.7975006103515625,-49.943443298339844,-40.380096435546875, -43.777645111083984
401,1143863199,0.6647684,-0.0436605,-0.7363454,-0.11820451,1.6116437911987305,-1.5994821786880493,-2.281139850616455,-95.41726684570312,-53.66264724731445, -39.95997619628906
402,1143879866,0.65683985,-0.038767226,-0.74388665,-0.11700989,2.166461706161499,-3.5883255004882812,-8.956772804260254,32.294517517089844,-70.61593627929688, -26.207765579223633
403,1143896533,0.64299935,-0.030530268,-0.7557914,-0.11999677,5.655405521392822,11.92920207977295,-9.695080757141113,27.903596878051758,-116.57627868652344, -68.20765686035156
404,1143913200,0.62439096,-0.02278726,-0.7704224,-0.1267532,11.792876243591309,3.265920400619507,1.8862485885620117,7.395262718200684,-152.83685302734375, -86.59636688232422
405,1143929867,0.6068304,-0.016747044,-0.7825919,-0.13793688,10.887038230895996,0.7783227562904358,4.376630783081055,-25.3046875,-137.59027099609375, -95.26473236083984
406,1143946534,0.59130996,-0.012272341,-0.791916,-0.15189213,19.405746459960938,1.6057649850845337,3.5778324604034424,-49.16565704345703,-116.04698181152344, -96.1766128540039
407,1143963201,0.57690585,-0.009412693,-0.7992525,-0.16818552,24.043699264526367,-3.5594286918640137,-2.030482053756714,-70.39212799072266,-103.55156707763672, -95.62019348144531
408,1143979868,0.56183255,-0.00606939,-0.80786544,-0.1779354,17.614864349365234,-1.5446902513504028,-5.252885341644287,-31.096519470214844,-112.25483703613281, -73.37709045410156
409,1143996535,0.5493771,-0.0050188927,-0.8146541,-0.18573722,12.217742919921875,1.6832376718521118,-7.809418678283691,-31.29082489013672,-93.5597915649414, -49.96986389160156
410,1144013202,0.5418852,-0.0055413675,-0.8186427,-0.1901421,8.228375434875488,4.1940789222717285,-9.049790382385254,-21.64934539794922,-57.24252700805664, -21.936710357666016
411,1144029869,0.5412115,-0.0055949586,-0.8189557,-0.19071035,10.316421508789062,7.334933757781982,-5.434255123138428,-2.8891255855560303,-4.5986714363098145, -1.2034640312194824
412,1144046536,0.5464767,-0.006541911,-0.8155302,-0.19034423,14.91183090209961,7.165618896484375,-2.889118194580078,-5.610872268676758,41.57194900512695, 15.300858497619629
413,1144063203,0.55603665,-0.00837763,-0.8097022,-0.18744496,18.194549560546875,4.707555770874023,-3.1498990058898926,2.3335318565368652,73.35449981689453, 35.565467834472656
414,1144079870,0.56822217,-0.010314027,-0.8027706,-0.18049048,19.127666473388672,2.552396059036255,-2.9685842990875244,23.262174606323242,91.76712799072266, 55.05134582519531
415,1144096537,0.582867,-0.013865747,-0.79358023,-0.1740809,18.053327560424805,1.0646003484725952,-2.5487020015716553,11.307802200317383,112.1398696899414, 64.98873901367188
416,1144113204,0.5999465,-0.019006427,-0.78206927,-0.16754293,18.935073852539062,-2.118340253829956,0.026760458946228027,3.0792293548583984,132.7584228515625, 77.234130859375
417,1144129871,0.6185452,-0.023766207,-0.7694178,-0.15758625,16.5336971282959,-2.992110252380371,0.1917082667350769,21.90642738342285,145.53274536132812, 91.05830383300781
418,1144146538,0.63676333,-0.024932388,-0.75768095,-0.14082102,10.00401782989502,-0.9759647846221924,0.7730960249900818,74.12769317626953,142.33935546875, 100.3200912475586
419,1144163205,0.65551203,-0.02487061,-0.7449708,-0.12126063,7.053709030151367,2.589789867401123,-0.40641969442367554,93.21682739257812,150.0283203125, 106.79792785644531
420,1144179872,0.6726916,-0.02706824,-0.73138386,-0.108771846,4.083995342254639,8.560657501220703,-4.1876540184021,45.80545425415039,145.2513885498047, 85.3719253540039
421,1144196539,0.68172085,-0.030096278,-0.7239898,-0.10094556,3.0452065467834473,8.04073715209961,-6.7222442626953125,21.629215240478516,75.93861389160156, 60.887672424316406
422,1144213206,0.68686396,-0.03215383,-0.71968615,-0.096105315,1.6946263313293457,8.90661334991455,-5.532895565032959,12.6378173828125,43.53105163574219, 38.870697021484375
423,1144229873,0.688571,-0.029989293,-0.71911883,-0.08853775,4.190415859222412,4.385136127471924,-6.701371669769287,47.774444580078125,11.184106826782227, 27.927776336669922
424,1144246540,0.6881753,-0.027607473,-0.72024894,-0.08303003,3.7622501850128174,1.8747299909591675,-2.867666721343994,43.05380630493164,-6.370489597320557, 15.49881649017334
425,1144263207,0.6861634,-0.025873456,-0.7224284,-0.08128811,0.8917624354362488,1.1667755842208862,1.550019383430481,21.421632766723633,-18.95438575744629, -0.22563572227954865
426,1144279874,0.6837225,-0.03220713,-0.72312003,-0.092649534,-1.120237112045288,1.0734989643096924,4.308477401733398,-83.00314331054688,-16.2855281829834, -21.939836502075195
427,1144296541,0.68002486,-0.036570624,-0.7252078,-0.10150098,-0.9913399815559387,1.7122056484222412,-1.265148401260376,-63.416236877441406,-28.627975463867188, -20.97190284729004
428,1144313208,0.6761071,-0.040591512,-0.72720975,-0.11134443,3.1164193153381348,2.0380241870880127,-1.4787523746490479,-67.32720947265625,-28.8477725982666, -27.40863800048828
429,1144329875,0.6724315,-0.043133892,-0.7294039,-0.11809159,0.4622058868408203,-3.2423033714294434,-1.5303102731704712,-44.754337310791016,-28.24749183654785, -20.24822235107422
430,1144346542,0.66739684,-0.035921212,-0.73476475,-0.11581041,2.2973527908325195,4.529445171356201,-9.414167404174805,47.78239822387695,-44.43412399291992, -29.539995193481445
431,1144363209,0.6551115,-0.022430485,-0.7459206,-0.11801879,7.141417026519775,12.264914512634277,-11.155434608459473,56.71750259399414,-101.37309265136719, -88.99932098388672
432,1144379876,0.637681,-0.0069501894,-0.76157564,-0.11540075,15.75876522064209,-1.7152639627456665,9.168993949890137,93.29934692382812,-146.9565887451172, -82.14678955078125
433,1144396543,0.6202413,0.0010923975,-0.7751178,-0.120383196,10.018084526062012,-0.10349965840578079,4.940224647521973,19.26343536376953,-143.47463989257812, -76.51969146728516
434,1144413210,0.60512465,0.0022371346,-0.7835887,-0.14074153,17.183032989501953,2.8575496673583984,0.17196449637413025,-96.2795181274414,-115.4234390258789, -103.49211120605469
435,1144429877,0.5940451,-0.0019184743,-0.7873258,-0.16500013,18.990022659301758,-3.847438097000122,-5.116324424743652,-143.96273803710938,-79.25340270996094, -87.35067749023438
436,1144446544,0.58181906,-0.0012695628,-0.7941656,-0.17545907,19.223987579345703,-2.209529399871826,-3.8467400074005127,-46.158390045166016,-92.8665542602539, -58.486473083496094
437,1144463211,0.57179016,0.0025324665,-0.8010638,-0.17704909,12.072218894958496,5.104521751403809,-2.9326088428497314,14.943022727966309,-77.401123046875, -37.70973205566406
438,1144479878,0.5682686,0.0058873333,-0.8037509,-0.1761274,13.655695915222168,8.692732810974121,-4.365008354187012,21.795663833618164,-25.51280975341797, -17.50566291809082
439,1144496545,0.57014275,0.008192818,-0.80280364,-0.1742889,18.809200286865234,5.691473960876465,-1.9256306886672974,18.16765785217285,17.275745391845703, -1.669003963470459
440,1144513212,0.5751499,0.009500114,-0.80007154,-0.17028794,19.485549926757812,2.0016939640045166,-4.6539998054504395,23.897401809692383,40.426048278808594, 15.963081359863281
441,1144529879,0.5828531,0.008909932,-0.79551375,-0.1654117,19.133636474609375,0.35370123386383057,-6.2887749671936035,18.874135971069336,60.288570404052734, 32.83043670654297
442,1144546546,0.59316754,0.0045542256,-0.7886901,-0.16155401,19.26749038696289,-0.6975498795509338,-5.595215797424316,-4.564635753631592,79.31473541259766, 52.08624267578125
443,1144563213,0.60577965,-0.001547808,-0.7802086,-0.15589507,17.16423988342285,-1.7404365539550781,-3.477708101272583,-3.8722875118255615,96.6556625366211, 71.30027770996094
444,1144579880,0.62067145,-0.00770981,-0.77019143,-0.14667188,16.32386016845703,-1.0063503980636597,0.49227970838546753,13.348953247070312,115.16663360595703, 88.82429504394531
445,1144596547,0.6378993,-0.013372348,-0.7580437,-0.13518654,14.144679069519043,-0.34786319732666016,2.1953675746917725,25.436368942260742,136.94903564453125, 98.22265625
446,1144613214,0.654368,-0.01587118,-0.7465851,-0.1190021,9.314580917358398,0.9321370720863342,3.4180426597595215,64.38916778564453,132.39891052246094, 101.52372741699219
447,1144629881,0.6727294,-0.01789554,-0.7325065,-0.102710515,5.822754383087158,4.274731636047363,1.687122106552124,65.15706634521484,154.20150756835938, 101.4029541015625
448,1144646548,0.6859905,-0.020538816,-0.7212758,-0.09357544,1.7928895950317383,9.225377082824707,-4.631707191467285,27.640789031982422,115.73680877685547, 67.52529907226562
449,1144663215,0.6923027,-0.024943886,-0.7155815,-0.08965521,2.329678773880005,8.686931610107422,-6.498457431793213,-3.9535841941833496,54.84428024291992, 46.56902313232422
450,1144679882,0.69400275,-0.030219527,-0.7136112,-0.09058747,2.8550267219543457,9.23788833618164,-6.5633063316345215,-25.470413208007812,15.112141609191895, 24.433958053588867
451,1144696549,0.6936514,-0.03557369,-0.71347976,-0.092352934,4.11784553527832,1.614609718322754,-5.5672831535339355,-30.194244384765625,-3.5669944286346436, 19.337451934814453
452,1144713216,0.6926226,-0.03898786,-0.7142501,-0.09274135,2.8135390281677246,-2.221071243286133,-1.979041337966919,-15.490761756896973,-10.297171592712402, 15.740107536315918
453,1144729883,0.6906525,-0.041417643,-0.71555835,-0.096228965,0.3196222186088562,-0.6091597080230713,1.1167523860931396,-26.96139907836914,-16.040395736694336, -4.651130199432373
454,1144746550,0.68750626,-0.043511476,-0.7175006,-0.10312519,-0.36721691489219666,3.640000820159912,-0.11177603900432587,-43.52601623535156,-23.73394012451172, -23.45966339111328
455,1144763217,0.682283,-0.047813296,-0.72093767,-0.11159241,0.6385547518730164,1.5962871313095093,-4.232868671417236,-62.443809509277344,-42.213409423828125, -21.832521438598633
456,1144779884,0.6747938,-0.051894125,-0.72647905,-0.11911633,1.575405240058899,0.8466442823410034,-5.264707565307617,-54.50458526611328,-63.31780242919922, -20.93037223815918
457,1144796551,0.6667824,-0.056811273,-0.7322126,-0.12664393,2.116039991378784,-1.5990396738052368,-0.9565122127532959,-58.43895721435547,-67.42312622070312, -17.25555992126465
458,1144813218,0.6560057,-0.0566313,-0.7407002,-0.13346563,2.690538167953491,4.358518123626709,-2.2950563430786133,-30.199817657470703,-89.8028564453125, -43.19599151611328
459,1144829885,0.6385162,-0.047038335,-0.7563014,-0.13451007,7.437788963317871,9.04184341430664,-11.190820693969727,45.610530853271484,-149.66317749023438, -73.94923400878906
460,1144846552,0.6210243,-0.039778672,-0.7697189,-0.14240642,15.840537071228027,2.9992051124572754,8.039956092834473,-2.287259340286255,-139.85821533203125, -91.06977081298828
461,1144863219,0.60517216,-0.036852665,-0.78003156,-0.15478824,13.865924835205078,-2.718569755554199,8.608442306518555,-47.06465530395508,-121.11712646484375, -84.83137512207031
462,1144879886,0.5890531,-0.028307578,-0.791012,-0.1628352,21.883161544799805,-3.6408941745758057,-2.859954833984375,0.2524793744087219,-120.63201904296875, -97.47987365722656
463,1144896553,0.57431734,-0.018146047,-0.80266124,-0.1598918,17.968759536743164,-6.755423069000244,-8.061250686645508,67.57613372802734,-116.18355560302734, -60.47934341430664
464,1144913220,0.5602386,-0.007364859,-0.8137896,-0.15435408,12.245800971984863,-0.5037137866020203,-7.234828472137451,83.78150177001953,-110.09951782226562, -53.042701721191406
465,1144929887,0.5506655,-0.002763294,-0.8198555,-0.15683523,6.997137546539307,6.427955150604248,-7.541870594024658,9.925268173217773,-71.48929595947266, -44.37116622924805
466,1144946554,0.54661685,0.0005362563,-0.8217994,-0.16079676,12.805671691894531,9.342866897583008,-3.293219804763794,-7.688322067260742,-26.043834686279297, -36.53363037109375
467,1144963221,0.5483069,0.0029113863,-0.8201143,-0.16359624,20.011051177978516,9.0640230178833,0.49430376291275024,-8.585824966430664,18.976947784423828, -20.532432556152344
468,1144979888,0.5531644,0.0053453003,-0.8175409,-0.1600241,18.06751251220703,6.469984531402588,-1.157198190689087,26.562660217285156,40.262611389160156, 6.741056442260742
469,1144996555,0.56144285,0.005651694,-0.812892,-0.15478027,18.155763626098633,3.2161705493927,-4.2811102867126465,25.491378784179688,65.02597045898438, 28.758214950561523
470,1145013222,0.57236004,0.0024306474,-0.80609715,-0.15035187,17.525192260742188,-0.0884750485420227,-5.926461219787598,4.92371129989624,84.23889923095703, 48.02091598510742
471,1145029889,0.5859343,-0.00528854,-0.79682386,-0.14739448,16.330957412719727,-0.3981769382953644,-5.37224006652832,-23.57366371154785,104.04438018798828, 69.79859161376953
472,1145046556,0.6014353,-0.012837051,-0.7864762,-0.13987881,16.739839553833008,-1.6725445985794067,-2.023916006088257,1.0362873077392578,118.94124603271484, 89.15444946289062
473,1145063223,0.61839736,-0.019506877,-0.7750504,-0.12845792,14.65086841583252,1.809565544128418,2.4751296043395996,24.86142349243164,131.76486206054688, 101.97305297851562
474,1145079890,0.6372236,-0.025687607,-0.7613199,-0.116954364,9.916049003601074,2.8430705070495605,1.784203290939331,25.61052703857422,151.83493041992188, 101.66168975830078
475,1145096557,0.6577489,-0.033172444,-0.7447719,-0.10761455,9.315678596496582,4.556188106536865,5.123493671417236,6.611715316772461,172.35653686523438, 100.89604949951172
476,1145113224,0.67301327,-0.035657585,-0.73200333,-0.09976411,0.667578935623169,6.413800239562988,-4.159578323364258,23.211851119995117,132.25401306152344, 63.85090255737305
477,1145129891,0.6811085,-0.03663614,-0.7253676,-0.09268872,2.337692975997925,9.375612258911133,-6.439552307128906,28.720542907714844,69.07814025878906, 46.35887908935547
478,1145146558,0.6851739,-0.03564582,-0.72232324,-0.08669087,3.264266014099121,5.2656426429748535,-6.298708438873291,33.8325080871582,33.792667388916016, 28.162382125854492
479,1145163225,0.68727547,-0.03326244,-0.72099215,-0.08195399,4.222291469573975,3.244849920272827,-4.220978260040283,37.01679992675781,17.303098678588867, 13.746561050415039
480,1145179892,0.6884199,-0.032515045,-0.7199679,-0.081652895,2.544553279876709,0.6146496534347534,-0.014477741904556751,7.853153705596924,11.288137435913086, 0.32684385776519775
481,1145196559,0.6886852,-0.030883983,-0.71951616,-0.08399753,0.6809753775596619,0.9291591048240662,1.3036103248596191,-1.0528239011764526,5.317541599273682, -17.182863235473633
482,1145213226,0.6880394,-0.029962426,-0.71979547,-0.08717046,-0.018478211015462875,-1.3161331415176392,-0.5022676587104797,-9.332844734191895,-2.939509630203247, -18.25551414489746
483,1145229893,0.6856257,-0.026591375,-0.7221571,-0.08774778,1.8288569450378418,0.46939125657081604,-3.8764827251434326,16.002023696899414,-20.58526039123535, -19.620325088500977
484,1145246560,0.68152535,-0.024546977,-0.7258398,-0.089875266,2.051534414291382,0.06869284063577652,-1.3098185062408447,0.744687557220459,-35.74148941040039, -21.57259750366211
485,1145263227,0.67611074,-0.016575838,-0.73131174,-0.08822048,1.7965046167373657,3.070735454559326,-6.575922966003418,48.277286529541016,-47.63945388793945, -34.54838180541992
486,1145279894,0.66585815,-0.0039132806,-0.7406837,-0.08947259,6.107808589935303,10.96010684967041,-5.621383190155029,57.28073501586914,-86.81780242919922, -74.99669647216797
487,1145296561,0.64857525,0.011661682,-0.7555767,-0.09120458,8.508559226989746,5.899564743041992,1.1734676361083984,71.40319061279297,-146.01597595214844, -96.36418914794922
488,1145313228,0.63162863,0.023590444,-0.76866406,-0.09820556,10.466591835021973,-0.42352017760276794,4.857316017150879,26.646759033203125,-138.94491577148438, -100.79405212402344
489,1145329895,0.61861014,0.03246208,-0.77784175,-0.10597092,15.50679874420166,-2.1005237102508545,5.808549880981445,6.086677074432373,-103.47966003417969, -85.97772216796875
490,1145346562,0.6047598,0.036787223,-0.7866265,-0.11887385,25.074356079101562,0.01974136009812355,-0.8620775938034058,-40.799652099609375,-110.84761047363281, -84.29480743408203
491,1145363229,0.5912207,0.0335204,-0.7939534,-0.13774106,21.430028915405273,-4.27610445022583,-5.907688617706299,-105.88998413085938,-110.89739990234375, -68.24115753173828
492,1145379896,0.5776352,0.030777605,-0.8016035,-0.15107058,16.604787826538086,-2.7183644771575928,-5.486264228820801,-73.2430191040039,-110.693359375, -48.703006744384766
493,1145396563,0.5665928,0.028499996,-0.80805004,-0.15879424,11.222318649291992,2.8465776443481445,-6.786107063293457,-42.318485260009766,-90.22032165527344, -26.721872329711914
494,1145413230,0.56033176,0.026719568,-0.8120377,-0.16096309,5.866916656494141,7.781274318695068,-6.918782711029053,-13.157854080200195,-52.4041748046875, -3.1169824600219727
495,1145429897,0.56157786,0.023433352,-0.81108016,-0.1619581,8.30539608001709,8.426935195922852,-5.004504680633545,-19.25093650817871,7.173629283905029, 17.287967681884766
496,1145446564,0.5684454,0.02122767,-0.8068068,-0.15963131,14.49222183227539,4.682300567626953,-3.5748424530029297,-1.1366039514541626,53.08920669555664, 29.88793182373047
497,1145463231,0.57839817,0.018301109,-0.8006416,-0.15522204,19.812213897705078,1.7483831644058228,-4.11174201965332,5.072412014007568,77.09152221679688, 45.13664245605469
498,1145479898,0.5903515,0.014183355,-0.7930144,-0.1497077,20.089866638183594,-1.0339757204055786,-4.611574649810791,4.589637279510498,92.75592041015625, 57.984100341796875
499,1145496565,0.6044459,0.008996618,-0.78364044,-0.14308071,19.712682723999023,-2.2630794048309326,-2.893631935119629,4.2796735763549805,110.5113296508789, 70.27422332763672
500,1145513232,0.6209388,0.0015792781,-0.77187,-0.13656312,18.555368423461914,-3.6540839672088623,-0.35666370391845703,-8.110699653625488,131.16534423828125, 83.95214080810547
501,1145529899,0.6379612,-0.0039925263,-0.7596362,-0.12626423,13.94097900390625,-2.964350938796997,-0.019102901220321655,19.3817138671875,137.67796325683594, 90.68602752685547
502,1145546566,0.6544272,-0.0075545227,-0.7478278,-0.11145247,10.006251335144043,-0.5377252101898193,1.9876213073730469,52.11707305908203,134.49217224121094, 99.41250610351562
503,1145563233,0.67322296,-0.014871299,-0.732694,-0.09853555,6.576357364654541,3.1684155464172363,2.615999698638916,23.05634880065918,158.61447143554688, 112.12615203857422
504,1145579900,0.6853531,-0.017425941,-0.72290206,-0.08602371,-0.4681302011013031,7.566488742828369,-6.283888816833496,46.008785247802734,103.51766204833984, 81.2253646850586
505,1145596567,0.690938,-0.02228192,-0.71804774,-0.08072138,4.015876770019531,11.776196479797363,-9.252106666564941,1.457152247428894,47.30769348144531, 54.3338737487793
506,1145613234,0.6925744,-0.030561654,-0.7161871,-0.08051652,5.471170425415039,6.427351474761963,-7.002784729003906,-34.93440246582031,12.784581184387207, 44.5165901184082
507,1145629901,0.6921415,-0.036235545,-0.7163481,-0.08045329,3.42073130607605,1.535036325454712,-3.1823792457580566,-23.56668472290039,-5.541771411895752, 29.528539657592773
508,1145646568,0.6896162,-0.038092345,-0.71855533,-0.08158913,1.9658559560775757,2.7676823139190674,0.3000931143760681,-11.546463012695312,-23.171789169311523, 3.363973379135132
509,1145663235,0.6855302,-0.037385903,-0.72216046,-0.08446942,-0.45161300897598267,1.5906797647476196,-0.41273170709609985,-8.340875625610352,-35.64192199707031, -18.785757064819336
510,1145679902,0.67907953,-0.034987506,-0.72800666,-0.08736956,1.8070026636123657,4.435012340545654,-3.0698401927948,-0.5098922252655029,-56.97369384765625, -29.207712173461914
511,1145696569,0.67165333,-0.037472833,-0.7337539,-0.095303476,1.3212589025497437,0.5556212663650513,-1.3376057147979736,-49.8656005859375,-63.13072967529297, -28.732078552246094
512,1145713236,0.66316515,-0.039137267,-0.74061704,-0.100830555,-0.26614466309547424,-1.4184647798538208,-0.8554490208625793,-33.0487174987793,-73.6908187866211, -22.75701332092285
513,1145729903,0.6553778,-0.0402212,-0.746762,-0.10587243,0.789645254611969,-1.8690799474716187,3.7974021434783936,-28.238723754882812,-66.56800079345703, -22.84221076965332
514,1145746570,0.6453036,-0.035926446,-0.755274,-0.10887566,0.19116726517677307,10.757164001464844,-12.364787101745605,7.56655216217041,-85.68084716796875, -43.622291564941406
515,1145763237,0.62646866,-0.032449644,-0.7684131,-0.12659156,16.05018424987793,11.118281364440918,-8.682710647583008,-71.16868591308594,-148.5387725830078, -112.2225112915039
516,1145779904,0.6111485,-0.0322931,-0.77684987,-0.1481867,13.368834495544434,-4.298608303070068,12.330547332763672,-109.2581558227539,-111.66952514648438, -107.1579818725586
517,1145796571,0.596272,-0.027969511,-0.78531295,-0.16419823,11.241731643676758,1.5408860445022583,2.639622211456299,-61.75479507446289,-106.6085205078125, -105.5967788696289
518,1145813238,0.58446556,-0.02447607,-0.79076546,-0.18025255,21.230960845947266,-1.0258961915969849,-3.472954034805298,-68.17061614990234,-78.68867492675781, -97.26115417480469
519,1145829905,0.57406706,-0.022432158,-0.79667205,-0.18777019,16.329776763916016,-1.4219400882720947,-7.402621269226074,-26.788860321044922,-76.11801147460938, -53.48994445800781
520,1145846572,0.5665031,-0.022393895,-0.80105877,-0.19203638,11.067268371582031,4.489831924438477,-4.690875053405762,-18.452924728393555,-57.650054931640625, -25.85413360595703
521,1145863239,0.5656643,-0.02612715,-0.80025697,-0.19730769,11.08617877960205,7.294055938720703,-4.209171295166016,-44.49287414550781,-5.212810039520264, 0.6936287879943848
522,1145879906,0.57085913,-0.030866366,-0.7956947,-0.20009337,18.60499382019043,6.289257049560547,-2.1078059673309326,-38.736568450927734,40.803829193115234, 24.801401138305664
523,1145896573,0.5800988,-0.034740064,-0.7895434,-0.19723022,23.700788497924805,4.511230945587158,-0.2561988830566406,-5.751411437988281,69.11558532714844, 48.14372634887695
524,1145913240,0.5924025,-0.038641702,-0.78157794,-0.19157791,24.862028121948242,0.5723000764846802,-2.5568909645080566,7.559597969055176,92.20372772216797, 63.97609329223633
525,1145929907,0.60606277,-0.043200713,-0.77251345,-0.18451251,24.197458267211914,-1.5273075103759766,-1.4378316402435303,11.372956275939941,102.68296813964844, 75.2654037475586
526,1145946574,0.6207709,-0.049718525,-0.7619753,-0.17766617,22.467288970947266,-4.647119522094727,0.45293954014778137,0.47121086716651917,111.92154693603516, 86.4301528930664
527,1145963241,0.63661855,-0.05777,-0.7501933,-0.1690844,17.741958618164062,-5.399864673614502,3.2808022499084473,1.871206521987915,120.67686462402344, 103.56978607177734
528,1145979908,0.65235865,-0.061436333,-0.7395454,-0.15403411,9.313097953796387,-3.814647674560547,3.975594997406006,55.70307922363281,117.61138153076172, 108.58175659179688
529,1145996575,0.67101085,-0.06629686,-0.7253132,-0.13881657,5.796364784240723,1.2720589637756348,2.91267466545105,48.631961822509766,147.1014404296875, 119.9469223022461
530,1146013242,0.6837186,-0.06666315,-0.7156405,-0.12626849,1.3090457916259766,10.123894691467285,-5.89006233215332,57.69701385498047,101.87220001220703, 77.47265625
531,1146029909,0.69092935,-0.07196374,-0.70862496,-0.123647526,3.5819010734558105,8.07289981842041,-6.896031856536865,-14.567228317260742,62.672142028808594, 49.22234344482422
532,1146046576,0.69460326,-0.07257454,-0.7061932,-0.11640761,3.1541996002197266,4.717595100402832,-7.71071720123291,32.35116195678711,25.45636558532715, 43.14020919799805
533,1146063243,0.6966699,-0.071329005,-0.7053768,-0.109575815,3.1933705806732178,3.1781115531921387,-2.92399001121521,39.71193313598633,11.727965354919434, 30.142807006835938
534,1146079910,0.69730294,-0.06679482,-0.70632535,-0.102037586,1.226166009902954,-0.47332412004470825,-1.7407211065292358,57.48891067504883,-1.5464884042739868, 15.637202262878418
535,1146096577,0.69550794,-0.059317928,-0.7096768,-0.09544166,1.7448391914367676,3.289726972579956,-1.421669602394104,68.42005920410156,-22.317947387695312, -5.9676127433776855
536,1146113244,0.69247574,-0.055537157,-0.7130329,-0.09474756,0.5397472977638245,1.733177900314331,0.48602378368377686,22.058324813842773,-28.365060806274414, -16.91783332824707
537,1146129911,0.6880862,-0.054462116,-0.71678305,-0.098962456,-0.48565685749053955,5.094861030578613,0.46077924966812134,-15.152148246765137,-36.79380416870117, -28.034711837768555
538,1146146578,0.6819953,-0.061100475,-0.7199661,-0.11312941,0.06012894958257675,5.009279251098633,-0.017986416816711426,-102.74103546142578,-44.07829666137695, -37.96497344970703
539,1146163245,0.6741954,-0.06798466,-0.7241362,-0.12831861,0.9406270980834961,0.0004884228110313416,-2.514469623565674,-107.28521728515625,-56.872920989990234, -43.255516052246094
540,1146179912,0.66606057,-0.0642945,-0.73128074,-0.13212949,3.842991828918457,1.4628361463546753,-8.221476554870605,0.8555802702903748,-68.29081726074219, -44.84904479980469
541,1146196579,0.65036434,-0.057499338,-0.7437896,-0.14316884,6.493465423583984,14.80507755279541,-10.498869895935059,-19.746957778930664,-124.76892852783203, -102.80164337158203
542,1146213246,0.6316915,-0.055401765,-0.7569071,-0.15807666,13.575992584228516,-0.4442121982574463,3.4107162952423096,-61.103843688964844,-145.6987762451172, -99.08190155029297
543,1146229913,0.6145232,-0.045018688,-0.7708887,-0.16144794,7.677047252655029,0.4256915748119354,0.5942680835723877,36.46703338623047,-137.07220458984375, -90.8246841430664
544,1146246580,0.59894997,-0.032201156,-0.7828074,-0.16563435,15.378060340881348,4.5334858894348145,1.1577214002609253,40.65428161621094,-116.96073150634766, -104.78408813476562
545,1146263247,0.5862199,-0.027573008,-0.7899016,-0.17788129,23.742328643798828,-5.270597457885742,-1.852741003036499,-41.2928466796875,-89.37769317626953, -89.58576202392578
546,1146279914,0.573671,-0.02466521,-0.79805845,-0.18274629,20.76586151123047,-9.18983268737793,-7.550611972808838,-6.814351558685303,-96.22740173339844, -50.60141372680664
547,1146296581,0.55982375,-0.02241498,-0.8082384,-0.18123381,15.85017204284668,-2.7354888916015625,-3.7664427757263184,27.851415634155273,-113.22273254394531, -23.983531951904297
548,1146313248,0.5489251,-0.029553114,-0.8132595,-0.1908324,10.546761512756348,5.579591751098633,-6.732425689697266,-76.02857971191406,-86.98074340820312, -10.192340850830078
549,1146329915,0.5432391,-0.03733345,-0.8144732,-0.2003276,4.627858638763428,7.9730305671691895,-6.423162937164307,-81.8095932006836,-44.295902252197266, 1.4285727739334106
550,1146346582,0.5454406,-0.040265754,-0.8117731,-0.2046893,8.79435920715332,10.276198387145996,-1.2343741655349731,-38.31087112426758,19.89904022216797, 5.393858909606934
551,1146363249,0.55368626,-0.038586803,-0.8068058,-0.20250194,15.978075981140137,7.824239730834961,0.2522510588169098,14.053472518920898,66.79193878173828, 13.43008804321289
552,1146379916,0.5649571,-0.03577843,-0.8011934,-0.19399156,20.29510498046875,4.416909217834473,-2.267435073852539,53.36223220825195,85.86539459228516, 35.647544860839844
553,1146396583,0.57905835,-0.03539587,-0.7935519,-0.18361442,19.237335205078125,0.7438207864761353,-4.566157817840576,52.21532440185547,105.60407257080078, 60.51872253417969
554,1146413250,0.5947548,-0.039288744,-0.78392327,-0.17374536,20.011512756347656,-1.9244053363800049,-4.064159393310547,30.278825759887695,116.93562316894531, 84.272705078125
555,1146429917,0.6122254,-0.045865063,-0.77208406,-0.16420332,17.783504486083984,-2.87264347076416,-1.5242645740509033,15.354632377624512,132.40921020507812, 100.04218292236328
556,1146446584,0.63218635,-0.05471566,-0.75690585,-0.15633425,17.521921157836914,-1.5354440212249756,2.5375864505767822,-6.103759288787842,157.6222686767578, 108.86550903320312
557,1146463251,0.6513106,-0.05977069,-0.742778,-0.14318928,13.568551063537598,-0.6805406808853149,4.038279056549072,38.669063568115234,150.7318878173828, 110.69770812988281
558,1146479918,0.6748287,-0.065461606,-0.72300565,-0.13260339,10.418105125427246,2.878970146179199,7.446008205413818,19.002944946289062,198.8214569091797, 109.10800170898438
559,1146496585,0.68991536,-0.06453922,-0.71102566,-0.1195582,-0.8659070134162903,6.986935138702393,-12.139243125915527,65.23588562011719,125.55854797363281, 76.46210479736328
560,1146513252,0.69617665,-0.06454674,-0.70600855,-0.11280003,5.147734642028809,13.643491744995117,-10.899277687072754,31.869720458984375,51.54667663574219, 40.920658111572266
561,1146529919,0.6975771,-0.06523218,-0.7048253,-0.11114112,4.363770484924316,5.780045032501221,-7.930515766143799,3.150794267654419,11.411718368530273, 14.456597328186035
562,1146546586,0.69582915,-0.062028967,-0.7074587,-0.10712852,2.0098836421966553,1.1017826795578003,-3.949288845062256,34.71701431274414,-20.138648986816406, 2.8476297855377197
563,1146563253,0.69214594,-0.054254398,-0.7126016,-0.100944266,1.4849319458007812,-0.6581068634986877,-1.0159832239151,68.23712158203125,-39.0692024230957, -11.472414016723633
564,1146579920,0.6871885,-0.047583405,-0.7180375,-0.099649645,0.628649115562439,2.4040346145629883,0.2244119942188263,39.438636779785156,-45.612579345703125, -30.326087951660156
565,1146596587,0.6804989,-0.045142338,-0.724168,-0.10229533,0.7701748013496399,0.5748937129974365,-3.106999635696411,-0.6044690012931824,-59.091217041015625, -29.427255630493164
566,1146613254,0.67246425,-0.041464508,-0.7318385,-0.10239631,1.624890923500061,-0.5039712190628052,-0.8088668584823608,19.78769302368164,-72.81330108642578, -25.128820419311523
567,1146629921,0.66487855,-0.03823567,-0.73891455,-0.102372386,1.1498993635177612,-0.7971373796463013,-0.7807137370109558,18.052846908569336,-68.14886474609375, -21.817852020263672
568,1146646588,0.6582885,-0.03527373,-0.74483556,-0.103112906,1.1479246616363525,-0.7008873820304871,5.932006359100342,12.399635314941406,-57.79004669189453, -22.965492248535156
569,1146663255,0.65038764,-0.031435706,-0.75147134,-0.1062956,-0.744976818561554,5.6193718910217285,-1.8156845569610596,4.061460018157959,-66.59326934814453, -39.62092208862305
570,1146679922,0.63597447,-0.028247708,-0.762169,-0.11763097,6.979732036590576,10.058835983276367,-16.138843536376953,-39.3955192565918,-117.10348510742188, -78.30083465576172
571,1146696589,0.620815,-0.02391441,-0.77292436,-0.12886028,18.369035720825195,2.3235299587249756,3.4155478477478027,-33.93490219116211,-120.20112609863281, -84.35459899902344
572,1146713256,0.6053538,-0.02248271,-0.7827359,-0.14270929,13.378303527832031,-1.9161629676818848,6.240025520324707,-61.10464096069336,-119.9980239868164, -80.23985290527344
573,1146729923,0.589571,-0.018206393,-0.79259306,-0.15450194,18.6235294342041,-1.0792192220687866,4.239330291748047,-38.17814636230469,-119.54702758789062, -87.3660659790039
574,1146746590,0.57523215,-0.018215029,-0.800121,-0.1690642,16.037364959716797,1.239349126815796,-8.511004447937012,-72.91505432128906,-106.53768920898438, -73.47734069824219
575,1146763257,0.5636677,-0.018046334,-0.8060017,-0.17976227,14.670957565307617,-1.4530099630355835,-2.955686569213867,-52.536373138427734,-84.99932861328125, -55.76863479614258
576,1146779924,0.55476624,-0.020346453,-0.8099783,-0.18909137,12.945310592651367,3.1048481464385986,-5.306207656860352,-56.55073165893555,-66.10292053222656, -33.3130989074707
577,1146796591,0.55040574,-0.020492027,-0.81244767,-0.19121303,12.14183235168457,3.8242347240448,-5.89307975769043,-9.522257804870605,-33.26268005371094, -11.71594524383545
578,1146813258,0.5519781,-0.021623552,-0.8115542,-0.19034798,14.444732666015625,7.611328125,-4.153398513793945,-0.16125769913196564,10.901896476745605, 13.365737915039062
579,1146829925,0.55854106,-0.024945322,-0.8068333,-0.19086602,19.078250885009766,5.332371711730957,-2.066675901412964,-20.4454402923584,50.60232925415039, 27.46661949157715
580,1146846592,0.5687911,-0.027958492,-0.8003557,-0.1874194,21.418071746826172,1.5486969947814941,-2.6711783409118652,1.0694185495376587,77.48343658447266, 46.11356735229492
581,1146863259,0.5818918,-0.029774085,-0.7928285,-0.17871371,21.064544677734375,-0.1942514181137085,-2.169990301132202,33.88081741333008,97.76751708984375, 63.91911697387695
582,1146879926,0.59777725,-0.032857716,-0.7828268,-0.16960284,20.203893661499023,-1.783864974975586,-1.027499794960022,28.53350257873535,121.16986846923828, 76.32352447509766
583,1146896593,0.614876,-0.036597535,-0.77160895,-0.1587696,16.32574462890625,-3.339491844177246,-0.5429772138595581,33.95118713378906,131.5038604736328, 88.55863189697266
584,1146913260,0.6319997,-0.038264874,-0.7607695,-0.14262603,10.449292182922363,-2.1308705806732178,-0.20398829877376556,71.2942123413086,130.93411254882812, 99.88138580322266
585,1146929927,0.6505636,-0.041692697,-0.7476197,-0.12686096,7.905065536499023,3.171668291091919,-1.1521083116531372,59.76848602294922,146.86431884765625, 109.43060302734375
586,1146946594,0.6653836,-0.04471679,-0.7360584,-0.116117306,3.9129412174224854,7.038227081298828,-3.42820143699646,36.07063674926758,122.29801177978516, 81.19111633300781
587,1146963261,0.675486,-0.047947235,-0.72778696,-0.108379334,2.8627126216888428,5.916226387023926,-4.721926689147949,21.088903427124023,84.16032409667969, 63.77494430541992
588,1146979928,0.6817022,-0.048713934,-0.72297114,-0.10110475,2.416344165802002,7.366600036621094,-5.597772121429443,31.50105857849121,50.70100784301758, 45.318115234375
589,1146996595,0.6843018,-0.047284923,-0.7214978,-0.09453265,3.8653552532196045,4.950191974639893,-5.922774791717529,39.40839385986328,18.878639221191406, 27.552297592163086
590,1147013262,0.6850768,-0.043667067,-0.7217905,-0.08821338,2.808434247970581,2.4648990631103516,-2.0020079612731934,49.002296447753906,3.0865182876586914, 13.791828155517578
591,1147029929,0.6841507,-0.040813446,-0.72286844,-0.08793996,0.752625584602356,4.56540060043335,0.9438408613204956,15.364702224731445,-7.679927825927734, -12.138413429260254
592,1147046596,0.6812238,-0.04068028,-0.72492343,-0.093623005,0.5629464983940125,3.4304261207580566,-0.5713253021240234,-27.126935958862305,-22.2095947265625, -28.07131004333496
593,1147063263,0.6774273,-0.040858433,-0.7278775,-0.09806893,0.7288188338279724,-1.0137572288513184,-1.4631876945495605,-21.951496124267578,-31.291975021362305, -21.507549285888672
594,1147079930,0.6727203,-0.038918335,-0.7321846,-0.099189565,1.7032634019851685,-0.9116971492767334,0.2790992856025696,5.211856842041016,-41.64262008666992, -17.628326416015625
595,1147096597,0.6681235,-0.03632135,-0.7364763,-0.099470906,0.12710364162921906,-0.9400559663772583,-2.3272745609283447,12.496841430664062,-40.797359466552734, -16.98786163330078
596,1147113264,0.657705,-0.029542523,-0.7456859,-0.10248863,4.534592151641846,11.108607292175293,-11.386809349060059,19.7602481842041,-89.30084228515625, -55.957279205322266
597,1147129931,0.6428639,-0.022929631,-0.7574513,-0.11165955,13.484532356262207,2.9075582027435303,-3.417973041534424,-11.630497932434082,-122.29364013671875, -86.46626281738281
598,1147146598,0.627503,-0.015863167,-0.7695348,-0.11749296,8.278159141540527,0.721042811870575,5.73546028137207,7.927344799041748,-126.56963348388672, -74.5173110961914
599,1147163265,0.6121697,-0.010509482,-0.7801492,-0.1284722,10.903425216674805,2.1399805545806885,0.882017195224762,-27.849632263183594,-120.97969818115234, -87.486572265625
600,1147179932,0.5974849,-0.007263681,-0.7891592,-0.14208123,17.05425262451172,-0.9049853086471558,2.385873556137085,-52.180213928222656,-112.45367431640625, -86.56339263916016
601,1147196599,0.58388704,-0.0044260155,-0.7971203,-0.15380447,17.189952850341797,-0.5798631906509399,-6.973679065704346,-44.57981872558594,-102.80389404296875, -75.53582763671875
602,1147213266,0.572646,-0.0034939644,-0.8040613,-0.1598436,15.4714994430542,-2.55898380279541,-2.73793625831604,-22.09819793701172,-87.95805358886719, -39.79596710205078
603,1147229933,0.5623025,-0.0041591497,-0.81012464,-0.16582198,14.107596397399902,1.5122276544570923,-4.500364780426025,-29.005474090576172,-81.31719207763672, -29.785085678100586
604,1147246600,0.5551589,-0.006603736,-0.8141983,-0.1698124,12.723676681518555,3.4614713191986084,-6.572901248931885,-26.993284225463867,-57.88835906982422, -8.50790786743164
605,1147263267,0.5533073,-0.011192569,-0.81455,-0.17387915,14.9684476852417,6.425092697143555,-3.976613759994507,-39.7170295715332,-16.53995132446289, 9.5479736328125
606,1147279934,0.5565202,-0.017096601,-0.8111462,-0.17898354,18.333938598632812,6.005280494689941,-1.8819153308868408,-54.62028121948242,24.601247787475586, 19.32609748840332
607,1147296601,0.56340754,-0.021750974,-0.80593395,-0.18046978,20.95539093017578,2.850780725479126,-2.3071231842041016,-31.439090728759766,53.08125305175781, 30.937963485717773
608,1147313268,0.57343113,-0.023822071,-0.79973984,-0.17614105,21.493663787841797,2.2615387439727783,-0.8143537044525146,10.03980827331543,76.55522155761719, 43.156917572021484
609,1147329935,0.5868193,-0.026816428,-0.79099107,-0.17104746,21.281021118164062,0.661831259727478,0.9068199396133423,8.064074516296387,103.83106231689453, 55.708309173583984
610,1147346602,0.60271,-0.029328497,-0.7808029,-0.16194902,18.04576873779297,-3.378248453140259,2.403862476348877,30.559892654418945,123.01544952392578, 72.4106674194336
611,1147363269,0.6197027,-0.034754176,-0.7694638,-0.15061946,14.768049240112305,-2.0488646030426025,4.446900844573975,29.396495819091797,129.9442901611328, 98.69126892089844
612,1147379936,0.6346539,-0.038804997,-0.7589504,-0.1403674,5.480803489685059,4.7856903076171875,-7.594985485076904,29.920764923095703,117.2303466796875, 84.4677505493164
613,1147396603,0.6429016,-0.043160487,-0.75257164,-0.1358348,4.0551676750183105,9.22015380859375,-4.694350242614746,0.9317687749862671,65.50011444091797, 53.56390380859375
614,1147413270,0.64987946,-0.04880176,-0.7466939,-0.13312875,0.8428980112075806,2.259838104248047,-2.249506711959839,-14.110241889953613,56.09701919555664, 50.892452239990234
615,1147429937,0.6561619,-0.049265727,-0.742456,-0.12563299,1.368416666984558,2.005453109741211,-3.6256656646728516,34.87488555908203,48.353084564208984, 44.549163818359375
616,1147446604,0.6634135,-0.048529584,-0.7374234,-0.117192544,3.1853344440460205,-0.14258641004562378,-0.2991631329059601,44.744773864746094,57.63963317871094, 43.81123352050781
617,1147463271,0.67197645,-0.04824922,-0.73088294,-0.10922341,2.052131414413452,-0.5569377541542053,1.1140193939208984,39.49332046508789,70.9582748413086, 45.529170989990234
618,1147479938,0.68085515,-0.047765277,-0.72351027,-0.103381775,1.0520445108413696,0.048421915620565414,1.0940285921096802,29.218921661376953,77.23782348632812, 35.18360900878906
619,1147496605,0.6883373,-0.048832502,-0.71646374,-0.102407,0.38495028018951416,3.5570802688598633,0.18937236070632935,-2.4822232723236084,69.24988555908203, 19.017410278320312
620,1147513272,0.69194216,-0.052768536,-0.711926,-0.10767086,1.62437903881073,6.643949031829834,-6.1407880783081055,-46.32560348510742,38.3487548828125, 0.08452939242124557
621,1147529939,0.6914388,-0.058701646,-0.71077454,-0.11517944,2.831268787384033,2.034714460372925,-6.793220043182373,-66.41826629638672,1.4913161993026733, -5.029874801635742
622,1147546606,0.6865876,-0.058710508,-0.71504796,-0.11771646,1.4622528553009033,1.3034470081329346,-7.649468898773193,-10.812779426574707,-42.76232147216797, -15.961703300476074
623,1147563273,0.676662,-0.05009362,-0.7253795,-0.11594713,3.3185973167419434,5.729224681854248,-8.00383472442627,53.92708969116211,-90.99142456054688, -44.58439254760742
624,1147579940,0.6624442,-0.037462406,-0.7391126,-0.116090275,6.989162921905518,5.53145170211792,1.1712356805801392,64.3012466430664,-124.28890991210938, -78.05137634277344
625,1147596607,0.64541787,-0.02875417,-0.75360185,-0.12121573,9.154308319091797,3.3054909706115723,1.9900524616241455,21.01215934753418,-143.8676300048828, -83.20433807373047
626,1147613274,0.62704515,-0.025454024,-0.7670968,-0.13314976,10.339942932128906,2.9178619384765625,-5.779426097869873,-39.34166717529297,-149.6248779296875, -86.30863189697266
627,1147629941,0.61077255,-0.022734048,-0.77729887,-0.14915344,15.576849937438965,-1.2969557046890259,-1.3328814506530762,-65.95076751708984,-124.13247680664062, -98.28706359863281
628,1147646608,0.5961441,-0.019771537,-0.7863395,-0.16090861,17.864004135131836,-3.2508182525634766,0.34440866112709045,-43.155494689941406,-110.90045928955078, -79.91522979736328
629,1147663275,0.5808396,-0.017693603,-0.7963603,-0.16769893,21.653953552246094,-1.4558707475662231,-2.621649742126465,-18.94424819946289,-120.2695083618164, -55.73490905761719
630,1147679942,0.56661177,-0.014709292,-0.8066154,-0.16764984,14.708198547363281,0.9010704755783081,-4.7386908531188965,22.521581649780273,-115.1251220703125, -32.23701477050781
631,1147696609,0.556333,-0.01315711,-0.81360626,-0.16842057,13.24687671661377,7.617930889129639,-1.8183040618896484,9.024682998657227,-82.06961059570312, -22.635400772094727
632,1147713276,0.5508466,-0.014259592,-0.8162011,-0.17372541,11.812117576599121,8.076769828796387,-4.31873083114624,-31.12456512451172,-41.13218307495117, -19.150320053100586
633,1147729943,0.5509766,-0.015128149,-0.8157233,-0.17547515,11.648584365844727,4.581299781799316,-5.990557670593262,-13.390264511108398,1.952399730682373, 0.04924685135483742
634,1147746610,0.5565191,-0.015567838,-0.8121841,-0.17435984,13.603215217590332,3.8875646591186523,-5.759034633636475,1.1682490110397339,44.139949798583984, 15.354796409606934
635,1147763277,0.56620127,-0.018066624,-0.80556107,-0.17367047,17.618032455444336,1.4672530889511108,-5.8109564781188965,-12.350849151611328,76.64065551757812, 30.515560150146484
636,1147779944,0.57912344,-0.021616893,-0.7968481,-0.17082715,19.928979873657227,-0.4501279294490814,-4.103290557861328,-6.6247124671936035,101.19844818115234, 48.82297134399414
637,1147796611,0.5945231,-0.027075231,-0.786039,-0.16718917,20.46485137939453,0.3390662670135498,-1.3474886417388916,-11.980618476867676,120.74153137207031, 65.61141204833984
638,1147813278,0.6118354,-0.03345069,-0.77349514,-0.16199934,19.439088821411133,-2.853780746459961,0.3913351595401764,-8.987177848815918,136.79066467285156, 79.39148712158203
639,1147829945,0.62896985,-0.037026364,-0.76202244,-0.14949208,15.928482055664062,-3.6870293617248535,1.8897507190704346,42.852989196777344,132.73049926757812, 94.7752456665039
640,1147846612,0.64725816,-0.040178303,-0.74918395,-0.13478205,10.958147048950195,-0.8171828985214233,1.1852712631225586,55.11381530761719,144.5150909423828, 103.55651092529297
641,1147863279,0.66317236,-0.04246342,-0.7367396,-0.1249559,5.319010257720947,5.159150123596191,-2.532313108444214,33.519107818603516,132.65167236328125, 75.02131652832031
642,1147879946,0.6733351,-0.044796836,-0.72845393,-0.11818689,3.186321973800659,5.076629638671875,-3.772531032562256,19.704612731933594,85.41868591308594, 55.21177673339844
643,1147896613,0.679944,-0.044925626,-0.7234502,-0.11080568,2.426893711090088,6.1628594398498535,-4.598752975463867,34.545719146728516,54.062110900878906, 43.1507682800293
644,1147913280,0.6826993,-0.04553021,-0.7212577,-0.10787161,3.6924333572387695,7.658763885498047,-5.376428127288818,11.14873218536377,22.80710220336914, 20.979692459106445
645,1147929947,0.68330485,-0.044783123,-0.7211242,-0.10521038,3.0692973136901855,1.8828529119491577,-3.105844497680664,16.99186897277832,3.620187282562256, 10.826240539550781
646,1147946614,0.6818723,-0.041245352,-0.72336,-0.10049588,1.1449095010757446,0.8185086250305176,-1.653491497039795,41.36608123779297,-16.19930076599121, 4.446696758270264
647,1147963281,0.67881733,-0.038455628,-0.72648084,-0.09976873,1.2034497261047363,3.545412302017212,0.04159299656748772,18.17918586730957,-27.78654670715332, -11.892899513244629
648,1147979948,0.67423743,-0.03854204,-0.7302508,-0.1032106,0.48351266980171204,1.432893991470337,-1.6669518947601318,-16.020057678222656,-39.30434036254883, -18.171220779418945
649,1147996615,0.6682273,-0.036736146,-0.7355707,-0.105159454,0.6856555938720703,2.0433435440063477,-1.6481436491012573,0.9706748127937317,-52.708194732666016, -22.165164947509766
650,1148013282,0.6610539,-0.03490967,-0.74186796,-0.10687077,0.2989538013935089,0.571888267993927,-2.8490490913391113,2.682914972305298,-63.11199951171875, -22.249361038208008
651,1148029949,0.653403,-0.036227636,-0.747763,-0.11226219,0.7037394642829895,0.5158388018608093,0.9857465624809265,-30.79053497314453,-65.12210845947266, -23.188247680664062
652,1148046616,0.6423552,-0.0405994,-0.7547585,-0.12677307,0.6423496007919312,9.941576957702637,-7.90902853012085,-91.38858032226562,-87.63360595703125, -51.35265350341797
653,1148063283,0.6270079,-0.044533998,-0.76347727,-0.14825788,11.702611923217773,4.0661468505859375,-11.819857597351074,-125.3469467163086,-115.17359924316406, -88.56478881835938
654,1148079950,0.61266524,-0.043021224,-0.77297735,-0.1590496,13.661788940429688,-5.011840343475342,0.4800466299057007,-44.628746032714844,-110.90001678466797, -70.24701690673828
655,1148096617,0.59712774,-0.036722023,-0.7837952,-0.16659918,11.099324226379395,4.262391090393066,1.2745912075042725,-6.148849964141846,-118.557861328125, -83.79692077636719
656,1148113284,0.58144563,-0.031485178,-0.79322225,-0.1781239,16.38397789001465,-0.7272960543632507,-0.022539407014846802,-33.543067932128906,-113.87710571289062, -94.19465637207031
657,1148129951,0.56843144,-0.023933157,-0.8022915,-0.18066883,14.422454833984375,0.049290284514427185,-2.9913012981414795,24.833681106567383,-97.03890228271484, -67.62033081054688
658,1148146618,0.5561804,-0.016680228,-0.8104064,-0.18337615,17.6458797454834,2.8737690448760986,1.483559012413025,21.70370101928711,-89.45262145996094, -65.53707885742188
659,1148163285,0.5451392,-0.015013089,-0.81589645,-0.19212297,16.767017364501953,2.5975890159606934,-3.817305326461792,-36.45935821533203,-79.0842514038086, -55.706417083740234
660,1148179952,0.5373064,-0.012378891,-0.8207426,-0.1937271,12.187650680541992,3.4556403160095215,-6.240688800811768,6.715386867523193,-58.14991760253906, -30.080345153808594
661,1148196619,0.534729,-0.010422018,-0.8223325,-0.194231,11.295589447021484,7.70846700668335,-4.786584377288818,6.524573802947998,-17.446548461914062, -14.923104286193848
662,1148213286,0.5372742,-0.01180789,-0.8199097,-0.19734547,14.138382911682129,5.413334369659424,-4.0259809494018555,-25.503767013549805,21.994409561157227, 1.5370434522628784
663,1148229953,0.5433109,-0.013071364,-0.8160165,-0.1968746,17.131595611572266,3.5579328536987305,-4.223150253295898,-6.5471391677856445,46.96942901611328, 18.95068359375
664,1148246620,0.5526979,-0.014589032,-0.81050086,-0.19339204,17.684158325195312,3.6288106441497803,-4.062331199645996,7.501496315002441,71.19392395019531, 36.28837966918945
665,1148263287,0.5650863,-0.017894955,-0.802854,-0.18916315,17.463294982910156,2.4750430583953857,-3.9456188678741455,2.32802677154541,93.54743957519531, 53.276065826416016
666,1148279954,0.5800382,-0.022419984,-0.7935521,-0.18256019,15.590681076049805,1.3962653875350952,-3.352970600128174,8.850881576538086,112.23619079589844, 72.74349212646484
667,1148296621,0.5972209,-0.027184663,-0.7826871,-0.17317392,14.573960304260254,0.23373346030712128,-1.5201338529586792,21.453460693359375,129.9033660888672, 88.16840362548828
668,1148313288,0.616805,-0.03299301,-0.76936126,-0.16293094,14.57876968383789,0.14440831542015076,0.3984919786453247,19.289806365966797,151.5146484375, 100.59526062011719
669,1148329955,0.6361396,-0.038404107,-0.7559767,-0.14950223,11.993669509887695,0.5958126783370972,2.1085660457611084,37.70259475708008,150.1350860595703, 111.7131118774414
670,1148346622,0.65591663,-0.04362853,-0.74116176,-0.1361961,7.1496195793151855,1.691896915435791,0.36020612716674805,36.53037643432617,158.8798828125, 111.02701568603516
671,1148363289,0.6695756,-0.042075455,-0.7316994,-0.120475024,2.889089822769165,6.357595443725586,-5.596665859222412,82.57743835449219,109.16404724121094, 80.04755401611328
672,1148379956,0.6775255,-0.03987907,-0.7262571,-0.109177746,3.280273675918579,8.904224395751953,-8.208888053894043,64.95114135742188,63.794368743896484, 50.606895446777344
673,1148396623,0.6813643,-0.036788598,-0.7241529,-0.09996004,3.9353065490722656,4.9426984786987305,-5.479379177093506,60.101402282714844,29.033065795898438, 32.53178787231445
674,1148413290,0.6819896,-0.033395655,-0.72433555,-0.095462084,3.6286182403564453,6.418164253234863,-2.1344220638275146,38.77263641357422,3.773968458175659, 6.168487548828125
675,1148429957,0.67952025,-0.03219012,-0.7264313,-0.09753785,2.109447717666626,3.657480001449585,-2.5020580291748047,-3.6726269721984863,-20.515592575073242, -16.178007125854492
676,1148446624,0.674658,-0.031548694,-0.7303573,-0.10207821,1.9389232397079468,2.300523519515991,-0.9093003869056702,-17.917724609375,-40.829833984375, -26.85517120361328
677,1148463291,0.66975546,-0.033334475,-0.7338422,-0.10859164,0.19580000638961792,-3.0240423679351807,1.4625616073608398,-39.39866256713867,-40.257041931152344, -23.73452377319336
678,1148479958,0.6655855,-0.031466544,-0.73758894,-0.10940068,0.004526931326836348,-2.612143039703369,2.2617082595825195,6.572595596313477,-36.361045837402344, -15.444494247436523
679,1148496625,0.6629208,-0.029967697,-0.7397878,-0.11114087,0.7330922484397888,-2.1143710613250732,0.2978971302509308,-0.6744224429130554,-21.741840362548828, -16.392986297607422
680,1148513292,0.65724033,-0.023446424,-0.74511355,-0.11086602,3.3818018436431885,6.636768817901611,-11.562633514404297,34.233985900878906,-47.91257858276367, -35.72591781616211
681,1148529959,0.6449637,-0.01584174,-0.7549263,-0.11771709,12.492790222167969,6.671762466430664,-8.174612998962402,4.971626281738281,-99.90774536132812, -79.17779541015625
682,1148546626,0.63102347,-0.0063118516,-0.76635146,-0.12031179,9.831469535827637,0.8925443291664124,5.747373104095459,36.727230072021484,-114.53951263427734, -71.77904510498047
