PacketCounter,SampleTimeFine,Quat_W,Quat_X,Quat_Y,Quat_Z,Acc_X,Acc_Y,Acc_Z,Gyr_X,Gyr_Y,Gyr_Z 
2,90627081,0.7442144,0.24916919,-0.5696117,0.24413514,8.615431785583496,2.2042431831359863,1.4367033243179321,-3.1730165481567383,3.6781697273254395, -3.8374228477478027
3,90643748,0.7440383,0.26169702,-0.56869435,0.23347054,8.581500053405762,2.901273727416992,1.3688795566558838,-0.6254879236221313,4.868802547454834, -7.118117332458496
4,90660415,0.74418473,0.27741727,-0.56630826,0.22028127,8.725425720214844,2.173494577407837,2.117220640182495,-2.3567018508911133,5.670825958251953, -7.7759928703308105
5,90677082,0.7459602,0.2858262,-0.56303716,0.21174566,9.467004776000977,0.12432455271482468,3.331564426422119,-0.6956666707992554,5.38232421875, -5.265318870544434
6,90693749,0.74881333,0.28391322,-0.56001294,0.2122678,10.699932098388672,-1.4728659391403198,4.4858903884887695,1.6109299659729004,5.522258281707764, 0.14871373772621155
7,90710416,0.75188696,0.27451852,-0.55794215,0.2191038,10.75737190246582,-1.109266757965088,3.927018880844116,3.2162702083587646,1.996388554573059, 5.250354290008545
8,90727083,0.7541891,0.26368037,-0.55699354,0.2267811,9.747401237487793,0.7404072284698486,3.1897716522216797,1.0326849222183228,0.9222556948661804, 7.169910907745361
9,90743750,0.75617963,0.25485972,-0.5562956,0.23189253,9.126921653747559,1.5854355096817017,2.7073841094970703,-6.577547073364258,0.841665506362915, 7.314277172088623
10,90760417,0.75786966,0.24865827,-0.5555903,0.23478115,8.899415016174316,1.3812004327774048,2.5360021591186523,-10.244150161743164,1.2034324407577515, 6.044376373291016
11,90777084,0.7593251,0.24387673,-0.5551604,0.23610693,9.04899787902832,0.7923009395599365,2.506493091583252,-10.616867065429688,1.3562636375427246, 5.285202503204346
12,90793751,0.7604291,0.23987837,-0.55505264,0.23690213,9.27282428741455,0.34896424412727356,2.6213183403015137,-8.81355094909668,1.444499135017395, 5.291092395782471
13,90810418,0.7611011,0.23672095,-0.55504847,0.23792773,9.41879653930664,0.1563526839017868,2.759971857070923,-5.908876419067383,1.260855793952942, 4.756887435913086
14,90827085,0.7615266,0.23418635,-0.55508846,0.23897916,9.505032539367676,0.20979921519756317,2.8791348934173584,-1.82097327709198,1.1122890710830688, 3.739908456802368
15,90843752,0.76181877,0.23231313,-0.554971,0.24014603,9.573918342590332,0.3752947449684143,2.9886679649353027,0.9199633002281189,1.5362049341201782, 2.2973885536193848
16,90860419,0.76216704,0.23068833,-0.5548307,0.24092998,9.57754898071289,0.43091320991516113,3.0460758209228516,1.3504233360290527,1.6012227535247803, 0.8092268705368042
17,90877086,0.76261747,0.22908005,-0.55478114,0.24115302,9.52164363861084,0.3231492042541504,2.964695692062378,0.53440260887146,1.2026509046554565, -0.440346360206604
18,90893753,0.76304996,0.22755061,-0.5547952,0.241201,9.401809692382812,0.16969738900661469,2.900447130203247,-0.2108309268951416,0.8981412649154663, -0.7574700117111206
19,90910420,0.7634713,0.22600393,-0.5549042,0.24107078,9.328624725341797,0.21691261231899261,2.787611961364746,0.3219580054283142,0.7250634431838989, -0.5218074917793274
20,90927087,0.76387143,0.22447969,-0.55507994,0.24082284,9.34559154510498,0.40072476863861084,2.8180012702941895,0.12239668518304825,0.644127368927002, -0.4393858313560486
21,90943754,0.7640201,0.22356166,-0.5550265,0.24132803,9.426175117492676,0.486340194940567,2.806133508682251,-0.9890855550765991,0.833917498588562, -0.2853638827800751
22,90960421,0.76402426,0.22309239,-0.5547869,0.24229802,9.43397045135498,0.5538219213485718,2.8614251613616943,-1.6011649370193481,1.2121400833129883, -0.3869566321372986
23,90977088,0.764124,0.22240134,-0.5546957,0.24282712,9.481019020080566,0.49777159094810486,2.9446091651916504,-0.8966109752655029,1.0544557571411133, 0.12363891303539276
24,90993755,0.7641839,0.22175047,-0.554674,0.24328306,9.492692947387695,0.53055340051651,2.994565725326538,0.8124285340309143,0.646701455116272, 0.8589411973953247
25,91010422,0.76428765,0.22103818,-0.55470896,0.24352537,9.504243850708008,0.6419093012809753,2.8915085792541504,1.6664071083068848,0.5412411689758301, 1.1352636814117432
26,91027089,0.76436496,0.22041099,-0.55470467,0.24386092,9.403275489807129,0.6812935471534729,2.899027109146118,0.8926987051963806,0.7045605778694153, 1.3160127401351929
27,91043756,0.76421726,0.22028732,-0.55455077,0.24478345,9.392786026000977,0.5831255912780762,2.826070547103882,0.7737916707992554,0.4134594202041626, 1.4396579265594482
28,91060423,0.76385576,0.22053857,-0.55436534,0.24610238,9.408003807067871,0.40265020728111267,2.9971277713775635,1.7430658340454102,-0.3045862019062042, 1.879722237586975
29,91077090,0.76449627,0.2186345,-0.55505633,0.24424773,9.534880638122559,0.568207859992981,2.9563353061676025,2.738644599914551,-0.3934110999107361, 1.4974403381347656
30,91093757,0.7644764,0.21832429,-0.5550291,0.24464926,9.5413236618042,0.6933321356773376,2.9614946842193604,1.013808250427246,0.26490575075149536, 1.250380039215088
31,91110424,0.76438546,0.21815509,-0.5549384,0.24528916,9.416068077087402,0.6241224408149719,2.9196345806121826,-0.571124792098999,0.28873834013938904, 1.2508282661437988
32,91127091,0.76450145,0.21756984,-0.5549692,0.24537797,9.40996265411377,0.4902224838733673,2.9023940563201904,-0.9649071097373962,0.658444881439209, 1.3373606204986572
33,91143758,0.76446754,0.217353,-0.5548507,0.245943,9.419755935668945,0.49721208214759827,2.907421588897705,-0.7597752213478088,0.7709102630615234, 1.3733465671539307
34,91160425,0.76440954,0.21724787,-0.5546726,0.24661687,9.451024055480957,0.4890810549259186,2.8754031658172607,-1.2575194835662842,0.9214488863945007, 1.093092441558838
35,91177092,0.7642877,0.21737306,-0.5544137,0.24746513,9.461194038391113,0.5852861404418945,2.867340326309204,-0.4455201327800751,0.9644783139228821, 0.8314459323883057
36,91193759,0.7644327,0.217113,-0.55428106,0.24754207,9.516092300415039,0.741959273815155,2.9901039600372314,-0.36613357067108154,1.2306582927703857, -0.15767179429531097
37,91210426,0.76422375,0.21773012,-0.5537649,0.24879748,9.50939655303955,0.6713831424713135,2.9932641983032227,-1.637061357498169,1.4876561164855957, -0.6143590211868286
38,91227093,0.76405853,0.21829693,-0.55323803,0.24997735,9.387272834777832,0.4560379683971405,2.8756024837493896,-1.7761765718460083,1.7333457469940186, -0.6414188146591187
39,91243760,0.7641115,0.21824038,-0.5529691,0.2504595,9.326817512512207,0.23847094178199768,2.8275904655456543,-1.7270644903182983,1.6828248500823975, 0.18115223944187164
40,91260427,0.76414263,0.21810499,-0.55276823,0.2509261,9.30530071258545,0.16198070347309113,2.848889112472534,-0.9442247748374939,1.487937569618225, 0.9129965305328369
41,91277094,0.7644238,0.2172795,-0.5529121,0.25046784,9.364142417907715,0.15943127870559692,2.910151958465576,-0.5093469619750977,0.9695240259170532, 1.3392561674118042
42,91293761,0.7643929,0.217106,-0.5528433,0.25086415,9.468344688415527,0.2752399444580078,2.987985372543335,0.4636218845844269,0.6987465023994446, 1.511155605316162
43,91310428,0.76452214,0.21656238,-0.5529876,0.25062215,9.4586181640625,0.4327618181705475,3.059715747833252,0.6725446581840515,0.1787702590227127, 1.2013188600540161
44,91327095,0.76451695,0.21640325,-0.55300874,0.25072894,9.444842338562012,0.48197275400161743,2.9639532566070557,0.49378079175949097,-0.06263585388660431, 0.45217299461364746
45,91343762,0.76433367,0.216733,-0.55283713,0.2513802,9.362886428833008,0.4300140142440796,2.8970322608947754,0.36260536313056946,-0.043682459741830826, -0.12201888859272003
46,91360429,0.7642058,0.21700346,-0.5527015,0.25183353,9.376182556152344,0.3454723656177521,2.884350538253784,0.5569929480552673,-0.11213239282369614, -0.5053257346153259
47,91377096,0.76425207,0.21693438,-0.55274475,0.25165808,9.421341896057129,0.345304399728775,2.949747323989868,1.4834426641464233,-0.3969839811325073, -0.7892680764198303
48,91393763,0.7640914,0.2173466,-0.5526337,0.25203386,9.421066284179688,0.3876280188560486,2.97796630859375,1.5309028625488281,-0.6598982810974121, -1.1725492477416992
49,91410430,0.7639944,0.21770106,-0.5525281,0.25225282,9.445077896118164,0.3735031187534332,2.933504104614258,1.7871198654174805,-0.5079895257949829, -1.4662503004074097
50,91427097,0.7641918,0.21745868,-0.55265886,0.25157657,9.404510498046875,0.38972559571266174,2.9434773921966553,2.151947259902954,-0.48128828406333923, -1.6481261253356934
51,91443764,0.76406646,0.21789174,-0.5525446,0.2518342,9.378539085388184,0.38578900694847107,2.9057791233062744,2.4608490467071533,-0.6183674335479736, -1.475342869758606
52,91460431,0.7639434,0.21831447,-0.5524475,0.2520541,9.379363059997559,0.36464375257492065,2.9276890754699707,2.895047903060913,-0.6890455484390259, -1.388336181640625
53,91477098,0.7631668,0.22011855,-0.55181295,0.25421864,9.409316062927246,0.391593337059021,2.955193281173706,2.960937023162842,-0.7722613215446472, -1.1733818054199219
54,91493765,0.76302874,0.22049539,-0.55175096,0.25444013,9.439106941223145,0.5350730419158936,2.96632981300354,3.2406530380249023,-0.8081574440002441, -0.9130797386169434
55,91510432,0.7631718,0.22021581,-0.5519136,0.25389984,9.471633911132812,0.6873197555541992,2.9510154724121094,2.3159964084625244,-0.5589203834533691, -0.6117336750030518
56,91527099,0.7631331,0.22030327,-0.5518721,0.25403094,9.476542472839355,0.737460732460022,2.9481143951416016,1.4088969230651855,-0.14243222773075104, -0.2656036913394928
57,91543766,0.7632324,0.22004005,-0.5519036,0.25389168,9.433709144592285,0.7210777997970581,2.9118731021881104,0.44360554218292236,0.3380427658557892, 0.2711680233478546
58,91560433,0.7632853,0.21987179,-0.5518549,0.25398454,9.468856811523438,0.6323235034942627,2.9612390995025635,-0.02239830791950226,0.6608269214630127, 0.5135026574134827
59,91577100,0.76364887,0.21900915,-0.552062,0.25318578,9.432761192321777,0.5983946919441223,2.9434070587158203,0.23009811341762543,0.8389118909835815, 0.8838237524032593
60,91593767,0.76371735,0.21875405,-0.5520349,0.2532588,9.401402473449707,0.577940821647644,2.9050064086914062,0.1546686887741089,0.7807071805000305, 1.0517278909683228
61,91610434,0.76369226,0.21872166,-0.5518996,0.25365737,9.365340232849121,0.5212093591690063,2.9108922481536865,0.1779378205537796,0.9504168033599854, 1.1080502271652222
62,91627101,0.7637939,0.21837166,-0.55190593,0.253639,9.405557632446289,0.46054667234420776,2.920344114303589,0.30650079250335693,0.8400902152061462, 1.3121577501296997
63,91643768,0.7637625,0.21828507,-0.5518406,0.25395003,9.427973747253418,0.42810502648353577,3.001216411590576,0.3840816020965576,0.5902766585350037, 1.2811663150787354
64,91660435,0.7636059,0.21847762,-0.5516793,0.25460458,9.443672180175781,0.4867178201675415,3.0401201248168945,0.06435830891132355,0.45223701000213623, 1.033760666847229
65,91677102,0.76338696,0.21886578,-0.55142856,0.25546977,9.460381507873535,0.46137332916259766,2.9888899326324463,-0.2764122486114502,0.5203027725219727, 0.6331266760826111
66,91693769,0.76326317,0.21907151,-0.5512551,0.25603732,9.412409782409668,0.40930408239364624,2.953242778778076,-0.46830257773399353,0.4674893021583557, 0.3932766020298004
67,91710436,0.7634414,0.21864311,-0.5513351,0.25569937,9.365228652954102,0.3529752492904663,2.890512466430664,-0.30196091532707214,0.465773344039917, 0.32394301891326904
68,91727103,0.7635926,0.21828951,-0.5513804,0.25545213,9.373858451843262,0.34322649240493774,2.9213571548461914,0.26468804478645325,0.5456977486610413, 0.42333313822746277
69,91743770,0.7632686,0.21896759,-0.5510465,0.25655842,9.384950637817383,0.39438343048095703,2.9629855155944824,0.841806173324585,0.3437928557395935, 0.345304012298584
70,91760437,0.7631158,0.21929882,-0.5508597,0.25713074,9.436756134033203,0.4255414307117462,2.9845516681671143,1.0538026094436646,0.2784292697906494, 0.1963149458169937
71,91777104,0.7632666,0.21898866,-0.5509565,0.25673923,9.425801277160645,0.4793781638145447,3.0115981101989746,1.3754340410232544,0.06871247291564941, 0.04735147953033447
72,91793771,0.7632096,0.21910371,-0.55092025,0.2568887,9.406968116760254,0.45681148767471313,2.97599196434021,1.2746224403381348,-0.2244056761264801, -0.08457314223051071
73,91810438,0.7630546,0.2194377,-0.55080837,0.25730333,9.375109672546387,0.45476117730140686,2.961498498916626,1.4969021081924438,-0.30552107095718384, -0.14531365036964417
74,91827105,0.7628089,0.21993086,-0.55066794,0.257911,9.40795612335205,0.44089120626449585,2.978137731552124,1.5601911544799805,-0.5816259384155273, -0.13928185403347015
75,91843772,0.76251084,0.22053389,-0.55047566,0.25868633,9.404617309570312,0.4855997562408447,2.9485204219818115,1.3567495346069336,-0.5379051566123962, -0.14825913310050964
76,91860439,0.7629056,0.21966319,-0.5508707,0.25741923,9.399791717529297,0.46058329939842224,2.9623148441314697,1.1102657318115234,-0.530746340751648, -0.22514843940734863
77,91877106,0.7629209,0.21957938,-0.55096227,0.25724953,9.396263122558594,0.4607856869697571,3.005629062652588,1.0280362367630005,-0.6186747550964355, -0.1846419721841812
78,91893773,0.7628339,0.21970809,-0.550981,0.25735733,9.42335319519043,0.45906704664230347,2.9387893676757812,1.1866300106048584,-0.7093437314033508, -0.16886453330516815
79,91910440,0.76278,0.21975946,-0.55102855,0.25737154,9.457369804382324,0.4460282027721405,2.9779863357543945,1.271241545677185,-0.6863563060760498, -0.0864940881729126
80,91927107,0.76269513,0.21988124,-0.55105144,0.2574702,9.429413795471191,0.44154050946235657,2.9471640586853027,1.4298737049102783,-0.7029916644096375, -0.08327968418598175
81,91943774,0.76258963,0.22008242,-0.55103314,0.2576496,9.40117359161377,0.4595165252685547,2.9409563541412354,1.607728362083435,-0.6166641712188721, -0.18680623173713684
82,91960441,0.7627192,0.21977392,-0.5512009,0.25717005,9.397669792175293,0.47455912828445435,2.912757158279419,1.50974702835083,-0.4785861372947693, -0.06141924858093262
83,91977108,0.7626147,0.21994534,-0.5511842,0.2573693,9.406669616699219,0.46999886631965637,2.9497644901275635,1.452873945236206,-0.5361377596855164, 0.01541244238615036
84,91993775,0.76259303,0.21993403,-0.55123043,0.2573443,9.443096160888672,0.48099929094314575,2.9991238117218018,1.249752402305603,-0.4691862463951111, 0.057596564292907715
85,92010442,0.7625555,0.21995033,-0.5512691,0.25735906,9.46985912322998,0.531826376914978,2.999087333679199,1.264262080192566,-0.4984615445137024, 0.081339530646801
86,92027109,0.76260465,0.21982218,-0.55134135,0.25716734,9.426979064941406,0.5893921256065369,2.9359188079833984,0.9549885392189026,-0.3284188210964203, -0.10795752704143524
87,92043776,0.76269794,0.219608,-0.5514159,0.25691357,9.40694522857666,0.5267574787139893,2.9338595867156982,0.5903918743133545,-0.08941392600536346, -0.04810064658522606
88,92060443,0.7629463,0.21906093,-0.5516091,0.25622773,9.425294876098633,0.4812144637107849,2.9590861797332764,0.7421215772628784,0.03015254996716976, 0.09351836889982224
89,92077110,0.76309055,0.21871056,-0.55173075,0.25583532,9.418188095092773,0.45901957154273987,2.9230620861053467,0.8926601409912109,-0.01969616487622261, 0.26142239570617676
90,92093777,0.76296717,0.21896164,-0.5516108,0.25624707,9.420475006103516,0.4827009439468384,2.958676815032959,1.1240452527999878,0.015220345929265022, 0.2039347141981125
91,92110444,0.76297027,0.21894225,-0.55159515,0.25628832,9.431724548339844,0.4825418293476105,2.967815637588501,1.1103808879852295,0.04262593388557434, 0.20488236844539642
92,92127111,0.7630855,0.21869594,-0.55165833,0.25601923,9.442212104797363,0.4546810984611511,2.9394054412841797,0.9633129239082336,0.12247353792190552, 0.14727944135665894
93,92143778,0.7630971,0.21868475,-0.5516182,0.25608048,9.418704986572266,0.4552568197250366,2.9331130981445312,0.8449565172195435,0.19959336519241333, 0.09814146161079407
94,92160445,0.76306874,0.21876943,-0.55152667,0.25628996,9.391803741455078,0.4122346043586731,2.947636842727661,0.8110068440437317,0.3013654053211212, 0.12048852443695068
95,92177112,0.76305115,0.21883832,-0.55145407,0.2564394,9.402539253234863,0.4366183578968048,2.9342761039733887,0.8394625782966614,0.20298703014850616, -0.009130926802754402
96,92193779,0.76305354,0.2188455,-0.55142,0.25649947,9.40483283996582,0.44543924927711487,2.9368743896484375,0.8526659607887268,0.09381291270256042, 0.017192523926496506
97,92210446,0.7629714,0.21903576,-0.551313,0.25681114,9.409438133239746,0.4580298960208893,2.950803756713867,0.8307798504829407,0.09668154269456863, 0.0017480668611824512
98,92227113,0.7629641,0.2190581,-0.55128574,0.25687227,9.42446517944336,0.47114378213882446,2.9849345684051514,0.7773902416229248,-0.007888711988925934, -0.05948549881577492
99,92243780,0.76277083,0.21944827,-0.55112535,0.25745723,9.396882057189941,0.47090765833854675,2.9594292640686035,0.7125260829925537,-0.1202516183257103, 0.03019096702337265
100,92260447,0.7625698,0.21985932,-0.55095625,0.25806287,9.423670768737793,0.4721955358982086,2.9745676517486572,0.91986083984375,-0.11182504147291183, 0.05865948647260666
101,92277114,0.76257235,0.21979618,-0.55100065,0.25801438,9.415736198425293,0.4677596092224121,2.9827427864074707,0.8540107011795044,-0.31180906295776367, 0.12301140278577805
102,92293781,0.7625684,0.21973762,-0.5510436,0.25798407,9.424189567565918,0.4613542854785919,2.9719064235687256,1.0479755401611328,-0.30799269676208496, 0.238832026720047
103,92310448,0.76259124,0.21962869,-0.5511155,0.25785598,9.39261245727539,0.5020394325256348,2.9459245204925537,0.9787060618400574,-0.37917041778564453, 0.11379081755876541
104,92327115,0.76256245,0.21962947,-0.55115056,0.25786564,9.39146900177002,0.5089513659477234,2.936447858810425,0.8640123605728149,-0.4436759650707245, 0.041780710220336914
105,92343782,0.76257914,0.21956056,-0.5511943,0.2577809,9.437315940856934,0.508167564868927,2.9236083030700684,1.0197761058807373,-0.2821495234966278, 0.04654467850923538
106,92360449,0.7625332,0.219643,-0.551166,0.2579073,9.406201362609863,0.5182281732559204,3.0109126567840576,0.6539242267608643,-0.20596453547477722, -0.09298690408468246
107,92377116,0.76204354,0.22063822,-0.55080163,0.2592802,9.409452438354492,0.4604688882827759,2.973870277404785,0.7136785984039307,-0.4373752474784851, -0.05587410181760788
108,92393783,0.7620249,0.22064765,-0.550825,0.25927672,9.4252290725708,0.45778152346611023,2.9553449153900146,1.0834107398986816,-0.37307459115982056, -0.014432755298912525
109,92410450,0.7621394,0.2203455,-0.55096465,0.25890067,9.426931381225586,0.4656485319137573,2.9586970806121826,0.9658868312835693,-0.3074035942554474, 0.182624951004982
110,92427117,0.7620839,0.22042203,-0.5509501,0.25902998,9.418472290039062,0.5122580528259277,2.9150054454803467,1.0333635807037354,-0.2870158851146698, 0.11590386927127838
111,92443784,0.7619922,0.22056259,-0.55090475,0.25927612,9.397329330444336,0.4812834560871124,2.959235429763794,0.8219051957130432,-0.25507691502571106, 0.1656949669122696
112,92460451,0.7619416,0.22061351,-0.5508997,0.2593922,9.409730911254883,0.44199803471565247,2.9387576580047607,0.989335298538208,-0.28308433294296265, 0.20470309257507324
113,92477118,0.76182824,0.22080769,-0.5508235,0.25972173,9.447061538696289,0.4488016963005066,2.989182472229004,1.010107159614563,-0.17374372482299805, 0.23867832124233246
114,92493785,0.76153153,0.22138551,-0.55059546,0.26058164,9.404448509216309,0.4928022027015686,2.9491477012634277,0.990615963935852,-0.1955273300409317, 0.23624512553215027
115,92510452,0.7615058,0.2214136,-0.55057013,0.26068664,9.434978485107422,0.507928729057312,2.965423345565796,0.7890952229499817,-0.06316091120243073, 0.14635735750198364
116,92527119,0.76142323,0.22157294,-0.5504919,0.26095766,9.376834869384766,0.44376522302627563,2.9480674266815186,0.8817747831344604,-0.06189308688044548, 0.10860424488782883
117,92543786,0.76135457,0.22168493,-0.55044657,0.26115867,9.37462043762207,0.43312686681747437,2.950070381164551,0.9673596024513245,-0.16653376817703247, 0.15107010304927826
118,92560453,0.7613444,0.22168846,-0.55046713,0.26114184,9.421737670898438,0.442144513130188,2.976531744003296,1.1201266050338745,-0.33789554238319397, -0.03969968110322952
119,92577120,0.7611978,0.22197436,-0.55038774,0.26149365,9.424797058105469,0.4675281047821045,2.9657142162323,1.2483820915222168,-0.44120439887046814, -0.05913972109556198
120,92593787,0.7611873,0.22197947,-0.55041605,0.2614598,9.415034294128418,0.4618232548236847,2.968670129776001,1.1934813261032104,-0.4058331847190857, -0.07856696099042892
121,92610454,0.7610959,0.22213225,-0.5503857,0.26166,9.450043678283691,0.47621995210647583,2.9826266765594482,1.2361392974853516,-0.41078928112983704, 0.06866123527288437
122,92627121,0.76114625,0.22200032,-0.55045795,0.26147363,9.422812461853027,0.5364317297935486,2.9733338356018066,1.0929642915725708,-0.3230913579463959, 0.024504950270056725
123,92643788,0.7610236,0.22223711,-0.5503576,0.26184037,9.42179012298584,0.5430256128311157,2.9603521823883057,0.5358496904373169,-0.16654656827449799, -0.022616012021899223
124,92660455,0.7609809,0.22229311,-0.5503237,0.26198813,9.385344505310059,0.5048496127128601,2.9534716606140137,0.5107108354568481,-0.11647374927997589, 0.09527283161878586
125,92677122,0.76121324,0.22176565,-0.5505229,0.2613411,9.399184226989746,0.4882919192314148,2.950993299484253,0.5163584351539612,-0.09845521301031113, 0.14645981788635254
126,92693789,0.7612527,0.221628,-0.55058193,0.26121813,9.427823066711426,0.442001610994339,2.9607276916503906,0.7100416421890259,-0.22595524787902832, 0.19347193837165833
127,92710456,0.76117843,0.221741,-0.5505527,0.2614001,9.419215202331543,0.44619351625442505,2.9778902530670166,1.0700922012329102,-0.3100801706314087, 0.1526452898979187
128,92727123,0.7610022,0.22208895,-0.5504273,0.2618815,9.4190673828125,0.42074623703956604,2.969481945037842,1.205941915512085,-0.2930477261543274, 0.07783059030771255
129,92743790,0.761089,0.22188662,-0.550517,0.261612,9.418336868286133,0.4825447201728821,2.9461686611175537,1.2050584554672241,-0.2427443414926529, 0.09531126171350479
130,92760457,0.7611355,0.22177216,-0.5505659,0.26147118,9.421588897705078,0.4976288974285126,2.956774950027466,1.0733578205108643,-0.2062462717294693, 0.07051816582679749
131,92777124,0.7614315,0.22114354,-0.5508145,0.26061648,9.404273986816406,0.5065230131149292,2.95410418510437,0.7717426419258118,-0.16764791309833527, -0.05755174160003662
132,92793791,0.7615371,0.22092602,-0.5508784,0.2603572,9.413339614868164,0.4754425287246704,2.9735236167907715,0.7154588103294373,-0.019273556768894196, -0.008080806583166122
133,92810458,0.76151615,0.220993,-0.5508227,0.26047987,9.424078941345215,0.4431171119213104,2.9265964031219482,0.762445330619812,0.024517755955457687, -0.057961538434028625
134,92827125,0.7613791,0.22130688,-0.5506742,0.26092786,9.404240608215332,0.446393758058548,2.939244508743286,1.0708093643188477,-0.009476698003709316, -0.019209522753953934
135,92843792,0.76126575,0.22156535,-0.550557,0.2612858,9.399383544921875,0.45846283435821533,2.9391872882843018,1.2307734489440918,-0.07628742605447769, -0.002138660289347172
136,92860459,0.7613445,0.2214178,-0.5505996,0.2610917,9.393095970153809,0.4875805377960205,2.991184949874878,1.1835565567016602,-0.049150772392749786, 0.014119000174105167
137,92877126,0.76128954,0.22154586,-0.5505398,0.2612695,9.414125442504883,0.4835851490497589,2.9783289432525635,1.1052072048187256,-0.12522049248218536, -0.024178387597203255
138,92893793,0.761144,0.2218571,-0.55039877,0.26172596,9.425422668457031,0.4649398922920227,2.9712562561035156,1.070975661277771,-0.07126732915639877, 0.0590052530169487
139,92910460,0.76110756,0.22189972,-0.5503897,0.2618152,9.414307594299316,0.4649599492549896,2.95310640335083,1.043787956237793,-0.26107025146484375, 0.14220809936523438
140,92927127,0.7610593,0.22196296,-0.55036306,0.2619579,9.384679794311523,0.4761863052845001,2.9508609771728516,0.7867005467414856,-0.20200738310813904, 0.14391136169433594
141,92943794,0.7611019,0.22184874,-0.55040514,0.26184234,9.427240371704102,0.5105107426643372,2.9602091312408447,0.7143445611000061,-0.18506455421447754, 0.05703307315707207
142,92960461,0.7611278,0.22175619,-0.55044806,0.2617547,9.429582595825195,0.478442907333374,2.960613250732422,0.7124363780021667,-0.26277345418930054, 0.0809297263622284
143,92977128,0.76107234,0.22186188,-0.5504107,0.2619048,9.417037010192871,0.4455321133136749,2.9730141162872314,0.8288077116012573,-0.25511524081230164, -0.05061069130897522
144,92993795,0.7610297,0.22190905,-0.55041355,0.26198322,9.402069091796875,0.4594172537326813,2.9286694526672363,0.9875166416168213,-0.37908074259757996, 0.08829336613416672
145,93010462,0.761058,0.22179753,-0.550467,0.26188305,9.423105239868164,0.48050543665885925,2.9475364685058594,0.9634537100791931,-0.2743632197380066, 0.22571830451488495
146,93027129,0.7610299,0.22182465,-0.5504615,0.2619532,9.421244621276855,0.49896201491355896,2.9489660263061523,0.9751331210136414,-0.2490706890821457, 0.12302421033382416
147,93043796,0.76101327,0.22183895,-0.55046475,0.26198262,9.424674987792969,0.44684645533561707,2.9631545543670654,0.9643885493278503,-0.27820512652397156, 0.030908124521374702
148,93060463,0.7613264,0.22116031,-0.55076236,0.26101944,9.407707214355469,0.4568852186203003,2.935375213623047,1.1975153684616089,-0.38977402448654175, -0.011589745990931988
149,93077130,0.7608768,0.22210786,-0.5503842,0.26232058,9.410078048706055,0.5004937052726746,2.9352011680603027,1.0632919073104858,-0.23372867703437805, -0.040314387530088425
150,93093797,0.76083785,0.22217211,-0.55035675,0.2624366,9.419817924499512,0.4991801977157593,2.963966131210327,0.8227502703666687,-0.20372340083122253, 0.035275090485811234
151,93110464,0.7608364,0.22215149,-0.5503582,0.2624551,9.443404197692871,0.4704645574092865,2.9688172340393066,0.6483022570610046,-0.17109282314777374, 0.05480477213859558
152,93127131,0.760759,0.22229165,-0.5502984,0.26268584,9.405640602111816,0.45568546652793884,2.970909833908081,0.8539081811904907,-0.19228732585906982, 0.08402885496616364
153,93143798,0.76092774,0.22192645,-0.5504384,0.2622121,9.445284843444824,0.46338462829589844,2.8974997997283936,0.9462803602218628,-0.15385548770427704, 0.07457777857780457
154,93160465,0.7609542,0.22187497,-0.55042565,0.26220584,9.408625602722168,0.4489600658416748,2.923551559448242,1.0481292009353638,0.06170739233493805, 0.1767212152481079
155,93177132,0.76087546,0.22204456,-0.55031985,0.2625129,9.388004302978516,0.48098504543304443,2.9271023273468018,0.9149048328399658,0.0849125012755394, 0.1563078910112381
156,93193799,0.76086515,0.22206527,-0.5502762,0.26261666,9.370718955993652,0.46257641911506653,2.9470722675323486,1.2001278400421143,0.0835934579372406, 0.26623761653900146
157,93210466,0.7608344,0.22211112,-0.5502473,0.2627276,9.412032127380371,0.4850296080112457,3.015756607055664,1.0071746110916138,-0.1251436471939087, 0.15690980851650238
158,93227133,0.7607741,0.22219676,-0.5502356,0.26285437,9.420467376708984,0.46693435311317444,3.0150508880615234,1.100661039352417,-0.3886854946613312, 0.11788886785507202
159,93243800,0.7606189,0.22246459,-0.5501739,0.2632056,9.415218353271484,0.48667624592781067,2.999382972717285,0.8582494854927063,-0.5940737724304199, -0.011909904889762402
160,93260467,0.7605809,0.22248264,-0.5502321,0.2631786,9.408119201660156,0.4838930666446686,2.9382236003875732,0.7901197075843811,-0.7497349381446838, -0.12087912857532501
161,93277134,0.76050496,0.22255763,-0.55027056,0.26325423,9.393135070800781,0.44510650634765625,2.921276330947876,0.7328881621360779,-0.7784211039543152, -0.02341000735759735
162,93293801,0.76055336,0.22237343,-0.5504144,0.26296896,9.396612167358398,0.399590402841568,2.955447196960449,0.8965405821800232,-0.7728504538536072, 0.014413544908165932
163,93310468,0.76049024,0.22243047,-0.55048144,0.26296288,9.40671157836914,0.41393330693244934,2.951167583465576,1.3086744546890259,-0.9192269444465637, -0.04374649003148079
164,93327135,0.76039034,0.22258931,-0.5505127,0.26305223,9.42516040802002,0.44028759002685547,2.9330058097839355,1.4356751441955566,-0.956314206123352, -0.19436198472976685
165,93343802,0.76040983,0.22249077,-0.5506462,0.26279953,9.412291526794434,0.49490511417388916,2.9340248107910156,1.4344969987869263,-0.9402934908866882, -0.14121563732624054
166,93360469,0.76036114,0.22254907,-0.5506957,0.26278764,9.46176815032959,0.5412319302558899,2.976259231567383,1.2796553373336792,-0.7837487459182739, -0.1410619616508484
167,93377136,0.76048887,0.2222426,-0.5508519,0.2623494,9.458174705505371,0.5401312112808228,2.9391329288482666,1.0208518505096436,-0.47708776593208313, 0.004053209442645311
168,93393803,0.76023805,0.22275193,-0.55063504,0.2630987,9.460999488830566,0.5075675249099731,2.9478068351745605,0.7974834442138672,-0.14731143414974213, 0.09214808791875839
169,93410470,0.76033086,0.22254565,-0.55070215,0.2628643,9.413270950317383,0.48989763855934143,2.9483256340026855,0.800684928894043,-0.10201537609100342, 0.09552895277738571
170,93427137,0.7604873,0.2222271,-0.5507982,0.26247957,9.409939765930176,0.5033532381057739,2.8993892669677734,0.8613614439964294,0.031061800196766853, 0.0864364504814148
171,93443804,0.7604986,0.22221522,-0.55074805,0.26256225,9.407449722290039,0.48962000012397766,2.9397449493408203,0.9062092304229736,0.20908285677433014, 0.23970285058021545
172,93460471,0.76054573,0.22212073,-0.5507341,0.2625351,9.44205093383789,0.4963647425174713,2.934990167617798,1.173004150390625,0.20105329155921936, 0.34649503231048584
173,93477138,0.7605385,0.22215243,-0.55066174,0.2626808,9.443185806274414,0.49903517961502075,2.9655816555023193,1.0668264627456665,0.25428926944732666, 0.2895451486110687
174,93493805,0.7605969,0.22202937,-0.55066335,0.26261285,9.435701370239258,0.4852480888366699,2.963789701461792,0.9408121705055237,0.1568201780319214, 0.28469157218933105
175,93510472,0.760735,0.22175296,-0.5507259,0.26231474,9.41965389251709,0.49786141514778137,2.9736647605895996,0.8411145806312561,0.15778063237667084, 0.1656949520111084
176,93527139,0.760968,0.22127159,-0.5508795,0.26172185,9.403215408325195,0.49772223830223083,2.9607880115509033,0.47480177879333496,0.0684947669506073, 0.02894875593483448
177,93543806,0.76092863,0.22137038,-0.5508041,0.26191163,9.425869941711426,0.46867626905441284,2.9521663188934326,0.2821815013885498,0.01790967956185341, -0.09321741759777069
178,93560473,0.7609868,0.22125632,-0.55083066,0.26178315,9.397940635681152,0.42009690403938293,2.948664665222168,0.45100757479667664,-0.1027069240808487, -0.10584447532892227
179,93577140,0.7608841,0.22145548,-0.550743,0.26209766,9.41415786743164,0.40142351388931274,2.9324076175689697,0.8443801999092102,-0.17804667353630066, 0.09883300215005875
180,93593807,0.7607843,0.22164103,-0.5506765,0.26237002,9.420215606689453,0.4302544593811035,2.9489376544952393,0.9655282497406006,-0.2956986427307129, 0.07566631585359573
181,93610474,0.7608453,0.22145091,-0.5507862,0.26212335,9.40598201751709,0.46918877959251404,2.957481861114502,1.227443814277649,-0.478304386138916, 0.22902238368988037
182,93627141,0.7606942,0.22174804,-0.5506917,0.2625087,9.41795539855957,0.5015242695808411,2.9295172691345215,1.0611276626586914,-0.4270917475223541, -0.03184938803315163
183,93643808,0.76060355,0.2218919,-0.55065393,0.26272884,9.420336723327637,0.4509469270706177,2.974628448486328,0.9391087889671326,-0.3921048045158386, 0.13013170659542084
184,93660475,0.76070523,0.22164449,-0.55075943,0.26242208,9.412824630737305,0.4824676811695099,2.920711040496826,0.915570855140686,-0.2804078459739685, 0.13748256862163544
185,93677142,0.7607244,0.22155605,-0.55078965,0.26237768,9.402989387512207,0.4844798743724823,2.939910650253296,0.511760950088501,-0.21158647537231445, 0.17337875068187714
186,93693809,0.76083535,0.22126244,-0.5509027,0.26206613,9.384136199951172,0.4716731309890747,2.9310739040374756,0.5087515115737915,-0.21350744366645813, 0.24917955696582794
187,93710476,0.7608471,0.22117685,-0.55093503,0.26203647,9.420382499694824,0.44687777757644653,2.9253580570220947,0.7502791881561279,-0.22554543614387512, 0.3112519085407257
188,93727143,0.7611664,0.22043626,-0.55124044,0.26108953,9.42150592803955,0.4531043469905853,2.9568707942962646,1.0100815296173096,-0.29135724902153015, 0.3612094819545746
189,93743810,0.76113355,0.22044834,-0.5512549,0.26114443,9.425634384155273,0.4387902319431305,2.9575047492980957,1.257372260093689,-0.37121766805648804, 0.3006226718425751
190,93760477,0.76100504,0.22067249,-0.5512092,0.2614259,9.392406463623047,0.4431218206882477,2.949514150619507,1.4417709112167358,-0.5607644319534302, 0.13414010405540466
191,93777144,0.7607812,0.22106281,-0.5511171,0.26194125,9.37856674194336,0.4233124256134033,2.9608819484710693,1.3310344219207764,-0.7290782332420349, 0.18321405351161957
192,93793811,0.7604281,0.22096905,-0.5515948,0.2620401,9.231266021728516,-0.29274848103523254,3.4536638259887695,-3.9958245754241943,-3.980931043624878, 0.8220460414886475
193,93810478,0.7594,0.22163686,-0.55247486,0.26260343,9.735735893249512,-1.671401023864746,2.7421202659606934,4.666860103607178,-9.209549903869629, 2.949335813522339
194,93827145,0.7583827,0.22303495,-0.5524872,0.2643282,9.48309326171875,-0.1663454920053482,2.758216619491577,17.823789596557617,-4.005588054656982, 5.809038162231445
195,93843812,0.7574742,0.22448124,-0.552714,0.26523235,9.348958015441895,1.149291753768921,3.0611066818237305,13.578717231750488,-6.087208271026611, 1.191996693611145
196,93860479,0.75725484,0.22537477,-0.5529352,0.26463968,9.339078903198242,1.1376447677612305,2.8965837955474854,12.977204322814941,-4.294229030609131, -3.0177037715911865
197,93877146,0.75700504,0.22672464,-0.5528813,0.26431382,9.404422760009766,0.9233573079109192,2.6760454177856445,8.520483016967773,-3.8201093673706055, -6.217907428741455
198,93893813,0.7572116,0.22726113,-0.55329204,0.2623946,9.476550102233887,0.6322572231292725,3.156691312789917,9.37602710723877,-4.788079261779785, -7.721336841583252
199,93910480,0.7569319,0.22884484,-0.5533323,0.2617397,9.793696403503418,0.21094122529029846,4.014066696166992,7.062187671661377,-5.414041519165039, -8.981675148010254
200,93927147,0.75730544,0.22940235,-0.5536813,0.25942224,10.455306053161621,-0.7543842792510986,4.087864398956299,8.215835571289062,-4.472082138061523, -10.196703910827637
201,93943814,0.75734466,0.23130892,-0.5529234,0.2592314,11.768569946289062,-2.4593958854675293,4.166052341461182,12.651118278503418,0.10572292655706406, -9.367316246032715
202,93960481,0.7583052,0.23319212,-0.5505694,0.25974622,12.744168281555176,-2.2950148582458496,4.83329963684082,13.595261573791504,12.845782279968262, -10.846996307373047
203,93977148,0.7601567,0.23640212,-0.54586476,0.26135758,13.163461685180664,-1.909769058227539,5.278168678283691,26.363380432128906,27.71719741821289, -16.014371871948242
204,93993815,0.7644186,0.2333922,-0.5419931,0.25968462,10.954422950744629,-2.5101356506347656,5.311293125152588,-28.3309383392334,37.814178466796875, -14.383946418762207
205,94010482,0.77022123,0.2181496,-0.5444746,0.25043482,9.200701713562012,-3.8077919483184814,2.3889880180358887,-127.48046875,20.33397102355957, 0.8887425065040588
206,94027149,0.77374697,0.20121346,-0.5488546,0.24410541,8.688172340393066,-4.326770782470703,-0.7638381719589233,-159.01539611816406,7.189321517944336, 18.072206497192383
207,94043816,0.77458566,0.18528144,-0.55486965,0.24043225,10.116798400878906,-4.383436679840088,-1.2644052505493164,-127.8786392211914,-8.159327507019043, 39.79864501953125
208,94060483,0.7729857,0.17333035,-0.5602074,0.24211094,8.375285148620605,-4.88627815246582,1.2236579656600952,-64.40029907226562,-12.712445259094238, 61.9146614074707
209,94077150,0.7696868,0.16538648,-0.56440055,0.24835788,8.428460121154785,-1.911365270614624,2.3546130657196045,-20.12137794494629,-14.30380916595459, 72.44944763183594
210,94093817,0.7654644,0.15896909,-0.56821865,0.25675088,7.889700889587402,-0.6841318011283875,1.9326834678649902,-1.037222981452942,-16.105175018310547, 79.27424621582031
211,94110484,0.760212,0.15581676,-0.5709349,0.26801574,7.607000350952148,-0.9303560853004456,2.18158221244812,27.66598892211914,-16.812578201293945, 81.36356353759766
212,94127151,0.7541559,0.15672144,-0.5716365,0.2826996,7.203569412231445,-1.0085757970809937,3.0222396850585938,62.08720397949219,-12.868454933166504, 81.13434600830078
213,94143818,0.74838984,0.15923916,-0.57087135,0.2977608,6.877580642700195,-0.7489732503890991,3.4759998321533203,83.17430877685547,-7.681573390960693, 77.3302230834961
214,94160485,0.74254674,0.16371313,-0.5686809,0.31372705,7.330893039703369,-0.351428747177124,2.9672164916992188,97.28485107421875,-3.5375399589538574, 72.14366149902344
215,94177152,0.73729867,0.16977352,-0.56490856,0.32931158,8.315142631530762,1.1396698951721191,3.09735369682312,106.71317291259766,2.9127354621887207, 61.005706787109375
216,94193819,0.73306906,0.17609832,-0.5603258,0.34297878,8.715115547180176,2.024562120437622,3.353034496307373,101.20533752441406,8.067594528198242, 47.13555145263672
217,94210486,0.72998136,0.18236025,-0.5552043,0.35442945,8.877190589904785,2.2606067657470703,3.4678852558135986,92.17912292480469,12.582676887512207, 33.03811264038086
218,94227153,0.727781,0.18849151,-0.5499145,0.36386836,9.451778411865234,1.5611587762832642,3.257167339324951,83.08116912841797,14.558908462524414, 21.25542449951172
219,94243820,0.72603154,0.19355856,-0.5456156,0.37110245,9.589369773864746,0.5762131214141846,2.5933570861816406,66.3060531616211,11.091105461120605, 14.556856155395508
220,94260487,0.7240313,0.1996023,-0.5413849,0.37794206,9.367059707641602,0.05633862316608429,2.3111202716827393,69.83455657958984,6.815627574920654, 9.759411811828613
221,94277154,0.7218273,0.20579205,-0.5375335,0.38428202,9.078910827636719,0.05980141460895538,2.5805063247680664,67.977294921875,3.1376142501831055, 7.855525970458984
222,94293821,0.71954757,0.21103005,-0.5347928,0.38950506,9.028542518615723,0.08391693979501724,2.680929660797119,56.2785758972168,-1.6963870525360107, 7.670354843139648
223,94310488,0.7170907,0.21546866,-0.5329335,0.39412704,9.071907997131348,-0.4518014192581177,2.1806509494781494,47.98952102661133,-5.418514728546143, 9.456103324890137
224,94327155,0.71415496,0.22003284,-0.5316385,0.39865875,9.108501434326172,-0.7667544484138489,1.7115678787231445,47.44845962524414,-10.383851051330566, 10.72400951385498
225,94343822,0.7107103,0.22535379,-0.53048676,0.4033491,9.197711944580078,-0.36015647649765015,2.007619619369507,52.12031555175781,-14.714536666870117, 10.371326446533203
226,94360489,0.7075605,0.229988,-0.5302464,0.40657425,9.117987632751465,-0.18867157399654388,1.721373200416565,40.42405700683594,-18.403762817382812, 6.350002765655518
227,94377156,0.7045323,0.23335221,-0.53148407,0.40829608,9.371994972229004,0.04809010401368141,0.9247437119483948,24.4298095703125,-23.912181854248047, 5.709498405456543
228,94393823,0.701622,0.23584884,-0.5337033,0.4089777,9.379859924316406,0.975046694278717,0.8156679272651672,13.469809532165527,-27.364431381225586, 5.1393656730651855
229,94410490,0.69879967,0.23647727,-0.53780186,0.40807727,9.285622596740723,0.8913959264755249,1.1709645986557007,-6.798830032348633,-33.314231872558594, 7.26121187210083
230,94427157,0.6962725,0.23658483,-0.54240257,0.40624142,9.36747932434082,0.947965681552887,1.8297759294509888,-14.675650596618652,-34.6104621887207, 4.773123741149902
231,94443824,0.69396234,0.2369995,-0.5470255,0.40374577,9.487428665161133,0.7493851184844971,1.938259243965149,-16.106403350830078,-35.789737701416016, -0.003496152115985751
232,94460491,0.69165146,0.2383954,-0.55112505,0.4013068,9.592872619628906,1.0864747762680054,2.2981619834899902,-9.783151626586914,-35.886898040771484, -4.187325477600098
233,94477158,0.6894353,0.24031085,-0.5547318,0.3990019,9.105372428894043,0.7174175977706909,2.770866870880127,-5.628364086151123,-34.380165100097656, -6.485433101654053
234,94493825,0.68710035,0.24256207,-0.55799305,0.39711577,9.470501899719238,0.5770133137702942,1.0414296388626099,-1.3203657865524292,-33.43856430053711, -5.946051120758057
235,94510492,0.6845976,0.24519518,-0.5612296,0.39525557,10.590256690979004,1.1898283958435059,-0.3560214638710022,0.9202811121940613,-34.901336669921875, -6.796436786651611
236,94527159,0.67944133,0.24700978,-0.5687279,0.39229345,12.8891019821167,-1.9937537908554077,-8.370044708251953,-14.306235313415527,-64.70258331298828, 5.6796345710754395
237,94543826,0.67098373,0.25538713,-0.57574034,0.39125624,13.091050148010254,0.844862699508667,-8.612494468688965,30.85548210144043,-89.26586151123047, -2.9317221641540527
238,94560493,0.6582707,0.26227972,-0.5922676,0.383547,16.94702911376953,-1.9873095750808716,-17.822017669677734,-20.494766235351562,-157.2400360107422, 0.42801976203918457
239,94577160,0.64388704,0.27158684,-0.6102244,0.37319732,18.366792678833008,-1.2012426853179932,-8.10311508178711,-20.981197357177734,-180.7344970703125, -14.352069854736328
240,94593827,0.63487506,0.27746937,-0.62490416,0.35977682,5.6392903327941895,-0.1650393009185791,12.556941986083984,-50.627662658691406,-140.18801879882812, -33.41557312011719
241,94610494,0.6235316,0.2796022,-0.6431268,0.34557042,6.369276523590088,-2.9612228870391846,-2.806525707244873,-74.72898864746094,-158.4875946044922, -8.168468475341797
242,94627161,0.61080396,0.28588015,-0.6574981,0.33598742,7.144373416900635,-3.468759298324585,-2.9350099563598633,-24.676761627197266,-148.94754028320312, -10.869816780090332
243,94643828,0.5986484,0.29059643,-0.6715811,0.32581082,10.142245292663574,-0.22734631597995758,-1.5393133163452148,-34.37681579589844,-142.60816955566406, -8.30068302154541
244,94660495,0.5904506,0.29254183,-0.68372464,0.31354108,14.01839828491211,3.99481201171875,3.8747191429138184,-58.9989013671875,-114.31471252441406, -16.805004119873047
245,94677162,0.58442736,0.29277846,-0.6954442,0.29846746,15.50096607208252,0.12008334696292877,-2.825695753097534,-82.56918334960938,-104.60205841064453, -25.43804359436035
246,94693829,0.57385975,0.30022117,-0.70395637,0.29154393,11.028038024902344,-0.9074592590332031,-2.8502540588378906,1.0872515439987183,-111.81909942626953, -24.201068878173828
247,94710496,0.5625356,0.30627498,-0.7117508,0.2883755,6.4148850440979,-0.6233861446380615,-4.086933135986328,16.795438766479492,-102.09120178222656, -2.651078939437866
248,94727163,0.55323994,0.30672958,-0.72060156,0.28385925,6.411464214324951,-0.32540708780288696,-4.538744926452637,-17.80937957763672,-87.89009857177734, 17.723453521728516
249,94743830,0.54483235,0.3054833,-0.72881097,0.28048623,8.778806686401367,-0.7605937719345093,-3.977447032928467,-19.199970245361328,-75.22238159179688, 27.422054290771484
250,94760497,0.5364974,0.30654326,-0.73481584,0.27972743,11.456818580627441,2.145925760269165,-4.019840240478516,6.65846061706543,-65.51287841796875, 20.878999710083008
251,94777164,0.5295667,0.30956396,-0.73911417,0.27827948,13.043329238891602,0.7828359007835388,-2.679070472717285,10.779278755187988,-57.34290313720703, 2.245537281036377
252,94793831,0.523031,0.31498832,-0.7419049,0.27712467,12.737578392028809,-3.579932689666748,-2.1391756534576416,23.080286026000977,-53.894569396972656, -12.814875602722168
253,94810498,0.5164635,0.32011804,-0.7447079,0.27604395,11.491288185119629,-4.621881008148193,-1.3135141134262085,22.403125762939453,-53.4711799621582, -11.089666366577148
254,94827165,0.51086277,0.3217013,-0.7490243,0.27292895,12.561538696289062,-3.0261311531066895,-2.5531532764434814,-5.661677360534668,-51.76203155517578, 1.1759862899780273
255,94843832,0.50498956,0.32397035,-0.75321954,0.26960963,14.91973876953125,-1.6080981492996216,-0.36295729875564575,-3.506338596343994,-54.572383880615234, -2.915959596633911
256,94860499,0.5013158,0.32546517,-0.7572958,0.26316944,15.144562721252441,-2.445669174194336,-1.7267735004425049,-27.059646606445312,-48.5081787109375, -14.104155540466309
257,94877166,0.4976548,0.32989636,-0.7595493,0.25805637,12.091644287109375,-2.3597893714904785,-2.9229323863983154,-6.797281742095947,-44.67930603027344, -28.97248077392578
258,94893833,0.49630645,0.3313876,-0.7622631,0.25063363,10.322951316833496,-1.4837602376937866,-1.0195035934448242,-35.02003479003906,-34.2889518737793, -24.635923385620117
259,94910500,0.49775022,0.32692596,-0.76725,0.23810022,7.12650728225708,-0.1702340841293335,-1.2885843515396118,-92.4233169555664,-28.94280433654785, -10.525711059570312
260,94927167,0.49937665,0.3194344,-0.77354085,0.22409633,5.857555866241455,1.76871919631958,-2.4220728874206543,-113.10107421875,-30.87605857849121, 3.096334934234619
261,94943834,0.5004283,0.30964443,-0.78107876,0.20882511,6.7097673416137695,2.850337505340576,-2.8550567626953125,-128.36219787597656,-37.49239730834961, 14.705822944641113
262,94960501,0.500794,0.3005268,-0.78817445,0.19408816,9.335914611816406,4.1555094718933105,-2.1527187824249268,-121.03164672851562,-39.52535629272461, 13.122982025146484
263,94977168,0.4998129,0.2932358,-0.79485065,0.18003482,10.135957717895508,4.550256252288818,-1.3412082195281982,-107.62332153320312,-46.5268669128418, 6.687383651733398
264,94993835,0.49620923,0.28942066,-0.80136955,0.16678984,9.626416206359863,4.300690174102783,0.048311397433280945,-85.70165252685547,-63.160945892333984, -6.429506778717041
265,95010502,0.48939398,0.29028374,-0.8076427,0.15473315,9.273372650146484,2.6283562183380127,0.8468185067176819,-56.44361114501953,-83.22634887695312, -24.820104598999023
266,95027169,0.47950387,0.29515213,-0.8136868,0.14448282,10.941383361816406,0.390872985124588,1.8691816329956055,-26.49463653564453,-100.40751647949219, -38.11391830444336
267,95043836,0.46734717,0.30367932,-0.8190942,0.13583231,16.743953704833984,-2.632101535797119,5.436446189880371,-0.22247101366519928,-111.6571273803711, -52.391807556152344
268,95060503,0.45664933,0.31040257,-0.8249982,0.12041428,21.980714797973633,-7.512229919433594,10.001388549804688,-47.6577033996582,-118.00623321533203, -64.47933959960938
269,95077170,0.4464233,0.31674442,-0.8312046,0.097355016,22.572298049926758,-9.555672645568848,9.481486320495605,-93.54637908935547,-133.0647430419922, -86.44609832763672
270,95093837,0.43507585,0.31945202,-0.83904827,0.06824523,21.921480178833008,-10.378713607788086,2.269040107727051,-138.06365966796875,-156.0262451171875, -80.44298553466797
271,95110504,0.4216608,0.31784645,-0.8483564,0.03830688,27.60984992980957,-13.224466323852539,2.6668882369995117,-152.081298828125,-172.6517333984375, -54.424869537353516
272,95127171,0.4121067,0.31431434,-0.85503936,0.016810583,20.628477096557617,-13.466683387756348,15.911731719970703,-116.45643615722656,-124.20110321044922, -26.17007827758789
273,95143838,0.4062937,0.31373534,-0.8581071,0.012162189,14.629620552062988,-9.076502799987793,12.045541763305664,-16.910993576049805,-56.766380310058594, -4.666038513183594
274,95160505,0.4067139,0.311614,-0.8585576,0.018963004,12.208742141723633,-8.280202865600586,10.401634216308594,32.96824264526367,11.492547988891602, 29.896076202392578
275,95177172,0.41315556,0.3114483,-0.85461336,0.04402764,8.551816940307617,-4.15195369720459,11.574047088623047,133.808837890625,97.62165832519531, 59.03736114501953
276,95193839,0.4290764,0.30895504,-0.84545004,0.07519664,6.621929168701172,-1.037550449371338,10.463985443115234,144.3567657470703,181.38475036621094, 76.06938171386719
277,95210506,0.4532558,0.30333588,-0.83080846,0.11092265,6.453067302703857,-0.22154206037521362,6.7344865798950195,146.98492431640625,256.4181823730469, 91.973388671875
278,95227173,0.48493943,0.29463553,-0.8096369,0.15003935,8.551421165466309,1.4409133195877075,3.3044488430023193,146.1409149169922,328.78228759765625, 101.03797149658203
279,95243840,0.5215654,0.28360862,-0.7822624,0.18868403,9.594404220581055,3.734663248062134,0.21285460889339447,132.20140075683594,378.2281494140625, 95.02183532714844
280,95260507,0.562468,0.26702154,-0.75064975,0.22102995,11.761430740356445,2.544053792953491,-2.1419777870178223,75.57025909423828,411.2802429199219, 88.81851196289062
281,95277174,0.60361236,0.24809209,-0.7143953,0.25247177,14.966765403747559,-1.025953769683838,-5.811153888702393,68.48284149169922,432.41717529296875, 88.7255859375
282,95293841,0.6424979,0.23100805,-0.6725687,0.28545266,18.074874877929688,0.7502874135971069,-7.475041389465332,97.26490783691406,444.0604553222656, 80.57157135009766
283,95310508,0.6781318,0.21276942,-0.6290234,0.31495425,20.857240676879883,-1.0725585222244263,-10.176328659057617,84.62875366210938,433.6147766113281, 74.38948059082031
284,95327175,0.70807844,0.19788726,-0.5843358,0.34353682,22.04009246826172,2.1915290355682373,-11.575100898742676,107.0802001953125,406.16455078125, 66.37653350830078
285,95343842,0.7333824,0.18391854,-0.5419222,0.36693966,21.226898193359375,2.678814172744751,-11.851215362548828,91.62557983398438,367.79052734375, 51.80427551269531
286,95360509,0.7532509,0.1738628,-0.5026228,0.38698214,19.88938331604004,-0.11190254986286163,-13.301280975341797,97.8471450805664,318.34576416015625, 38.19089126586914
287,95377176,0.7682776,0.16470924,-0.4702809,0.4018164,17.950786590576172,-0.19013769924640656,-13.822216987609863,71.81031036376953,257.6739501953125, 29.436817169189453
288,95393843,0.77897644,0.15743035,-0.44583932,0.41187248,15.886686325073242,0.4836384654045105,-16.53921127319336,49.36554718017578,192.11123657226562, 19.132539749145508
289,95410510,0.78485805,0.15301992,-0.43010557,0.419037,13.455265045166016,-0.8535102605819702,-18.091442108154297,36.46112823486328,120.27686309814453, 18.01397705078125
290,95427177,0.78548205,0.15319319,-0.42424178,0.42375565,11.382848739624023,0.03552379459142685,-17.998897552490234,31.135936737060547,36.51608657836914, 16.830394744873047
291,95443844,0.78139544,0.15808336,-0.4283543,0.42537457,10.419509887695312,-1.736109733581543,-15.916123390197754,23.52969741821289,-47.337074279785156, 10.615848541259766
292,95460511,0.77293265,0.16943735,-0.43869376,0.42592716,11.39793872833252,-3.7115118503570557,-11.842829704284668,41.76277160644531,-113.0665283203125, 5.414783000946045
293,95477178,0.76154554,0.18035296,-0.45517626,0.42465976,12.0548734664917,-4.135087966918945,-7.800049304962158,19.48256492614746,-154.8043212890625, 12.72355842590332
294,95493845,0.74729997,0.1951015,-0.47194487,0.42514294,12.778162002563477,-0.4052121937274933,-5.529792308807373,47.8524055480957,-173.82342529296875, 18.510759353637695
295,95510512,0.732874,0.20840746,-0.48760206,0.42627048,13.390402793884277,2.276190757751465,12.937503814697266,46.05278015136719,-163.24098205566406, 25.548391342163086
296,95527179,0.7184902,0.21851759,-0.50392807,0.42670664,15.455769538879395,6.285046577453613,4.9004974365234375,25.540851593017578,-158.30157470703125, 33.70869064331055
297,95543846,0.70715374,0.22125283,-0.5270192,0.4162111,18.238901138305664,8.923721313476562,-0.11053404211997986,-73.28726959228516,-175.9173126220703, 6.739801406860352
298,95560513,0.6966245,0.21965484,-0.5513314,0.40311268,12.884745597839355,-1.5197117328643799,-0.566270649433136,-108.59754180908203,-170.302978515625, 9.728087425231934
299,95577180,0.68222934,0.22534077,-0.5683095,0.4010101,17.662519454956055,-6.267427921295166,-3.9922521114349365,-5.77783203125,-153.27529907226562, 34.46109390258789
300,95593847,0.67088646,0.22893323,-0.5831182,0.39683005,10.589651107788086,-1.3493307828903198,2.6885006427764893,-22.341840744018555,-128.3423309326172, 21.009265899658203
301,95610514,0.6612284,0.23243265,-0.5936403,0.3954031,11.8806734085083,-5.225761413574219,1.467482089996338,-2.659844160079956,-97.2569580078125, 22.743513107299805
302,95627181,0.653833,0.23486878,-0.60206026,0.39352584,10.535454750061035,-3.565685749053955,0.5628877878189087,-7.180469512939453,-76.28536224365234, 15.41613483428955
303,95643848,0.6487274,0.2364976,-0.6083837,0.39126852,10.133346557617188,-3.3462038040161133,-1.2094568014144897,-10.371098518371582,-55.79351806640625, 7.410332679748535
304,95660515,0.64515173,0.2381498,-0.61256164,0.3896566,10.709709167480469,-2.5739738941192627,-0.6374049186706543,-4.251961708068848,-38.77194595336914, 2.5364840030670166
305,95677182,0.6427355,0.23923616,-0.61561745,0.38816565,10.912361145019531,-0.8091331124305725,-0.8851073980331421,-5.131749153137207,-27.15203094482422, 0.4891846776008606
306,95693849,0.64107805,0.23940907,-0.618425,0.38633224,10.403485298156738,-0.5021421313285828,-0.7167060375213623,-11.195806503295898,-20.92110824584961, 0.44525840878486633
307,95710516,0.64093035,0.23551612,-0.6229993,0.3815918,10.507286071777344,-0.25103792548179626,0.22681640088558197,-48.65191650390625,-16.242765426635742, 3.874962329864502
308,95727183,0.64185846,0.2291455,-0.62863904,0.37459713,10.610241889953613,-0.5338064432144165,-0.14350992441177368,-73.76444244384766,-13.487045288085938, 3.54217267036438
309,95743850,0.643017,0.2231111,-0.6341237,0.36693034,9.939736366271973,-1.3581609725952148,-0.5978612303733826,-75.14712524414062,-13.733210563659668, -1.6293853521347046
310,95760517,0.6436589,0.21882077,-0.6389498,0.35995045,9.163009643554688,-1.7870832681655884,-0.6013765335083008,-61.98316192626953,-16.410934448242188, -5.851421356201172
311,95777184,0.6439668,0.21586436,-0.64324,0.3534851,9.386026382446289,-1.2187378406524658,-0.2431107759475708,-51.989139556884766,-18.02595329284668, -9.388859748840332
312,95793851,0.64373904,0.21382234,-0.6472474,0.34778014,9.089031219482422,-3.5102248191833496,-0.07786431908607483,-43.095523834228516,-20.241830825805664, -9.146677017211914
313,95810518,0.64317644,0.21263134,-0.65104735,0.342417,9.445374488830566,-2.8618810176849365,0.6987341642379761,-36.815818786621094,-22.355365753173828, -10.967281341552734
314,95827185,0.6420423,0.21131279,-0.6557692,0.33629686,9.340642929077148,-2.138702630996704,1.3484442234039307,-42.10800552368164,-29.831941604614258, -11.072197914123535
315,95843852,0.64028203,0.20875838,-0.662451,0.3280514,8.955704689025879,-2.6569669246673584,1.021963357925415,-60.775535583496094,-41.597633361816406, -10.584155082702637
316,95860519,0.63718283,0.2070029,-0.67024213,0.3192547,8.555286407470703,-3.038306713104248,1.0860594511032104,-60.35292434692383,-55.22935485839844, -12.048965454101562
317,95877186,0.6324877,0.20746225,-0.6784593,0.31082475,9.164172172546387,-1.5096794366836548,0.3665034770965576,-47.6247444152832,-68.85025787353516, -16.571775436401367
318,95893853,0.62617636,0.2098326,-0.68702036,0.30311128,9.826935768127441,-1.132813811302185,1.0548009872436523,-34.403648376464844,-80.98690795898438, -18.419065475463867
319,95910520,0.6179727,0.2143817,-0.6956923,0.29692206,10.03171157836914,-1.4295216798782349,0.6813977360725403,-15.32436752319336,-92.81166076660156, -18.036060333251953
320,95927187,0.6078086,0.22100325,-0.70455337,0.29211468,10.04368782043457,-0.4066007137298584,0.2375287562608719,2.594292640686035,-105.24414825439453, -17.808799743652344
321,95943854,0.5962505,0.22860973,-0.7139922,0.28712082,10.775561332702637,0.6488341093063354,0.06580857932567596,6.770994663238525,-116.7247085571289, -19.6715145111084
322,95960521,0.58385813,0.23653755,-0.7240786,0.28083783,11.851288795471191,0.6840661764144897,-0.12519890069961548,1.8125817775726318,-126.19445037841797, -23.829185485839844
323,95977188,0.57121384,0.24349588,-0.73514307,0.2720098,12.173497200012207,-0.034972164779901505,0.02874809503555298,-16.216400146484375,-133.71307373046875, -27.094385147094727
324,95993855,0.5584189,0.25008747,-0.74700487,0.26001626,13.010336875915527,0.20713534951210022,0.21258050203323364,-34.88318634033203,-142.3125762939453, -36.027706146240234
325,96010522,0.5462088,0.2547267,-0.76020765,0.24259956,13.663414001464844,1.4781275987625122,0.8425335884094238,-73.62855529785156,-150.4184112548828, -45.519779205322266
326,96027189,0.53605145,0.2549117,-0.77551895,0.2150332,15.129170417785645,0.7736607193946838,4.9583210945129395,-150.50694274902344,-158.14242553710938, -60.00523376464844
327,96043856,0.5223548,0.25552192,-0.7912958,0.18895788,18.57215690612793,-8.273735046386719,6.140859603881836,-135.45062255859375,-177.08181762695312, -50.67805862426758
328,96060523,0.50619406,0.25544262,-0.80793214,0.16050676,21.407617568969727,-3.1221609115600586,6.209856986999512,-147.7248077392578,-197.26702880859375, -50.971675872802734
329,96077190,0.4863955,0.25913793,-0.8238186,0.13262653,24.593372344970703,-6.112295150756836,6.625085830688477,-124.20818328857422,-218.4910125732422, -67.3744888305664
330,96093857,0.46545961,0.26660064,-0.8377296,0.102375254,23.169757843017578,-6.528631210327148,9.801916122436523,-121.26476287841797,-226.51478576660156, -99.3633804321289
331,96110524,0.44538677,0.277663,-0.8480398,0.0732293,20.710342407226562,-13.674883842468262,6.853931427001953,-102.4783706665039,-211.11447143554688, -124.03268432617188
332,96127191,0.42715353,0.29055226,-0.8544758,0.054688174,16.518600463867188,-11.51665210723877,2.9159505367279053,-36.772132873535156,-169.6605224609375, -110.94273376464844
333,96143858,0.4158577,0.29647586,-0.85888857,0.038404524,13.055379867553711,-7.3354010581970215,6.620753288269043,-57.241180419921875,-116.1549072265625, -70.36964416503906
334,96160525,0.41318542,0.29885754,-0.8596281,0.03164672,7.981884479522705,-11.84233570098877,14.553339958190918,-27.8182373046875,-34.72892761230469, -32.21142578125
335,96177192,0.41640598,0.3005645,-0.85711735,0.0402103,6.459070682525635,-5.185539722442627,8.631388664245605,49.27576446533203,40.52073287963867, 7.071685314178467
336,96193859,0.4272491,0.29951912,-0.8512667,0.05560286,5.606679439544678,-6.803431987762451,8.26728630065918,66.76726531982422,109.58712768554688, 33.752647399902344
337,96210526,0.44562036,0.29817346,-0.84042126,0.078786165,4.729382038116455,-1.184307336807251,7.9347429275512695,97.83584594726562,184.2264862060547, 45.14117431640625
338,96227193,0.4729781,0.29063362,-0.82593346,0.098274395,6.235593795776367,-1.0976701974868774,5.525028705596924,41.090450286865234,242.87428283691406, 57.296417236328125
339,96243860,0.50586385,0.27887565,-0.8077201,0.11797661,6.9281744956970215,0.3838193118572235,4.47959566116333,20.088335037231445,289.501708984375, 70.7480239868164
340,96260527,0.54188555,0.26201865,-0.78661776,0.1376189,9.06270694732666,0.9904924035072327,1.5872650146484375,-1.615859866142273,320.85992431640625, 90.77182006835938
341,96277194,0.5775941,0.24426225,-0.76175743,0.16262448,11.497892379760742,1.3532602787017822,-1.2178394794464111,28.201892852783203,343.61444091796875, 109.16294860839844
342,96293861,0.6123114,0.22546154,-0.7331839,0.19152938,12.933449745178223,0.9728292226791382,-2.2321135997772217,50.31580352783203,360.8825988769531, 125.0538558959961
343,96310528,0.64508474,0.20771068,-0.7002589,0.22440873,14.466117858886719,0.17516346275806427,-3.647528648376465,83.52520751953125,374.22216796875, 132.39976501464844
344,96327195,0.6742631,0.1941304,-0.66261274,0.26196763,17.226179122924805,-2.033547878265381,-6.551146030426025,137.01731872558594,378.19708251953125, 132.0045928955078
345,96343862,0.6992345,0.18514124,-0.6212226,0.30145723,19.55556297302246,-0.547357976436615,-7.627279281616211,179.42767333984375,370.8901062011719, 122.73388671875
346,96360529,0.720471,0.17781375,-0.57956135,0.3367681,20.681970596313477,2.5187883377075195,-9.815790176391602,174.916259765625,347.7062072753906, 103.12273406982422
347,96377196,0.7384617,0.17183729,-0.5403215,0.36496454,19.754262924194336,4.729497909545898,-11.33983325958252,151.544189453125,311.3028259277344, 73.18671417236328
348,96393863,0.75289166,0.16806151,-0.5052465,0.3868278,17.90744400024414,2.3287017345428467,-12.549516677856445,132.92825317382812,264.35943603515625, 46.974361419677734
349,96410530,0.76313,0.16992313,-0.4737275,0.40538985,15.842601776123047,-0.3204176723957062,-13.456547737121582,146.0575408935547,213.08285522460938, 25.749048233032227
350,96427197,0.76919705,0.17410587,-0.44996685,0.4189904,13.910285949707031,0.018351644277572632,-14.928629875183105,125.36396789550781,147.04090881347656, 12.943277359008789
351,96443864,0.7714782,0.17994156,-0.4352117,0.42782402,13.05684757232666,1.9197063446044922,-17.384510040283203,97.99565887451172,77.7787094116211, 4.382197856903076
352,96460531,0.77016103,0.1876592,-0.4294018,0.43272448,11.326020240783691,1.4314446449279785,-15.468623161315918,74.38211822509766,9.756998062133789, -0.3618505597114563
353,96477198,0.7658555,0.19725904,-0.4320574,0.43345204,11.618377685546875,-0.056569427251815796,-13.664468765258789,50.73307800292969,-54.35533142089844, -8.134177207946777
354,96493865,0.75996083,0.20413111,-0.44363204,0.4289298,12.227866172790527,-2.357584238052368,-9.606903076171875,-3.5973544120788574,-104.55857849121094, -10.807699203491211
355,96510532,0.75215715,0.20763984,-0.4620817,0.42145714,12.754900932312012,-6.044528007507324,-8.825921058654785,-47.69697189331055,-140.15306091308594, -0.6932612061500549
356,96527199,0.74297297,0.21519852,-0.47750843,0.41673344,14.38730525970459,-2.2994544506073,9.669500350952148,-7.172359466552734,-136.35479736328125, 0.2510145306587219
357,96543866,0.73254913,0.22021359,-0.49306062,0.41445023,12.493300437927246,-2.4837441444396973,5.978004455566406,-10.657876968383789,-130.23101806640625, 24.782373428344727
358,96560533,0.7193428,0.23099428,-0.5077714,0.4139515,17.793819427490234,4.801538944244385,-2.915454626083374,31.07731056213379,-149.17315673828125, 20.840274810791016
359,96577200,0.7066188,0.23947808,-0.5251444,0.40934524,11.292630195617676,4.455623626708984,3.098782777786255,-2.9766972064971924,-160.40939331054688, 11.5463285446167
360,96593867,0.694119,0.24780558,-0.5391332,0.40758663,11.891936302185059,-1.531356930732727,-2.6654701232910156,15.705357551574707,-138.02076721191406, 19.873065948486328
361,96610534,0.6801259,0.25945786,-0.5487987,0.4110116,13.341118812561035,-3.0395641326904297,0.9040422439575195,65.50072479248047,-123.26026153564453, 29.07111930847168
362,96627201,0.6691887,0.26683044,-0.5576439,0.41233662,11.42421817779541,-0.01146240346133709,3.7587010860443115,34.4775505065918,-99.48530578613281, 25.227079391479492
363,96643868,0.66060364,0.27151543,-0.565947,0.4118086,11.308527946472168,-1.7252665758132935,3.0478708744049072,12.234723091125488,-83.79293823242188, 19.34956932067871
364,96660535,0.65370435,0.27476704,-0.57301736,0.4108832,10.826315879821777,-2.3425872325897217,2.6063392162323,4.542382717132568,-68.35078430175781, 16.02678108215332
365,96677202,0.64844704,0.27648795,-0.5797968,0.40854216,11.126850128173828,-1.4709306955337524,1.8664584159851074,-10.180283546447754,-58.954307556152344, 10.475543022155762
366,96693869,0.64398897,0.27843305,-0.5855825,0.40601295,9.83592700958252,-3.1606953144073486,0.8111910223960876,-8.64753532409668,-52.342105865478516, 4.606201648712158
367,96710536,0.6389054,0.2828734,-0.5894148,0.4054293,9.601896286010742,-2.8559608459472656,0.30423760414123535,16.894025802612305,-49.450496673583984, 1.1266942024230957
368,96727203,0.63354784,0.28868136,-0.5919893,0.4059913,9.62850570678711,-3.1869683265686035,0.28737789392471313,31.59285545349121,-46.608463287353516, -1.1211316585540771
369,96743870,0.62839746,0.29426664,-0.5943567,0.40652663,9.684158325195312,-2.105926513671875,0.1825135499238968,30.68625831604004,-44.28451156616211, -1.3876334428787231
370,96760537,0.623481,0.29907626,-0.59748924,0.40599465,9.588385581970215,-1.3043473958969116,0.2896975874900818,20.370088577270508,-46.619407653808594, -1.9722728729248047
371,96777204,0.6184876,0.30318892,-0.6014426,0.4047426,9.446060180664062,-0.7065176367759705,0.22746139764785767,12.290759086608887,-49.98874282836914, -0.30794432759284973
372,96793871,0.61277044,0.30760545,-0.60600024,0.4033049,9.352123260498047,-0.7767332792282104,0.20531292259693146,12.645121574401855,-56.787288665771484, 0.9211909174919128
373,96810538,0.6063192,0.3123451,-0.6108983,0.4020211,9.275131225585938,-0.8074625134468079,0.60251784324646,15.256403923034668,-61.85663986206055, 2.9757323265075684
374,96827205,0.5991246,0.3172209,-0.6164248,0.4005512,9.626415252685547,-0.6046123504638672,0.22752150893211365,14.905600547790527,-68.39421081542969, 5.028404235839844
375,96843872,0.5915817,0.32157266,-0.6229018,0.39826593,9.74994945526123,-0.5112435221672058,0.4554208219051361,7.434008598327637,-74.13642120361328, 6.92570161819458
376,96860539,0.5840795,0.32460836,-0.6306809,0.39461634,9.52910327911377,-1.7554177045822144,0.2118416577577591,-7.411226749420166,-78.6968994140625, 9.789962768554688
377,96877206,0.57632643,0.32756326,-0.6389193,0.39029777,9.802107810974121,-0.8341742753982544,0.2297566831111908,-11.320161819458008,-82.92715454101562, 9.144378662109375
378,96893873,0.56773514,0.3315128,-0.6471047,0.38604626,10.366170883178711,-0.1713770627975464,-0.2677081823348999,-5.051901340484619,-88.94792938232422, 7.176848888397217
379,96910540,0.5583343,0.3362562,-0.6553413,0.38173613,11.105639457702637,0.8807255029678345,-0.059071555733680725,-0.5073397755622864,-95.01492309570312, 5.702625751495361
380,96927207,0.54804856,0.34167966,-0.6638291,0.37713245,11.619189262390137,0.6454923152923584,-0.18602721393108368,2.184197425842285,-102.47006225585938, 4.457357883453369
381,96943874,0.53634006,0.3481908,-0.6724809,0.37265572,11.385472297668457,0.4650828242301941,-0.05204594135284424,9.784123420715332,-112.1478042602539, 4.0807013511657715
382,96960541,0.5238902,0.35422158,-0.6824205,0.36656314,11.549055099487305,-0.13314607739448547,-1.7189821004867554,-0.9747432470321655,-123.01732635498047, 5.355562210083008
383,96977208,0.51166874,0.35857448,-0.69422704,0.35730734,12.657548904418945,1.3344732522964478,0.6781954765319824,-27.112911224365234,-132.1713409423828, 5.828755855560303
384,96993875,0.50038064,0.3593827,-0.70905554,0.34307966,13.797892570495605,-0.8509272933006287,0.4931371510028839,-73.02909088134766,-142.0001678466797, 10.482233047485352
385,97010542,0.48818392,0.36168185,-0.72337276,0.32801637,14.395509719848633,0.02492835745215416,0.8909578323364258,-68.52533721923828,-150.36451721191406, 1.2452749013900757
386,97027209,0.47770298,0.36257413,-0.73860687,0.3078958,15.655393600463867,1.3803229331970215,3.006969451904297,-104.73967742919922,-154.4543914794922, -10.277463912963867
387,97043876,0.4700653,0.35835978,-0.75653744,0.27976435,17.441316604614258,1.5960171222686768,6.5900068283081055,-175.0164031982422,-158.2576141357422, -9.87122917175293
388,97060543,0.46177664,0.34991398,-0.77747357,0.24465814,20.780550003051758,-0.9602837562561035,8.529796600341797,-229.1739959716797,-180.75656127929688, -1.6771624088287354
389,97077210,0.44617838,0.34483373,-0.79825115,0.21168321,22.937355041503906,-3.950925588607788,7.290732383728027,-189.2750244140625,-220.28506469726562, -0.9904686808586121
390,97093877,0.4280357,0.34311444,-0.81605357,0.18197428,23.645668029785156,-6.049530982971191,13.304431915283203,-150.72933959960938,-222.6780548095703, -12.863062858581543
391,97110544,0.4197675,0.33544603,-0.8318114,0.13914452,20.751296997070312,-10.691812515258789,16.128376007080078,-262.7794494628906,-185.3317413330078, -35.44070053100586
392,97127211,0.41363057,0.3300172,-0.8427509,0.09884023,14.214962005615234,-9.582099914550781,1.1728293895721436,-242.3336639404297,-156.08932495117188, -54.41168975830078
393,97143878,0.40727574,0.3281368,-0.84922296,0.07261805,12.63601016998291,-9.711688995361328,-8.289477348327637,-147.2300567626953,-115.26454162597656, -45.15007400512695
394,97160545,0.40275368,0.32429674,-0.85411906,0.055694036,16.170944213867188,-7.219807147979736,4.450303077697754,-101.96054077148438,-78.19559478759766, -12.347198486328125
395,97177212,0.40841365,0.32016638,-0.8537455,0.042551868,0.31978505849838257,-5.07498836517334,16.115947723388672,-101.3671875,4.4571919441223145, -16.01488494873047
396,97193879,0.42218846,0.31337512,-0.8497811,0.037751094,5.324950695037842,-0.26613637804985046,6.019520282745361,-76.71178436279297,81.08870697021484, 12.623958587646484
397,97210546,0.440709,0.30200976,-0.84456086,0.035814904,4.711663722991943,-4.83926248550415,3.893275022506714,-83.13442993164062,119.69789123535156, 43.64627456665039
398,97227213,0.45904458,0.2962065,-0.83570904,0.055949956,5.252013206481934,-2.6032583713531494,4.527472972869873,63.112422943115234,174.0048828125, 70.62924194335938
399,97243880,0.48221946,0.288007,-0.82346225,0.080163725,5.133452415466309,1.4044616222381592,5.581326007843018,70.42098999023438,221.6473388671875, 88.47064208984375
400,97260547,0.51032823,0.2750229,-0.8080179,0.105046,5.684315204620361,-2.5689456462860107,3.634328842163086,50.36702346801758,264.03411865234375, 108.7610855102539
401,97277214,0.54081446,0.2621732,-0.7874916,0.13653588,7.049048900604248,-0.2737479507923126,3.351550579071045,86.7159423828125,307.4140319824219, 119.84661102294922
402,97293881,0.5746911,0.24587563,-0.76230305,0.16783804,9.624781608581543,0.8870846033096313,2.193739175796509,71.13870239257812,345.944580078125, 126.24730682373047
403,97310548,0.6107683,0.22570252,-0.73243076,0.19891128,12.740662574768066,1.460999608039856,0.2645185589790344,56.33169174194336,380.0401916503906, 135.22232055664062
404,97327215,0.6462493,0.20374903,-0.69818914,0.23104154,15.954350471496582,2.239858627319336,-1.2988685369491577,61.099212646484375,399.4654846191406, 142.69993591308594
405,97343882,0.68010414,0.18205352,-0.6593403,0.26379046,19.475032806396484,3.5545780658721924,-3.3914294242858887,74.85672760009766,412.6327819824219, 140.40859985351562
406,97360549,0.711442,0.16099425,-0.6173913,0.29454926,21.796663284301758,3.3678786754608154,-5.2241034507751465,77.60884094238281,412.1706237792969, 129.01788330078125
407,97377216,0.73887324,0.14133641,-0.57493687,0.32177353,22.908903121948242,2.9675817489624023,-6.45409631729126,74.77545166015625,391.46588134765625, 113.24169158935547
408,97393883,0.762186,0.120178774,-0.5363652,0.34196794,22.52762794494629,1.0896587371826172,-8.661510467529297,34.81332778930664,352.14910888671875, 96.47313690185547
409,97410550,0.77931863,0.1059994,-0.5015104,0.36043617,21.103343963623047,-1.0552737712860107,-13.088809967041016,61.421363830566406,292.3443298339844, 79.39005279541016
410,97427217,0.7898155,0.104984075,-0.4703076,0.37944812,17.119773864746094,1.3003785610198975,-16.32118797302246,129.73483276367188,218.080810546875, 56.1379508972168
411,97443884,0.79467,0.11506441,-0.4448658,0.39667925,14.01452922821045,4.085455894470215,-19.96963119506836,173.3704833984375,138.77560424804688, 29.637386322021484
412,97460551,0.7939053,0.12713416,-0.4326275,0.40790278,12.012229919433594,3.0130932331085205,-20.707231521606445,134.35357666015625,39.757266998291016, 16.687904357910156
413,97477218,0.78848284,0.13947299,-0.4356709,0.4111362,11.309957504272461,1.0788757801055908,-19.173200607299805,73.3383560180664,-64.77439880371094, -1.1742666959762573
414,97493885,0.779535,0.15844175,-0.44612846,0.41011098,11.604629516601562,2.538895845413208,-14.80399227142334,79.0366439819336,-137.9405059814453, -26.970504760742188
415,97510552,0.76916826,0.1720967,-0.46582252,0.40220964,13.41954231262207,-0.618476927280426,-6.46437931060791,5.015541076660156,-183.98556518554688, -33.37986373901367
416,97527219,0.7612169,0.17905866,-0.48463193,0.39194235,13.000570297241211,-1.8054805994033813,18.700149536132812,-38.327083587646484,-155.66856384277344, -32.15673828125
417,97543886,0.75246346,0.1790967,-0.5034049,0.38510615,12.383833885192871,-0.7247939705848694,0.3625960946083069,-62.07586669921875,-135.49903869628906, 10.961235046386719
418,97560553,0.74083465,0.18556152,-0.5216562,0.38027108,20.13242530822754,3.212531566619873,-4.795022010803223,-16.945999145507812,-157.26583862304688, 6.049978256225586
419,97577220,0.73027784,0.19099903,-0.54054433,0.37151814,13.407676696777344,6.205136299133301,3.787245750427246,-39.23169708251953,-158.82431030273438, -12.120645523071289
420,97593887,0.71967715,0.19129573,-0.5600457,0.36306986,14.508049011230469,-5.567122459411621,-3.9132769107818604,-65.41828155517578,-148.58395385742188, 9.544791221618652
421,97610554,0.70559096,0.20344341,-0.57220566,0.36514825,15.006694793701172,-0.7581974864006042,1.8111296892166138,56.71088790893555,-141.3418731689453, 14.952178955078125
422,97627221,0.6948925,0.20833541,-0.58556277,0.36171386,9.594446182250977,-0.06344626098871231,2.9864652156829834,-7.882606029510498,-123.34089660644531, 9.910082817077637
423,97643888,0.6857004,0.21278106,-0.5962504,0.35919982,9.729723930358887,-4.225070953369141,1.6793429851531982,-1.8426072597503662,-102.16337585449219, 8.513086318969727
424,97660555,0.6780404,0.21670626,-0.60469335,0.35727546,9.176722526550293,-4.414494037628174,0.6502553820610046,1.4287433624267578,-83.20411682128906, 6.2878217697143555
425,97677222,0.67195356,0.22010833,-0.61129344,0.3554592,10.338275909423828,-3.0819997787475586,0.0746709480881691,1.611441969871521,-66.6648178100586, 2.285745143890381
426,97693889,0.6670165,0.22388965,-0.61641526,0.3535461,10.13077449798584,-2.795522689819336,0.04493046551942825,4.822073459625244,-56.10736846923828, -4.845067501068115
427,97710556,0.66108733,0.23310418,-0.6178676,0.3561827,10.101922035217285,-2.1040735244750977,-0.9881829619407654,59.4716796875,-49.719085693359375, -10.282208442687988
428,97727223,0.6531907,0.24955055,-0.61481225,0.36479133,9.89236068725586,-2.4389498233795166,-1.3620771169662476,131.900634765625,-45.74559020996094, -16.306884765625
429,97743890,0.6443827,0.26813835,-0.60990757,0.37534735,9.962149620056152,-0.2963867783546448,-0.19967636466026306,155.9474639892578,-43.33607482910156, -17.550500869750977
430,97760557,0.63784677,0.27999046,-0.608558,0.3800186,9.920317649841309,-0.8836759924888611,0.6991075277328491,88.04645538330078,-43.051822662353516, -14.703080177307129
431,97777224,0.63247144,0.28817764,-0.6090111,0.38215077,9.77937126159668,-1.1780972480773926,0.1832723617553711,54.39270782470703,-41.450740814208984, -10.081097602844238
432,97793891,0.62756145,0.29499114,-0.6101313,0.38325801,10.116405487060547,-0.3406622111797333,0.03459857404232025,41.44215774536133,-40.85756301879883, -8.699575424194336
433,97810558,0.62265193,0.30110154,-0.6117585,0.3839195,10.168127059936523,-0.10256390273571014,-0.2106628715991974,35.19755935668945,-42.123687744140625, -6.648065090179443
434,97827225,0.61770314,0.30629912,-0.6141745,0.38394436,9.943547248840332,0.7363332509994507,0.003078654408454895,26.608308792114258,-44.60089874267578, -3.795032024383545
435,97843892,0.6125413,0.31101927,-0.61737406,0.3832876,9.538207054138184,0.34838858246803284,0.20053566992282867,20.07773208618164,-49.03086471557617, -2.451864004135132
436,97860559,0.6070226,0.3153754,-0.62149787,0.38184085,9.478686332702637,-0.807144284248352,0.8068716526031494,13.515100479125977,-55.19752883911133, -1.3120129108428955
437,97877226,0.601004,0.31932205,-0.62675816,0.37947598,9.32400131225586,-2.063105583190918,1.1272101402282715,5.972447872161865,-63.02582550048828, 0.3772996664047241
438,97893893,0.59441584,0.3231772,-0.63311404,0.37602305,9.225708961486816,-1.8673906326293945,0.6267312169075012,-0.7087932825088501,-72.19245910644531, 0.15150828659534454
439,97910560,0.5871733,0.3271173,-0.64047915,0.37149495,9.97607135772705,-1.5159785747528076,0.8644675612449646,-6.20557975769043,-81.80341339111328, -0.689676821231842
440,97927227,0.57928693,0.33108383,-0.6488831,0.3657335,10.988116264343262,-0.9003646969795227,0.8039636611938477,-12.75458812713623,-91.70501708984375, -1.81180739402771
441,97943894,0.57104886,0.33405486,-0.65899813,0.3578161,11.841012001037598,-0.40389499068260193,0.8200768232345581,-29.84273338317871,-102.52609252929688, -1.1784107685089111
442,97960561,0.5621291,0.33619183,-0.67065316,0.34815294,11.436903953552246,-0.32419294118881226,-0.11273602396249771,-43.25768280029297,-113.65306854248047, 0.9650791883468628
443,97977228,0.5519869,0.33842462,-0.6837021,0.3366467,11.894336700439453,1.3924405574798584,-0.6014609932899475,-51.90201950073242,-129.19366455078125, -0.44766372442245483
444,97993895,0.540685,0.34009388,-0.6981485,0.3233957,13.056573867797852,2.572153329849243,0.13390585780143738,-62.7822265625,-142.73057556152344, 1.5320460796356201
445,98010562,0.5285434,0.34048456,-0.7142776,0.3074403,14.297051429748535,2.07694935798645,0.8357245922088623,-82.291015625,-156.53439331054688, 3.438199043273926
446,98027229,0.51527953,0.3402846,-0.7316745,0.2886967,15.878332138061523,2.3120133876800537,1.0560302734375,-98.18385314941406,-171.97865295410156, 1.5617774724960327
447,98043896,0.5004208,0.33948904,-0.7504414,0.26676574,17.466548919677734,-0.5116319060325623,4.845165729522705,-115.32340240478516,-191.18650817871094, -0.3495723009109497
448,98060563,0.48520654,0.33639112,-0.7707272,0.23957324,20.32844352722168,0.21445424854755402,8.44627571105957,-152.36766052246094,-206.39222717285156, -2.3854029178619385
449,98077230,0.47206503,0.3287928,-0.7919455,0.20462823,23.736160278320312,-0.9941236972808838,11.802383422851562,-214.86082458496094,-209.1553192138672, -5.65728235244751
450,98093897,0.46015394,0.3210168,-0.81116015,0.16500266,23.828060150146484,-5.34830904006958,8.087112426757812,-240.91815185546875,-206.4152374267578, -26.173912048339844
451,98110564,0.44933176,0.32025993,-0.8234576,0.13210721,24.73881721496582,-11.391877174377441,13.098041534423828,-175.7313690185547,-171.6287078857422, -60.57358932495117
452,98127231,0.44236922,0.3179979,-0.83297664,0.09662817,14.306639671325684,-14.065058708190918,6.808809280395508,-201.06797790527344,-145.63209533691406, -69.71929168701172
453,98143898,0.43206328,0.31715176,-0.84138495,0.06933528,13.03271770477295,-11.481413841247559,-2.615622043609619,-141.87417602539062,-144.48048400878906, -53.1954345703125
454,98160565,0.42515168,0.31483558,-0.8472317,0.048200347,12.746467590332031,-5.98353910446167,1.5451934337615967,-116.84320068359375,-103.09341430664062, -33.6420783996582
455,98177232,0.42645174,0.31043613,-0.8489785,0.031688295,4.471510887145996,-6.831981658935547,13.195134162902832,-112.44487762451172,-32.58798599243164, -19.60997772216797
456,98193899,0.43401244,0.30512387,-0.8472153,0.027549224,5.087374687194824,-1.9695504903793335,6.591578006744385,-55.505611419677734,40.82273864746094, 13.120080947875977
457,98210566,0.4455082,0.2975123,-0.84376025,0.03283017,4.829417705535889,-4.947640895843506,3.504595994949341,-15.426470756530762,88.98799896240234, 50.32636260986328
458,98227233,0.4574896,0.2950921,-0.8367448,0.05901032,4.768590927124023,-3.7492716312408447,4.181277275085449,121.53115844726562,144.31124877929688, 76.83978271484375
459,98243900,0.4749683,0.2906521,-0.82583094,0.089050084,3.8407037258148193,-0.6521239876747131,5.053109169006348,127.8139877319336,196.87240600585938, 90.47660064697266
460,98260567,0.49890035,0.28205976,-0.81087506,0.11841733,4.696805953979492,-2.953939199447632,4.213086128234863,100.02840423583984,247.94277954101562, 99.84555053710938
461,98277234,0.52767557,0.27121067,-0.79095596,0.14964001,6.41245698928833,-0.6742537021636963,4.113363265991211,97.28717041015625,297.4523010253906, 105.23155212402344
462,98293901,0.5613216,0.2550397,-0.7670203,0.17763087,8.581376075744629,0.7363561987876892,2.4835762977600098,55.45348358154297,338.0064392089844, 109.9516372680664
463,98310568,0.597096,0.23507284,-0.73895043,0.2053523,11.78393268585205,1.3263193368911743,0.8295379877090454,40.71371078491211,369.40435791015625, 119.09140014648438
464,98327235,0.63310444,0.21227461,-0.70650977,0.23444042,15.577546119689941,2.678429126739502,-0.614486038684845,41.84671401977539,394.8058166503906, 131.70831298828125
465,98343902,0.66721743,0.19043088,-0.6694668,0.26527563,18.462724685668945,4.0264058113098145,-2.0133771896362305,64.7206802368164,406.69110107421875, 131.03045654296875
466,98360569,0.69799376,0.17223875,-0.6280986,0.29770955,21.440128326416016,1.453080177307129,-4.607260704040527,101.1465072631836,406.6458435058594, 122.00306701660156
467,98377236,0.7247585,0.1570971,-0.58451074,0.3292309,22.82022476196289,1.6870245933532715,-7.359942436218262,121.16033172607422,392.6795959472656, 110.04454803466797
468,98393903,0.7480423,0.13869002,-0.54512376,0.35219038,22.680179595947266,2.3912179470062256,-9.098258972167969,64.68798828125,355.8990783691406, 92.9166030883789
469,98410570,0.76638407,0.119425684,-0.5120354,0.3690699,21.255144119262695,0.4898538589477539,-11.860311508178711,26.93419647216797,301.2770080566406, 82.8365478515625
470,98427237,0.77853435,0.112634026,-0.48129502,0.3867205,18.05131721496582,2.5093190670013428,-15.042723655700684,94.58421325683594,236.1277618408203, 60.67266082763672
471,98443904,0.78552264,0.11775398,-0.4543413,0.40331396,14.919180870056152,3.279881477355957,-17.693044662475586,148.8055877685547,166.3542022705078, 32.28708267211914
472,98460571,0.7878421,0.12653299,-0.43699598,0.4151252,12.004960060119629,1.814127802848816,-19.286090850830078,130.7900390625,85.92933654785156, 15.800780296325684
473,98477238,0.78572124,0.13511904,-0.43337682,0.42020202,11.504411697387695,1.4201452732086182,-18.87942123413086,74.2167739868164,-6.988588333129883, 4.544467449188232
474,98493905,0.7797764,0.1463816,-0.44093412,0.41964066,11.446062088012695,1.1037626266479492,-15.661745071411133,43.170921325683594,-91.6517105102539, -12.432347297668457
475,98510572,0.7703164,0.16051607,-0.4562277,0.41557643,11.960630416870117,-1.3169502019882202,-12.428443908691406,29.192962646484375,-155.54051208496094, -21.974533081054688
476,98527239,0.76092756,0.17011026,-0.4743396,0.40872204,15.638389587402344,-3.320777177810669,12.84013843536377,-11.718010902404785,-160.2978057861328, -19.600101470947266
477,98543906,0.7523521,0.17322293,-0.4919591,0.40241322,9.834211349487305,-0.7217268943786621,10.074132919311523,-43.42387771606445,-136.2413787841797, 1.516771674156189
478,98560573,0.74068844,0.18143323,-0.5085312,0.39982325,19.033817291259766,4.766529083251953,-6.668201923370361,2.101288080215454,-150.97889709472656, 10.804454803466797
479,98577240,0.7288333,0.19016162,-0.52667165,0.39402795,15.209524154663086,5.846896171569824,3.6863627433776855,-10.515603065490723,-165.02272033691406, -4.8162150382995605
480,98593907,0.7183803,0.19126372,-0.54690576,0.3850223,11.459933280944824,-1.6062043905258179,-1.2917449474334717,-67.86537170410156,-153.98123168945312, 5.675772190093994
481,98610574,0.7036192,0.2019918,-0.559628,0.3885048,15.212640762329102,-8.483742713928223,-2.8058714866638184,52.21049880981445,-142.13177490234375, 32.68052673339844
482,98627241,0.6905887,0.21600536,-0.56814855,0.3919645,10.636466026306152,2.194967031478882,4.241236209869385,76.8529052734375,-123.93791198730469, 9.431312561035156
483,98643908,0.6811069,0.22214465,-0.5777091,0.3911489,11.054033279418945,-3.7920303344726562,2.5672788619995117,14.674484252929688,-100.15438079833984, 11.86844539642334
484,98660575,0.6727451,0.2296474,-0.5837439,0.39232546,9.87312126159668,-1.4701309204101562,0.861391007900238,36.749542236328125,-79.8332748413086, 7.369583606719971
485,98677242,0.667338,0.23187275,-0.5906759,0.38986808,10.485891342163086,-1.5386956930160522,2.4373342990875244,-9.33478832244873,-63.63371276855469, 5.179623603820801
486,98693909,0.66367143,0.23078544,-0.59841174,0.38494408,10.879876136779785,-1.4140981435775757,1.6811450719833374,-39.48841094970703,-55.32086944580078, 3.926894426345825
487,98710576,0.66003364,0.23087561,-0.6049152,0.3809591,11.013504028320312,0.12970785796642303,0.1889859437942505,-27.03285789489746,-51.21633529663086, 1.3344436883926392
488,98727243,0.6563619,0.23211005,-0.6103162,0.3779261,10.62857437133789,-1.0171263217926025,0.10144548118114471,-14.946348190307617,-47.84639358520508, -0.7630603313446045
489,98743910,0.65354663,0.2312207,-0.61650676,0.37327382,9.702016830444336,-1.5315121412277222,0.1553933471441269,-34.74188995361328,-44.887325286865234, -0.1244150847196579
490,98760577,0.6519301,0.22678751,-0.6241901,0.36598033,9.434215545654297,-1.3398685455322266,0.1982181966304779,-67.5963134765625,-41.62619400024414, 2.325601100921631
491,98777244,0.6502376,0.22254795,-0.6317394,0.35856488,9.431329727172852,-2.510080099105835,-0.0259011872112751,-66.80972290039062,-42.03572082519531, 0.9278852939605713
492,98793911,0.648125,0.22006805,-0.6384575,0.3519604,9.383002281188965,-1.8384226560592651,0.1532030701637268,-52.71811294555664,-43.25010299682617, -3.3275797367095947
493,98810578,0.6452098,0.21936147,-0.6447166,0.3463024,9.233637809753418,-2.92326021194458,0.01613897830247879,-38.349735260009766,-47.592262268066406, -5.651222229003906
494,98827245,0.6412372,0.22132497,-0.6501778,0.34219754,8.687054634094238,-2.7211310863494873,-0.06180999055504799,-16.127151489257812,-52.76040267944336, -9.29035472869873
495,98843912,0.6367282,0.22403406,-0.6556401,0.338411,8.641531944274902,-2.573667287826538,0.008243508636951447,-10.609610557556152,-56.43978500366211, -9.96407413482666
496,98860579,0.6315924,0.22763212,-0.6610571,0.33507958,8.98551082611084,-2.87442684173584,0.2514192461967468,-3.6009116172790527,-60.438690185546875, -10.598958015441895
497,98877246,0.6257078,0.23208627,-0.66640234,0.3324665,9.448060989379883,-2.1961922645568848,-0.11791612207889557,4.710118293762207,-64.3846206665039, -9.766870498657227
498,98893913,0.61905515,0.23716606,-0.67203414,0.32999006,9.718092918395996,-1.624367594718933,0.47008875012397766,8.597345352172852,-70.35537719726562, -9.838091850280762
499,98910580,0.61129385,0.24281941,-0.678276,0.32756746,9.706064224243164,-2.197496175765991,-0.046465303748846054,11.70261287689209,-79.2958984375, -8.753647804260254
500,98927247,0.60202026,0.2502826,-0.6847431,0.32566443,10.543322563171387,-0.5640784502029419,-0.3821941018104553,23.74272346496582,-90.51053619384766, -11.234644889831543
501,98943914,0.59125555,0.25895575,-0.69219553,0.32283768,11.085637092590332,0.1734885275363922,0.07103781402111053,24.76650619506836,-105.91505432128906, -15.721323013305664
502,98960581,0.57841104,0.26802823,-0.70159996,0.3183698,11.447866439819336,0.574951171875,-0.24812352657318115,17.95307731628418,-127.56826782226562, -16.20029067993164
503,98977248,0.5632866,0.27616698,-0.7142051,0.3104054,11.783517837524414,0.929672360420227,0.27335554361343384,-5.432692050933838,-155.70799255371094, -14.710028648376465
504,98993915,0.54661334,0.28473863,-0.7282188,0.2997252,13.121268272399902,0.2345617115497589,0.047572433948516846,-17.162721633911133,-174.86569213867188, -21.370534896850586
505,99010582,0.5305123,0.2930945,-0.74178886,0.28705713,14.556286811828613,-0.3031700551509857,1.1811162233352661,-28.122072219848633,-173.79396057128906, -29.810527801513672
506,99027249,0.5158962,0.2996837,-0.7553822,0.27099544,15.701373100280762,0.19174621999263763,1.278491735458374,-54.934776306152344,-169.67633056640625, -36.05923843383789
507,99043916,0.5028778,0.30342764,-0.7700489,0.24913938,17.43999671936035,1.6417161226272583,3.684577465057373,-100.412109375,-171.8530731201172, -42.60198211669922
508,99060583,0.4916618,0.30341575,-0.7856869,0.22114214,20.45079231262207,1.2981104850769043,6.818325042724609,-151.35647583007812,-172.09107971191406, -45.006568908691406
509,99077250,0.48008835,0.30159795,-0.80131394,0.19091935,22.990657806396484,-2.136265516281128,9.134544372558594,-168.73899841308594,-175.94015502929688, -42.249183654785156
510,99093917,0.46319577,0.30374938,-0.81621313,0.1642624,22.77429962158203,-7.021996021270752,7.27252197265625,-124.02582550048828,-200.72915649414062, -46.87779998779297
511,99110584,0.44280842,0.3111104,-0.8287251,0.14263967,22.482622146606445,-7.887569904327393,14.671106338500977,-69.22289276123047,-208.16883850097656, -61.13374710083008
512,99127251,0.43557248,0.3084852,-0.8388211,0.1072047,20.72478485107422,-13.150498390197754,14.85307788848877,-204.1625518798828,-145.71640014648438, -64.37516784667969
513,99143918,0.42765766,0.3112394,-0.8451462,0.0772472,13.610161781311035,-10.489740371704102,1.0241765975952148,-152.29443359375,-130.7643585205078, -86.5180892944336
514,99160585,0.41974252,0.3130888,-0.8501375,0.055300236,11.482993125915527,-9.532061576843262,-7.850327491760254,-107.72867584228516,-109.24362182617188, -60.57704544067383
515,99177252,0.41346788,0.31435347,-0.85336906,0.0445836,17.420570373535156,-5.844962120056152,5.777920722961426,-46.67449188232422,-70.17510986328125, -29.17276954650879
516,99193919,0.4171173,0.315155,-0.85167027,0.036721613,-2.238297939300537,-6.176034927368164,14.694451332092285,-51.2122688293457,8.324127197265625, -32.0479736328125
517,99210586,0.42912653,0.31187588,-0.8468724,0.0373021,5.866270065307617,1.042677402496338,5.341869354248047,-30.8211612701416,85.46134948730469, 7.218874931335449
518,99227253,0.44675595,0.30341616,-0.8407293,0.039015252,4.096131324768066,-6.330452919006348,2.831782817840576,-51.2160530090332,125.90094757080078, 36.39302062988281
519,99243920,0.465239,0.29999796,-0.8305042,0.06178208,4.454401969909668,-4.5747151374816895,3.570974111557007,85.27418518066406,185.95538330078125, 63.163631439208984
520,99260587,0.4890446,0.29362875,-0.8165971,0.08824352,3.9856739044189453,-1.439192533493042,4.355599403381348,87.50506591796875,237.01779174804688, 81.9757308959961
521,99277254,0.5185267,0.28124222,-0.7994482,0.11364567,4.8715128898620605,-3.5050172805786133,3.2376911640167236,51.82109832763672,281.325927734375, 102.20852661132812
522,99293921,0.5512431,0.2655733,-0.77814686,0.1417372,6.833583831787109,-1.9368828535079956,2.914430618286133,51.885894775390625,321.71502685546875, 119.27224731445312
523,99310588,0.5857188,0.24537762,-0.75332814,0.17093924,9.719161987304688,-1.2035517692565918,0.7749922871589661,40.879783630371094,350.9378356933594, 139.55564880371094
524,99327255,0.6199412,0.22544089,-0.7225051,0.20696859,13.937459945678711,0.16972272098064423,-0.8717387318611145,84.79969787597656,385.0908203125, 155.87818908691406
525,99343922,0.65367913,0.20501567,-0.6858436,0.2455423,17.612380981445312,3.324979543685913,-1.6212341785430908,104.4772720336914,412.2752990722656, 160.79092407226562
526,99360589,0.68571186,0.1822533,-0.64574295,0.28213322,20.61885643005371,1.846863031387329,-3.4707117080688477,92.8320083618164,420.8728942871094, 160.93621826171875
527,99377256,0.7133652,0.16499104,-0.6008529,0.32072425,23.49505615234375,2.201002359390259,-6.582398414611816,142.50027465820312,415.8753967285156, 148.4444122314453
528,99393923,0.73786455,0.14816111,-0.5564879,0.35203043,24.601425170898438,5.408755779266357,-8.09615707397461,116.8821029663086,391.0462646484375, 118.43962097167969
529,99410590,0.7584768,0.12478218,-0.5209833,0.37110505,23.755754470825195,0.9488370418548584,-12.042234420776367,19.341426849365234,334.57843017578125, 99.88005828857422
530,99427257,0.77283627,0.11015848,-0.48958546,0.3884527,19.862638473510742,0.29479095339775085,-15.935741424560547,53.796878814697266,266.95428466796875, 79.0291519165039
531,99443924,0.7819395,0.10563493,-0.46372604,0.40295225,16.730562210083008,4.277982234954834,-18.16799545288086,87.12040710449219,190.7477264404297, 48.16181564331055
532,99460591,0.7861881,0.10927867,-0.44600758,0.41357446,13.188124656677246,3.97468638420105,-22.741872787475586,99.68428802490234,106.13063049316406, 20.700998306274414
533,99477258,0.7849547,0.11873086,-0.44014058,0.41955426,11.59300708770752,3.610670566558838,-22.59052085876465,87.3072738647461,5.3494648933410645, 2.346064805984497
534,99493925,0.77894074,0.13026614,-0.4481588,0.4188508,11.525399208068848,2.1547350883483887,-19.271942138671875,42.22405242919922,-95.42552947998047, -14.8468656539917
535,99510592,0.7688793,0.14696749,-0.46423236,0.4143836,12.207962989807129,1.2173876762390137,-14.93515682220459,38.76787185668945,-169.21385192871094, -32.0178337097168
536,99527259,0.76039046,0.15676098,-0.48287994,0.40504238,16.39640998840332,-2.843728542327881,20.126300811767578,-22.1960506439209,-162.97271728515625, -37.58898162841797
537,99543926,0.7533178,0.15956843,-0.49946856,0.39696538,7.355527877807617,-0.7829195261001587,11.15381908416748,-50.332698822021484,-126.72853088378906, -13.962343215942383
538,99560593,0.74266315,0.16499236,-0.51753974,0.39163998,19.572620391845703,2.291884422302246,-9.937878608703613,-27.462596893310547,-150.8694610595703, 2.6943397521972656
539,99577260,0.7299624,0.17680702,-0.5353581,0.38637558,15.80430793762207,2.8261501789093018,4.3276262283325195,8.435522079467773,-173.94317626953125, -14.478496551513672
540,99593927,0.7178035,0.17990614,-0.55619985,0.3781981,12.786765098571777,-4.1783037185668945,-3.4405174255371094,-54.71126174926758,-167.51487731933594, 5.236853122711182
541,99610594,0.70199436,0.19422701,-0.5694352,0.38108212,15.35105037689209,-3.0839505195617676,-0.24302461743354797,67.29508972167969,-159.40924072265625, 16.97850227355957
542,99627261,0.6894085,0.204451,-0.58162385,0.38030192,9.741860389709473,1.9012866020202637,3.1809589862823486,31.621248245239258,-135.88018798828125, 5.4716010093688965
543,99643928,0.67951477,0.21027485,-0.5926425,0.3779143,10.628256797790527,-4.527729511260986,1.2854783535003662,3.5982720851898193,-110.33099365234375, 6.761743545532227
544,99660595,0.6708337,0.2177359,-0.5995554,0.3782945,9.243230819702148,-2.9941511154174805,0.9075251817703247,31.448270797729492,-86.46517944335938, 3.9136929512023926
545,99677262,0.6645197,0.22183217,-0.6057092,0.3772542,10.042119979858398,-3.5636773109436035,1.013966679573059,8.502584457397461,-66.58706665039062, 3.9233832359313965
546,99693929,0.6586842,0.22830518,-0.6087789,0.3786823,10.254289627075195,-3.2956786155700684,-0.1918831467628479,36.90071105957031,-52.909812927246094, -0.6592933535575867
547,99710596,0.651446,0.24130611,-0.6074461,0.38522556,10.503726959228516,-0.9564765691757202,-1.5635533332824707,101.53218841552734,-47.811744689941406, -8.095498085021973
548,99727263,0.6430074,0.25815216,-0.6035857,0.39444068,10.878235816955566,0.1950075477361679,-0.6346717476844788,138.61856079101562,-47.25349807739258, -13.209346771240234
549,99743930,0.6359844,0.2717244,-0.60018927,0.4018243,10.993230819702148,0.8269941806793213,0.13065770268440247,112.7640151977539,-37.79862594604492, -10.74251937866211
550,99760597,0.6320872,0.27887687,-0.5995669,0.4039969,10.63416576385498,0.6355876326560974,0.24198845028877258,49.683692932128906,-29.030832290649414, -10.488500595092773
551,99777264,0.62988424,0.28102776,-0.6018027,0.40262014,10.19170093536377,-0.47291210293769836,0.40743157267570496,2.126877546310425,-27.385541915893555, -4.517195701599121
552,99793931,0.62791437,0.28193724,-0.60496664,0.40031296,10.126381874084473,-0.4929819405078888,0.11231988668441772,-10.12228775024414,-28.808324813842773, -2.2611734867095947
553,99810598,0.6253092,0.28391227,-0.60817164,0.39813256,9.408130645751953,-1.867340326309204,0.20779530704021454,-3.8755125999450684,-34.320648193359375, -4.315989017486572
554,99827265,0.6221142,0.286618,-0.61147994,0.39612678,9.282076835632324,-1.9924211502075195,0.9155972003936768,0.8615710735321045,-38.89636993408203, -4.810359477996826
555,99843932,0.6181436,0.29000697,-0.61525923,0.39401856,8.91015911102295,-2.049405574798584,0.8426393270492554,3.58062481880188,-46.242618560791016, -5.089371681213379
556,99860599,0.6135065,0.29352313,-0.62013155,0.39101273,8.737818717956543,-1.9166710376739502,0.9556564688682556,-1.3002561330795288,-55.85166549682617, -5.4630327224731445
557,99877266,0.60786575,0.2966735,-0.62658983,0.38712996,8.547475814819336,-2.211029052734375,1.473981261253357,-8.837164878845215,-67.61621856689453, -1.7125695943832397
558,99893933,0.60099024,0.30011263,-0.63425493,0.38270596,9.171722412109375,-1.9815263748168945,1.4521868228912354,-10.671069145202637,-79.86429595947266, 0.5209421515464783
559,99910600,0.5929975,0.30391905,-0.64295983,0.37761092,10.029964447021484,-1.5563316345214844,0.4242545962333679,-12.500435829162598,-91.39791107177734, 1.2258158922195435
560,99927267,0.5843892,0.30740124,-0.6528133,0.37125263,10.495476722717285,-0.9766254425048828,0.47432801127433777,-21.126317977905273,-100.60858917236328, 1.5011776685714722
561,99943934,0.57572055,0.30933648,-0.6643385,0.36264458,10.897014617919922,-1.5203914642333984,0.5444455146789551,-41.57495880126953,-108.41345977783203, 3.0915164947509766
562,99960601,0.56641775,0.31189927,-0.6761785,0.35309,11.90644359588623,-0.28673186898231506,0.48727530241012573,-42.861968994140625,-116.14598846435547, -1.2738524675369263
563,99977268,0.5561579,0.31444275,-0.6890961,0.34199542,11.990079879760742,0.9014607667922974,-0.7482601404190063,-50.66228103637695,-128.06146240234375, -2.544881582260132
564,99993935,0.54440856,0.31651738,-0.70370424,0.32899335,12.042401313781738,0.8169301152229309,-0.1425274908542633,-62.25581741333008,-144.61610412597656, -0.4529745876789093
565,100010602,0.5305079,0.31906715,-0.7196704,0.31437615,13.213622093200684,0.6098917126655579,0.18663981556892395,-66.68074798583984,-164.71658325195312, -0.970189094543457
566,100027269,0.5158872,0.32135835,-0.7363633,0.29725128,14.604391098022461,0.45113393664360046,0.7357215285301208,-80.00223541259766,-175.89601135253906, -5.6881513595581055
567,100043936,0.5018719,0.32193643,-0.75379163,0.27618802,16.385372161865234,0.9950218796730042,1.0457782745361328,-108.88790130615234,-180.6671600341797, -10.58959674835205
568,100060603,0.4888189,0.32018942,-0.77215177,0.24963357,18.62040901184082,1.0986820459365845,4.940401554107666,-149.2864532470703,-186.6731719970703, -17.24807357788086
569,100077270,0.47763833,0.3155842,-0.79047966,0.21773902,21.857513427734375,0.9870532155036926,9.537025451660156,-191.3321533203125,-183.53546142578125, -23.30381965637207
570,100093937,0.4669138,0.30951038,-0.808155,0.18188046,24.314281463623047,-3.0078282356262207,11.03819751739502,-217.76229858398438,-185.4027557373047, -30.431400299072266
571,100110604,0.45168373,0.3072716,-0.8243495,0.14837068,22.409313201904297,-9.081703186035156,5.841264724731445,-180.98594665527344,-205.5749053955078, -41.728782653808594
572,100127271,0.43690425,0.30911574,-0.83633095,0.11879847,22.310956954956055,-11.732098579406738,16.0275821685791,-142.68359375,-185.83839416503906, -62.02918243408203
573,100143938,0.43334547,0.30458754,-0.8441588,0.08266852,14.952183723449707,-12.856204986572266,7.424560070037842,-220.10093688964844,-117.678955078125, -63.10325241088867
574,100160605,0.42839098,0.30159408,-0.8502168,0.051516086,12.112126350402832,-10.343688011169434,-4.565795421600342,-182.76980590820312,-111.01380157470703, -60.124324798583984
575,100177272,0.42092466,0.30119017,-0.85493326,0.034584004,12.70524787902832,-7.274726867675781,-4.5835723876953125,-86.368896484375,-93.18069458007812, -35.28622817993164
576,100193939,0.41763708,0.30093575,-0.8568724,0.028047776,7.832676887512207,-5.866091251373291,12.084375381469727,-32.86604690551758,-39.10356903076172, -12.83377742767334
577,100210606,0.4210186,0.30206338,-0.8545482,0.035334006,2.0808048248291016,-2.7146878242492676,7.215888977050781,39.534114837646484,40.704017639160156, 8.597650527954102
578,100227273,0.43099356,0.2984569,-0.8503386,0.045742135,5.093222618103027,-0.29162150621414185,4.277338981628418,30.927719116210938,92.51775360107422, 39.932098388671875
579,100243940,0.4444358,0.2959317,-0.84285873,0.06701232,3.9261844158172607,-4.756776809692383,3.5380983352661133,91.55638122558594,144.42633056640625, 57.99999237060547
580,100260607,0.4625113,0.294371,-0.83063537,0.09733375,4.270535945892334,-0.08322183042764664,4.412847995758057,139.7069549560547,203.76072692871094, 68.28543853759766
581,100277274,0.48786107,0.28701138,-0.81515044,0.12306874,4.146975994110107,-0.7643771171569824,4.183086395263672,82.52339935302734,250.28160095214844, 75.3480453491211
582,100293941,0.51867694,0.27543986,-0.795656,0.14845493,5.493029594421387,-2.3181896209716797,2.9366908073425293,59.04767608642578,297.2708740234375, 85.23523712158203
583,100310608,0.55314827,0.26026517,-0.77200586,0.17405798,7.806851863861084,-0.3235365152359009,2.1885480880737305,44.68901824951172,336.2143249511719, 94.09949493408203
584,100327275,0.5903096,0.24055468,-0.74446446,0.19859703,10.604583740234375,0.3362575173377991,0.832187294960022,21.627843856811523,368.858154296875, 103.92717742919922
585,100343942,0.6276938,0.2167048,-0.713228,0.22437797,14.43041706085205,0.14712734520435333,-1.2367295026779175,15.873568534851074,392.7513427734375, 123.72579193115234
586,100360609,0.6632095,0.19111899,-0.6784946,0.25153965,17.431364059448242,2.8742494583129883,-2.8090882301330566,23.38572883605957,403.4552307128906, 135.853515625
587,100377276,0.6950319,0.16616552,-0.6409686,0.28014088,20.606958389282227,0.4316595792770386,-5.09585428237915,42.690406799316406,399.7857666015625, 142.1820526123047
588,100393943,0.72189426,0.14955376,-0.59870946,0.31312832,23.026559829711914,1.5019519329071045,-7.17324686050415,116.74969482421875,389.527587890625, 130.52169799804688
589,100410610,0.74484134,0.13389666,-0.55745924,0.34135374,22.93902015686035,1.994937777519226,-8.424459457397461,103.73480224609375,361.45965576171875, 112.41299438476562
590,100427277,0.76331645,0.116791874,-0.52159345,0.36283326,21.217817306518555,-0.3433205187320709,-10.151566505432129,61.91953659057617,313.9427185058594, 98.85723876953125
591,100443944,0.7761584,0.10649668,-0.48939046,0.3830587,18.712961196899414,-0.7737564444541931,-12.280866622924805,88.63958740234375,256.54827880859375, 84.89275360107422
592,100460611,0.7844815,0.107146814,-0.4598336,0.40207195,16.35515785217285,2.812716007232666,-12.937063217163086,139.36399841308594,197.5672607421875, 55.463043212890625
593,100477278,0.78981,0.110421374,-0.43764085,0.4153045,13.608019828796387,3.0588533878326416,-15.299932479858398,117.13507080078125,136.92562866210938, 29.755292892456055
594,100493945,0.791012,0.113488905,-0.42708567,0.42310548,11.56393814086914,1.9996832609176636,-17.030223846435547,69.60936737060547,57.8584098815918, 21.565927505493164
595,100510612,0.7886172,0.11624731,-0.42957437,0.42430598,10.73730182647705,2.0574793815612793,-15.615691184997559,13.45185661315918,-27.8028621673584, 7.271169185638428
596,100527279,0.7814312,0.12843503,-0.43856,0.42489436,11.79554557800293,-1.335407018661499,-13.230420112609863,47.69203186035156,-105.09901428222656, -4.67896842956543
597,100543946,0.7698299,0.14995144,-0.45049918,0.42652896,12.049628257751465,1.1806755065917969,-7.6160454750061035,96.2839584350586,-160.5438232421875, -11.668120384216309
598,100560613,0.75893646,0.16522078,-0.46525225,0.42456824,13.133761405944824,-0.3861320912837982,18.41008186340332,43.12842559814453,-158.5720977783203, -10.500021934509277
599,100577280,0.74852234,0.17397138,-0.48173568,0.42116407,13.32010269165039,4.147393703460693,3.074284076690674,-1.1156224012374878,-148.7236785888672, 3.378418207168579
600,100593947,0.73698926,0.18203735,-0.5013147,0.41520238,19.012929916381836,4.667792320251465,-4.919307708740234,-20.724275588989258,-169.4340362548828, -0.5440696477890015
601,100610614,0.72495216,0.19003113,-0.5212825,0.40816346,13.281720161437988,1.2098602056503296,2.611637592315674,-25.234289169311523,-174.23590087890625, -3.7771079540252686
602,100627281,0.7123709,0.19600557,-0.53969383,0.4035349,14.35593032836914,-5.0728254318237305,-4.886575698852539,-21.55756187438965,-159.60739135742188, 14.980236053466797
603,100643948,0.69731396,0.21180013,-0.5504131,0.4073564,13.968191146850586,-3.24473237991333,0.3490440249443054,82.60470581054688,-146.94049072265625, 16.402666091918945
604,100660615,0.6860403,0.22283898,-0.56030923,0.4071182,9.506118774414062,0.958522379398346,3.242323398590088,41.225101470947266,-121.2500228881836, 3.1087093353271484
605,100677282,0.6773978,0.22873525,-0.56960046,0.40542307,10.945252418518066,-1.794054627418518,2.6474528312683105,9.035812377929688,-96.1097640991211, 7.759950637817383
606,100693949,0.67078155,0.23152627,-0.5780677,0.40284672,10.641183853149414,0.04953654110431671,2.8163931369781494,-9.7648344039917,-77.07667541503906, 8.861973762512207
607,100710616,0.66675186,0.22799218,-0.5883319,0.39664507,10.610264778137207,-0.9774312376976013,3.0401484966278076,-62.45269012451172,-63.35105895996094, 12.976357460021973
608,100727283,0.6649542,0.21783422,-0.60088795,0.3864171,11.171525001525879,-1.2521567344665527,1.514554500579834,-118.8608627319336,-53.097877502441406, 18.822416305541992
609,100743950,0.66453946,0.20503688,-0.6132462,0.37453517,10.944535255432129,-0.637814998626709,0.5523548722267151,-139.29888916015625,-41.962284088134766, 18.205251693725586
610,100760617,0.6641227,0.1950381,-0.6235205,0.363488,9.559603691101074,-2.0518624782562256,-1.5977869033813477,-117.63172149658203,-38.48725128173828, 7.29252815246582
611,100777284,0.6631883,0.18959185,-0.63147557,0.35422432,9.099571228027344,-2.656456708908081,-0.3566235899925232,-82.6965560913086,-39.10273361206055, -5.8946685791015625
612,100793951,0.6616575,0.18798925,-0.637443,0.34718296,9.138466835021973,-3.863351821899414,-0.4383290112018585,-49.90987777709961,-39.09672546386719, -13.59542179107666
613,100810618,0.6594919,0.189538,-0.64193624,0.34214592,8.783310890197754,-4.409586429595947,-0.21313951909542084,-22.457090377807617,-40.107017517089844, -18.693681716918945
614,100827285,0.65564764,0.19848755,-0.6433273,0.34184656,8.161212921142578,-4.962240219116211,-0.9268050789833069,41.48633575439453,-44.686100006103516, -29.99179458618164
615,100843952,0.6503959,0.21131167,-0.64289385,0.34499314,8.61093807220459,-4.589745998382568,-0.4404233694076538,80.3875732421875,-47.088497161865234, -30.80841827392578
616,100860619,0.64354026,0.22657701,-0.6411797,0.35129386,8.418098449707031,-3.2112209796905518,-0.44890642166137695,110.60250854492188,-49.65705108642578, -25.581642150878906
617,100877286,0.63442737,0.24604723,-0.6377124,0.36095092,8.568642616271973,-2.475484609603882,-0.4110146462917328,151.74928283691406,-56.780906677246094, -26.573562622070312
618,100893953,0.6238413,0.26587656,-0.63430977,0.37119126,9.489070892333984,-0.22369229793548584,0.18277405202388763,158.19869995117188,-63.42877960205078, -21.861291885375977
619,100910620,0.61394215,0.2814074,-0.6336989,0.37724072,10.45166015625,1.3920249938964844,0.48274606466293335,113.09868621826172,-69.10063171386719, -17.747657775878906
620,100927287,0.6044699,0.29355684,-0.6357848,0.37976068,10.299299240112305,0.5722541809082031,1.3126837015151978,75.62144470214844,-76.68871307373047, -13.80043888092041
621,100943954,0.5952405,0.30255142,-0.64065415,0.37909594,10.326722145080566,0.7544849514961243,0.9379292726516724,40.824668884277344,-85.39692687988281, -8.261459350585938
622,100960621,0.58589995,0.30967247,-0.64745563,0.3763318,10.636222839355469,0.3105049431324005,0.9514285326004028,19.109420776367188,-93.2891616821289, -4.289098739624023
623,100977288,0.57628644,0.31548268,-0.6559885,0.37154257,11.5377197265625,0.38078808784484863,0.47325459122657776,0.9124285578727722,-102.41297149658203, -2.218026638031006
624,100993955,0.5670123,0.31970844,-0.6662975,0.36377358,12.046862602233887,-0.30021944642066956,0.5776620507240295,-24.07480812072754,-110.3498306274414, -3.8891689777374268
625,101010622,0.55718994,0.32340118,-0.67809004,0.35375825,12.785411834716797,0.12180464714765549,0.10623598098754883,-38.968994140625,-122.26551055908203, -5.571803569793701
626,101027289,0.5455753,0.32685202,-0.69175404,0.3420405,12.306927680969238,-0.2184896022081375,0.6138352155685425,-48.39801025390625,-141.0059051513672, -2.443143367767334
627,101043956,0.5313932,0.33174846,-0.70646834,0.3293429,12.687935829162598,-0.3905576169490814,0.527512788772583,-44.33368682861328,-162.7838134765625, -4.596853256225586
628,101060623,0.5156017,0.3370243,-0.72224075,0.31454423,13.904834747314453,-0.19088995456695557,1.0703524351119995,-51.90050506591797,-180.1443328857422, -8.059638023376465
629,101077290,0.49981555,0.34008038,-0.73983026,0.2952644,15.636223793029785,0.222685769200325,1.9957431554794312,-85.9706802368164,-192.17861938476562, -8.725011825561523
630,101093957,0.4856236,0.33859086,-0.75979465,0.26877165,18.318012237548828,1.1872005462646484,5.18279504776001,-146.8706817626953,-199.91845703125, -8.067754745483398
631,101110624,0.47503838,0.33227357,-0.78035736,0.23446882,22.019432067871094,4.372117519378662,7.992493152618408,-213.33120727539062,-192.4098663330078, -14.192178726196289
632,101127291,0.46823293,0.32218826,-0.8004319,0.19042477,24.250274658203125,3.654491901397705,11.835556983947754,-285.8154296875,-186.82284545898438, -32.99298095703125
633,101143958,0.45842764,0.31645444,-0.8171822,0.14803411,22.814491271972656,-5.965466499328613,7.049661636352539,-251.71881103515625,-194.77243041992188, -55.048500061035156
634,101160625,0.44935954,0.3163439,-0.82758576,0.1144761,23.540416717529297,-19.554227828979492,11.852919578552246,-179.50167846679688,-157.1824188232422, -73.39590454101562
635,101177292,0.43756813,0.31657514,-0.8374206,0.08391264,13.568403244018555,-12.9818696975708,4.123098850250244,-155.19314575195312,-164.80145263671875, -65.22161102294922
636,101193959,0.4264887,0.31774977,-0.84466183,0.060737655,12.381004333496094,-7.956137657165527,-3.988970994949341,-109.94910430908203,-137.4072265625, -54.50114059448242
637,101210626,0.4210515,0.3164141,-0.84900004,0.042387683,15.088175773620605,-6.87556266784668,3.5343692302703857,-100.4543685913086,-84.54886627197266, -34.486419677734375
638,101227293,0.422939,0.3147076,-0.8492074,0.030476818,3.0665502548217773,-7.896725654602051,13.041351318359375,-78.71852111816406,-15.772756576538086, -24.82204818725586
639,101243960,0.42973363,0.31358904,-0.84610647,0.033089105,3.902738094329834,-5.153996467590332,5.319235801696777,-2.172504425048828,53.74799346923828, 5.775447845458984
640,101260627,0.4403686,0.3119574,-0.8405548,0.047180656,6.041697025299072,-2.1420769691467285,4.083441734313965,55.342350006103516,108.18131256103516, 36.51236343383789
641,101277294,0.4543496,0.31088898,-0.83170855,0.07194133,4.842604637145996,-3.3010034561157227,4.363852024078369,112.6014175415039,160.1956329345703, 57.410621643066406
642,101293961,0.47335333,0.3081151,-0.8188874,0.10210398,4.716347694396973,-0.07944399118423462,4.966415882110596,129.38778686523438,213.73974609375, 73.06217956542969
643,101310628,0.499167,0.29881418,-0.80313593,0.12851214,4.6710991859436035,-0.996019721031189,3.9019548892974854,74.63311767578125,258.2598876953125, 86.60060119628906
644,101327295,0.5299103,0.28455442,-0.7837154,0.15496503,6.113373279571533,-1.8673067092895508,2.4868178367614746,50.965057373046875,302.58447265625, 102.23348999023438
645,101343962,0.56411594,0.2659609,-0.7603233,0.1815118,8.446260452270508,-0.45731306076049805,1.8306169509887695,33.132110595703125,340.5618591308594, 114.44572448730469
646,101360629,0.6004274,0.24227573,-0.73344666,0.20699179,11.179720878601074,0.2927992045879364,0.6705209612846375,8.300756454467773,369.5421142578125, 127.90286254882812
647,101377296,0.6356261,0.21719009,-0.7022492,0.2359115,14.921067237854004,0.7168525457382202,-2.010479688644409,27.908615112304688,389.5458679199219, 143.5340576171875
648,101393963,0.6683062,0.1930022,-0.66663265,0.267802,18.106483459472656,1.8313040733337402,-3.3579299449920654,57.15919494628906,399.7322082519531, 149.65748596191406
649,101410630,0.69727933,0.1734614,-0.62601674,0.30301133,20.953075408935547,1.8480724096298218,-5.697896480560303,107.93033599853516,401.612548828125, 143.80271911621094
650,101427297,0.7225574,0.1565871,-0.5832366,0.33649138,22.938119888305664,2.78212308883667,-7.775773525238037,122.17034149169922,388.5064697265625, 129.13619995117188
651,101443964,0.74391454,0.13941891,-0.543701,0.36268824,22.928499221801758,2.866659641265869,-10.220447540283203,88.23523712158203,349.5067443847656, 106.69843292236328
652,101460631,0.75994116,0.12578101,-0.50925463,0.38383356,21.4810848236084,-0.21404561400413513,-14.069294929504395,79.86126708984375,289.9288330078125, 85.85513305664062
653,101477298,0.769377,0.1274292,-0.4760636,0.40642884,17.411502838134766,1.1667883396148682,-16.932727813720703,167.35073852539062,221.26974487304688, 58.47492218017578
654,101493965,0.7729779,0.14101191,-0.4480805,0.42643294,14.67867660522461,2.645975112915039,-20.13232421875,212.61587524414062,139.091552734375, 26.62080955505371
655,101510632,0.7717361,0.15806738,-0.4311508,0.43994012,12.015868186950684,2.3050637245178223,-21.507156372070312,183.3897247314453,49.04820251464844, 6.379699230194092
656,101527299,0.76676124,0.16851425,-0.4329343,0.44299918,12.257753372192383,0.7758185863494873,-21.55767822265625,64.85877990722656,-52.55733108520508, 2.2305305004119873
657,101543966,0.7586858,0.17902713,-0.44694805,0.43884233,11.423149108886719,1.779471516609192,-17.964038848876953,10.13115119934082,-134.7074737548828, -12.346199035644531
658,101560633,0.7499248,0.1881655,-0.46585074,0.43033716,17.2049503326416,0.9766929149627686,6.413723468780518,-24.246871948242188,-163.42913818359375, -22.66957664489746
659,101577300,0.742761,0.19029999,-0.48489863,0.4206725,10.93528938293457,-0.898061990737915,15.234480857849121,-66.56563568115234,-139.83279418945312, -10.739575386047363
660,101593967,0.7326342,0.19301467,-0.5050237,0.41345334,17.022985458374023,3.0793826580047607,-6.827239513397217,-54.70402526855469,-153.75302124023438, 9.778833389282227
661,101610634,0.7203299,0.20154455,-0.5237488,0.40766641,16.655288696289062,0.058223940432071686,-0.5666105151176453,-13.519518852233887,-168.83953857421875, 1.1727895736694336
662,101627301,0.707637,0.20972784,-0.5406671,0.40366235,12.92355728149414,-1.3386553525924683,-3.6319761276245117,-3.1776506900787354,-157.82481384277344, 9.844564437866211
663,101643968,0.69354016,0.22123003,-0.5533058,0.40486035,13.85042667388916,-2.184459686279297,0.16700950264930725,46.24263000488281,-143.90283203125, 20.531551361083984
664,101660635,0.6816895,0.2307085,-0.56439894,0.40438464,11.191739082336426,1.0653477907180786,3.470133066177368,31.121408462524414,-124.89020538330078, 11.623106956481934
665,101677302,0.6728687,0.23442882,-0.57574004,0.40101644,10.755353927612305,-2.5608716011047363,2.5443806648254395,-12.589252471923828,-102.88821411132812, 12.375153541564941
666,101693969,0.66496134,0.23903063,-0.58378106,0.3998631,9.561800003051758,-2.427072763442993,2.008662462234497,7.884130001068115,-82.87998962402344, 11.275655746459961
667,101710636,0.6584847,0.24280487,-0.5902363,0.3988296,10.212403297424316,-2.2576534748077393,1.5246864557266235,6.588994026184082,-67.43018341064453, 8.587790489196777
668,101727303,0.65326667,0.24604203,-0.5959747,0.39688814,10.801592826843262,-2.090980052947998,0.8413949608802795,0.30809253454208374,-59.12834548950195, 1.9861294031143188
669,101743970,0.6484103,0.24976693,-0.600605,0.3955434,10.692697525024414,-0.5063091516494751,-0.6202117800712585,7.360184669494629,-53.0001106262207, -0.20263691246509552
670,101760637,0.64382154,0.25412565,-0.60428214,0.39466107,10.627555847167969,0.08529037982225418,-0.426119327545166,14.241425514221191,-48.57535171508789, -3.1226646900177
671,101777304,0.63995457,0.2572093,-0.6081103,0.3930695,10.291363716125488,-0.49578553438186646,0.8802869319915771,3.9762775897979736,-44.0267448425293, -2.658334970474243
672,101793971,0.6379365,0.25526947,-0.6144384,0.3877371,10.289422988891602,-0.48734238743782043,0.45719224214553833,-43.797332763671875,-40.34575653076172, 1.3096128702163696
673,101810638,0.636935,0.24986774,-0.62253004,0.3799166,9.995558738708496,-1.333194613456726,0.505635142326355,-75.97517395019531,-38.93601608276367, 5.413293361663818
674,101827305,0.6366144,0.24230537,-0.6318001,0.36991763,9.753311157226562,-1.3050066232681274,0.2890925109386444,-99.01898193359375,-39.29319381713867, 5.3682074546813965
675,101843972,0.6361578,0.2347959,-0.6407987,0.35993248,9.52791690826416,-2.2264771461486816,0.6114701628684998,-97.80819702148438,-38.82186508178711, 5.0977091789245605
676,101860639,0.63430506,0.23127985,-0.6481284,0.35227278,8.799540519714355,-3.5092461109161377,-0.42910638451576233,-63.72489547729492,-43.81387710571289, -1.5701044797897339
677,101877306,0.6312884,0.23174645,-0.65360636,0.34722838,8.761523246765137,-2.9530227184295654,-0.5908578634262085,-28.382524490356445,-46.417236328125, -8.05335807800293
678,101893973,0.62747896,0.23425178,-0.65841395,0.34334758,8.851685523986816,-2.741805076599121,-0.362977534532547,-11.447311401367188,-50.08820724487305, -11.353670120239258
679,101910640,0.622699,0.23813592,-0.663119,0.3403092,8.92143440246582,-3.4110677242279053,-0.16934028267860413,0.11030875146389008,-55.94166946411133, -11.849581718444824
680,101927307,0.6165575,0.24386163,-0.6676142,0.33864406,9.109195709228516,-3.708547830581665,-0.30771732330322266,16.960050582885742,-63.318115234375, -11.543912887573242
681,101943974,0.60887504,0.2518304,-0.6718313,0.33837155,9.234347343444824,-2.871269464492798,-0.18160834908485413,36.08021926879883,-72.1059341430664, -12.83716869354248
682,101960641,0.599561,0.261353,-0.67662084,0.338239,9.882256507873535,-1.0812501907348633,0.14111562073230743,44.70159149169922,-85.41896057128906, -14.66091537475586
683,101977308,0.58873826,0.2714646,-0.6827609,0.33694485,10.734065055847168,-0.3344286382198334,0.4771644175052643,41.30025863647461,-101.47341918945312, -16.262218475341797
684,101993975,0.57681054,0.2810994,-0.6908975,0.33306667,11.75531005859375,0.4947192370891571,-0.0040416717529296875,24.675548553466797,-118.4767074584961, -18.20130729675293
685,102010642,0.56385684,0.28994444,-0.70100254,0.3264861,11.837803840637207,0.8188551664352417,-0.010028839111328125,6.1750168800354,-134.58709716796875, -19.01201057434082
686,102027309,0.5500015,0.29708034,-0.7135037,0.31647164,12.345571517944336,0.6410452127456665,-0.055588796734809875,-20.576086044311523,-151.25027465820312, -17.283618927001953
687,102043976,0.53540987,0.3036286,-0.7271564,0.30395648,13.534745216369629,0.2945803105831146,0.3336651027202606,-36.080543518066406,-163.06739807128906, -19.900339126586914
688,102060643,0.5217656,0.30866182,-0.7414556,0.28763223,14.779470443725586,0.5896368026733398,1.3751215934753418,-64.02481842041016,-165.52516174316406, -26.97893714904785
689,102077310,0.5096374,0.31134835,-0.7565962,0.2662596,16.496000289916992,1.1838133335113525,2.1374027729034424,-103.08856201171875,-166.9270782470703, -34.333675384521484
690,102093977,0.49930903,0.31136304,-0.7723064,0.239346,18.907621383666992,1.5456351041793823,5.435338973999023,-146.18161010742188,-166.5834197998047, -41.923255920410156
691,102110644,0.48957947,0.30923057,-0.7880284,0.20904443,21.056995391845703,-0.19355198740959167,8.393089294433594,-172.87677001953125,-167.24168395996094, -43.104061126708984
692,102127311,0.47848284,0.30794358,-0.80255294,0.1792587,22.048620223999023,-2.504340410232544,8.669241905212402,-162.66017150878906,-170.83273315429688, -46.52416229248047
693,102143978,0.46185473,0.31147835,-0.8164994,0.15165775,21.91872215270996,-6.945714950561523,7.627137184143066,-122.36810302734375,-200.8813934326172, -60.35956573486328
694,102160645,0.44930315,0.31664777,-0.8258486,0.12583813,22.993907928466797,-10.798827171325684,17.49243927001953,-111.16207885742188,-161.37246704101562, -78.0093002319336
695,102177312,0.4430711,0.31633186,-0.8337856,0.09178186,13.749939918518066,-12.714117050170898,5.0889458656311035,-187.5624542236328,-134.48284912109375, -80.87818908691406
696,102193979,0.43472803,0.31692424,-0.8404155,0.065366745,14.036417961120605,-13.699332237243652,-6.066601276397705,-135.68019104003906,-126.62452697753906, -64.33845520019531
697,102210646,0.42524406,0.31986728,-0.84513855,0.050923683,12.81692123413086,-7.223386764526367,-1.9499778747558594,-56.217002868652344,-102.50025177001953, -45.81439208984375
698,102227313,0.4240879,0.31747702,-0.84735787,0.03664129,7.1093268394470215,-5.793367862701416,14.357638359069824,-88.3757553100586,-44.60213088989258, -22.79180145263672
699,102243980,0.42905262,0.3151307,-0.84576976,0.03577846,2.6401398181915283,-4.963472843170166,5.248862266540527,-22.5126953125,31.35636329650879, 6.220902442932129
700,102260647,0.43885368,0.3089476,-0.84273446,0.04192322,5.735108375549316,-2.7167131900787354,3.533437967300415,-3.2296903133392334,79.86278533935547, 44.86201477050781
701,102277314,0.4500214,0.30624443,-0.8363927,0.064361446,4.77337646484375,-4.9387054443359375,3.340125799179077,99.71723937988281,131.3622589111328, 66.44005584716797
