PacketCounter,SampleTimeFine,Quat_W,Quat_X,Quat_Y,Quat_Z,Acc_X,Acc_Y,Acc_Z,Gyr_X,Gyr_Y,Gyr_Z 
1,90996007,0.7853779,-0.17927235,-0.58674407,-0.08230666,0,0,0,0,0, 0
2,91012674,0.785807,-0.18008004,-0.58602625,-0.0815598,9.381707191467285,-2.0118815898895264,2.4671003818511963,1.517238974571228,2.6260766983032227, -0.25343766808509827
3,91029341,0.78628975,-0.18095754,-0.5852472,-0.080553696,9.411924362182617,-1.9863752126693726,2.4362633228302,2.5005874633789062,2.790574550628662, -0.8219500184059143
4,91046008,0.7865937,-0.18171526,-0.5846604,-0.080139056,9.380728721618652,-1.9774948358535767,2.3360562324523926,2.638345241546631,3.2165772914886475, -1.1367043256759644
5,91062675,0.786642,-0.18229534,-0.5844362,-0.079983674,9.33099365234375,-2.012113571166992,2.3333590030670166,3.289829969406128,3.2628087997436523, -1.1075189113616943
6,91079342,0.78665245,-0.1826096,-0.5843602,-0.07971932,9.37187671661377,-1.909226417541504,2.409320592880249,3.916764736175537,3.0764503479003906, -1.2084712982177734
7,91096009,0.7866997,-0.18274033,-0.58424574,-0.079791546,9.363617897033691,-1.7257659435272217,2.5309648513793945,3.500814437866211,2.955519914627075, -1.3567049503326416
8,91112676,0.78687704,-0.18244094,-0.58406353,-0.0800615,9.36245059967041,-1.6209453344345093,2.5816524028778076,2.9485788345336914,2.876619815826416, -1.481451392173767
9,91129343,0.78711826,-0.18196438,-0.583816,-0.08057888,9.320366859436035,-1.5893977880477905,2.559802770614624,2.2752721309661865,2.6927592754364014, -1.3393265008926392
10,91146010,0.78741664,-0.18132985,-0.58354694,-0.08104172,9.348855018615723,-1.6453893184661865,2.5175838470458984,2.2020328044891357,2.7416539192199707, -0.8181337118148804
11,91162677,0.78775895,-0.18070781,-0.5832316,-0.08137235,9.350958824157715,-1.7475496530532837,2.483780860900879,3.0352261066436768,2.96635365486145, 0.2651490569114685
12,91179344,0.78810906,-0.18011187,-0.58292663,-0.08148974,9.333066940307617,-1.6080431938171387,2.471482992172241,4.410667419433594,2.7947874069213867, 1.162656545639038
13,91196011,0.7884598,-0.1795193,-0.58264357,-0.081428535,9.324028968811035,-1.4790773391723633,2.597696304321289,4.35517692565918,2.8220396041870117, 1.9698406457901
14,91212678,0.7887841,-0.17903683,-0.5823519,-0.08143677,9.30932331085205,-1.419232964515686,2.6326701641082764,3.262244939804077,2.5912821292877197, 2.339214563369751
15,91229345,0.78903586,-0.17879508,-0.5820543,-0.08165543,9.291071891784668,-1.496340274810791,2.644256114959717,1.1392592191696167,2.21205997467041, 2.4658048152923584
16,91246012,0.7892515,-0.17869309,-0.5817466,-0.08198814,9.301834106445312,-1.657426357269287,2.5707473754882812,0.06846915185451508,2.0023818016052246, 2.3932571411132812
17,91262679,0.7894314,-0.17861561,-0.58149576,-0.08220387,9.288713455200195,-1.7363487482070923,2.559866428375244,0.32937291264533997,1.5018327236175537, 2.5820610523223877
18,91279346,0.789549,-0.17864075,-0.58129895,-0.08241014,9.252257347106934,-1.7254436016082764,2.5916712284088135,0.1555010974407196,0.9234851002693176, 2.545140504837036
19,91296013,0.78962904,-0.17866306,-0.58116525,-0.082537666,9.286803245544434,-1.7656563520431519,2.6062021255493164,0.26621201634407043,0.40738919377326965, 2.416936159133911
20,91312680,0.7896878,-0.17870097,-0.58105934,-0.08263965,9.339752197265625,-1.8350260257720947,2.578585147857666,0.4053017795085907,0.13371750712394714, 2.2499794960021973
21,91329347,0.78974676,-0.17863895,-0.58100927,-0.082561724,9.360079765319824,-1.8440113067626953,2.5734446048736572,1.266554355621338,-0.16148804128170013, 2.27492618560791
22,91346014,0.78978086,-0.17859428,-0.58098817,-0.08248008,9.345858573913574,-1.7394964694976807,2.549280881881714,1.2560274600982666,-0.3631112575531006, 2.041581869125366
23,91362681,0.7898022,-0.1786268,-0.58094895,-0.082482286,9.317922592163086,-1.7071011066436768,2.5459187030792236,0.700923502445221,-0.21718287467956543, 1.8411880731582642
24,91379348,0.78980315,-0.17877969,-0.5808871,-0.08257835,9.332780838012695,-1.7444700002670288,2.5205743312835693,0.12842848896980286,-0.16305045783519745, 1.881361722946167
25,91396015,0.78978294,-0.17892136,-0.5808639,-0.08262702,9.32353687286377,-1.775603175163269,2.5227041244506836,-0.035396743565797806,-0.3517007529735565, 1.8170605897903442
26,91412682,0.7897317,-0.17907529,-0.5808905,-0.082597874,9.286812782287598,-1.707177996635437,2.5505177974700928,0.044751789420843124,-0.7586482167243958, 2.051647663116455
27,91429349,0.7896479,-0.17931329,-0.5809312,-0.082596496,9.32484245300293,-1.6575828790664673,2.584425926208496,-0.6623572707176208,-0.9397684335708618, 2.1222362518310547
28,91446016,0.7895402,-0.17967224,-0.58095187,-0.08269996,9.352509498596191,-1.6534554958343506,2.618359088897705,-1.1605626344680786,-0.9932093024253845, 2.2159276008605957
29,91462683,0.7894674,-0.1799867,-0.5809485,-0.082735375,9.33751392364502,-1.6734739542007446,2.5580945014953613,-1.2354285717010498,-0.6820533871650696, 2.2910754680633545
30,91479350,0.7894246,-0.18025567,-0.58092177,-0.08274458,9.365737915039062,-1.7533005475997925,2.5254907608032227,-0.452384352684021,-0.5093725919723511, 2.395805597305298
31,91496017,0.7893974,-0.18052508,-0.58087856,-0.08271936,9.401559829711914,-1.7533595561981201,2.5361380577087402,-0.5221405029296875,-0.3235396146774292, 2.499011754989624
32,91512684,0.7893825,-0.18084902,-0.5808047,-0.08267391,9.34963607788086,-1.798713207244873,2.4844460487365723,-0.9216986298561096,-0.09950533509254456, 2.778535842895508
33,91529351,0.7893806,-0.18114254,-0.58073294,-0.08255293,9.262144088745117,-1.7703588008880615,2.4711344242095947,-0.2100113183259964,-0.13844946026802063, 3.069573402404785
34,91546018,0.789375,-0.18145132,-0.58065975,-0.082444936,9.252119064331055,-1.7523738145828247,2.4842143058776855,-0.3540700078010559,-0.10793192684650421, 3.009793281555176
35,91562685,0.7893402,-0.18183504,-0.58059204,-0.08241065,9.298812866210938,-1.795697808265686,2.4843125343322754,-0.8343209624290466,-0.2377498894929886, 2.9218649864196777
36,91579352,0.7892907,-0.18218772,-0.58055687,-0.082352936,9.31196403503418,-1.8674196004867554,2.481307029724121,-0.9431236386299133,-0.38886478543281555, 2.7325611114501953
37,91596019,0.78922325,-0.18252978,-0.58054763,-0.08230509,9.324108123779297,-1.8722574710845947,2.5076115131378174,-0.7315499186515808,-0.6034095287322998, 2.5867738723754883
38,91612686,0.78912264,-0.18282352,-0.58060247,-0.082229406,9.311367988586426,-1.790932059288025,2.5491654872894287,-0.5982741713523865,-1.0337029695510864, 2.328277349472046
39,91629353,0.7889813,-0.18316905,-0.5806874,-0.082217194,9.3231782913208,-1.772430658340454,2.5636136531829834,-1.038249135017395,-1.3453710079193115, 2.14778470993042
40,91646020,0.788831,-0.18346705,-0.58080065,-0.082196444,9.3399076461792,-1.826233983039856,2.5395123958587646,-1.0613389015197754,-1.468004584312439, 1.868849515914917
41,91662687,0.7886966,-0.18372944,-0.5808973,-0.0822163,9.342480659484863,-1.8767107725143433,2.453105926513672,-0.7422048449516296,-1.3035199642181396, 1.590093970298767
42,91679354,0.7886338,-0.18387245,-0.58094466,-0.08216395,9.311861991882324,-1.910622477531433,2.3933463096618652,0.14898265898227692,-0.7316395044326782, 1.5430816411972046
43,91696021,0.78862804,-0.18386967,-0.58096564,-0.082077585,9.364103317260742,-1.906551718711853,2.4024040699005127,1.0613837242126465,-0.2739662528038025, 1.148659110069275
44,91712688,0.78865606,-0.1838386,-0.58093935,-0.08206446,9.349421501159668,-1.902151346206665,2.4194176197052,1.287876844406128,0.1838543713092804, 0.7786708474159241
45,91729355,0.78871626,-0.18378516,-0.58087796,-0.08203966,9.37935733795166,-1.8763401508331299,2.4245269298553467,1.2272261381149292,0.5725527405738831, 0.7174822092056274
46,91746022,0.78877074,-0.18383713,-0.5807773,-0.08211219,9.358986854553223,-1.893829107284546,2.4064507484436035,0.3700074553489685,0.8172692060470581, 0.6744143962860107
47,91762689,0.78884536,-0.18386011,-0.58065957,-0.08217646,9.381762504577637,-1.8761910200119019,2.425031900405884,0.5644334554672241,1.0191742181777954, 0.6109460592269897
48,91779356,0.78894925,-0.18388407,-0.58050066,-0.082248904,9.356314659118652,-1.7807308435440063,2.482830286026001,0.49002861976623535,1.395194172859192, 0.6105491518974304
49,91796023,0.7890851,-0.18393002,-0.58029,-0.082328364,9.357425689697266,-1.7258145809173584,2.4683384895324707,0.3045285642147064,1.8097612857818604, 0.7377033829689026
50,91812690,0.7892392,-0.18404917,-0.5800279,-0.08243155,9.38962459564209,-1.7596957683563232,2.497379779815674,-0.1547263115644455,2.145595073699951, 1.0052536725997925
51,91829357,0.78945076,-0.18411158,-0.5797186,-0.082443535,9.34046745300293,-1.8858528137207031,2.474478006362915,0.45593807101249695,2.5686914920806885, 1.348041296005249
52,91846024,0.7897267,-0.18403883,-0.57938963,-0.08227706,9.303723335266113,-1.8641780614852905,2.451505661010742,1.9825063943862915,2.784389019012451, 1.8259488344192505
53,91862691,0.7900014,-0.18392938,-0.5790783,-0.08207498,9.322759628295898,-1.7330818176269531,2.540135622024536,2.5138542652130127,2.6287403106689453, 1.8882769346237183
54,91879358,0.79022425,-0.18393064,-0.5787894,-0.0819653,9.295669555664062,-1.6119236946105957,2.595975637435913,1.4330753087997437,2.3595380783081055, 1.7686656713485718
55,91896025,0.79038817,-0.1840671,-0.57852226,-0.08196267,9.266090393066406,-1.5985980033874512,2.5977046489715576,0.24797573685646057,2.0399169921875, 1.7104992866516113
56,91912692,0.79046977,-0.18431553,-0.5783243,-0.08201382,9.270271301269531,-1.6478734016418457,2.5931830406188965,-0.6769692897796631,1.3313928842544556, 1.7536824941635132
57,91929359,0.79050404,-0.18456718,-0.57819986,-0.08199563,9.287103652954102,-1.7622817754745483,2.5800633430480957,-0.589809238910675,0.6714049577713013, 2.004955768585205
58,91946026,0.7904978,-0.18480714,-0.57814175,-0.081924945,9.292613983154297,-1.7552168369293213,2.5571396350860596,-0.23965802788734436,0.06115671992301941, 2.166494846343994
59,91962693,0.7904723,-0.18506797,-0.5781057,-0.081836104,9.32339859008789,-1.7406058311462402,2.573026180267334,-0.33632034063339233,-0.16508665680885315, 2.3029723167419434
60,91979360,0.7904364,-0.18533108,-0.5780833,-0.081746414,9.319045066833496,-1.7491552829742432,2.5632309913635254,-0.23301152884960175,-0.3146776258945465, 2.335474729537964
61,91996027,0.7903952,-0.18557405,-0.5780754,-0.0816486,9.29162311553955,-1.762535572052002,2.5295250415802,-0.174012690782547,-0.3994300663471222, 2.2627475261688232
62,92012694,0.79032475,-0.18584538,-0.57809824,-0.081551895,9.271011352539062,-1.7534441947937012,2.5003106594085693,-0.29761961102485657,-0.7099968791007996, 2.333925724029541
63,92029361,0.7902178,-0.18616095,-0.57815534,-0.0814628,9.279510498046875,-1.8297079801559448,2.487154960632324,-0.7727223634719849,-1.015940546989441, 2.3611643314361572
64,92046028,0.7900851,-0.18652007,-0.5782309,-0.081393786,9.32931900024414,-1.8731253147125244,2.482753276824951,-0.9558146595954895,-1.2462115287780762, 2.426387071609497
65,92062695,0.7899803,-0.18683504,-0.57827806,-0.081354395,9.391626358032227,-1.9223926067352295,2.495068073272705,-0.8054170608520508,-0.9134770035743713, 2.1368227005004883
66,92079362,0.7899118,-0.18707561,-0.578304,-0.08128175,9.389097213745117,-2.0020060539245605,2.436056137084961,-0.2942003309726715,-0.6354126930236816, 2.0418765544891357
67,92096029,0.7898838,-0.1872297,-0.57830745,-0.08117549,9.33120346069336,-1.9471933841705322,2.449885129928589,0.36629360914230347,-0.33753690123558044, 1.916579008102417
68,92112696,0.7898803,-0.187349,-0.57828957,-0.08106012,9.273441314697266,-1.8606632947921753,2.4343817234039307,0.494741290807724,-0.08349739760160446, 1.8241299390792847
69,92129363,0.78988725,-0.18746614,-0.5782509,-0.080997795,9.321229934692383,-1.823930263519287,2.474843978881836,0.4003841280937195,0.1269301474094391, 1.5865979194641113
70,92146030,0.7899055,-0.18754272,-0.5782068,-0.08095767,9.335613250732422,-1.851794958114624,2.4665310382843018,0.5229408740997314,0.2601289451122284, 1.3167552947998047
71,92162697,0.7899177,-0.18759774,-0.5781796,-0.080905676,9.310479164123535,-1.9329488277435303,2.482398271560669,0.6923817992210388,0.1458066999912262, 1.272983193397522
72,92179364,0.7899462,-0.18759766,-0.5781514,-0.08082735,9.344427108764648,-1.9588741064071655,2.457172155380249,1.0928363800048828,0.22137698531150818, 1.1927260160446167
73,92196031,0.7899994,-0.18754052,-0.57811296,-0.080715306,9.346057891845703,-1.9299957752227783,2.4799296855926514,1.6145793199539185,0.3595830202102661, 1.1806235313415527
74,92212698,0.7900823,-0.18742195,-0.57805794,-0.080573685,9.334121704101562,-1.8725649118423462,2.4679040908813477,2.077375888824463,0.5713873505592346, 1.1246728897094727
75,92229365,0.7901613,-0.18732715,-0.5779963,-0.08046154,9.34253978729248,-1.7525074481964111,2.5142927169799805,1.9055273532867432,0.6040691137313843, 1.089634656906128
76,92246032,0.79021865,-0.1873013,-0.5779333,-0.08041063,9.300017356872559,-1.6911872625350952,2.515709400177002,1.221834659576416,0.5743712186813354, 1.025282859802246
77,92262699,0.7902445,-0.18737625,-0.5778729,-0.080416515,9.310912132263184,-1.6749157905578613,2.5348398685455322,0.3562021851539612,0.462725430727005, 1.1018646955490112
78,92279366,0.79024965,-0.18761219,-0.57777417,-0.08052566,9.329122543334961,-1.7176768779754639,2.547067880630493,-0.9021944403648376,0.6127902269363403, 1.2603559494018555
79,92296033,0.7902285,-0.18792523,-0.57768184,-0.080663286,9.35389232635498,-1.793716549873352,2.5387516021728516,-1.509407639503479,0.473124235868454, 1.3935165405273438
80,92312700,0.7902095,-0.18822433,-0.57759416,-0.080780014,9.352104187011719,-1.8675215244293213,2.5009825229644775,-1.3463953733444214,0.43603697419166565, 1.4557809829711914
81,92329367,0.7901998,-0.18843049,-0.5775413,-0.080774345,9.359044075012207,-1.9013043642044067,2.493607997894287,-0.3962540328502655,0.19535446166992188, 1.6937741041183472
82,92346034,0.79020965,-0.18855226,-0.577497,-0.080709115,9.336814880371094,-1.818984866142273,2.4711997509002686,0.39161184430122375,0.18628756701946259, 1.6988584995269775
83,92362701,0.79023147,-0.1886549,-0.577442,-0.08065011,9.34378433227539,-1.8072820901870728,2.45625638961792,0.4682578146457672,0.3182058036327362, 1.6131582260131836
84,92379368,0.79026765,-0.18870664,-0.57738614,-0.08057404,9.325234413146973,-1.8467040061950684,2.450526475906372,0.8706973791122437,0.38345417380332947, 1.5326063632965088
85,92396035,0.79031026,-0.18874586,-0.577324,-0.08051062,9.327985763549805,-1.8678408861160278,2.4486865997314453,0.8838621973991394,0.47580069303512573, 1.427927017211914
86,92412702,0.7903496,-0.18875863,-0.5772739,-0.080452494,9.332365036010742,-1.874114990234375,2.4696075916290283,1.0170612335205078,0.4234867990016937, 1.2816660404205322
87,92429369,0.79038167,-0.18876645,-0.5772348,-0.080399945,9.33141040802002,-1.870089054107666,2.473693609237671,0.9869531393051147,0.35656073689460754, 1.2072993516921997
88,92446036,0.7904148,-0.18879306,-0.57718617,-0.080361396,9.338773727416992,-1.8202160596847534,2.47275972366333,0.8658949732780457,0.4173141419887543, 1.2333347797393799
89,92462703,0.79046106,-0.18883611,-0.577112,-0.08033798,9.356576919555664,-1.8366711139678955,2.4835364818573,0.6568953394889832,0.6370582580566406, 1.2478954792022705
90,92479370,0.7905296,-0.18885987,-0.5770185,-0.08027952,9.326058387756348,-1.8372503519058228,2.4746100902557373,0.9963212013244629,0.7831723093986511, 1.4277799129486084
91,92496037,0.7906076,-0.1888476,-0.57692635,-0.08020137,9.314461708068848,-1.7823888063430786,2.490567684173584,1.2910529375076294,0.8103666305541992, 1.4042097330093384
92,92512704,0.79067916,-0.18885157,-0.57683736,-0.080126904,9.346022605895996,-1.7589869499206543,2.528296709060669,1.1120713949203491,0.7822822332382202, 1.432844877243042
93,92529371,0.79073435,-0.18892086,-0.5767429,-0.08010026,9.326170921325684,-1.8176116943359375,2.503679037094116,0.559374988079071,0.7690277695655823, 1.4488401412963867
94,92546038,0.7907893,-0.18899988,-0.57664865,-0.08005029,9.329886436462402,-1.842128038406372,2.4656026363372803,0.5982677340507507,0.7337589263916016, 1.6222120523452759
95,92562705,0.79082966,-0.18906526,-0.5765774,-0.080008194,9.304412841796875,-1.835999608039856,2.472202777862549,0.677577555179596,0.5660214424133301, 1.5059946775436401
96,92579372,0.7908517,-0.1891449,-0.5765287,-0.07995312,9.306009292602539,-1.8035929203033447,2.518980026245117,0.6109589338302612,0.3568938076496124, 1.5923352241516113
97,92596039,0.79084724,-0.18926448,-0.57649827,-0.079934545,9.290736198425293,-1.7545208930969238,2.517695665359497,0.1850837618112564,0.18815727531909943, 1.5126923322677612
98,92612706,0.79081565,-0.18942508,-0.5764859,-0.07995503,9.306764602661133,-1.791723370552063,2.501086473464966,-0.20281414687633514,0.008061597123742104, 1.4427568912506104
99,92629373,0.79077697,-0.18961087,-0.576476,-0.07996876,9.347062110900879,-1.8395624160766602,2.5010197162628174,-0.2578430473804474,-0.06796329468488693, 1.6004925966262817
100,92646040,0.7907408,-0.1897756,-0.576474,-0.0799497,9.363155364990234,-1.845977544784546,2.497743606567383,-0.048843421041965485,-0.11867644637823105, 1.6822102069854736
101,92662707,0.7907155,-0.18995292,-0.5764541,-0.079922624,9.366442680358887,-1.8860186338424683,2.4802966117858887,-0.04591076076030731,0.00004482221993384883, 1.8223884105682373
102,92679374,0.79071367,-0.19007072,-0.57643276,-0.0798155,9.303808212280273,-1.8847222328186035,2.4296457767486572,0.5117993950843811,0.05999134108424187, 2.0097708702087402
103,92696041,0.7907323,-0.1901457,-0.5763968,-0.07971019,9.286962509155273,-1.8225045204162598,2.446598529815674,0.8044115304946899,0.2433014214038849, 1.877890944480896
104,92712708,0.7907553,-0.19018812,-0.5763637,-0.07962163,9.311710357666016,-1.8250588178634644,2.4467365741729736,0.9213079810142517,0.2915685474872589, 1.66519033908844
105,92729375,0.7907714,-0.19022845,-0.5763353,-0.079571664,9.332806587219238,-1.847785234451294,2.4981706142425537,0.7859064936637878,0.2935023009777069, 1.449877381324768
106,92746042,0.7907737,-0.19027348,-0.5763224,-0.07953351,9.325639724731445,-1.8550097942352295,2.5005974769592285,0.6918438076972961,0.17377576231956482, 1.3816065788269043
107,92762709,0.79076546,-0.19034107,-0.57631356,-0.07951644,9.347755432128906,-1.8207112550735474,2.497811794281006,0.5067151784896851,0.12101361155509949, 1.3618848323822021
108,92779376,0.79076296,-0.19040987,-0.57629454,-0.07951467,9.335736274719238,-1.847705602645874,2.473703145980835,0.45451653003692627,0.21885409951210022, 1.3142706155776978
109,92796043,0.79076195,-0.19047205,-0.5762776,-0.07949808,9.332484245300293,-1.8611361980438232,2.4935765266418457,0.5439432859420776,0.20434452593326569, 1.3727574348449707
110,92812710,0.79077786,-0.1905097,-0.576249,-0.07945823,9.342973709106445,-1.8591954708099365,2.476564407348633,0.789722740650177,0.3201267421245575, 1.4352011680603027
111,92829377,0.7908017,-0.19054285,-0.57621205,-0.07941038,9.326751708984375,-1.8150101900100708,2.4970991611480713,0.8751155138015747,0.3890889585018158, 1.490716814994812
112,92846044,0.7908052,-0.19062959,-0.57617927,-0.079404294,9.30394172668457,-1.7744433879852295,2.4913957118988037,0.4050072431564331,0.3123788833618164, 1.4736459255218506
113,92862711,0.79081404,-0.19071446,-0.57614,-0.079397514,9.297886848449707,-1.819047451019287,2.4476122856140137,0.36288711428642273,0.38422253727912903, 1.4787557125091553
114,92879378,0.79082876,-0.19076432,-0.5761061,-0.07937665,9.321920394897461,-1.8383550643920898,2.467923164367676,0.6179768443107605,0.3854007124900818, 1.4225231409072876
115,92896045,0.7908408,-0.19081065,-0.5760764,-0.07936121,9.332205772399902,-1.8422658443450928,2.500636577606201,0.653296709060669,0.3574444353580475, 1.3921974897384644
116,92912712,0.790836,-0.19088773,-0.576057,-0.07936505,9.333514213562012,-1.8352088928222656,2.4720170497894287,0.4276103973388672,0.2385374754667282, 1.4055289030075073
117,92929379,0.7908302,-0.19096605,-0.5760418,-0.079344876,9.33251953125,-1.855749487876892,2.4811809062957764,0.4381116032600403,0.20203937590122223, 1.5224506855010986
118,92946046,0.79082793,-0.19101597,-0.5760317,-0.079319745,9.332327842712402,-1.818212866783142,2.477137565612793,0.6909729838371277,0.1866205334663391, 1.4607243537902832
119,92962713,0.79083407,-0.19105062,-0.576016,-0.07928878,9.355161666870117,-1.8535466194152832,2.4841909408569336,0.7778512835502625,0.26151207089424133, 1.4472007751464844
120,92979380,0.7908485,-0.19108497,-0.57598776,-0.0792677,9.361104965209961,-1.8658474683761597,2.4755611419677734,0.787929892539978,0.3704300820827484, 1.4344714879989624
121,92996047,0.7908719,-0.19109114,-0.5759575,-0.079238914,9.329751968383789,-1.8892639875411987,2.4457991123199463,0.9246633648872375,0.44044241309165955, 1.3643437623977661
122,93012714,0.79089004,-0.1911084,-0.5759273,-0.07923684,9.33359146118164,-1.8166606426239014,2.482954740524292,0.7790166735649109,0.449483722448349, 1.2737387418746948
123,93029381,0.7908898,-0.19116715,-0.57590264,-0.07927607,9.317413330078125,-1.8394901752471924,2.4585530757904053,0.3753221035003662,0.38137951493263245, 1.2093229293823242
124,93046048,0.79089075,-0.19121923,-0.5758789,-0.079313874,9.343725204467773,-1.865288496017456,2.470719814300537,0.4531974494457245,0.3803677558898926, 1.2089130878448486
125,93062715,0.7908966,-0.19124934,-0.57585996,-0.079319894,9.360445022583008,-1.8401362895965576,2.4869463443756104,0.6579325795173645,0.3611326515674591, 1.2854821681976318
126,93079382,0.7909076,-0.19127546,-0.5758386,-0.07930125,9.318336486816406,-1.8316500186920166,2.489122152328491,0.7939361333847046,0.3656276762485504, 1.4224845170974731
127,93096049,0.790928,-0.19128051,-0.575814,-0.07926442,9.32788372039795,-1.8002610206604004,2.4939382076263428,0.9636715054512024,0.41863322257995605, 1.4499926567077637
128,93112716,0.7909546,-0.19128945,-0.5757762,-0.07925267,9.31864070892334,-1.7964733839035034,2.489597797393799,0.871619462966919,0.5419583916664124, 1.3695688247680664
129,93129383,0.79098266,-0.19130461,-0.5757346,-0.07923846,9.324238777160645,-1.7922602891921997,2.474998950958252,0.8826969265937805,0.5578253269195557, 1.4356495141983032
130,93146050,0.7910023,-0.19133568,-0.57569766,-0.07923637,9.332647323608398,-1.8036001920700073,2.479954957962036,0.6876817941665649,0.5219036340713501, 1.41996169090271
131,93162717,0.79100966,-0.19140108,-0.5756651,-0.07923991,9.322127342224121,-1.8383030891418457,2.48210072517395,0.4958554208278656,0.4362034797668457, 1.5336052179336548
132,93179384,0.79102474,-0.19146283,-0.57562524,-0.07923076,9.316678047180176,-1.8206915855407715,2.4508907794952393,0.5816068649291992,0.49361440539360046, 1.6141316890716553
133,93196051,0.7910294,-0.19153558,-0.5755921,-0.07924969,9.327797889709473,-1.8408565521240234,2.4874255657196045,0.4047638773918152,0.4514686167240143, 1.501742959022522
134,93212718,0.7910281,-0.19158505,-0.57557625,-0.079258606,9.331831932067871,-1.8735014200210571,2.4834749698638916,0.5505001544952393,0.34233295917510986, 1.4413483142852783
135,93229385,0.79103744,-0.19163568,-0.5755466,-0.07925792,9.356045722961426,-1.845219612121582,2.4937009811401367,0.5960267782211304,0.4488561749458313, 1.5313129425048828
136,93246052,0.7910389,-0.1916789,-0.5755291,-0.079266705,9.322148323059082,-1.8209441900253296,2.4732306003570557,0.6100625395774841,0.3696872889995575, 1.4439607858657837
137,93262719,0.79102695,-0.19174547,-0.5755184,-0.079301886,9.307249069213867,-1.836447834968567,2.4603514671325684,0.3841584622859955,0.3014678657054901, 1.3925304412841797
138,93279386,0.7910246,-0.191793,-0.57550424,-0.07931217,9.328182220458984,-1.8850505352020264,2.4641542434692383,0.5686979293823242,0.3478780686855316, 1.46349036693573
139,93296053,0.79102933,-0.19179712,-0.57549995,-0.07928734,9.337985038757324,-1.8370853662490845,2.4810032844543457,0.9401718378067017,0.3092157542705536, 1.4747728109359741
140,93312720,0.7910294,-0.19182774,-0.57548845,-0.07929448,9.349324226379395,-1.8263300657272339,2.478426218032837,0.7208118438720703,0.3478141129016876, 1.4392609596252441
141,93329387,0.7910291,-0.19185098,-0.5754785,-0.07931317,9.339936256408691,-1.8247809410095215,2.4705286026000977,0.7091965079307556,0.36330974102020264, 1.3535990715026855
142,93346054,0.79102653,-0.19188403,-0.5754679,-0.07933768,9.324646949768066,-1.8087338209152222,2.463705539703369,0.6605963110923767,0.3586481809616089, 1.3793525695800781
143,93362721,0.79101527,-0.1919368,-0.5754637,-0.07935224,9.296218872070312,-1.8065214157104492,2.477224111557007,0.5508714914321899,0.2779810130596161, 1.4997835159301758
144,93379388,0.7909956,-0.19202463,-0.5754578,-0.07937959,9.317476272583008,-1.789954423904419,2.4813849925994873,0.2944500148296356,0.2557748556137085, 1.5764425992965698
145,93396055,0.7909757,-0.19211335,-0.57544947,-0.079422206,9.334244728088379,-1.8604061603546143,2.4818148612976074,0.2636379301548004,0.2833212912082672, 1.5222971439361572
146,93412722,0.790971,-0.19214538,-0.5754461,-0.079416394,9.329328536987305,-1.9075552225112915,2.4557204246520996,0.7372807860374451,0.2979333698749542, 1.5568617582321167
147,93429389,0.79098046,-0.19212946,-0.5754424,-0.07938707,9.341265678405762,-1.8932362794876099,2.4615390300750732,1.1591089963912964,0.34595707058906555, 1.52150297164917
148,93446056,0.7909817,-0.19211264,-0.57544917,-0.07936665,9.331940650939941,-1.8266596794128418,2.484088182449341,1.0574395656585693,0.2890969514846802, 1.4378905296325684
149,93462723,0.7909517,-0.19215097,-0.57547545,-0.07938305,9.324406623840332,-1.8032746315002441,2.5150341987609863,0.6251739263534546,0.07136337459087372, 1.4348043203353882
150,93479390,0.7909102,-0.19224724,-0.57549405,-0.07942841,9.347575187683105,-1.8025238513946533,2.4749488830566406,0.20761656761169434,0.06869325786828995, 1.5305894613265991
151,93496057,0.79086614,-0.19235647,-0.5755108,-0.07948079,9.336932182312012,-1.8240313529968262,2.4794492721557617,0.06294962018728256,0.08423376828432083, 1.5440680980682373
152,93512724,0.790836,-0.19245225,-0.57551545,-0.079515375,9.350996971130371,-1.8733004331588745,2.465071678161621,0.24513277411460876,0.18605704605579376, 1.6283209323883057
153,93529391,0.7908119,-0.19250946,-0.5755283,-0.07952354,9.3336820602417,-1.8530387878417969,2.480466604232788,0.6196800470352173,0.14574268460273743, 1.6317148208618164
154,93546058,0.7907981,-0.19254981,-0.5755319,-0.079535596,9.311967849731445,-1.8641695976257324,2.4864859580993652,0.6595718860626221,0.2653539776802063, 1.5568617582321167
155,93562725,0.79078996,-0.19254307,-0.57554847,-0.079512976,9.318211555480957,-1.8543733358383179,2.46657395362854,1.0628694295883179,0.20055383443832397, 1.5502662658691406
156,93579392,0.790772,-0.19253843,-0.5755766,-0.07950084,9.316817283630371,-1.8338408470153809,2.490943670272827,1.0220491886138916,0.11060845106840134, 1.4932588338851929
157,93596059,0.7907264,-0.1925662,-0.5756266,-0.0795245,9.339839935302734,-1.8083182573318481,2.479870080947876,0.6741454601287842,-0.0838431715965271, 1.3898411989212036
158,93612726,0.79067135,-0.19262958,-0.57567585,-0.07956242,9.336530685424805,-1.844276785850525,2.494568109512329,0.39801496267318726,-0.11160735040903091, 1.4554609060287476
159,93629393,0.7906047,-0.19267628,-0.57574815,-0.07958735,9.333832740783691,-1.829033613204956,2.4659979343414307,0.5215193033218384,-0.28563281893730164, 1.4265952110290527
160,93646060,0.79053086,-0.19274095,-0.5758206,-0.07963969,9.324139595031738,-1.8564226627349854,2.465646505355835,0.36288711428642273,-0.2978244423866272, 1.3687617778778076
161,93662727,0.79048985,-0.19277272,-0.5758626,-0.07966726,9.317349433898926,-1.8716285228729248,2.433192253112793,0.6475594639778137,-0.008759542368352413, 1.4330112934112549
162,93679394,0.7904625,-0.19276747,-0.57590145,-0.07967003,9.338444709777832,-1.883556604385376,2.4433376789093018,0.9451661705970764,0.058633871376514435, 1.4330881834030151
163,93696061,0.79045177,-0.19272791,-0.57592905,-0.07967214,9.374768257141113,-1.8270927667617798,2.464107036590576,1.2027148008346558,0.19727542996406555, 1.3443529605865479
164,93712728,0.79043305,-0.19272093,-0.5759506,-0.07971882,9.34546184539795,-1.821190357208252,2.4505181312561035,0.8340070843696594,0.24398015439510345, 1.243323564529419
165,93729395,0.7904297,-0.19271575,-0.57595044,-0.079766415,9.349324226379395,-1.8372701406478882,2.4523167610168457,0.8509883880615234,0.4221036732196808, 1.2973408699035645
166,93746062,0.79044044,-0.19272676,-0.5759244,-0.079820976,9.35340690612793,-1.8267300128936768,2.464641571044922,0.7548767328262329,0.6196801066398621, 1.3774062395095825
167,93762729,0.7904416,-0.1927612,-0.5759014,-0.07989354,9.330296516418457,-1.8060904741287231,2.4769906997680664,0.5583504438400269,0.576292097568512, 1.3750240802764893
168,93779396,0.79042554,-0.19284864,-0.57588255,-0.07997814,9.316875457763672,-1.8160127401351929,2.4891390800476074,0.20296141505241394,0.47468653321266174, 1.5139729976654053
169,93796063,0.790412,-0.19293189,-0.57586426,-0.08004144,9.331299781799316,-1.8147945404052734,2.44962215423584,0.27978676557540894,0.4646080434322357, 1.6126461029052734
170,93812730,0.7904139,-0.19299358,-0.5758334,-0.08009655,9.314501762390137,-1.838152289390564,2.4388339519500732,0.416891485452652,0.6042484045028687, 1.5979057550430298
171,93829397,0.79040605,-0.19301996,-0.57582814,-0.08014824,9.331981658935547,-1.8572899103164673,2.471498489379883,0.671328067779541,0.4345643222332001, 1.4571385383605957
172,93846064,0.79036915,-0.19307613,-0.57584774,-0.08023588,9.320089340209961,-1.8697264194488525,2.472480297088623,0.2943219542503357,0.22906076908111572, 1.3230559825897217
173,93862731,0.7902988,-0.19316715,-0.57589567,-0.080364265,9.337284088134766,-1.847770094871521,2.505463123321533,-0.05442699044942856,-0.02602250501513481, 1.196798324584961
174,93879398,0.79020333,-0.19329381,-0.5759632,-0.080514565,9.336115837097168,-1.794954776763916,2.475419044494629,-0.34673190116882324,-0.22575032711029053, 1.1877696514129639
175,93896065,0.7900892,-0.193396,-0.5760628,-0.08067741,9.302364349365234,-1.7561075687408447,2.4486026763916016,-0.2421552687883377,-0.44801729917526245, 0.9867867827415466
176,93912732,0.7899323,-0.19353232,-0.5761987,-0.08091624,9.315130233764648,-1.7784942388534546,2.480337142944336,-0.8581790924072266,-0.7096510529518127, 0.6216650009155273
177,93929399,0.78980255,-0.19372983,-0.5762794,-0.08113397,9.392446517944336,-1.9283130168914795,2.486125946044922,-1.078051209449768,-0.36896374821662903, 1.0831674337387085
178,93946066,0.7897467,-0.19375694,-0.57634264,-0.081163846,9.385845184326172,-1.8587363958358765,2.373098373413086,0.6882196068763733,-0.13715600967407227, 1.4958138465881348
179,93962733,0.7897218,-0.19372624,-0.5763877,-0.08115965,9.317776679992676,-1.8652411699295044,2.4128024578094482,1.108383059501648,0.09298049658536911, 1.4817649126052856
180,93979400,0.7897196,-0.19370025,-0.5764011,-0.08114834,9.321520805358887,-1.8778443336486816,2.4185359477996826,1.2318875789642334,0.3227904140949249, 1.6274757385253906
181,93996067,0.7897256,-0.19368623,-0.5763999,-0.08113259,9.34316349029541,-1.8452093601226807,2.451812744140625,1.128566026687622,0.4393922984600067, 1.7097054719924927
182,94012734,0.7897258,-0.19369109,-0.5763974,-0.08113566,9.34579849243164,-1.8595203161239624,2.416736125946045,0.9104226231575012,0.4475882947444916, 1.677036166191101
183,94029401,0.7897227,-0.19369937,-0.57639563,-0.081158735,9.359478950500488,-1.8238673210144043,2.4413628578186035,0.823032021522522,0.45630940794944763, 1.5871870517730713
184,94046068,0.78969353,-0.19375576,-0.5764043,-0.081246614,9.321638107299805,-1.811397671699524,2.4460959434509277,0.2818613648414612,0.35709866881370544, 1.4056185483932495
185,94062735,0.78966373,-0.19383253,-0.5764037,-0.08135766,9.354487419128418,-1.829903483390808,2.4386582374572754,0.13864794373512268,0.4122556149959564, 1.397422432899475
186,94079402,0.7896359,-0.19390856,-0.5764025,-0.08145572,9.376517295837402,-1.824596643447876,2.461308002471924,0.21692034602165222,0.4044437110424042, 1.478358507156372
187,94096069,0.78961664,-0.19397673,-0.57639265,-0.08154919,9.359519958496094,-1.8313798904418945,2.4515082836151123,0.2347467690706253,0.49659815430641174, 1.481368064880371
188,94112736,0.7896133,-0.19405125,-0.5763544,-0.081674665,9.357991218566895,-1.8258188962936401,2.420241117477417,0.08972768485546112,0.7524562478065491, 1.3883682489395142
189,94129403,0.78961897,-0.19419552,-0.57626355,-0.08191729,9.425064086914062,-1.7162281274795532,2.463684558868408,-0.7438057065010071,1.1885894536972046, 1.117296576499939
190,94146070,0.78958166,-0.19488938,-0.57597834,-0.0826311,9.458524703979492,-1.850277066230774,2.5633139610290527,-5.847085952758789,2.412992000579834, 0.9617121815681458
191,94162737,0.78952277,-0.19574358,-0.5756641,-0.08336212,9.303328514099121,-2.306100845336914,2.3687186241149902,-6.756732940673828,2.39538311958313, 1.5570921897888184
192,94179404,0.7894843,-0.19619487,-0.5755388,-0.08353111,9.29953670501709,-2.4002280235290527,2.229661464691162,-2.2683119773864746,0.9443594813346863, 2.733137607574463
193,94196071,0.7894747,-0.19625454,-0.5755549,-0.08336875,9.249587059020996,-1.9955025911331177,2.3827667236328125,1.3436743021011353,0.07151706516742706, 2.795671224594116
194,94212738,0.78950113,-0.19610147,-0.5755996,-0.08316978,9.2281494140625,-1.637853741645813,2.4111180305480957,2.6536996364593506,0.14808622002601624, 2.1148853302001953
195,94229405,0.78958017,-0.19574435,-0.57563967,-0.08298347,9.216523170471191,-1.5889097452163696,2.4181931018829346,3.794694662094116,0.5146937370300293, 1.2948821783065796
196,94246072,0.78967386,-0.1952321,-0.5757048,-0.0828472,9.223377227783203,-1.6521514654159546,2.446398973464966,4.504640579223633,0.5874850153923035, 0.41025787591934204
197,94262739,0.78967416,-0.19470148,-0.57590294,-0.08271635,9.301000595092773,-1.995039463043213,2.465177536010742,4.589649200439453,-0.4982054829597473, 0.10562039166688919
198,94279406,0.78955704,-0.19405434,-0.57631785,-0.082465336,9.35506820678711,-2.107433319091797,2.510531425476074,5.6110453605651855,-2.2201859951019287, -0.08024460822343826
199,94296073,0.78928566,-0.19337852,-0.57692975,-0.0823711,9.53773307800293,-2.0721957683563232,2.608302593231201,5.16750955581665,-3.6987690925598145, -1.3745312690734863
200,94312740,0.7888716,-0.19278684,-0.5776718,-0.08252544,9.80302906036377,-2.321376085281372,2.741021156311035,3.487086057662964,-4.663458347320557, -2.6849923133850098
201,94329407,0.7885195,-0.19226733,-0.57832986,-0.08249292,9.82706069946289,-1.9708138704299927,2.6945109367370605,3.8049263954162598,-4.240899562835693, -1.2751154899597168
202,94346074,0.78818345,-0.1924293,-0.5786685,-0.082949616,9.76329517364502,-1.2968388795852661,2.4532012939453125,-1.9921172857284546,-2.1908204555511475, -0.7847986817359924
203,94362741,0.78794295,-0.19317095,-0.57857424,-0.08416023,9.753724098205566,-1.374771237373352,2.455449342727661,-8.244626998901367,1.202113151550293, -1.8982726335525513
204,94379408,0.7878315,-0.1948049,-0.57783055,-0.08651352,10.214249610900879,-1.7067627906799316,2.9810385704040527,-17.871849060058594,6.244071006774902, -3.5809035301208496
205,94396075,0.78780353,-0.20055805,-0.5749428,-0.09264537,10.600053787231445,-2.3861911296844482,3.5451319217681885,-56.38616180419922,20.778295516967773, -4.744237422943115
206,94412742,0.7874707,-0.20830235,-0.5711972,-0.1011632,9.530399322509766,-1.582888126373291,1.3622735738754272,-77.72244262695312,26.217477798461914, -8.851898193359375
207,94429409,0.7848828,-0.21475098,-0.57090235,-0.10914069,10.45660400390625,0.04885596036911011,-0.478568434715271,-69.58130645751953,-1.116695523262024, -17.547822952270508
208,94446076,0.7799327,-0.22146246,-0.57346463,-0.11746443,11.074410438537598,0.1930532604455948,-1.45669686794281,-74.01221466064453,-25.282752990722656, -24.343860626220703
209,94462743,0.77358454,-0.22701436,-0.57835644,-0.124641515,10.492727279663086,-0.5505343675613403,-1.4423558712005615,-64.16673278808594,-43.76203536987305, -27.47538948059082
210,94479410,0.76696616,-0.2299484,-0.58511317,-0.12856726,9.6372709274292,-2.3317267894744873,-1.5050078630447388,-36.36542892456055,-57.36040115356445, -23.696548461914062
211,94496077,0.7612423,-0.2289837,-0.5929387,-0.12845504,9.047660827636719,-2.3396992683410645,0.37918129563331604,2.852612018585205,-62.17366409301758, -18.99270248413086
212,94512744,0.756077,-0.227743,-0.60005045,-0.12814201,8.4742431640625,-1.5963159799575806,2.2004241943359375,6.308889389038086,-56.354820251464844, -17.29845428466797
213,94529411,0.7519329,-0.22622451,-0.6058858,-0.12775722,7.842391490936279,-2.054718255996704,3.236337184906006,8.527095794677734,-45.41254806518555, -15.184524536132812
214,94546078,0.7492754,-0.22391927,-0.61028844,-0.1264712,7.241106033325195,-2.8849782943725586,3.5044028759002686,17.39674186706543,-32.62320327758789, -10.311738014221191
215,94562745,0.748017,-0.22099236,-0.6133668,-0.124153525,7.151809215545654,-3.036583185195923,3.4628472328186035,25.926218032836914,-21.096662521362305, -4.442002296447754
216,94579412,0.7477985,-0.21809123,-0.6151865,-0.12157039,7.214811325073242,-2.7576727867126465,3.599682569503784,27.413715362548828,-10.781991004943848, -0.268690824508667
217,94596079,0.74830097,-0.21684296,-0.6153008,-0.12012519,7.755590438842773,-1.6059983968734741,3.292538642883301,13.747734069824219,1.2354742288589478, 3.9484751224517822
218,94612746,0.74853253,-0.21659222,-0.6151308,-0.120005466,9.222630500793457,1.1167182922363281,-0.23081640899181366,2.351649761199951,2.596891403198242, 1.5300581455230713
219,94629413,0.7479983,-0.21585408,-0.6160067,-0.12017227,9.938413619995117,0.31707438826560974,0.4980829358100891,3.36440110206604,-5.119543552398682, -4.070498943328857
220,94646080,0.747622,-0.21289758,-0.61759347,-0.119642496,9.661272048950195,0.37002938985824585,4.451051712036133,18.53838348388672,-7.260252952575684, -10.718921661376953
221,94662747,0.74744594,-0.21260841,-0.61755997,-0.121417046,11.750529289245605,-1.9890198707580566,6.950664043426514,-6.038567543029785,2.950014114379883, -8.612427711486816
222,94679414,0.7468077,-0.21323112,-0.61779815,-0.12303009,13.933408737182617,-4.009151458740234,3.3198611736297607,-10.532127380371094,-1.6605746746063232, -4.700957775115967
223,94696081,0.7454529,-0.21397884,-0.61914766,-0.12316437,11.151949882507324,-3.541778564453125,1.4696825742721558,-4.999141216278076,-12.746564865112305, 1.098894476890564
224,94712748,0.7435314,-0.21472172,-0.62127745,-0.12275989,8.469931602478027,-0.9590573906898499,0.8366837501525879,-2.8358163833618164,-19.940448760986328, 2.1232125759124756
225,94729415,0.740936,-0.21810006,-0.6227565,-0.12498293,7.459232807159424,0.6011516451835632,0.3935963213443756,-29.07131004333496,-17.824718475341797, 0.3542827069759369
226,94746082,0.73774385,-0.22322896,-0.6241261,-0.12794404,7.627188682556152,-1.7965302467346191,-0.30309516191482544,-42.14017105102539,-20.199954986572266, 3.820758819580078
227,94762749,0.7347777,-0.22687638,-0.626137,-0.12876953,8.801549911499023,-1.3357187509536743,-0.07996402680873871,-24.530336380004883,-24.40611457824707, 7.478447437286377
228,94779416,0.73206717,-0.22965598,-0.62833965,-0.12855081,10.024574279785156,-0.7306430339813232,1.3893300294876099,-15.06751537322998,-25.087799072265625, 8.944657325744629
229,94796083,0.72956496,-0.2325356,-0.63007456,-0.12910646,11.219217300415039,-1.1176103353500366,2.902069091796875,-19.0020809173584,-20.718008041381836, 6.441222190856934
230,94812750,0.7268976,-0.23687793,-0.6311324,-0.13107514,10.844165802001953,-2.183443307876587,1.265640377998352,-33.34027099609375,-17.1651668548584, 6.65833044052124
231,94829417,0.7239853,-0.24135046,-0.6324003,-0.13291042,9.44875431060791,-1.9691441059112549,0.19665950536727905,-33.617881774902344,-19.631027221679688, 7.3069281578063965
232,94846084,0.7211358,-0.24546415,-0.6337189,-0.13457717,8.546183586120605,-1.7334574460983276,0.1145717054605484,-30.936344146728516,-19.54066276550293, 6.538050651550293
233,94862751,0.7187708,-0.24868955,-0.63492256,-0.13562976,9.201168060302734,-1.6102758646011353,0.6149427890777588,-23.13435935974121,-17.055164337158203, 6.338298320770264
234,94879418,0.7169485,-0.2506805,-0.6360828,-0.1361719,9.227822303771973,-1.754576563835144,1.206756591796875,-13.914616584777832,-14.19460391998291, 4.04775333404541
235,94896085,0.71569777,-0.25190243,-0.6369025,-0.13666478,8.249096870422363,-1.8419960737228394,0.40471768379211426,-9.244485855102539,-9.410213470458984, 2.0394954681396484
236,94912752,0.71497643,-0.2526692,-0.63708204,-0.13818009,9.198734283447266,-0.7623938322067261,0.13760440051555634,-11.163837432861328,-1.7401659488677979, -3.4014058113098145
237,94929419,0.7143724,-0.25373483,-0.6364615,-0.14215393,10.56309700012207,-1.333884835243225,0.5131718516349792,-23.95884895324707,6.709297180175781, -12.642207145690918
238,94946086,0.71334195,-0.25556737,-0.63549024,-0.14825921,10.720098495483398,-3.0174129009246826,-0.27736279368400574,-38.1434326171875,9.533246040344238, -19.541032791137695
239,94962753,0.7124609,-0.2562233,-0.63504475,-0.15319107,9.740202903747559,-2.851827383041382,-0.15714561939239502,-26.438032150268555,6.7793049812316895, -19.756216049194336
240,94979420,0.71175665,-0.25683492,-0.63437563,-0.15813296,9.958303451538086,-1.0099378824234009,1.3585633039474487,-26.181804656982422,8.73737907409668, -19.478408813476562
241,94996087,0.7110935,-0.25813246,-0.63335335,-0.16302547,10.835030555725098,-0.1752200722694397,1.7905998229980469,-29.645353317260742,9.773700714111328, -15.554224014282227
242,95012754,0.7098377,-0.26111344,-0.63230777,-0.16774169,10.948838233947754,0.0725739598274231,2.492598295211792,-38.202354431152344,5.052394866943359, -7.921166896820068
243,95029421,0.70809865,-0.26528066,-0.6314939,-0.17157528,10.917715072631836,-1.390550136566162,0.507773220539093,-40.775115966796875,-1.2178781032562256, 0.6419539451599121
244,95046088,0.70650774,-0.26824695,-0.6316229,-0.17303996,10.956441879272461,-2.900783061981201,-0.35530203580856323,-23.259252548217773,-8.066840171813965, 5.420793056488037
245,95062755,0.7056765,-0.2676974,-0.63349694,-0.17041288,11.175338745117188,-2.602015256881714,1.883094310760498,15.079782485961914,-16.564125061035156, 7.652763366699219
246,95079422,0.7056187,-0.2650411,-0.635954,-0.16558388,13.2638521194458,-0.969279408454895,3.500760078430176,36.99544906616211,-17.65636444091797, 8.951212882995605
247,95096089,0.7053475,-0.26127082,-0.6391196,-0.16046414,14.488825798034668,2.539937734603882,5.779050827026367,44.06787109375,-21.396774291992188, 4.003881454467773
248,95112756,0.7035571,-0.26092157,-0.64197135,-0.15748122,14.911481857299805,5.071617603302002,9.656636238098145,14.966561317443848,-26.686391830444336, 7.7718377113342285
249,95129423,0.70205885,-0.2664036,-0.6400289,-0.16280547,19.465721130371094,9.165572166442871,17.642414093017578,-54.65894317626953,6.005480766296387, 2.5586016178131104
250,95146090,0.6999674,-0.26919398,-0.63928443,-0.16998771,16.881175994873047,-0.6115623712539673,9.235535621643066,-49.745113372802734,3.3081893920898438, -20.606191635131836
251,95162757,0.7007414,-0.2514907,-0.64663166,-0.16607699,11.757579803466797,7.988580226898193,2.588517189025879,112.36607360839844,-19.946687698364258, -68.83324432373047
252,95179424,0.7000743,-0.22652882,-0.65598494,-0.1681211,10.472464561462402,17.89222526550293,-0.733920693397522,120.69743347167969,-17.42168426513672, -134.4665069580078
253,95196091,0.6940827,-0.21854249,-0.65503037,-0.20352869,5.775862693786621,11.712103843688965,10.716090202331543,-131.70591735839844,40.60334014892578, -207.8508758544922
254,95212758,0.7008338,-0.19800945,-0.64877313,-0.22072108,-3.367342710494995,-18.315584182739258,7.070105075836182,21.924156188964844,113.01221466064453, -151.16517639160156
255,95229425,0.7185441,-0.17257334,-0.6366934,-0.22030582,-5.77223539352417,-23.118812561035156,6.248645782470703,130.2131805419922,173.1929473876953, -64.39340209960938
256,95246092,0.74040645,-0.15827881,-0.61511326,-0.21995866,-0.9583701491355896,-13.419875144958496,3.1208865642547607,65.44322967529297,221.2867889404297, 0.6929857134819031
257,95262759,0.7616116,-0.1607566,-0.5867379,-0.22325726,9.121133804321289,-9.600090026855469,-6.890164375305176,-46.3701057434082,231.599365234375, 58.90581130981445
258,95279426,0.7788423,-0.16159505,-0.564465,-0.22061498,16.776615142822266,-4.420407772064209,-11.098909378051758,-8.826095581054688,179.92404174804688, 70.1036605834961
259,95296093,0.7922555,-0.15358119,-0.55078864,-0.21301639,13.114775657653809,-3.3079605102539062,-8.432758331298828,66.63253021240234,127.65421295166016, 46.74470520019531
260,95312760,0.80192155,-0.13899922,-0.5438343,-0.20456137,7.906390190124512,0.985825777053833,-9.141337394714355,111.58399200439453,86.09559631347656, 13.82963752746582
261,95329427,0.80476385,-0.13882911,-0.53883255,-0.20673944,9.354127883911133,4.7274322509765625,-9.755659103393555,-11.425407409667969,40.190547943115234, -2.3440754413604736
262,95346094,0.80189896,-0.14774975,-0.5386666,-0.21205331,11.654833793640137,1.681329369544983,-10.701007843017578,-71.97760009765625,-17.120834350585938, 1.4166338443756104
263,95362761,0.79616207,-0.1482851,-0.54728186,-0.21123487,10.864485740661621,4.950582027435303,-11.459209442138672,6.854891300201416,-69.59845733642578, -8.881486892700195
264,95379428,0.78449816,-0.1448032,-0.5643448,-0.2123909,18.355796813964844,23.4672908782959,-26.88726234436035,27.60760498046875,-129.71034240722656, -51.85822677612305
265,95396095,0.7620641,-0.14282149,-0.58877534,-0.22848216,18.096799850463867,28.570974349975586,-15.255215644836426,-38.69007873535156,-197.33340454101562, -148.81089782714844
266,95412762,0.743344,-0.14228179,-0.6097246,-0.23543933,7.3822736740112305,-24.114582061767578,16.060626983642578,-11.374372482299805,-174.52352905273438, -84.74474334716797
267,95429429,0.7256162,-0.12934342,-0.63351446,-0.23539545,14.634061813354492,8.39577579498291,-6.410372734069824,87.24019622802734,-172.279052734375, -103.08552551269531
268,95446096,0.70890075,-0.13018382,-0.64922744,-0.24293202,14.808259963989258,-13.696866035461426,-3.3918843269348145,-26.753543853759766,-142.7783203125, -71.8142318725586
269,95462763,0.6941048,-0.13567309,-0.66042924,-0.25227907,17.935321807861328,-1.4996752738952637,3.756906270980835,-63.22129821777344,-118.2282943725586, -53.21437454223633
270,95479430,0.68148357,-0.14407954,-0.6659312,-0.26712698,17.90331268310547,-1.506510615348816,3.6734941005706787,-109.94792938232422,-81.2314453125, -57.219947814941406
271,95496097,0.6714136,-0.14816928,-0.6720936,-0.2748459,15.172141075134277,1.708815097808838,2.18829083442688,-53.30418395996094,-71.9347915649414, -39.65577697753906
272,95512764,0.66336024,-0.15202785,-0.6771518,-0.2798325,10.855900764465332,2.609354019165039,-0.4296882450580597,-39.62135696411133,-59.96611022949219, -23.18174934387207
273,95529431,0.65654945,-0.15365395,-0.682881,-0.28108147,10.09132194519043,3.4319519996643066,1.0578911304473877,-9.435235023498535,-56.85801315307617, -14.806940078735352
274,95546098,0.6502666,-0.15593094,-0.6881544,-0.28157175,11.021994590759277,2.7119333744049072,-1.0759556293487549,-9.107309341430664,-54.44343566894531, -6.769472122192383
275,95562765,0.64516497,-0.15829499,-0.69259113,-0.2811096,11.399598121643066,0.5048709511756897,-4.300263404846191,-5.323666095733643,-46.28964614868164, 1.0983128547668457
276,95579432,0.64197266,-0.15964442,-0.69589835,-0.27948242,10.996848106384277,-0.10203135013580322,-3.9593422412872314,4.622334957122803,-31.364608764648438, 6.27241325378418
277,95596099,0.6394844,-0.1630722,-0.6968265,-0.28089154,10.737029075622559,2.5472469329833984,-2.0326716899871826,-22.8758602142334,-18.050386428833008, 6.684352397918701
278,95612766,0.63755256,-0.16733885,-0.6968945,-0.28259933,10.591294288635254,3.5160763263702393,-0.24896329641342163,-29.020305633544922,-12.861007690429688, 11.450620651245117
279,95629433,0.63586354,-0.17063627,-0.6974875,-0.28297007,10.26323413848877,4.506690502166748,0.6615918278694153,-17.041574478149414,-13.69224739074707, 12.59352970123291
280,95646100,0.634236,-0.17141919,-0.6996347,-0.28084096,10.547770500183105,3.044436454772949,1.4660851955413818,9.064779281616211,-18.29680061340332, 9.84421443939209
281,95662767,0.63189393,-0.16986844,-0.7033525,-0.2777593,10.925212860107422,1.4289982318878174,1.3676939010620117,26.044580459594727,-25.288034439086914, -0.4438829720020294
282,95679434,0.6281922,-0.16683018,-0.7085733,-0.27471128,10.931734085083008,-0.774614155292511,0.21984076499938965,33.65009689331055,-35.60011291503906, -12.188936233520508
283,95696101,0.6221486,-0.16293363,-0.71587944,-0.2718466,10.146810531616211,-1.2505791187286377,-0.08269229531288147,37.7271842956543,-54.235679626464844, -24.114418029785156
284,95712768,0.61334974,-0.15873766,-0.7252831,-0.26938614,9.783158302307129,1.022762417793274,0.8267176747322083,37.8568115234375,-75.80390167236328, -34.96498107910156
285,95729435,0.60255015,-0.15376046,-0.73620945,-0.26699546,10.7583646774292,0.831554114818573,0.4867491126060486,41.45304870605469,-90.76262664794922, -44.58493423461914
286,95746102,0.5920473,-0.1453579,-0.7485269,-0.2608811,11.150036811828613,0.5266773700714111,0.004133149981498718,77.37010955810547,-92.75318145751953, -47.511661529541016
287,95762769,0.58138186,-0.1366645,-0.7609453,-0.25353563,11.24306869506836,0.09503208845853806,-1.5942448377609253,84.91191864013672,-94.78363037109375, -44.505271911621094
288,95779436,0.569926,-0.12835476,-0.77359873,-0.24546775,10.76052188873291,0.023424483835697174,-1.0982639789581299,86.81394958496094,-101.24031829833984, -41.34416961669922
289,95796103,0.55656147,-0.12201933,-0.7864877,-0.23830242,10.471214294433594,1.297926425933838,1.5190818309783936,72.98165893554688,-114.91547393798828, -37.93648910522461
290,95812770,0.54129535,-0.11666148,-0.7998117,-0.23171274,11.046584129333496,0.09022527933120728,2.39847731590271,65.26758575439453,-128.14625549316406, -38.40205001831055
291,95829437,0.5241274,-0.109659106,-0.81430626,-0.22398844,12.359320640563965,-0.4648577570915222,3.6768836975097656,77.98632049560547,-141.46731567382812, -47.30201721191406
292,95846104,0.5051975,-0.10174291,-0.82939756,-0.21569407,13.335585594177246,-1.7172293663024902,3.548680305480957,84.080322265625,-152.79307556152344, -53.66095733642578
293,95862771,0.4844683,-0.09475968,-0.8441052,-0.2092788,14.14243221282959,-1.1401488780975342,1.85769522190094,68.29177856445312,-162.10321044921875, -57.43825912475586
294,95879438,0.4624382,-0.08939626,-0.8576932,-0.20620824,15.491581916809082,0.27173906564712524,3.063642740249634,41.008575439453125,-166.3621368408203, -60.46928405761719
295,95896105,0.44206202,-0.08805376,-0.86712176,-0.21196201,19.659284591674805,1.8615477085113525,8.135061264038086,-28.683116912841797,-144.01119995117188, -60.02045822143555
296,95912772,0.41981345,-0.08589606,-0.8769942,-0.21739337,20.187349319458008,3.653226375579834,8.551092147827148,-24.674560546875,-156.11305236816406, -67.00662994384766
297,95929439,0.39546686,-0.08133268,-0.8892612,-0.21495466,19.477956771850586,6.304775238037109,7.855162143707275,32.210506439208984,-177.337646484375, -63.422794342041016
298,95946106,0.37163144,-0.072419554,-0.90394974,-0.19879784,17.63036346435547,9.40110969543457,0.5365588665008545,131.9887237548828,-182.63356018066406, -53.303226470947266
299,95962773,0.35151795,-0.06710762,-0.9143737,-0.18934749,21.53055763244629,10.430228233337402,3.3400321006774902,77.30821228027344,-150.53892517089844, -40.73243713378906
300,95979440,0.3395894,-0.06411355,-0.91994995,-0.18509707,11.754792213439941,0.99527508020401,12.387853622436523,36.730621337890625,-88.5062255859375, -25.75975227355957
301,95996107,0.33388025,-0.06215457,-0.9221278,-0.18531424,8.832666397094727,3.4766926765441895,6.564738750457764,4.610172271728516,-41.0988883972168, -20.29695701599121
302,96012774,0.3362708,-0.06390853,-0.9187803,-0.1966739,8.256447792053223,1.8936116695404053,7.855592727661133,-78.00885009765625,22.683902740478516, -9.683083534240723
303,96029441,0.34695655,-0.069780625,-0.9110765,-0.21140361,5.262581825256348,-3.74027681350708,6.111562252044678,-110.99272155761719,80.8294906616211, 21.573272705078125
304,96046108,0.36583543,-0.07495375,-0.9018528,-0.21727423,5.918301105499268,-0.20265603065490723,3.040914535522461,-52.19380187988281,132.45367431640625, 50.804710388183594
305,96062775,0.392706,-0.08314413,-0.8879487,-0.22453558,5.798065662384033,-1.345171570777893,2.472041130065918,-71.35630798339844,190.00843811035156, 80.3254623413086
306,96079442,0.4259747,-0.092114694,-0.87027854,-0.22951211,5.61414909362793,-2.840292453765869,1.1583027839660645,-61.7833251953125,236.8055877685547, 103.23937225341797
307,96096109,0.46431407,-0.101177394,-0.84851587,-0.2328018,6.322305202484131,-2.209972620010376,-0.45858049392700195,-55.349609375,278.0699462890625, 119.26663208007812
308,96112776,0.50605834,-0.11081196,-0.8224804,-0.23484415,6.954020023345947,-1.8494768142700195,-1.5272862911224365,-54.50147247314453,309.9998779296875, 134.97454833984375
309,96129443,0.5503005,-0.12064591,-0.7925316,-0.23346904,9.190163612365723,-1.8126164674758911,-2.5892748832702637,-40.398231506347656,335.0623779296875, 154.9984130859375
310,96146110,0.5963883,-0.13053751,-0.7579889,-0.22963834,12.014626502990723,0.40325459837913513,-2.668492555618286,-33.17887878417969,360.6456298828125, 171.37506103515625
311,96162777,0.6420949,-0.1420135,-0.7186247,-0.22610849,14.646761894226074,0.6528586149215698,-3.6982598304748535,-49.28132629394531,376.46832275390625, 182.1652069091797
312,96179444,0.68577284,-0.15305257,-0.676193,-0.22148044,17.329931259155273,2.0446794033050537,-6.081634044647217,-48.728878021240234,379.87451171875, 184.72750854492188
313,96196111,0.72578883,-0.16196692,-0.6331229,-0.21483228,19.61856460571289,1.9114755392074585,-7.62710428237915,-34.174476623535156,367.2864990234375, 179.5316162109375
314,96212778,0.7614886,-0.16553608,-0.59238887,-0.20447132,21.841032028198242,2.856067657470703,-7.630765914916992,7.307440280914307,340.931396484375, 165.88536071777344
315,96229445,0.7915585,-0.1659559,-0.55520946,-0.19400108,21.448970794677734,6.690366268157959,-7.282402038574219,22.823511123657227,304.0163269042969, 141.7720489501953
316,96246112,0.81428975,-0.16975904,-0.52218825,-0.18823852,19.354963302612305,9.088582038879395,-8.916152954101562,-16.431400299072266,254.5391387939453, 114.69977569580078
317,96262779,0.829147,-0.17981094,-0.4942101,-0.18957824,15.62568473815918,11.837660789489746,-12.22348403930664,-79.86328887939453,198.59889221191406, 81.35740661621094
318,96279446,0.8380664,-0.19492689,-0.47056457,-0.19549187,13.957572937011719,8.6278657913208,-14.110921859741211,-124.08411407470703,152.70489501953125, 60.78904724121094
319,96296113,0.84276074,-0.19875431,-0.45923582,-0.19837789,11.59913444519043,8.601958274841309,-14.537330627441406,-38.35688781738281,79.41326141357422, 19.738693237304688
320,96312780,0.84173274,-0.19881566,-0.45941457,-0.20222959,9.877641677856445,8.907058715820312,-15.045354843139648,-11.89990234375,1.4081826210021973, -21.25292205810547
321,96329447,0.83485806,-0.19897318,-0.46922326,-0.20797041,11.299175262451172,8.84078598022461,-12.354265213012695,-13.03989028930664,-70.11811828613281, -53.100650787353516
322,96346114,0.823016,-0.20079014,-0.48502213,-0.21698311,12.207616806030273,7.545517921447754,-9.734417915344238,-32.29100799560547,-118.04667663574219, -82.3631591796875
323,96362781,0.8069234,-0.210781,-0.5006897,-0.23185384,15.315289497375488,0.47982946038246155,-3.153576374053955,-107.34380340576172,-134.86102294921875, -96.12223052978516
324,96379448,0.79111385,-0.22542273,-0.51127183,-0.24884695,13.91411304473877,-10.936362266540527,7.102173805236816,-147.63072204589844,-110.13421630859375, -83.65897369384766
325,96396115,0.7766339,-0.22845183,-0.52619475,-0.26032507,16.038156509399414,-0.9070006608963013,-6.061672687530518,-53.49826431274414,-118.25392150878906, -98.0656967163086
326,96412782,0.7621998,-0.22568375,-0.54431224,-0.2680346,19.64899444580078,-1.3559069633483887,-2.1050868034362793,-3.106459856033325,-130.64268493652344, -103.88388061523438
327,96429449,0.74682367,-0.22189449,-0.56123215,-0.27934894,15.930462837219238,9.209239959716797,1.0905869007110596,-14.918707847595215,-120.40887451171875, -126.51763153076172
328,96446116,0.7347692,-0.2180498,-0.5756242,-0.2850004,9.876951217651367,-3.1820778846740723,1.9538508653640747,7.400211334228516,-103.1799087524414, -87.3400650024414
329,96462783,0.724683,-0.21250455,-0.58807266,-0.28956327,9.885342597961426,5.576552867889404,4.149898052215576,19.45104217529297,-83.94170379638672, -81.8763198852539
330,96479450,0.715002,-0.2119661,-0.59678954,-0.29611593,9.782697677612305,2.2073769569396973,1.9522110223770142,-20.385896682739258,-70.85591888427734, -65.26556396484375
331,96496117,0.70661885,-0.21298389,-0.6032088,-0.30243522,10.873787879943848,1.9837641716003418,1.1778737306594849,-29.862140655517578,-57.8049430847168, -51.753883361816406
332,96512784,0.6996101,-0.21488474,-0.6082293,-0.30729055,10.931379318237305,0.137323796749115,0.3642440438270569,-28.9716854095459,-49.33842468261719, -36.089298248291016
333,96529451,0.69391596,-0.21595506,-0.61294866,-0.31006134,11.214038848876953,0.5028590559959412,0.8004798293113708,-14.944890975952148,-43.757484436035156, -26.349842071533203
334,96546118,0.6892056,-0.21676402,-0.61712,-0.31172425,10.474042892456055,1.4429813623428345,0.31254252791404724,-8.728175163269043,-38.12474822998047, -19.287260055541992
335,96562785,0.68540734,-0.21757129,-0.6205177,-0.3127898,10.052276611328125,2.3082990646362305,-0.3909381926059723,-6.477978229522705,-31.5092716217041, -13.3790283203125
336,96579452,0.6823885,-0.21856502,-0.6232184,-0.31332758,9.719914436340332,2.08453369140625,-0.5519871711730957,-5.432877540588379,-26.117094039916992, -7.3928303718566895
337,96596119,0.68008095,-0.2193292,-0.62562126,-0.31302184,9.983363151550293,1.8852852582931519,-0.2546682357788086,-0.3086848258972168,-22.468551635742188, -2.4545207023620605
338,96612786,0.6782229,-0.21983853,-0.62778515,-0.31236297,9.840035438537598,1.2042715549468994,0.17720270156860352,2.5699622631073,-19.425962448120117, -0.5890544056892395
339,96629453,0.6763689,-0.21990322,-0.63005424,-0.3117685,9.963245391845703,0.8122379183769226,0.4635574519634247,4.603453636169434,-18.873151779174805, -2.9796316623687744
340,96646120,0.6745457,-0.21872053,-0.6330184,-0.3105433,10.375814437866211,-0.05912794917821884,0.24590735137462616,14.677974700927734,-20.27776527404785, -6.457553863525391
341,96662787,0.6720918,-0.21676415,-0.6367079,-0.309692,9.686832427978516,0.9407063722610474,1.5795650482177734,17.243452072143555,-24.194194793701172, -14.023609161376953
342,96679454,0.6685024,-0.21460104,-0.64138204,-0.30932224,9.05833625793457,1.5344520807266235,2.103309392929077,16.499937057495117,-32.58685302734375, -21.05592155456543
343,96696121,0.66382825,-0.21173626,-0.64738363,-0.30886,8.905009269714355,1.6295827627182007,1.8998955488204956,21.36112403869629,-42.1468391418457, -28.000831604003906
344,96712788,0.6583151,-0.20763515,-0.6549067,-0.30758137,9.310193061828613,1.673128366470337,1.7654777765274048,32.651275634765625,-51.416015625, -33.78408432006836
345,96729455,0.6514298,-0.20309123,-0.6634433,-0.3069791,9.342144012451172,1.3610368967056274,1.4850094318389893,31.799936294555664,-60.30499267578125, -43.19819259643555
346,96746122,0.64331025,-0.19772494,-0.6735808,-0.30552533,9.931612968444824,0.9964368343353271,0.7358530759811401,41.02737808227539,-72.57864379882812, -47.987430572509766
347,96762789,0.6337686,-0.19175106,-0.6852952,-0.30321485,10.98897647857666,1.068092942237854,0.776447594165802,49.0656623840332,-86.04402160644531, -52.15756607055664
348,96779456,0.6237153,-0.18353827,-0.6988604,-0.29813954,11.185773849487305,0.9349584579467773,1.705339789390564,75.0372085571289,-95.5154037475586, -54.18187713623047
349,96796123,0.61253804,-0.17433316,-0.71336937,-0.29242,11.983918190002441,1.1086176633834839,0.17013567686080933,82.91087341308594,-103.76468658447266, -59.69855880737305
350,96812790,0.60059863,-0.16478853,-0.728545,-0.28521597,12.064759254455566,-1.2696083784103394,-0.7666901350021362,92.052490234375,-111.42134857177734, -57.45880126953125
351,96829457,0.5870629,-0.15575711,-0.7438704,-0.27884415,13.435151100158691,-0.06019788235425949,-1.9232207536697388,84.24681091308594,-120.1113510131836, -61.65355682373047
352,96846124,0.57241744,-0.14771245,-0.75866663,-0.27375975,13.898970603942871,-0.34687113761901855,-0.12833097577095032,71.47148132324219,-124.17198181152344, -63.38526916503906
353,96862791,0.555776,-0.1406925,-0.7731237,-0.27129042,15.207260131835938,-0.3383328914642334,1.9050939083099365,51.130035400390625,-132.543212890625, -71.76708221435547
354,96879458,0.5372154,-0.13234454,-0.78861237,-0.26828218,16.680200576782227,-1.655423879623413,4.203158378601074,59.1423225402832,-144.77011108398438, -81.3696517944336
355,96896125,0.51714027,-0.122726865,-0.80471784,-0.26444942,18.679128646850586,-3.057039260864258,7.2387518882751465,68.0681381225586,-153.7229461669922, -88.5968246459961
356,96912792,0.49642038,-0.11113779,-0.82165265,-0.2571036,20.61371612548828,-4.667036533355713,10.240846633911133,95.49214172363281,-159.6951904296875, -88.92720031738281
357,96929459,0.47422773,-0.09797756,-0.83964306,-0.24598388,20.75950050354004,-2.9860501289367676,10.044523239135742,122.93270874023438,-171.82447814941406, -88.38198852539062
358,96946126,0.45203167,-0.08834331,-0.85358495,-0.24342509,22.362836837768555,5.701128959655762,11.838642120361328,55.163543701171875,-158.9191131591797, -93.2507553100586
359,96962793,0.42888632,-0.08681733,-0.86353886,-0.2506393,17.691394805908203,0.767782986164093,10.07032585144043,-34.607139587402344,-159.81956481933594, -75.2120590209961
360,96979460,0.40292695,-0.07942697,-0.879206,-0.24153295,16.605510711669922,10.093345642089844,5.00779914855957,87.7892837524414,-193.09747314453125, -70.19136810302734
361,96996127,0.38312492,-0.07133603,-0.8924209,-0.2274023,12.214219093322754,8.98988151550293,1.4332504272460938,119.43463134765625,-150.69798278808594, -48.914031982421875
362,97012794,0.37447625,-0.06783619,-0.89930606,-0.21544042,12.681306838989258,-2.578683376312256,13.275099754333496,89.62443542480469,-71.70899200439453, -5.880040645599365
363,97029461,0.3734754,-0.062510036,-0.9049741,-0.19398633,5.060665130615234,-1.5653661489486694,6.808801174163818,154.8012237548828,-23.08503532409668, 19.152700424194336
364,97046128,0.3798818,-0.05984619,-0.90451014,-0.18430953,5.055745601654053,2.402892827987671,7.673572540283203,69.67831420898438,40.24053955078125, 18.000389099121094
365,97062795,0.39454916,-0.06484141,-0.89687854,-0.18903899,2.8848073482513428,-2.2729415893554688,7.163402557373047,-45.58819580078125,106.54165649414062, 41.43341064453125
366,97079462,0.4168243,-0.072140284,-0.88462144,-0.19620937,3.128962755203247,-4.466224193572998,6.494606018066406,-69.52088165283203,164.10044860839844, 60.96042251586914
367,97096129,0.44576558,-0.08091223,-0.86794573,-0.2035108,4.003822326660156,-0.5286248326301575,5.020686149597168,-77.2155532836914,215.4007110595703, 80.71587371826172
368,97112796,0.4805688,-0.09283364,-0.8457642,-0.21241166,5.189934730529785,-1.4793570041656494,3.7985870838165283,-100.87315368652344,263.77325439453125, 105.88194274902344
369,97129463,0.52045745,-0.10547966,-0.81876403,-0.2182293,6.694097518920898,-2.0538880825042725,1.6283903121948242,-89.14234924316406,306.2796325683594, 130.79254150390625
370,97146130,0.5643954,-0.117980875,-0.7870785,-0.21919408,9.23574161529541,-2.4162557125091553,-0.4561315178871155,-65.40933990478516,342.5884094238281, 156.82919311523438
371,97162797,0.61076313,-0.12886757,-0.75125855,-0.21441126,12.722986221313477,-2.6373159885406494,-1.9398789405822754,-32.30392837524414,369.6042785644531, 177.424072265625
372,97179464,0.65830654,-0.137517,-0.7109736,-0.20551944,16.829925537109375,-0.953464686870575,-4.201704025268555,-7.227251052856445,394.1433410644531, 188.8227996826172
373,97196131,0.70391273,-0.14480034,-0.6674044,-0.19522057,19.73442840576172,2.004767894744873,-4.887036323547363,-0.6489615440368652,400.1810607910156, 188.88485717773438
374,97212798,0.7452304,-0.15415055,-0.6207862,-0.18839827,21.946395874023438,4.452113151550293,-5.2680768966674805,-35.00067901611328,395.98291015625, 178.82916259765625
375,97229465,0.78069204,-0.16169946,-0.5757904,-0.18121466,25.221311569213867,3.5802292823791504,-7.411196231842041,-28.335229873657227,364.6318054199219, 163.69244384765625
376,97246132,0.80955005,-0.16122457,-0.5375482,-0.17227118,23.977819442749023,8.37452220916748,-9.210332870483398,22.78822898864746,310.2883605957031, 125.63005065917969
377,97262799,0.82887983,-0.17406122,-0.50215256,-0.17465353,18.90337371826172,12.024568557739258,-11.471268653869629,-98.93684387207031,255.79315185546875, 98.20954895019531
378,97279466,0.83914834,-0.19818987,-0.47163445,-0.18469442,15.812840461730957,8.112478256225586,-15.038183212280273,-193.3128204345703,191.95065307617188, 77.94725036621094
379,97296133,0.84493417,-0.21453801,-0.45134735,-0.19064426,13.261506080627441,6.4948954582214355,-17.743947982788086,-129.12057495117188,122.88150787353516, 56.27590560913086
380,97312800,0.84798485,-0.20993611,-0.44797295,-0.1901807,10.575676918029785,11.50673770904541,-16.97597312927246,30.14112663269043,34.380252838134766, -0.26823094487190247
381,97329467,0.8449307,-0.20394383,-0.45594057,-0.1913566,10.154424667358398,11.038018226623535,-15.130857467651367,39.25141143798828,-46.24180221557617, -38.36647033691406
382,97346134,0.8355658,-0.20314074,-0.47100806,-0.19676135,12.756552696228027,9.047822952270508,-10.295964241027832,-3.245375156402588,-108.15736389160156, -64.62879943847656
383,97362801,0.8216434,-0.20582539,-0.4895721,-0.20701967,13.416224479675293,5.419652938842773,-4.938740253448486,-42.03361129760742,-140.4359130859375, -93.20252227783203
384,97379468,0.8065798,-0.22033171,-0.5015841,-0.22202778,13.814664840698242,-12.255729675292969,10.276795387268066,-139.62255859375,-116.32109832763672, -74.77105712890625
385,97396135,0.7938756,-0.22567956,-0.5139514,-0.23384707,11.578635215759277,-3.350558042526245,-0.6806604862213135,-72.45274353027344,-101.38761901855469, -84.8482894897461
386,97412802,0.77833194,-0.23181045,-0.52799743,-0.24835938,19.693012237548828,3.281296491622925,-4.391000747680664,-85.99600219726562,-118.13629150390625, -102.95441436767578
387,97429469,0.7633387,-0.23245174,-0.5438322,-0.25985944,14.847679138183594,-4.695597171783447,1.2106473445892334,-41.76263427734375,-121.08306884765625, -108.63719177246094
388,97446136,0.74944884,-0.22778875,-0.55987173,-0.2701529,15.129447937011719,11.306017875671387,0.7621058225631714,-7.282531261444092,-110.47734069824219, -120.51717376708984
389,97462803,0.73669785,-0.22974634,-0.57041454,-0.28128374,10.51942253112793,-2.704038381576538,2.1815662384033203,-53.067874908447266,-88.74622344970703, -88.54161834716797
390,97479470,0.72777665,-0.22333696,-0.58305746,-0.2837358,9.994847297668457,3.0471115112304688,4.1947150230407715,33.464622497558594,-81.90103149414062, -73.32545471191406
391,97496137,0.7194736,-0.21954939,-0.59316075,-0.28690797,8.301689147949219,3.402907609939575,3.6919662952423096,13.452704429626465,-70.74588012695312, -61.29962158203125
392,97512804,0.7110899,-0.22033063,-0.60018754,-0.2925418,10.705570220947266,0.573430597782135,1.1163904666900635,-25.37645149230957,-61.176780700683594, -50.342525482177734
393,97529471,0.7031569,-0.2223961,-0.60597867,-0.2981616,11.999357223510742,0.48014912009239197,-0.19323515892028809,-33.39834976196289,-55.888118743896484, -42.197200775146484
394,97546138,0.6966269,-0.22382706,-0.611224,-0.30169147,11.266707420349121,-0.4355035126209259,0.14739787578582764,-20.597137451171875,-49.29664611816406, -31.030498504638672
395,97562805,0.69159704,-0.22169566,-0.61791056,-0.30121624,10.526640892028809,0.09681868553161621,-0.3713568449020386,18.595712661743164,-48.668087005615234, -25.9374942779541
396,97579472,0.6874964,-0.2179161,-0.6250043,-0.29871568,10.3857421875,1.542185664176941,0.7838152050971985,37.297481536865234,-46.325069427490234, -22.01894760131836
397,97596139,0.68398243,-0.21513106,-0.63075024,-0.29671684,10.070538520812988,2.4487690925598145,0.22956885397434235,28.553665161132812,-38.726356506347656, -16.896467208862305
398,97612806,0.6807307,-0.21293928,-0.6358177,-0.29495534,10.182596206665039,1.5336987972259521,0.8465676307678223,23.739816665649414,-35.25716781616211, -13.898624420166016
399,97629473,0.67757726,-0.21030349,-0.6410213,-0.29283655,10.220773696899414,1.2545511722564697,0.9023545980453491,27.802654266357422,-35.09233474731445, -14.171501159667969
400,97646140,0.67427874,-0.20679991,-0.64686334,-0.29008627,10.094608306884766,1.2395880222320557,0.369655042886734,35.707183837890625,-37.876930236816406, -16.275503158569336
401,97662807,0.67099136,-0.20250341,-0.65316117,-0.28660718,10.024624824523926,0.6590793132781982,0.16840970516204834,43.55141830444336,-39.39707565307617, -17.057130813598633
402,97679474,0.66756976,-0.19720455,-0.66012603,-0.2823028,10.133687973022461,0.8440450429916382,0.08132263273000717,53.011539459228516,-42.251800537109375, -18.956890106201172
403,97696141,0.6638582,-0.19092196,-0.66783893,-0.2771866,9.904224395751953,0.7280519604682922,0.43653199076652527,62.27158737182617,-46.19208526611328, -21.28507423400879
404,97712808,0.6594793,-0.18383677,-0.676429,-0.2715419,9.546781539916992,1.1868551969528198,1.3503602743148804,69.15983581542969,-52.42729949951172, -24.99566650390625
405,97729475,0.65403914,-0.17641549,-0.68564,-0.26647416,9.175565719604492,1.9543360471725464,1.0354962348937988,67.8226547241211,-58.83376693725586, -31.95165252685547
406,97746142,0.64744294,-0.16997927,-0.69506425,-0.26231766,9.84347915649414,0.5484156012535095,-0.5549333095550537,58.09010314941406,-65.95230102539062, -33.786373138427734
407,97762809,0.639584,-0.16462535,-0.7046139,-0.25951895,10.654526710510254,-0.06970485299825668,-1.1897830963134766,45.533348083496094,-72.91043090820312, -37.09610366821289
408,97779476,0.6308417,-0.15973407,-0.7144082,-0.25718617,10.953885078430176,0.06703296303749084,-0.16603145003318787,40.675846099853516,-78.56334686279297, -38.77653121948242
409,97796143,0.6206412,-0.15547946,-0.7246548,-0.25594175,10.983940124511719,1.062859296798706,0.7100287675857544,31.766277313232422,-87.62953186035156, -43.463768005371094
410,97812810,0.6088423,-0.15102656,-0.7359514,-0.2547107,10.331280708312988,0.9336122870445251,1.2850881814956665,32.689552307128906,-99.7328109741211, -48.45634078979492
411,97829477,0.59452885,-0.14630704,-0.7489077,-0.2535092,11.696456909179688,1.6696972846984863,-0.9444421529769897,33.95874786376953,-118.93748474121094, -56.070404052734375
412,97846144,0.57882386,-0.14102787,-0.762985,-0.2508548,12.612828254699707,-0.17621935904026031,0.21777760982513428,44.28510284423828,-131.18943786621094, -56.578495025634766
413,97862811,0.56201947,-0.13326758,-0.77874035,-0.24482162,14.404104232788086,-1.6753758192062378,1.0086902379989624,73.71798706054688,-142.6669921875, -59.70167922973633
414,97879478,0.54395366,-0.122481264,-0.7957922,-0.23627903,16.583765029907227,-1.537552833557129,3.140812635421753,99.87832641601562,-151.68687438964844, -69.56555938720703
415,97896145,0.5245833,-0.11145772,-0.812762,-0.22761321,19.150970458984375,-4.652820587158203,6.165632724761963,100.2134017944336,-158.3087158203125, -72.50048828125
416,97912812,0.5032812,-0.0989202,-0.83063203,-0.21673338,20.881237030029297,-2.8910109996795654,10.73525333404541,117.982421875,-171.7890625, -76.76085662841797
417,97929479,0.4799609,-0.087404914,-0.8477085,-0.20829894,19.529741287231445,0.968696653842926,10.974364280700684,97.9417724609375,-180.57281494140625, -81.91032409667969
418,97946146,0.4546459,-0.07639575,-0.86419344,-0.20157032,19.461450576782227,5.760431289672852,6.258487224578857,84.31965637207031,-190.08509826660156, -87.11934661865234
419,97962813,0.4321735,-0.07210602,-0.87600726,-0.20158878,20.90665054321289,3.9078965187072754,13.456847190856934,18.279956817626953,-164.44692993164062, -61.88566589355469
420,97979480,0.41116372,-0.066577785,-0.8875745,-0.19678265,15.02989673614502,7.4546709060668945,6.199619770050049,51.463565826416016,-155.7260284423828, -52.88343048095703
421,97996147,0.39182842,-0.057368264,-0.89937687,-0.1852049,12.081100463867188,10.350136756896973,-2.2448554039001465,104.34024810791016,-144.3673858642578, -54.034515380859375
422,98012814,0.3793189,-0.049836878,-0.90780467,-0.17182651,14.964213371276855,3.8295023441314697,6.914628028869629,109.38993835449219,-95.91840362548828, -28.738523483276367
423,98029481,0.3773514,-0.046726517,-0.9113924,-0.15743756,2.3559720516204834,-2.5076022148132324,10.753150939941406,102.08878326416016,-23.143096923828125, 15.607501983642578
424,98046148,0.382189,-0.04392848,-0.9118871,-0.14305273,5.209171772003174,-0.9506729245185852,5.351465702056885,100.08736419677734,27.14861488342285, 25.918603897094727
425,98062815,0.39436755,-0.044287864,-0.9072285,-0.13946141,4.002392768859863,1.6025935411453247,5.294122219085693,21.25717544555664,86.84725952148438, 26.133352279663086
426,98079482,0.41412896,-0.051577404,-0.8964778,-0.14887768,3.27593994140625,-1.085975170135498,5.452364444732666,-82.20415496826172,147.97972106933594, 43.22459411621094
427,98096149,0.4401945,-0.058864634,-0.88209444,-0.15707733,4.2530598640441895,-1.2341177463531494,4.667137145996094,-76.19615936279297,196.75685119628906, 54.40576171875
428,98112816,0.4715861,-0.066621326,-0.86362207,-0.16530362,5.599664211273193,0.6820805072784424,3.3076303005218506,-80.05654907226562,240.95323181152344, 64.57154083251953
429,98129483,0.50786364,-0.07646286,-0.84035015,-0.17331958,6.6923699378967285,-1.3608933687210083,2.3871312141418457,-88.79995727539062,283.0902404785156, 85.39324188232422
430,98146150,0.54759884,-0.0865557,-0.8127959,-0.17890413,8.269563674926758,-1.5173451900482178,0.9657238721847534,-78.93344116210938,316.4746398925781, 101.7047348022461
431,98162817,0.5895589,-0.09846012,-0.7802205,-0.18434235,10.823460578918457,-1.8759269714355469,-0.6543371081352234,-89.8202896118164,345.5429992675781, 118.10417938232422
432,98179484,0.6331337,-0.112047404,-0.74254835,-0.18764068,14.141190528869629,-3.5672380924224854,-2.658055543899536,-90.56072235107422,371.3426208496094, 141.30418395996094
433,98196151,0.6767726,-0.12496543,-0.701252,-0.18603267,17.45119285583496,-3.218634605407715,-4.257457256317139,-67.24099731445312,384.5860900878906, 162.10595703125
434,98212818,0.71846646,-0.13647926,-0.65738547,-0.18172504,20.198699951171875,0.4075143039226532,-4.395703315734863,-52.66261672973633,386.6983337402344, 167.59632873535156
435,98229485,0.7553802,-0.14966844,-0.61207765,-0.17989221,21.08397102355957,4.286740779876709,-5.2987284660339355,-78.435791015625,372.48614501953125, 158.3147735595703
436,98246152,0.78641796,-0.16251719,-0.56870115,-0.17808482,22.939104080200195,3.4671030044555664,-7.809564113616943,-80.44105529785156,338.2099304199219, 147.50686645507812
437,98262819,0.8111371,-0.16946766,-0.5316714,-0.17510813,22.228374481201172,7.784219264984131,-9.758328437805176,-43.253211975097656,285.1476135253906, 115.93898010253906
438,98279486,0.82708305,-0.18675819,-0.49847502,-0.18049316,17.78746223449707,10.211363792419434,-12.703336715698242,-135.28318786621094,228.6581573486328, 93.19943237304688
439,98296153,0.8348926,-0.2116866,-0.47077802,-0.19107933,14.785418510437012,8.165936470031738,-15.533936500549316,-199.617431640625,166.5278778076172, 73.21766662597656
440,98312820,0.8387494,-0.22618887,-0.45452192,-0.19684447,12.177058219909668,8.36916732788086,-17.07379913330078,-115.42164611816406,94.91929626464844, 45.06698989868164
441,98329487,0.838786,-0.22495537,-0.45417178,-0.19889967,10.3183012008667,12.257055282592773,-16.224990844726562,2.2130990028381348,6.990408897399902, -12.733067512512207
442,98346154,0.8327177,-0.22296184,-0.46466923,-0.20236559,10.440275192260742,11.26274299621582,-15.079429626464844,7.711487770080566,-71.31764221191406, -48.21315002441406
443,98362821,0.82015944,-0.22421895,-0.48275068,-0.20980062,12.841456413269043,9.923372268676758,-10.006204605102539,-23.479570388793945,-133.59767150878906, -81.53498077392578
444,98379488,0.80415654,-0.23630518,-0.4975949,-0.22336467,15.593256950378418,-6.396704196929932,8.452411651611328,-118.711669921875,-131.6390380859375, -82.33573913574219
445,98396155,0.7921344,-0.23937498,-0.5112256,-0.23210171,11.199727058410645,-9.598764419555664,4.133335113525391,-47.082763671875,-105.57918548583984, -77.94923400878906
446,98412822,0.7784061,-0.23922512,-0.52793705,-0.24111839,18.128938674926758,4.131636142730713,-7.101715564727783,-26.48462677001953,-123.36273956298828, -97.64502716064453
447,98429489,0.7627753,-0.23979865,-0.54533213,-0.25156158,16.687728881835938,-3.13191819190979,0.1995023787021637,-37.54566192626953,-132.71817016601562, -106.89926147460938
448,98446156,0.75014484,-0.22906767,-0.5654254,-0.25515637,13.3851957321167,7.070138931274414,-1.3805460929870605,57.03874969482422,-127.3511734008789, -112.65087127685547
449,98462823,0.735065,-0.23048489,-0.5781339,-0.26891872,13.964170455932617,2.132094621658325,-0.24064482748508453,-61.98337936401367,-104.07292175292969, -110.48538208007812
450,98479490,0.7260168,-0.22465895,-0.590492,-0.27156478,9.529332160949707,-2.1788487434387207,0.9118766784667969,27.720382690429688,-82.54869079589844, -71.3730239868164
451,98496157,0.7189781,-0.21810552,-0.6009644,-0.27265805,10.420867919921875,2.313389301300049,3.728975772857666,37.24008560180664,-66.03353118896484, -59.94165802001953
452,98512824,0.71327424,-0.21355076,-0.60878044,-0.273902,9.747231483459473,1.3939564228057861,1.7798253297805786,23.761274337768555,-50.94143295288086, -45.942569732666016
453,98529491,0.7081895,-0.20992345,-0.6157053,-0.2744209,11.576152801513672,0.20701764523983002,1.1336785554885864,21.481277465820312,-46.81208419799805, -36.037353515625
454,98546158,0.7038605,-0.2073086,-0.62123215,-0.2750897,11.266223907470703,0.6602403521537781,0.7547928690910339,14.372055053710938,-38.51511001586914, -29.053207397460938
455,98562825,0.6998789,-0.20550826,-0.626154,-0.27544013,10.447458267211914,1.3503583669662476,0.7120833396911621,11.14404010772705,-36.11090087890625, -22.525970458984375
456,98579492,0.6961866,-0.20320645,-0.6314184,-0.2744853,9.301688194274902,3.417785167694092,1.2116681337356567,20.236766815185547,-37.42216491699219, -18.346939086914062
457,98596159,0.6931731,-0.20048064,-0.6365852,-0.27217278,9.508243560791016,2.9258859157562256,0.870294451713562,28.929088592529297,-35.12118911743164, -12.26462173461914
458,98612826,0.6903875,-0.19784726,-0.6415528,-0.26950303,9.90431022644043,2.199281930923462,1.1266645193099976,29.997522354125977,-33.85300064086914, -9.455102920532227
459,98629493,0.68751276,-0.19504762,-0.6466958,-0.26658475,10.280030250549316,1.6710470914840698,0.8899635076522827,32.09223175048828,-35.122947692871094, -9.415267944335938
460,98646160,0.6845445,-0.1915443,-0.65209705,-0.26358923,10.128960609436035,1.6905850172042847,1.1026562452316284,36.114288330078125,-35.58647537231445, -12.70394515991211
461,98662827,0.6811138,-0.18789369,-0.6577368,-0.26107997,9.703068733215332,2.1615817546844482,0.7714715600013733,34.45473861694336,-37.888702392578125, -16.811872482299805
462,98679494,0.6770526,-0.18441953,-0.6636318,-0.25919482,9.215873718261719,2.510464668273926,0.9860835075378418,30.453908920288086,-41.45801544189453, -20.40113067626953
463,98696161,0.6727086,-0.18102765,-0.6695879,-0.257574,9.227997779846191,1.4090003967285156,0.8709843754768372,28.619781494140625,-42.85890579223633, -21.83751106262207
464,98712828,0.66796106,-0.17716959,-0.67604136,-0.2557486,9.630393028259277,0.61606764793396,0.411232590675354,32.10026168823242,-46.4594612121582, -24.378665924072266
465,98729495,0.662532,-0.17282659,-0.683145,-0.2539597,10.185693740844727,0.14354144036769867,0.3118450343608856,34.47388458251953,-51.7269401550293, -28.80368423461914
466,98746162,0.65643686,-0.1670342,-0.69128186,-0.251634,10.30700397491455,0.21710656583309174,0.12839999794960022,44.61204528808594,-57.679534912109375, -35.57411193847656
467,98762829,0.64962125,-0.16054341,-0.70027417,-0.24866517,10.124471664428711,0.0388069823384285,0.19298303127288818,51.47517776489258,-64.50514221191406, -38.2369270324707
468,98779496,0.64161825,-0.15520962,-0.7096928,-0.24611452,11.0595121383667,-0.2045825868844986,-0.755218505859375,43.71394348144531,-73.65418243408203, -37.052547454833984
469,98796163,0.6322518,-0.15055895,-0.71969783,-0.24418223,11.580989837646484,-0.9417268633842468,0.5525360703468323,37.21934509277344,-83.39765167236328, -39.399658203125
470,98812830,0.62065965,-0.14653547,-0.7307453,-0.24355787,11.828899383544922,0.9771618247032166,-1.307752013206482,27.468379974365234,-98.66145324707031, -46.82276153564453
471,98829497,0.6070754,-0.14342637,-0.74249196,-0.24411936,11.850198745727539,-0.2735854983329773,0.6566230058670044,16.771486282348633,-112.00032043457031, -51.340816497802734
472,98846164,0.5916048,-0.13958593,-0.75558645,-0.24414891,12.840962409973145,0.11454018205404282,0.4442073404788971,22.944517135620117,-126.57914733886719, -57.370113372802734
473,98862831,0.57457244,-0.13416965,-0.77027595,-0.24195033,13.668288230895996,-0.5184495449066162,0.717976450920105,42.11226272583008,-140.70289611816406, -60.66704559326172
474,98879498,0.556275,-0.12608069,-0.7865787,-0.23655011,15.228442192077637,-0.34289664030075073,2.657338857650757,71.1475830078125,-152.32032775878906, -65.79476165771484
475,98896165,0.53661186,-0.116870366,-0.8033146,-0.23037921,17.54012680053711,-1.6707819700241089,6.6869425773620605,79.13418579101562,-160.2602996826172, -71.53733825683594
476,98912832,0.51578313,-0.10579533,-0.8208058,-0.22147922,19.6320743560791,-2.5778324604034424,9.89813232421875,101.36315155029297,-168.81338500976562, -74.26211547851562
477,98929499,0.4936,-0.09406926,-0.8383512,-0.21137045,20.188444137573242,-1.7710710763931274,11.915687561035156,109.61253356933594,-176.65338134765625, -75.80001068115234
478,98946166,0.46903622,-0.08168608,-0.85600746,-0.20145409,18.35302734375,2.774318218231201,7.042096138000488,109.38204193115234,-189.8056182861328, -83.81534576416016
479,98962833,0.4436362,-0.0701272,-0.87250507,-0.19236532,20.975465774536133,3.4771502017974854,9.54648208618164,99.80606842041016,-191.75767517089844, -82.14871978759766
480,98979500,0.422686,-0.06479843,-0.88439196,-0.18705244,19.01802635192871,2.7688050270080566,15.886504173278809,54.22816467285156,-157.51495361328125, -48.189918518066406
481,98996167,0.40370643,-0.05500965,-0.8961832,-0.17564428,13.109844207763672,9.65924072265625,1.4920209646224976,105.06678771972656,-142.37547302246094, -55.03712844848633
482,99012834,0.3878154,-0.043342948,-0.90657043,-0.16078162,12.792745590209961,10.941871643066406,-2.760056734085083,131.0899658203125,-118.52009582519531, -52.72001266479492
483,99029501,0.38229367,-0.040115736,-0.91031516,-0.15352103,14.705421447753906,-1.0597779750823975,13.1820650100708,56.98228073120117,-43.24148941040039, -6.897753715515137
484,99046168,0.38515627,-0.03730978,-0.91071326,-0.14444467,0.2731718122959137,-2.575413703918457,7.685483932495117,66.03485870361328,16.977785110473633, 10.263007164001465
485,99062835,0.3949283,-0.033443347,-0.90724796,-0.14076327,6.172728061676025,2.5410354137420654,5.530344009399414,32.99123764038086,72.89913177490234, -2.806741714477539
486,99079502,0.4123259,-0.035854958,-0.89808035,-0.14884016,3.28074049949646,1.2468020915985107,4.868833065032959,-61.152862548828125,132.55979919433594, 13.125062942504883
487,99096169,0.43721,-0.042219713,-0.88390684,-0.16054264,3.187387228012085,-3.4697155952453613,4.142847537994385,-98.03003692626953,189.84002685546875, 36.152408599853516
488,99112836,0.46766227,-0.047687236,-0.86682075,-0.16625232,3.870867967605591,-3.0929341316223145,3.04890513420105,-60.529232025146484,231.69696044921875, 55.68855285644531
489,99129503,0.50267035,-0.054476358,-0.84569997,-0.17072372,5.393057823181152,-1.2527209520339966,2.0848793983459473,-60.544189453125,269.9293518066406, 74.07080841064453
490,99146170,0.5407473,-0.06348801,-0.8203159,-0.17505333,6.573190212249756,-1.3916239738464355,0.4319024980068207,-71.27864837646484,299.8746032714844, 92.68647766113281
491,99162837,0.5814526,-0.07434932,-0.79018605,-0.17886142,8.971348762512207,-1.4378968477249146,-1.2312016487121582,-79.80661010742188,329.93365478515625, 110.29535675048828
492,99179504,0.6237755,-0.08620577,-0.75576705,-0.17969127,12.345393180847168,-2.4303178787231445,-2.7311882972717285,-72.07891082763672,353.1714782714844, 131.79348754882812
493,99196171,0.6667459,-0.096879356,-0.71776253,-0.17573069,15.551065444946289,-1.8025881052017212,-3.350592851638794,-46.175193786621094,370.58953857421875, 149.11215209960938
494,99212838,0.7082302,-0.107141726,-0.6767286,-0.17020321,18.238685607910156,1.3140692710876465,-3.643526315689087,-41.228271484375,376.6434020996094, 154.47830200195312
495,99229505,0.74617183,-0.11981816,-0.6332664,-0.16686782,20.153038024902344,3.510690450668335,-4.506127834320068,-68.66432189941406,370.819091796875, 152.6831512451172
496,99246172,0.77970695,-0.1315146,-0.59035575,-0.16199128,21.45944595336914,2.1314823627471924,-5.962924957275391,-59.935081481933594,348.69561767578125, 150.82333374023438
497,99262839,0.80824566,-0.13680804,-0.5513904,-0.15489164,22.087783813476562,6.188399314880371,-6.714604377746582,-16.701948165893555,312.42694091796875, 127.61285400390625
498,99279506,0.8295356,-0.14934929,-0.51492375,-0.15626626,20.20724868774414,8.796565055847168,-9.289794921875,-87.35940551757812,270.2405090332031, 101.3546142578125
499,99296173,0.84301233,-0.16978642,-0.48334086,-0.16396514,17.249576568603516,7.710575580596924,-12.091629028320312,-159.4967041015625,212.97364807128906, 79.16337585449219
500,99312840,0.8501649,-0.19302256,-0.4577838,-0.17434551,15.26721477508545,7.272674083709717,-15.209419250488281,-187.06820678710938,157.44515991210938, 57.74209976196289
501,99329507,0.85399485,-0.19874349,-0.44652164,-0.17836064,12.07733154296875,8.863950729370117,-17.327959060668945,-52.74645233154297,76.30843353271484, 16.354021072387695
502,99346174,0.8522558,-0.19635725,-0.449247,-0.18243122,10.060029983520508,11.74921989440918,-16.050830841064453,2.862931489944458,-12.25420093536377, -35.78644561767578
503,99362841,0.8430262,-0.19944604,-0.4613377,-0.19156125,11.288493156433105,10.448150634765625,-14.111783027648926,-41.629215240478516,-90.75051879882812, -69.26596069335938
504,99379508,0.82735825,-0.20915252,-0.47842517,-0.20698549,14.96494197845459,5.2687458992004395,-4.7736005783081055,-101.12162017822266,-140.45779418945312, -99.3580322265625
505,99396175,0.8099952,-0.22816014,-0.49048334,-0.22644414,14.679607391357422,-11.517560958862305,11.526965141296387,-181.58326721191406,-123.28939819335938, -89.90275573730469
506,99412842,0.79589015,-0.23262632,-0.5053385,-0.23890792,12.57297134399414,-3.515519380569458,-3.798677444458008,-67.90816497802734,-116.16897583007812, -99.44954681396484
507,99429509,0.7790877,-0.23722349,-0.52200365,-0.25349528,19.16136932373047,1.8032253980636597,-4.86603307723999,-75.00675201416016,-132.9447021484375, -116.66517639160156
508,99446176,0.7635509,-0.23588091,-0.5402688,-0.26355278,12.674142837524414,-5.132976531982422,-0.1737717241048813,-22.084299087524414,-133.94683837890625, -114.09298706054688
509,99462843,0.75026685,-0.22836539,-0.55824816,-0.27075434,14.071415901184082,10.95753002166748,0.5955626368522644,24.071447372436523,-117.51426696777344, -117.52088928222656
510,99479510,0.73730075,-0.23025489,-0.56868976,-0.28277624,11.81486988067627,1.2953065633773804,1.4680672883987427,-56.50503158569336,-87.34503173828125, -93.77837371826172
511,99496177,0.7293895,-0.22421953,-0.5804465,-0.28425074,10.744011878967285,-0.13349150121212006,1.8475233316421509,35.46901321411133,-75.54755401611328, -63.544673919677734
512,99512844,0.7227282,-0.217024,-0.5915429,-0.28397486,10.182537078857422,-0.14616404473781586,2.565417766571045,48.911094665527344,-67.69143676757812, -55.955318450927734
513,99529511,0.7159425,-0.21264593,-0.60060185,-0.28545707,11.082036018371582,0.5272149443626404,1.991055965423584,23.599559783935547,-60.97110366821289, -50.452369689941406
514,99546178,0.70950437,-0.20992577,-0.60800445,-0.28786373,10.844237327575684,0.8558083176612854,0.5296162366867065,8.880468368530273,-53.3031120300293, -45.064697265625
515,99562845,0.7034558,-0.20830828,-0.61506826,-0.2888753,10.337858200073242,1.006226658821106,1.7023926973342896,9.226627349853516,-54.226097106933594, -32.39881134033203
516,99579512,0.6982761,-0.204958,-0.62303984,-0.2867474,9.595648765563965,3.037743330001831,1.3679840564727783,33.93616485595703,-56.01362228393555, -24.125951766967773
517,99596179,0.6935321,-0.20172238,-0.63053024,-0.28417096,9.408609390258789,3.3010799884796143,1.5782265663146973,34.97700881958008,-52.70905303955078, -19.940818786621094
518,99612846,0.6890856,-0.19992732,-0.6369512,-0.2819281,9.871682167053223,2.9500796794891357,0.6834317445755005,24.990406036376953,-48.68832778930664, -13.215852737426758
519,99629513,0.68470055,-0.19905269,-0.64261067,-0.28038347,10.134663581848145,2.089376211166382,0.34459784626960754,16.184926986694336,-45.645111083984375, -11.3233060836792
520,99646180,0.68037355,-0.19786641,-0.64827657,-0.278709,10.095009803771973,0.9351217150688171,0.20659366250038147,18.32232666015625,-45.00527572631836, -11.98923110961914
521,99662847,0.67596555,-0.19607669,-0.6539974,-0.27732995,10.13540267944336,0.40655508637428284,0.4147619307041168,19.827001571655273,-44.072669982910156, -16.302194595336914
522,99679514,0.67155474,-0.1932736,-0.66006553,-0.27563193,10.4802827835083,0.13258230686187744,0.04074537009000778,26.633750915527344,-44.20751190185547, -19.865848541259766
523,99696181,0.6672023,-0.18918863,-0.6666962,-0.27306634,10.088923454284668,0.6267259120941162,-0.7296649813652039,37.635475158691406,-45.27104568481445, -22.33343505859375
524,99712848,0.6625429,-0.18579507,-0.67293274,-0.27143854,9.739194869995117,1.1047031879425049,-0.0068700797855854034,29.02633285522461,-44.950870513916016, -23.5439395904541
525,99729515,0.6575631,-0.18218306,-0.67933077,-0.270056,9.63070297241211,0.9420920014381409,-0.2108595371246338,28.781064987182617,-46.456382751464844, -26.48632049560547
526,99746182,0.65208024,-0.17762299,-0.6866881,-0.26776996,9.949467658996582,0.24194811284542084,0.32062071561813354,38.44062042236328,-52.52317428588867, -28.977624893188477
527,99762849,0.6457407,-0.17198725,-0.69517446,-0.26490015,10.507680892944336,0.13864809274673462,0.34317126870155334,47.0540885925293,-60.37487030029297, -34.412071228027344
528,99779516,0.6382548,-0.16551258,-0.70450974,-0.26249272,10.437162399291992,2.1319167613983154,1.4846715927124023,48.761356353759766,-67.56197357177734, -43.58654022216797
529,99796183,0.62913203,-0.16087541,-0.714002,-0.26175052,11.543705940246582,1.2417569160461426,0.7452635765075684,31.0583553314209,-77.62547302246094, -45.13092803955078
530,99812850,0.61820817,-0.15579993,-0.72475994,-0.26128188,11.730785369873047,-0.3568187952041626,1.2164980173110962,31.901437759399414,-90.871337890625, -53.11895751953125
531,99829517,0.6050015,-0.14996313,-0.7373369,-0.26042035,11.906128883361816,1.347885251045227,-0.8970610499382019,37.92108917236328,-109.06005096435547, -61.31825637817383
532,99846184,0.5895466,-0.14402819,-0.7512161,-0.25954816,12.680791854858398,0.2650993764400482,1.6337175369262695,38.398460388183594,-125.72490692138672, -67.15381622314453
533,99862851,0.5722777,-0.13668151,-0.766605,-0.2571639,13.77060604095459,0.6885970830917358,1.2780665159225464,52.83580017089844,-140.23074340820312, -73.07353210449219
534,99879518,0.5539329,-0.12690237,-0.7833826,-0.251726,14.94623851776123,-0.9160498380661011,1.4373719692230225,79.95611572265625,-149.9757843017578, -77.11298370361328
535,99896185,0.5350672,-0.11432495,-0.80137795,-0.24171565,17.592575073242188,-3.396911144256592,4.741950988769531,116.9046859741211,-156.61602783203125, -76.77601623535156
536,99912852,0.5160248,-0.10032221,-0.81991786,-0.22669096,20.2636775970459,-7.385993003845215,5.7899041175842285,150.5552215576172,-161.25416564941406, -66.96673583984375
537,99929519,0.49520224,-0.08314114,-0.8400204,-0.20549482,20.02692222595215,-5.250377655029297,9.952848434448242,197.84228515625,-176.2610626220703, -66.93437957763672
538,99946186,0.4714633,-0.07010993,-0.85763496,-0.193053,17.089054107666016,2.158684492111206,6.21074914932251,127.95015716552734,-185.62803649902344, -75.53380584716797
539,99962853,0.44602254,-0.060081463,-0.874237,-0.18210994,19.893884658813477,5.8739166259765625,8.636783599853516,107.23789978027344,-195.75161743164062, -64.4642105102539
540,99979520,0.42543158,-0.059739675,-0.88352674,-0.18660112,19.674226760864258,7.2845048904418945,13.804143905639648,-22.35852813720703,-150.03968811035156, -44.47211456298828
541,99996187,0.40779665,-0.055542193,-0.8926131,-0.18400814,12.290135383605957,7.309141635894775,2.33239483833313,32.99003982543945,-129.6109619140625, -43.303550720214844
542,100012854,0.39197397,-0.04860148,-0.90181786,-0.17526872,11.404582977294922,10.653542518615723,-2.689448356628418,79.29527282714844,-117.75569915771484, -40.63824462890625
543,100029521,0.3872102,-0.048744187,-0.90546197,-0.16682641,12.723641395568848,-2.9967832565307617,13.882987022399902,55.404598236083984,-42.65504837036133, 17.711822509765625
544,100046188,0.39054522,-0.0474543,-0.9075309,-0.14700505,0.5847833752632141,-1.8900361061096191,8.237710952758789,130.98243713378906,9.64493179321289, 48.87928771972656
545,100062855,0.40035802,-0.044939227,-0.90543914,-0.13369362,5.950803756713867,3.768754243850708,4.991475582122803,91.55229949951172,64.55895233154297, 31.676963806152344
546,100079522,0.41718507,-0.047208786,-0.89787686,-0.13245761,3.897523880004883,2.953946113586426,5.274098873138428,0.3697470426559448,122.57207489013672, 36.39018249511719
547,100096189,0.44077745,-0.055066787,-0.88469404,-0.1414195,4.0674519538879395,-0.12265162914991379,4.500967979431152,-81.52954864501953,178.66195678710938, 49.638370513916016
548,100112856,0.46930403,-0.06337131,-0.86788374,-0.15005308,5.022078037261963,-1.2543063163757324,3.409059524536133,-82.55429077148438,219.09750366210938, 59.509525299072266
549,100129523,0.50187945,-0.071375154,-0.84741116,-0.15785077,6.25850772857666,1.0211676359176636,2.9728147983551025,-78.62646484375,255.0152587890625, 66.16829681396484
550,100146190,0.53809386,-0.08158497,-0.8220587,-0.16738746,7.4635396003723145,0.7859918475151062,1.8100346326828003,-99.89643859863281,291.5240173339844, 79.36483764648438
551,100162857,0.57732815,-0.09254727,-0.7921175,-0.17514922,9.583584785461426,0.13666853308677673,0.47027724981307983,-96.25041198730469,323.722900390625, 96.23512268066406
552,100179524,0.61868656,-0.10343145,-0.7579323,-0.17907427,12.053972244262695,-0.7975860238075256,-0.6026526093482971,-78.81755065917969,349.8127136230469, 116.29805755615234
553,100196191,0.6609616,-0.11319024,-0.7200126,-0.17860502,14.830940246582031,-0.4712350070476532,-2.363929271697998,-55.09341812133789,368.7635192871094, 132.9071502685547
554,100212858,0.7019371,-0.12202727,-0.67922235,-0.17621234,17.848661422729492,0.8990364670753479,-3.8245370388031006,-45.941261291503906,375.0438232421875, 137.71548461914062
555,100229525,0.7394476,-0.13326997,-0.6359856,-0.17600808,19.19765853881836,3.1664483547210693,-4.257050037384033,-73.68336486816406,369.6378479003906, 136.2388916015625
556,100246192,0.7722161,-0.1475494,-0.5921265,-0.17691217,20.15870475769043,1.7549772262573242,-5.243506908416748,-99.10423278808594,349.4620056152344, 138.72572326660156
557,100262859,0.8003493,-0.1566523,-0.55182296,-0.17433529,21.778610229492188,4.2677717208862305,-6.080558776855469,-57.82243728637695,314.5279235839844, 126.8758316040039
558,100279526,0.8223008,-0.1668881,-0.51493365,-0.17553665,20.00885009765625,8.408544540405273,-8.381567001342773,-79.65791320800781,274.80621337890625, 100.04499816894531
559,100296193,0.83688605,-0.18503743,-0.48159552,-0.18289064,17.106719970703125,7.583751201629639,-11.450835227966309,-147.479736328125,225.42393493652344, 82.37590789794922
560,100312860,0.84508437,-0.20682727,-0.45383796,-0.1925778,15.387809753417969,6.7349934577941895,-15.059537887573242,-178.87864685058594,170.97047424316406, 65.0997314453125
561,100329527,0.85082924,-0.21314286,-0.4391171,-0.1945149,12.313166618347168,6.252546310424805,-17.334362030029297,-52.14829635620117,97.52142333984375, 39.36017990112305
562,100346194,0.85323846,-0.20379584,-0.43973663,-0.19256985,9.63923168182373,11.200658798217773,-15.779539108276367,65.32208251953125,13.759539604187012, -13.247846603393555
563,100362861,0.8491543,-0.19661349,-0.45021304,-0.19387771,10.702471733093262,11.20263385772705,-12.726552963256836,47.90985870361328,-62.277828216552734, -47.154056549072266
564,100379528,0.8386747,-0.19616947,-0.46654686,-0.20118709,12.021950721740723,8.662528038024902,-9.337285995483398,-9.95736312866211,-117.27330017089844, -77.05211639404297
565,100396195,0.8226233,-0.21066195,-0.4810306,-0.21799585,15.516951560974121,-2.8927628993988037,4.176965236663818,-136.2206573486328,-132.3285369873047, -88.88246154785156
566,100412862,0.8081122,-0.2251079,-0.49136496,-0.23418331,11.65717887878418,-13.833695411682129,7.814164638519287,-142.65414428710938,-103.0714340209961, -80.27465057373047
567,100429529,0.79383993,-0.22936021,-0.5060417,-0.2472528,16.645200729370117,1.5194587707519531,-7.8693413734436035,-68.07757568359375,-114.88874053955078, -103.69676971435547
568,100446196,0.7778664,-0.2328086,-0.522245,-0.26073787,19.955638885498047,-3.9347920417785645,-1.6143074035644531,-63.034244537353516,-127.66317749023438, -112.81163024902344
569,100462863,0.76633763,-0.22187914,-0.5423403,-0.26336923,12.589523315429688,-1.2260236740112305,-0.3479822874069214,66.93769073486328,-124.05355834960938, -104.67438507080078
570,100479530,0.7530813,-0.21653683,-0.5575966,-0.2739825,16.062549591064453,8.907843589782715,0.32806336879730225,-3.6786203384399414,-102.91510009765625, -121.65908813476562
571,100496197,0.7449377,-0.21029246,-0.5699734,-0.27563614,10.136449813842773,-5.933499336242676,1.3607419729232788,37.50105285644531,-80.0190658569336, -64.72563934326172
572,100512864,0.739673,-0.19826622,-0.5827399,-0.27200854,10.539674758911133,4.3003997802734375,3.563169240951538,92.72396850585938,-67.4202880859375, -55.51792907714844
573,100529531,0.7357009,-0.1903031,-0.5914951,-0.26956052,8.794561386108398,2.8237860202789307,2.497421979904175,61.58584976196289,-47.85523223876953, -37.33599853515625
574,100546198,0.7316993,-0.18607345,-0.5980391,-0.26896513,10.999615669250488,0.8160027265548706,1.4192795753479004,31.029491424560547,-41.30839538574219, -28.67874526977539
575,100562865,0.72738826,-0.18327983,-0.6040045,-0.26924652,11.084237098693848,2.3560919761657715,2.5570685863494873,18.735301971435547,-41.21432113647461, -27.02863883972168
576,100579532,0.72267133,-0.18271746,-0.6093384,-0.27030963,9.392824172973633,3.7432150840759277,2.216674566268921,2.6517105102539062,-42.910709381103516, -21.62259292602539
577,100596199,0.71793544,-0.18284227,-0.6143273,-0.27154997,8.197166442871094,4.136167526245117,2.6463310718536377,-2.167478322982788,-42.353973388671875, -19.20716094970703
578,100612866,0.71318805,-0.18322635,-0.6193817,-0.27231848,8.78801155090332,3.857863426208496,1.9787280559539795,-1.342525601387024,-43.83346176147461, -15.864014625549316
579,100629533,0.70817655,-0.18397267,-0.62466353,-0.27282903,9.378146171569824,2.8507943153381348,1.1901934146881104,-1.9218649864196777,-47.099552154541016, -13.818385124206543
580,100646200,0.7030299,-0.1843121,-0.6301634,-0.27326214,9.698710441589355,1.8474093675613403,1.8411413431167603,0.6351045966148376,-48.09046936035156, -15.70969295501709
581,100662867,0.6975061,-0.18454604,-0.6358349,-0.2741206,9.904450416564941,2.0024094581604004,0.7165175676345825,-0.8464698791503906,-49.838436126708984, -19.15133285522461
582,100679534,0.6920105,-0.18420844,-0.6419208,-0.27409208,9.77556037902832,1.6749742031097412,-0.25611811876296997,6.594027996063232,-51.7617301940918, -17.869260787963867
583,100696201,0.68666685,-0.1832697,-0.6481928,-0.2733992,9.7594575881958,1.2111634016036987,0.014879994094371796,12.932127952575684,-51.68606948852539, -17.316909790039062
584,100712868,0.6817674,-0.18055956,-0.6551164,-0.27095044,10.321260452270508,-0.4509696066379547,-0.11896499991416931,30.91031265258789,-51.6702995300293, -16.91835594177246
585,100729535,0.67689973,-0.17678417,-0.6623341,-0.2680814,10.306790351867676,-1.2769232988357544,-0.46612876653671265,38.38819122314453,-51.447818756103516, -20.08094596862793
586,100746202,0.67131466,-0.17281261,-0.669791,-0.26618138,10.031343460083008,-0.9674370288848877,-0.31521904468536377,34.4583740234375,-54.290096282958984, -27.133075714111328
587,100762869,0.6647355,-0.16916618,-0.6776109,-0.26524168,9.876236915588379,0.29486238956451416,-0.1263560652732849,28.020042419433594,-60.003944396972656, -32.350830078125
588,100779536,0.6571383,-0.16573675,-0.68594027,-0.26492757,9.954140663146973,1.205775499343872,0.6950169801712036,23.859487533569336,-66.75296783447266, -36.666629791259766
589,100796203,0.6491226,-0.16148059,-0.69488925,-0.2639939,10.419181823730469,1.6434810161590576,1.5473674535751343,31.173419952392578,-70.74480438232422, -39.24555969238281
590,100812870,0.64063776,-0.15612087,-0.70451444,-0.26242903,10.8942289352417,2.142303466796875,1.1018688678741455,39.82688522338867,-74.72982788085938, -43.313053131103516
591,100829537,0.63121486,-0.14966483,-0.7153265,-0.25976232,10.647787094116211,2.199777364730835,0.4917563796043396,51.13444900512695,-83.73181915283203, -46.74508285522461
592,100846204,0.61980796,-0.14362736,-0.7274733,-0.25688887,11.161011695861816,2.5127828121185303,-0.7123596668243408,50.683799743652344,-100.26392364501953, -48.71438980102539
593,100862871,0.6071352,-0.13825208,-0.74006206,-0.2541289,12.301137924194336,0.5912963151931763,-0.4284804165363312,46.82957458496094,-109.54991912841797, -48.56504440307617
594,100879538,0.5933902,-0.13239163,-0.75346583,-0.25029987,13.131311416625977,0.5074361562728882,-0.4207961857318878,54.7030143737793,-118.59767150878906, -49.24580764770508
595,100896205,0.5787389,-0.12601565,-0.76748717,-0.24524437,13.662181854248047,-0.23643645644187927,-0.12260796129703522,63.40121841430664,-126.06874084472656, -49.06460189819336
596,100912872,0.56268394,-0.11883688,-0.7824792,-0.23872808,14.812026023864746,-0.5338447690010071,0.9835559129714966,74.72773742675781,-137.28628540039062, -50.73476028442383
597,100929539,0.5453961,-0.11088794,-0.79818296,-0.23054549,16.53647232055664,-2.0291390419006348,3.974667549133301,86.83853912353516,-146.82302856445312, -51.07960510253906
598,100946206,0.52680707,-0.101515345,-0.8149385,-0.21919033,18.828840255737305,-2.541046380996704,8.357365608215332,110.27404022216797,-158.16062927246094, -49.91856384277344
599,100962873,0.50643045,-0.09132593,-0.8316501,-0.20867687,19.65526008605957,-0.4943277835845947,11.203740119934082,107.21981811523438,-166.3381805419922, -60.272178649902344
600,100979540,0.48417112,-0.08006906,-0.8485018,-0.19802038,18.791419982910156,0.9530927538871765,8.265826225280762,110.81005859375,-176.31854248046875, -68.71427154541016
601,100996207,0.45866153,-0.06774652,-0.8658949,-0.187793,19.382661819458008,6.431169033050537,5.662603378295898,110.83602142333984,-195.54205322265625, -81.1142807006836
602,101012874,0.4366869,-0.062795855,-0.877894,-0.1861816,21.91130256652832,4.230498313903809,15.2954740524292,31.01202964782715,-163.089599609375, -57.30462646484375
603,101029541,0.41738203,-0.055639893,-0.88920295,-0.17892598,13.938819885253906,2.4242351055145264,7.3004655838012695,72.04745483398438,-144.7200164794922, -49.97739028930664
604,101046208,0.39893675,-0.04162273,-0.90178746,-0.16092429,12.178570747375488,10.196593284606934,-1.7026402950286865,159.38941955566406,-138.9102783203125, -60.52256774902344
605,101062875,0.3852968,-0.03246434,-0.9101417,-0.1487776,17.023324966430664,4.281607151031494,4.660337924957275,106.49996185302734,-101.22834777832031, -39.8643913269043
606,101079542,0.382247,-0.0283476,-0.9134712,-0.1365802,4.2078704833984375,-4.0482659339904785,11.203558921813965,90.71678161621094,-26.917877197265625, 3.782378673553467
607,101096209,0.38550314,-0.023494415,-0.91382134,-0.1255631,3.879869222640991,0.5368077754974365,5.902913570404053,83.6619873046875,21.36590003967285, 2.54744815826416
608,101112876,0.39547548,-0.021979295,-0.9095082,-0.12613891,5.204444408416748,2.0182712078094482,4.483456134796143,-0.9542072415351868,74.88227081298828, -0.644684374332428
609,101129543,0.41287538,-0.02636759,-0.9001991,-0.13594247,3.537770986557007,-0.5820008516311646,4.800341606140137,-77.91114807128906,131.16754150390625, 18.378711700439453
610,101146210,0.43612626,-0.032214873,-0.887418,-0.14575896,3.7270264625549316,-1.8596487045288086,3.7997162342071533,-84.32757568359375,175.86785888671875, 33.45283508300781
611,101162877,0.4639976,-0.038828686,-0.87137467,-0.15461166,5.1454057693481445,0.5415737628936768,3.2328476905822754,-83.01126861572266,212.86090087890625, 46.34963607788086
612,101179544,0.49612585,-0.04903186,-0.85076094,-0.1663161,5.808847904205322,-0.36907729506492615,2.131347894668579,-115.28961944580078,249.90200805664062, 64.49475860595703
613,101196211,0.5318051,-0.06138431,-0.82594854,-0.17670429,6.904380798339844,-1.8885844945907593,0.9272297620773315,-118.5505599975586,282.1134033203125, 87.01885986328125
614,101212878,0.57032514,-0.07526506,-0.7967207,-0.18520485,8.913050651550293,-1.8151485919952393,-0.20437851548194885,-117.61876678466797,311.7695007324219, 107.89013671875
615,101229545,0.61106837,-0.09100127,-0.7627121,-0.19127119,11.684558868408203,-3.0410914421081543,-1.105067253112793,-116.53416442871094,339.1189270019531, 132.885009765625
616,101246212,0.65356845,-0.106204815,-0.72452164,-0.19140847,14.966297149658203,-3.6639270782470703,-2.1651954650878906,-87.62692260742188,362.94573974609375, 159.9026641845703
617,101262879,0.69639033,-0.119361624,-0.68296015,-0.18536149,17.9592227935791,-2.3027141094207764,-2.5650880336761475,-51.837989807128906,377.9319152832031, 180.35328674316406
618,101279546,0.7377092,-0.1311026,-0.63829064,-0.17658515,21.323637008666992,1.3488972187042236,-2.3982441425323486,-37.44953536987305,385.38360595703125, 187.39134216308594
619,101296213,0.77505064,-0.14320967,-0.59201336,-0.16824906,23.52800178527832,3.6746151447296143,-4.192028999328613,-46.796722412109375,376.0884094238281, 183.39300537109375
620,101312880,0.80710894,-0.15045981,-0.54825807,-0.15921736,25.929311752319336,6.314018249511719,-7.047896385192871,-20.37061882019043,346.1332702636719, 158.74790954589844
621,101329547,0.8319536,-0.15613349,-0.5094738,-0.15463528,23.868101119995117,9.567300796508789,-12.196486473083496,-23.674814224243164,296.26898193359375, 118.9823226928711
622,101346214,0.84845024,-0.16935895,-0.4763602,-0.15662347,18.84044075012207,9.639564514160156,-15.802560806274414,-96.19115447998047,234.34994506835938, 91.43550872802734
623,101362881,0.85743636,-0.18775739,-0.45112604,-0.16135436,14.561005592346191,8.35638427734375,-20.011369705200195,-139.06166076660156,162.57461547851562, 72.87706756591797
624,101379548,0.8615399,-0.1892226,-0.44255584,-0.16151817,10.302111625671387,13.298474311828613,-20.904329299926758,-12.884249687194824,62.30389404296875, 20.426727294921875
625,101396215,0.8581346,-0.18575908,-0.44913733,-0.16545136,9.200634956359863,14.183555603027344,-17.69971466064453,11.860838890075684,-39.69160842895508, -44.82981872558594
626,101412882,0.8470343,-0.18871817,-0.4650115,-0.17516506,12.207534790039062,12.190277099609375,-15.326733589172363,-41.57061004638672,-118.60781860351562, -78.3582992553711
627,101429549,0.82892454,-0.20404598,-0.4833233,-0.1940319,16.602046966552734,3.314732074737549,0.10689118504524231,-147.2510223388672,-158.68243408203125, -102.46401977539062
628,101446216,0.8132469,-0.22274025,-0.4941734,-0.2116816,10.75495719909668,-19.73599624633789,17.72052764892578,-171.94334411621094,-113.21304321289062, -72.6556625366211
629,101462883,0.801387,-0.22198938,-0.5097902,-0.22048539,13.556139945983887,-0.9031158089637756,-10.244214057922363,-22.989898681640625,-111.42526245117188, -92.67708587646484
630,101479550,0.7858833,-0.22636338,-0.5261737,-0.2329984,23.064918518066406,-1.6363215446472168,-3.421553373336792,-68.9854736328125,-130.3789825439453, -101.89802551269531
631,101496217,0.7738422,-0.21793176,-0.5458031,-0.23616304,11.04371166229248,-7.982381343841553,1.943866491317749,47.21613693237305,-130.07318115234375, -95.90544891357422
632,101512884,0.76236993,-0.20234513,-0.5663997,-0.23883075,14.387269973754883,16.14543342590332,0.8544341325759888,89.58574676513672,-122.220703125, -120.73081970214844
633,101529551,0.74866945,-0.2065859,-0.5769183,-0.25294602,11.950886726379395,-0.28060412406921387,2.6206915378570557,-78.63391876220703,-94.689208984375, -93.0010757446289
634,101546218,0.73971915,-0.20199229,-0.58871573,-0.25579023,8.635903358459473,4.422013282775879,4.3375163078308105,20.522977828979492,-83.09687805175781, -63.58039474487305
635,101562885,0.73147273,-0.20250762,-0.5967822,-0.26036394,8.612235069274902,4.969167232513428,4.609894275665283,-18.048294067382812,-67.90274810791016, -45.245948791503906
636,101579552,0.7242006,-0.202819,-0.6043609,-0.26295617,9.44347095489502,2.792888879776001,3.024766683578491,-8.407242774963379,-63.89690399169922, -33.65755844116211
637,101596219,0.716924,-0.20357478,-0.61173767,-0.26524436,10.472509384155273,2.5520551204681396,1.3534940481185913,-9.722088813781738,-64.1728286743164, -30.011680603027344
638,101612886,0.70912904,-0.20679246,-0.61806315,-0.2690189,10.827446937561035,1.0715430974960327,-0.8079829216003418,-30.745994567871094,-63.598548889160156, -26.446613311767578
639,101629553,0.7014739,-0.21063882,-0.62355065,-0.27340534,10.602351188659668,0.15381841361522675,-1.181236982345581,-37.7579231262207,-59.210411071777344, -25.31039047241211
640,101646220,0.6944174,-0.2146308,-0.6281744,-0.2776963,10.745600700378418,-0.5030182600021362,-1.8950600624084473,-38.802940368652344,-52.88795471191406, -21.860151290893555
641,101662887,0.68845725,-0.21669322,-0.63289857,-0.2801968,10.563764572143555,-0.6961795091629028,-1.0598745346069336,-20.044675827026367,-47.581031799316406, -19.719913482666016
642,101679554,0.6838785,-0.21572101,-0.63824683,-0.28002807,10.267618179321289,0.031643036752939224,-0.7693158388137817,9.198163032531738,-42.65279006958008, -18.584810256958008
643,101696221,0.6798918,-0.21205117,-0.644862,-0.2773709,9.927469253540039,0.24685899913311005,-0.14795243740081787,36.12251281738281,-44.50707244873047, -19.484024047851562
644,101712888,0.6759225,-0.20769535,-0.65177226,-0.27419814,9.98354434967041,0.6872879266738892,0.625755786895752,42.20705032348633,-45.25821304321289, -20.534711837768555
645,101729555,0.6717341,-0.2031722,-0.6587963,-0.27107564,10.313422203063965,1.0812944173812866,0.5669711828231812,42.66496276855469,-46.3937873840332, -22.112567901611328
646,101746222,0.6674328,-0.19761035,-0.6665234,-0.26689047,9.817256927490234,0.6603143811225891,0.2713557481765747,53.4330940246582,-49.71443176269531, -23.11883544921875
647,101762889,0.66274196,-0.1910806,-0.6748915,-0.26226485,9.754068374633789,0.8302732706069946,0.47670188546180725,60.544551849365234,-53.274169921875, -27.139394760131836
648,101779556,0.6577192,-0.184691,-0.6830645,-0.25829738,9.739996910095215,0.5158548951148987,0.5889844298362732,56.067203521728516,-53.32830047607422, -29.85011863708496
649,101796223,0.65165,-0.17925261,-0.691427,-0.25524423,9.672147750854492,1.7976374626159668,0.33817610144615173,46.4826774597168,-59.64494705200195, -31.637439727783203
650,101812890,0.6440818,-0.17509444,-0.7000828,-0.2537415,9.954554557800293,1.7694735527038574,1.1848175525665283,32.04771041870117,-68.43888092041016, -35.497074127197266
651,101829557,0.63520217,-0.17084995,-0.70971274,-0.25226316,10.685555458068848,1.9885019063949585,1.7604182958602905,32.44097137451172,-78.91374206542969, -39.4883918762207
652,101846224,0.6246999,-0.16595006,-0.72080463,-0.2503028,11.56906509399414,0.6028722524642944,1.9309765100479126,38.29521179199219,-92.68360900878906, -45.11996078491211
653,101862891,0.6126064,-0.1588393,-0.73390985,-0.24669795,12.012335777282715,2.5465755462646484,-0.3579023480415344,57.60038757324219,-107.33229064941406, -54.075477600097656
654,101879558,0.5983671,-0.15187356,-0.74808615,-0.24343061,12.467886924743652,-0.5162743926048279,0.3126940429210663,54.76811218261719,-122.57013702392578, -59.58237075805664
655,101896225,0.58207655,-0.14361855,-0.7636482,-0.23958777,13.845442771911621,-0.7052077651023865,-0.40360820293426514,63.214656829833984,-137.30084228515625, -68.76753234863281
656,101912892,0.5636593,-0.13480563,-0.7798731,-0.23646072,15.071252822875977,-0.7737467288970947,0.9827660918235779,60.680686950683594,-149.53123474121094, -78.76602172851562
657,101929559,0.5435925,-0.12471649,-0.79674906,-0.23268887,17.548797607421875,-2.094987154006958,2.8341217041015625,68.61882781982422,-159.48248291015625, -86.4468002319336
658,101946226,0.52241576,-0.11311947,-0.81395084,-0.22753009,20.157669067382812,-2.3439483642578125,6.881415843963623,81.42599487304688,-165.6507568359375, -91.6475830078125
659,101962893,0.5014918,-0.09990212,-0.83103085,-0.21889174,22.667463302612305,-5.30391263961792,11.140539169311523,106.74532318115234,-164.11671447753906, -87.80396270751953
660,101979560,0.47974572,-0.08429364,-0.84934056,-0.20336989,22.244104385375977,-3.712967872619629,11.992362022399902,155.6383514404297,-174.39979553222656, -79.92001342773438
661,101996227,0.45509169,-0.06877597,-0.8685026,-0.18402365,18.614086151123047,3.071485757827759,3.9805374145507812,177.2146453857422,-196.76759338378906, -71.41207885742188
662,102012894,0.43130475,-0.060741145,-0.88366795,-0.17151633,21.833087921142578,8.936301231384277,13.94690227508545,108.32101440429688,-185.4247283935547, -45.1319694519043
663,102029561,0.41241965,-0.056055874,-0.8935104,-0.16854496,11.963847160339355,7.557286262512207,5.178630352020264,36.31240463256836,-140.0365447998047, -45.031097412109375
664,102046228,0.39656797,-0.046156827,-0.90323263,-0.15739925,9.195940017700195,8.142278671264648,-3.4629738330841064,102.42017364501953,-118.26001739501953, -50.28520584106445
665,102062895,0.39031634,-0.039333757,-0.90846103,-0.1442389,14.439485549926758,-0.22898297011852264,10.901954650878906,104.76959991455078,-50.353336334228516, -13.813262939453125
666,102079562,0.39333338,-0.036072347,-0.9093926,-0.13035639,0.472942054271698,-2.893104314804077,8.635930061340332,97.98981475830078,15.183979988098145, 20.714229583740234
667,102096229,0.40197584,-0.031547718,-0.9071505,-0.12040919,5.902304649353027,2.482973098754883,4.907829761505127,75.33971405029297,61.00812530517578, 8.011244773864746
668,102112896,0.4172461,-0.03211762,-0.8998838,-0.122815266,2.93542218208313,2.678820848464966,5.448790073394775,-18.491361618041992,114.65129852294922, 12.243451118469238
669,102129563,0.43895623,-0.037759963,-0.887636,-0.13414301,3.2450361251831055,-0.47316843271255493,4.736242294311523,-91.01600646972656,166.4591064453125, 24.582534790039062
670,102146230,0.46590093,-0.04433368,-0.8717541,-0.14496814,3.9159889221191406,-0.19387412071228027,3.3212666511535645,-92.76509857177734,208.37644958496094, 37.53444290161133
671,102162897,0.4968951,-0.052524723,-0.8520861,-0.15583906,4.859485626220703,0.5890708565711975,2.4420297145843506,-100.77811431884766,243.183349609375, 52.25642776489258
672,102179564,0.53143364,-0.06215522,-0.8284427,-0.1655227,5.795596599578857,-0.44311338663101196,1.3149383068084717,-101.73707580566406,275.5730285644531, 69.97268676757812
673,102196231,0.56892544,-0.07254869,-0.8006868,-0.17309386,7.468362331390381,-0.5300799012184143,0.35341617465019226,-95.93817901611328,305.67559814453125, 87.1425552368164
674,102212898,0.6089622,-0.08463018,-0.76815283,-0.17872934,10.121417999267578,-1.9634017944335938,-1.5336910486221313,-96.33527374267578,335.4436340332031, 109.41036224365234
675,102229565,0.6504545,-0.095464386,-0.73221076,-0.17794187,13.12488842010498,-3.1198508739471436,-2.9434866905212402,-60.55740737915039,355.2456970214844, 133.46717834472656
676,102246232,0.6920437,-0.104049444,-0.6934168,-0.17152992,16.250654220581055,-0.9293418526649475,-3.454293727874756,-25.631437301635742,367.60955810546875, 149.2603302001953
677,102262899,0.7317362,-0.1131265,-0.65160465,-0.16485189,18.687658309936523,2.0854077339172363,-3.209886074066162,-31.65430450439453,372.2279357910156, 152.78424072265625
678,102279566,0.7674101,-0.12530817,-0.6078137,-0.16106626,20.604637145996094,2.9398505687713623,-3.2528343200683594,-65.64442443847656,362.9814147949219, 149.13609313964844
679,102296233,0.79802746,-0.13435522,-0.56652385,-0.15540873,23.2783260345459,2.977597236633301,-5.443917274475098,-42.87959671020508,330.5685729980469, 138.16751098632812
680,102312900,0.82251173,-0.14077014,-0.529723,-0.1518286,22.735980987548828,7.31834077835083,-7.838714122772217,-37.415897369384766,286.8837585449219, 105.82825469970703
681,102329567,0.83860797,-0.15780105,-0.49694544,-0.15773685,18.72238540649414,8.106670379638672,-11.456565856933594,-131.84219360351562,230.90179443359375, 80.81353759765625
682,102346234,0.84698105,-0.1831301,-0.4693304,-0.16975184,15.983648300170898,7.106126308441162,-14.903508186340332,-205.39659118652344,172.91087341308594, 58.97041320800781
683,102362901,0.8509573,-0.1992386,-0.45257172,-0.17707346,13.125688552856445,6.022963523864746,-18.12226104736328,-131.53033447265625,101.18775177001953, 36.349021911621094
684,102379568,0.8505415,-0.19974658,-0.45149878,-0.1811889,10.311285018920898,10.268143653869629,-16.358070373535156,-17.19943618774414,10.596328735351562, -20.19378662109375
685,102396235,0.844011,-0.20041715,-0.46066213,-0.18779992,10.269725799560547,9.742204666137695,-14.863456726074219,-20.04701042175293,-65.36713409423828, -54.714351654052734
686,102412902,0.8310344,-0.20566759,-0.47707012,-0.19871268,13.334135055541992,7.745601654052734,-10.760153770446777,-58.81746292114258,-127.93960571289062, -82.7671890258789
687,102429569,0.8150041,-0.21887459,-0.49213606,-0.21369271,16.180511474609375,-5.584850311279297,6.987335205078125,-124.66358947753906,-134.94195556640625, -82.7828598022461
688,102446236,0.80297726,-0.22196873,-0.5064915,-0.22231571,11.464734077453613,-8.342740058898926,3.5406932830810547,-45.721397399902344,-110.80322265625, -76.9219970703125
689,102462903,0.78972363,-0.21955901,-0.5248805,-0.2294146,17.902114868164062,5.176992416381836,-6.578404426574707,-5.941035747528076,-131.28652954101562, -95.7669677734375
690,102479570,0.7735147,-0.22359738,-0.54086256,-0.24320161,16.2185115814209,-1.2824774980545044,1.94310462474823,-73.2952651977539,-128.95361328125, -109.57725524902344
691,102496237,0.7601407,-0.21793516,-0.5587182,-0.25004888,13.42575740814209,2.8760926723480225,-3.2040936946868896,14.3226900100708,-123.48970031738281, -105.63951873779297
692,102512904,0.747355,-0.21603769,-0.5723285,-0.2592846,13.375577926635742,1.8597168922424316,0.7593221664428711,-20.965667724609375,-101.88298034667969, -96.2547607421875
693,102529571,0.73900425,-0.21198069,-0.5828237,-0.2631608,9.362032890319824,0.1394961178302765,0.9216086268424988,12.245635986328125,-72.5326919555664, -64.66165924072266
