Acc_X,Acc_Y,Acc_Z
2.9288196563720703,0.7586100697517395,-1.910093188285828
3.3047890663146973,0.8023236393928528,-1.6793757677078247
4.497484683990479,0.9247702360153198,-0.8509191870689392
5.765152931213379,0.9233222007751464,1.097259283065796
7.263515472412109,1.2163915634155271,4.3935546875
5.99052619934082,2.3469789028167725,6.613299369812012
-3.1598029136657715,1.3805952072143557,-3.460219383239746
-2.6589488983154297,3.07357120513916,-7.928547382354736
-0.7081854343414307,-0.4182469844818115,-4.698406219482422
-1.7848740816116333,2.054842710494995,-4.87493896484375
-3.009361743927002,3.424456119537353,-2.973845958709717
-4.501423358917236,2.7876110076904297,-0.3422617614269256
-4.7342023849487305,-1.0109542608261108,1.255062222480774
-5.128154277801514,-2.4226598739624023,2.211977481842041
-5.981414794921875,-2.9619648456573486,5.364217281341553
-7.357815742492676,-3.804226875305176,9.484393119812012
-8.696537017822266,-5.239324569702148,11.838481903076172
-6.4233717918396,-1.6268601417541504,-16.801422119140625
18.29340171813965,2.1932778358459477,-9.909187316894531
-9.45057487487793,-0.4805048704147339,8.443708419799805
13.000229835510254,2.948873519897461,0.1916677951812744
7.794963836669922,-0.6994306445121765,3.363115072250366
10.255597114562988,2.597733974456787,1.4334676265716553
7.440521240234375,1.6295231580734253,1.0488172769546509
7.2818603515625,-0.4877432882785797,0.0729897394776344
7.491113185882568,-1.0919290781021118,0.0242049060761928
5.731998443603516,-0.7081932425498962,0.5338614583015442
4.174957275390625,-0.1679924577474594,1.256048560142517
5.0890703201293945,1.2838726043701172,5.311093807220459
-5.8096137046813965,0.5218878388404846,-1.4938156604766846
-5.66005802154541,3.543792486190796,-8.258416175842285
-2.9225733280181885,0.7222829461097717,-6.582058906555176
-4.043437957763672,-3.25199556350708,-5.6545729637146
-3.466810941696167,3.79648756980896,-5.552505970001221
-5.704377174377441,4.136271953582764,-4.6426544189453125
-6.089404582977295,1.803167462348938,-2.374279737472534
-5.294532775878906,-1.627292513847351,-0.4069394469261169
-5.250627040863037,-3.1511828899383545,1.2641494274139404
-5.43636417388916,-3.362354516983032,3.786370754241944
-4.794322490692139,-3.0676486492156982,4.98370885848999
-3.870951414108277,-3.4340062141418457,5.345979690551758
-4.957165718078613,-0.6248089671134949,4.117020606994629
5.332154273986816,2.8522262573242188,-6.950563430786133
5.195268630981445,3.229336261749268,9.105493545532228
5.050012588500977,6.1077985763549805,4.362915992736816
11.15261936187744,1.4147307872772217,2.4201736450195312
8.4199857711792,2.126651763916016,2.1246678829193115
8.729487419128418,-0.4076189696788788,1.130253553390503
9.901025772094728,-2.067363739013672,1.0667842626571655
7.607934951782227,-2.51408314704895,0.9331687688827516
5.542538642883301,-1.6809189319610596,1.195734620094299
4.606858253479004,-0.1451542228460312,4.9514875411987305
-2.3297431468963623,1.137714385986328,3.3392789363861084
-5.474241256713867,2.250138521194458,-2.521522760391236
-3.3830726146698,2.71917724609375,-9.83904266357422
-2.2200112342834477,-3.877196073532105,-2.907273054122925
-3.493497371673584,0.1144241392612457,-4.638445854187012
-5.839239120483398,2.805063486099243,-2.6047613620758057
-7.130197048187256,2.070021867752075,-0.021918885409832
-7.607978343963623,-1.834574818611145,1.8538798093795776
-6.637267589569092,-4.55207633972168,2.308671712875366
-5.735969543457031,-4.641044616699219,2.3904104232788086
-5.491595268249512,-2.8121910095214844,3.044901132583618
-5.742684841156006,-0.355668842792511,4.378656387329102
-6.314695358276367,0.6259322166442871,4.662604331970215
-5.277114868164063,5.616705417633057,-10.151646614074709
17.155071258544922,2.012972831726074,-10.050874710083008
-2.462428331375122,1.4121848344802856,13.29302978515625
13.9959135055542,2.1480307579040527,1.355255126953125
9.997109413146973,2.059126615524292,4.35154390335083
11.295330047607422,-0.2351031303405761,1.1874035596847534
11.244853019714355,0.1166241243481636,3.19474196434021
11.21501350402832,-0.1969795227050781,4.102323532104492
7.684333324432373,1.176801681518555,7.563809394836426
-2.0041911602020264,0.2771484851837158,1.5528817176818848
-3.306217908859253,2.3220245838165283,-5.117263317108154
-4.2650980949401855,0.3101952672004699,-1.260358214378357
-6.117287635803223,-6.633977890014648,2.2970144748687744
-4.4320902824401855,-2.8616750240325928,0.45912566781044
-5.1599321365356445,3.402308225631714,0.580345094203949
-6.995440483093262,3.861034154891968,0.6589529514312744
-6.599762439727783,-0.882328987121582,-1.5192214250564575
-6.059899806976318,-1.4668704271316528,-3.695525646209717
-5.542386531829834,-2.727694272994995,-4.707823753356934
-5.124212741851807,-0.8458104133605957,-4.522197246551514
-4.847141265869141,0.5504462718963623,-3.627370595932007
-5.168458461761475,2.197255849838257,-0.9976459741592408
-5.557991981506348,1.0972905158996582,0.9695062041282654
-4.907369613647461,-1.070148468017578,1.5079299211502075
1.9964871406555176,2.3948171138763428,-11.51162338256836
11.942705154418944,0.7134813070297241,8.219964981079102
4.200366973876953,3.8572838306427,5.034775733947754
16.505765914916992,-0.391314685344696,4.923203468322754
11.773459434509276,-0.9477126002311708,2.0934886932373047
10.703478813171388,-1.829604268074036,1.2847936153411863
10.03916358947754,-2.1632301807403564,2.142752885818481
8.237224578857422,-1.0964560508728027,2.939049005508423
3.6457250118255615,0.0609824657440185,4.666752815246582
-3.0267257690429688,-0.9853404760360718,-1.1785134077072144
-3.0009539127349854,2.263415813446045,-6.031693935394287
-4.571187973022461,1.6880285739898682,-4.232056140899658
-3.216671228408813,-6.168385982513428,-0.9053078293800354
-4.904602527618408,-2.222795963287353,-1.2845873832702637
-5.912447452545166,3.3087034225463867,1.4546072483062744
-9.572396278381348,4.245269298553467,3.759910106658936
-9.5736083984375,1.5952054262161257,2.350770950317383
-7.888132572174072,-1.7133749723434448,0.8901532888412476
-7.100347518920898,-2.6049129962921143,-0.4990606009960174
-6.729488372802734,-1.005347728729248,-1.1123019456863403
-6.044910430908203,0.9573506712913512,-1.681983470916748
-5.038187980651856,2.229416847229004,-2.380898714065552
-3.7661752700805664,2.276906728744507,-3.420457601547241
-1.032486081123352,-1.068389058113098,-5.531210899353027
6.734799861907959,2.3232812881469727,-7.884200096130371
7.267481803894043,-0.2006708979606628,7.959758281707764
4.659973621368408,1.569571852684021,5.988887310028076
13.999320030212402,1.359760880470276,2.6442172527313232
8.687440872192383,-0.6605697274208069,1.7245540618896484
8.494277954101562,-1.0589946508407593,0.5338789820671082
7.882163047790527,-1.1152340173721311,0.0554022602736949
6.0937819480896,-1.262309193611145,-0.2803786695003509
4.65822172164917,-0.2286172211170196,0.4281347990036011
3.7176513671875,0.3211765587329864,3.0047123432159424
-0.9048335552215576,0.8304888010025024,2.7166099548339844
-2.621146440505981,2.1229825019836426,-4.270207405090332
-0.8551926016807556,3.516042947769165,-6.168325901031494
-4.280495643615723,-3.5682215690612797,-2.123701333999634
-4.0225911140441895,1.54682195186615,-5.038419723510742
-5.892117023468018,1.1576449871063232,-4.519730567932129
-6.750001907348633,2.297334671020508,-4.2056097984313965
-6.809523582458496,1.4870024919509888,-3.2987537384033203
-6.213820934295654,-0.015752624720335,-1.871951699256897
-6.2980546951293945,-0.8185845017433167,0.630462110042572
-6.722891807556152,-1.7829219102859497,2.672459840774536
-6.744664669036865,-1.7333335876464844,4.875895977020264
-6.40911865234375,-1.8527132272720337,5.446314811706543
-6.68185567855835,-2.11077880859375,4.1451096534729
-3.896183967590332,0.422370970249176,-9.971273422241213
5.201745986938477,2.359360456466675,-6.781016826629639
5.816279888153076,3.3113105297088623,14.965126037597656
2.3450191020965576,1.9884297847747805,0.0561303421854972
16.470539093017578,-2.119370937347412,2.011873483657837
8.57439136505127,1.0426204204559326,2.8865609169006348
11.730340003967283,-1.6303390264511108,0.6266485452651978
11.26152801513672,-1.3044356107711792,1.1184748411178589
11.683015823364258,-2.046236991882324,1.1474111080169678
7.739237308502197,-0.725542426109314,2.7622768878936768
1.3039718866348269,-1.028800129890442,0.4715278148651123
0.1443092823028564,1.133411169052124,4.365624904632568
-6.754474639892578,-0.5407741069793701,-2.127164840698242
-4.657177925109863,4.209921836853027,-11.008539199829102
-0.8504301905632019,-0.4552064538002014,-1.9294278621673584
-5.28938627243042,-1.6651694774627686,-5.23921012878418
-6.460245609283447,2.399822950363159,-2.4741370677948
-9.281465530395508,1.8173474073410036,-0.967309296131134
-8.858448028564453,3.22306752204895,-0.492121934890747
-7.005747318267822,-0.9943172931671144,0.0946709141135215
-5.831997871398926,-2.427331924438477,0.3929513096809387
-5.337314128875732,-2.931215286254883,0.8026459217071533
-4.906754016876221,-2.4085006713867188,1.3544504642486572
-5.766738414764404,-1.4016382694244385,3.776335000991821
-6.21640682220459,-0.8069053292274475,7.795351982116699
-1.442188739776611,6.823242664337158,-19.035005569458008
6.909881114959717,-4.547630310058594,1.7052282094955444
-1.0346941947937012,3.571945905685425,4.759357452392578
15.80521011352539,3.91323184967041,6.503637313842773
12.357305526733398,4.623865604400635,5.817230224609375
14.133975982666016,-0.0635769665241241,2.75601577758789
12.953222274780272,-2.229059934616089,2.2739062309265137
9.741683959960938,-2.9861767292022705,0.979019582271576
6.14959716796875,-2.353064775466919,0.8821292519569397
2.2207276821136475,-1.5149099826812744,3.985492706298828
-3.855533838272095,0.3770692348480224,0.8219249844551086
-3.346365451812744,4.39569616317749,-6.970497131347656
-0.4618629217147827,-1.0922980308532717,-1.868531823158264
-5.420387268066406,-2.784485101699829,-2.9000768661499023
-5.928646087646484,1.090458631515503,-0.7348577380180359
-7.986188888549805,1.7460156679153442,-0.6383711099624634
-9.14897632598877,1.110884189605713,0.7528753876686096
-8.450546264648438,-1.5520802736282349,0.888694703578949
-7.590383529663086,-2.0315957069396973,0.8089251518249512
-6.78163480758667,-2.1431150436401367,0.3145122230052948
-5.979920387268066,-0.4596077501773834,-0.3471314609050751
-5.280811309814453,-0.2816138863563537,-0.9513001441955566
-5.3064045906066895,0.374788761138916,-0.2950376868247986
-4.323058128356934,3.867666006088257,-10.473248481750488
4.1133646965026855,0.8632602691650391,-5.974710941314697
4.52792501449585,3.502405405044556,12.105610847473145
8.553245544433594,1.2492157220840454,-0.6567819118499756
16.755624771118164,0.1739258617162704,5.390365123748779
11.795915603637695,0.7403991222381592,4.070794582366943
13.379154205322266,-2.093648910522461,2.567469596862793
10.744930267333984,-2.216801166534424,1.8734322786331177
8.241632461547852,-1.2508978843688965,5.253887176513672
-2.393249273300171,-1.1660635471343994,-0.2285654544830322
-2.267792224884033,2.527897596359253,-4.715809345245361
-2.9397401809692383,1.924097180366516,-3.201188325881958
-2.509415626525879,-2.846806526184082,0.0067864870652556
-5.041407108306885,-1.4262868165969849,1.0236701965332031
-6.8587751388549805,3.672834873199463,3.028531789779663
-8.86659049987793,0.8118255138397217,4.187084674835205
-8.511641502380371,1.339018940925598,2.687708854675293
-7.66056489944458,-0.9420786499977112,0.6432428359985352
-6.611350536346436,-1.724740505218506,-1.3087646961212158
-5.6526384353637695,-1.7315843105316162,-3.104156494140625
-4.9269795417785645,-0.5705850720405579,-4.96182918548584
-4.282949447631836,1.2391637563705444,-5.993209362030029
-3.792748928070069,1.9287315607070925,-5.8284687995910645
-3.111745834350586,0.6721636652946472,-3.3695688247680664
0.582395076751709,0.5980809926986694,-1.4545665979385376
7.580798625946045,1.7840917110443115,4.745974063873291
7.866724014282227,1.9488441944122317,4.609108924865723
13.939504623413086,0.3038729727268219,3.2841720581054688
11.137510299682615,-1.363611936569214,2.0442099571228027
9.169795989990234,-1.96109938621521,0.0466363430023193
10.624311447143556,-2.34559965133667,-0.1406370401382446
7.482775688171387,-2.759472131729126,0.7074080109596252
4.607241153717041,-1.1824302673339844,1.8959569931030276
1.5538320541381836,0.217200681567192,3.9452388286590576
-4.141293525695801,1.3279155492782593,0.4761964380741119
-4.745746612548828,3.8246376514434814,-5.901292324066162
-2.544349670410156,0.418610006570816,-5.860537528991699
-6.254522800445557,-2.6463489532470703,-2.027503728866577
-5.458723545074463,2.208014488220215,-1.4674749374389648
-8.356683731079102,1.3823357820510864,0.8125712871551514
-10.164454460144045,0.754855751991272,2.281967878341675
-8.958514213562012,0.152924358844757,0.8836860060691833
-6.7517805099487305,-0.1129248067736625,-0.7213485240936279
-5.944067478179932,-2.290130376815796,-1.2919460535049438
-5.4135422706604,-1.8013845682144165,-1.8644014596939087
-4.502290725708008,-1.3483588695526123,-1.778607726097107
-3.1387665271759038,2.3963053226470947,-1.2376447916030884
0.5761697888374329,5.466039180755615,-8.651299476623535
4.430967807769775,-0.8588628768920898,3.9024441242218018
1.731784462928772,0.377330332994461,6.716767311096191
15.136285781860352,2.312661647796631,2.5072569847106934
10.48673152923584,-0.6911402344703674,3.498001337051392
10.57909107208252,-1.7986347675323486,0.5002521276473999
9.274090766906738,-2.856565237045288,-0.0461232140660285
8.104544639587402,-2.3139002323150635,-0.3572268187999725
6.114757537841797,-1.930042028427124,-0.3211207687854767
4.010408878326416,0.0149918217211961,2.482460021972656
-0.4267849028110504,1.1977142095565796,1.3026350736618042
-2.966609239578247,1.7308354377746582,-2.4978322982788086
-1.8381720781326292,6.31882905960083,-8.970868110656738
-1.651473045349121,-0.1250321865081787,-4.333096027374268
-4.34116268157959,0.5976287722587585,-6.459757328033447
-5.662496566772461,2.024193525314331,-4.017607688903809
-7.324038982391357,2.838043451309204,-2.3138906955718994
-8.652533531188965,1.3605493307113647,0.1109108626842498
-8.249049186706543,-1.2705878019332886,1.356953740119934
-6.590045928955078,-2.3142714500427246,2.2362277507781982
-6.321261405944824,-2.745032548904419,2.8158466815948486
-5.196918964385986,-2.501811981201172,2.610741138458252
-5.0012617111206055,-2.1577253341674805,2.8638181686401367
-4.558112621307373,-0.4160061776638031,4.618341445922852
-2.7087903022766118,6.937735080718994,-8.967720985412598
4.655991554260254,-2.083491325378418,-0.1314390301704406
1.961609125137329,2.4609148502349854,8.316842079162598
13.364031791687012,-0.2655582726001739,0.3433476090431213
11.279643058776855,-0.1166988238692283,3.561681032180786
12.007549285888672,0.5633606314659119,2.8189918994903564
11.260934829711914,-1.6357086896896362,2.305466413497925
11.580071449279783,-2.587522268295288,1.16709566116333
8.216532707214355,-1.661636233329773,2.067709684371948
7.171623229980469,-1.0897598266601562,3.92349624633789
-0.69709712266922,1.324893832206726,4.160725593566895
-6.248711585998535,1.4439024925231934,-1.1318711042404177
-3.849359035491944,5.083526611328125,-9.635199546813965
-1.5944243669509888,-0.4759854674339294,-0.8960927128791809
-5.598528861999512,-1.411404728889465,-4.73753833770752
-5.7354254722595215,1.1512047052383425,-2.350255250930786
-7.592616081237793,2.541400194168091,-1.400831937789917
-9.34462833404541,0.0425031408667564,0.4504684209823608
-8.889296531677246,-1.4267569780349731,1.282680630683899
-7.582095623016357,-2.9149279594421387,1.9070463180541992
-6.854253768920898,-2.877556562423706,1.9450249671936035
-5.821552276611328,-3.0388214588165283,1.8232396841049197
-5.422652244567871,-1.8285727500915527,2.480558395385742
-4.5878190994262695,-0.6169184446334839,-1.8290455341339111
2.340528726577759,12.79794216156006,-20.34737014770508
7.366440296173096,-3.276787281036377,6.971013069152832
-4.541312217712402,5.900400638580322,11.202263832092283
17.1185359954834,3.600062131881714,-0.2883349657058716
9.14932632446289,-0.5923048257827759,2.9740653038024902
9.682087898254396,-0.6956848502159119,0.4197233319282532
8.784133911132812,-3.523366689682007,0.2771090269088745
9.229968070983888,-3.417943000793457,-0.4814366698265075
10.403560638427734,-2.7020063400268555,1.433002233505249
8.547669410705566,-1.3102028369903564,3.991849422454834
1.1955845355987549,0.2139659970998764,3.2712416648864746
-4.863098621368408,0.682354748249054,-1.376479148864746
-3.207435369491577,5.55130672454834,-6.460121154785156
-1.6866859197616575,-3.225862979888916,-4.213325500488281
-4.7196221351623535,-0.8891740441322327,-2.812520265579224
-5.563906669616699,3.269132614135742,-0.7164289355278015
-7.224413394927978,3.5849602222442627,0.2712940275669098
-9.209033012390137,1.6285353899002075,2.370642900466919
-9.043590545654297,-2.1736040115356445,3.208587169647217
-7.787215232849121,-1.441470980644226,1.3603602647781372
-6.745337963104248,-1.881256103515625,0.8422908186912537
-5.6342058181762695,-0.8092533946037292,-0.3614835739135742
-5.449215412139893,0.0413709692656993,-0.5256380438804626
-5.186051845550537,1.2641056776046753,0.4593868553638458
-3.7035279273986816,-0.2549508512020111,-0.6068608164787292
1.7278015613555908,3.948085308074951,-15.971685409545898
16.8121395111084,0.7515673637390137,2.952515125274658
-1.3243645429611206,1.9796255826950075,11.029197692871094
20.08102226257324,1.526401400566101,3.036701202392578
9.603958129882812,-1.954007863998413,3.5419979095458984
11.321584701538086,-3.076885938644409,-0.0635215193033218
9.47153663635254,-2.8240015506744385,1.3421645164489746
7.179779052734375,-3.157681465148926,0.4240351319313049
3.8050999641418457,-1.3157027959823608,0.7574551105499268
2.166720390319824,0.980305790901184,3.901857376098633
-5.069100856781006,0.8338090777397156,-3.603646516799927
-3.040842771530152,4.45128870010376,-6.22767972946167
-3.7350823879241934,0.7128194570541382,-5.0941925048828125
-4.052363395690918,-2.154479503631592,-2.9431371688842773
-5.283173084259033,1.7526229619979858,-2.144282341003418
-7.449647426605225,3.7484805583953857,0.1738826036453247
-9.810038566589355,2.864448547363281,2.648244857788086
-9.766393661499023,-1.8420984745025637,4.580981731414795
-7.92777681350708,-4.346898555755615,2.8580322265625
-6.621663570404053,-4.440998077392578,1.9734357595443728
-5.849458694458008,-1.6734540462493896,0.9404079914093018
-5.525008678436279,0.8864873051643372,0.3088471293449402
-4.285282611846924,2.5171432495117188,-2.371422290802002
1.931341767311096,7.6914753913879395,-19.3373966217041
10.118523597717283,-4.421182632446289,3.133106470108032
-4.838985443115234,2.1450061798095703,11.498923301696776
14.207971572875977,3.993308782577514,1.444279670715332
10.451655387878418,-0.8303002715110779,2.155218601226806
9.721187591552734,0.8061314225196838,1.1484193801879885
8.149914741516113,-1.6146658658981323,0.929230570793152
8.947236061096191,-1.6453263759613037,0.3688068687915802
9.692813873291016,-1.5925720930099487,0.8310881853103638
6.9878010749816895,-0.7263023853302002,1.3832440376281738
3.944634914398194,0.6648398041725159,4.1248087882995605
-3.0660417079925537,-0.459365040063858,-0.3062116801738739
-3.095276117324829,2.8221540451049805,-3.684401750564575
-2.6263651847839355,3.629363775253296,-6.588040828704834
-2.5366361141204834,-2.4988224506378174,-2.095994472503662
-3.571908712387085,0.9208946228027344,-3.542855262756348
-5.565061569213867,2.713045835494995,-1.675822138786316
-7.6047563552856445,2.3976309299468994,0.0657125487923622
-8.540111541748047,-0.2472236305475235,1.1857378482818604
-7.452007293701172,-2.5178568363189697,0.5121857523918152
-6.735673427581787,-2.7794830799102783,0.3557527363300323
-6.124579906463623,-2.2331912517547607,0.4062664806842804
-5.334637641906738,-1.4355978965759275,0.7366002798080444
-5.285020351409912,-0.4862052202224731,2.190913677215576
-5.402744770050049,-1.4798173904418943,2.1591339111328125
-2.5676591396331787,1.5100624561309814,-11.104877471923828
4.5231475830078125,0.8371444344520569,-8.2028226852417
7.823559761047363,1.3487836122512815,13.313396453857422
2.946285963058472,3.341697931289673,1.881906270980835
15.587250709533691,1.2604784965515137,2.586662530899048
7.974419116973877,1.7042192220687866,2.353092193603516
10.213482856750488,-1.4206753969192505,-0.0333827175199985
9.052382469177246,-1.4093658924102783,0.2191247045993805
10.088129043579102,-2.3719019889831543,0.1258845329284668
7.738592624664307,-0.8002005815505981,1.9494199752807615
5.749623775482178,0.21318881213665,4.547554016113281
-2.48978590965271,1.0768944025039673,2.1515140533447266
-6.663779258728027,1.079469084739685,-3.2922823429107666
-3.715985774993897,4.819235801696777,-9.086069107055664
-2.1571993827819824,-2.325647592544556,-0.4572026431560516
-4.407041072845459,0.6348651647567749,-4.199230194091797
-6.497912406921387,1.836958765983581,-1.7598756551742554
-8.310575485229492,1.8431825637817385,-0.7223750948905945
-9.148794174194336,0.4858104884624481,0.9169186353683472
-8.043601989746094,-1.9452792406082156,1.2978670597076416
-6.656388759613037,-2.68170166015625,0.6977819800376892
-6.165616512298584,-2.832942008972168,0.3151227831840515
-5.373344421386719,-1.9773082733154297,0.5475316643714905
-5.010910987854004,-1.121259331703186,-0.0177588798105716
-2.880513906478882,3.993464469909668,-7.894192218780518
2.2552473545074463,2.0317046642303467,-7.804862976074219
4.3078155517578125,-0.7670475244522095,8.895037651062012
1.8007268905639648,1.6926500797271729,4.904748439788818
15.731610298156738,3.407910108566284,3.406335830688477
9.41214370727539,0.2362625151872635,2.616995334625244
11.288430213928224,-1.230093002319336,1.2026865482330322
9.76357364654541,-0.8990654349327087,1.4196953773498535
9.245591163635254,-2.4505209922790527,0.045423999428749
7.302914142608643,-1.4730520248413086,0.7096966505050659
4.478372097015381,-0.0857764482498169,2.312513828277588
1.7221938371658323,0.4728589355945587,3.136946439743042
-2.8998863697052,1.6694071292877195,1.833913803100586
-4.2141523361206055,2.5904195308685303,-4.892800807952881
-1.1438374519348145,5.464272499084473,-7.717072486877441
-3.743283033370972,-1.9331386089324951,-2.7871029376983643
-4.393718719482422,0.4465981125831604,-4.446890354156494
-6.589375972747803,0.4356569349765777,-1.677319884300232
-7.813174247741699,1.0126056671142578,0.3187741935253143
-8.339176177978516,0.0552978552877903,2.1794087886810303
-7.730132579803467,-1.5395570993423462,2.5323703289031982
-6.612112998962402,-2.218667268753052,2.401700973510742
-5.940012454986572,-3.2835614681243896,2.362771511077881
-5.50620698928833,-2.126375198364258,1.9058778285980225
-4.98408317565918,-1.7394813299179075,2.155473232269287
-3.916324138641357,0.5437241792678833,-2.800659418106079
3.3468308448791504,9.938060760498049,-16.301172256469727
7.777563571929932,-1.171519160270691,5.447644233703613
-2.592624425888061,3.148127555847168,11.914109230041504
15.221803665161133,2.82918119430542,-0.1612410545349121
9.306496620178224,-2.4649128913879395,1.8885478973388672
6.605349063873291,-2.4642300605773926,-0.9096074104309082
6.864214420318604,-4.896343231201172,-1.727263569831848
7.314403533935547,-3.159595251083374,-0.9153476357460022
9.125242233276367,-1.9093393087387085,0.6832311749458313
8.462284088134766,0.3050589561462402,2.74177622795105
5.653824806213379,2.620129108428955,4.269738674163818
4.222121238708496,3.884104490280152,8.90776252746582
-7.780042171478271,1.6636559963226318,-1.570824146270752
-5.767147541046143,4.709576606750488,-6.7765092849731445
-2.7269861698150635,0.4327270984649658,-7.0879645347595215
-3.2331881523132324,-3.8346142768859854,-2.993306398391724
-5.12326717376709,1.6461224555969238,-1.1141284704208374
-6.691218376159668,3.177016496658325,1.756246566772461
-9.74942111968994,1.7476658821105957,4.138233661651611
-9.914209365844728,-1.8141523599624636,5.485043048858643
-7.68319034576416,-5.093573570251465,2.975980043411255
-6.479538917541504,-6.009268760681152,1.3725656270980835
-5.297050952911377,-3.838466644287109,-0.0092561803758144
-4.764089584350586,0.0247455388307571,-0.8400276303291321
-4.219112873077393,3.377297163009644,-2.62945294380188
-2.4414453506469727,5.139950275421143,-17.492382049560547
12.579537391662598,2.478837728500366,-9.91227912902832
2.6789543628692627,1.977190971374512,18.081226348876957
7.798792362213135,5.159359455108643,4.070079803466797
15.057448387145996,0.0231764260679483,2.938291549682617
8.524953842163086,-1.2915645837783811,-0.4688232541084289
8.473014831542969,-2.604074239730835,0.3583372235298157
8.173762321472168,-2.7254672050476074,0.0149339362978935
7.202230453491211,-2.65687894821167,-0.6296335458755493
4.217935085296631,-0.7848944067955017,0.9016212821006776
3.004572868347168,-0.8608782291412354,1.4131907224655151
1.983379602432251,0.5051685571670532,4.09741735458374
-4.493455410003662,1.6260796785354614,-3.0639867782592773
-3.303779602050781,5.213050842285156,-6.360085487365723
-2.964536666870117,-0.9431911706924438,-5.225790023803711
-5.030154705047607,-0.1071310639381408,-1.9436898231506348
-5.815093994140625,2.150908946990967,-2.054901599884033
-7.712594985961914,2.221140623092652,-0.3694730401039123
-9.575634956359863,0.7063848376274109,0.9106402397155762
-8.851704597473145,-1.06122887134552,-0.0092407613992691
-7.128401756286621,-2.626732110977173,-1.330201506614685
-6.103002071380615,-2.65533447265625,-2.310266494750977
-5.686288356781006,-1.8630218505859373,-2.2845962047576904
-4.808562755584717,-0.1411084830760955,-2.963716983795166
-3.0786612033843994,1.1031047105789185,-0.8232491612434387
-0.849915087223053,4.844047546386719,-1.5367991924285889
1.979256629943848,-2.3226349353790283,2.02417254447937
6.489390850067139,1.860297441482544,10.26257038116455
13.28452205657959,4.034717082977295,3.8194639682769775
12.418210983276367,0.8026868104934692,2.4817705154418945
7.65762996673584,-0.4583971798419952,-1.0809775590896606
5.502064228057861,-1.4692697525024414,-1.5752443075180054
6.061225891113281,-1.9945510625839236,-2.321630954742432
7.171595573425293,-2.053006172180176,-0.7667762637138367
7.164486885070801,-0.2937633693218231,1.1283469200134275
7.135115623474121,0.4720903038978576,4.037037372589111
6.09606409072876,0.6529661417007446,5.051855087280273
-1.842672348022461,1.6069800853729248,4.045272350311279
-6.867223262786865,0.929504930973053,-3.2296271324157715
-3.0453402996063232,5.594382762908936,-10.906882286071776
-1.9006696939468384,0.1664275377988815,-3.284693956375122
-4.749073028564453,0.1593522131443023,-5.584193229675293
-6.017172336578369,1.8345855474472048,-3.0832173824310303
-8.064596176147461,1.583712100982666,-1.165602207183838
-8.593892097473145,1.3345471620559692,0.624781608581543
-7.863594055175781,-2.222454786300659,1.9125196933746336
-6.0759806632995605,-3.496087551116944,0.979649007320404
-6.068665504455566,-3.765089988708496,1.8411532640457156
-5.499730110168457,-3.433528423309326,2.162266731262207
-5.294522285461426,-1.905635118484497,3.529385566711426
-4.421031475067139,-1.0143948793411257,2.1969802379608154
-0.1011135578155517,12.749262809753418,-17.29214096069336
13.277067184448242,-6.667535781860352,2.4259910583496094
-2.272038698196411,2.406980037689209,8.816948890686035
17.274799346923828,1.6173700094223022,1.7624647617340088
11.038164138793944,0.3026202619075775,2.281616687774658
11.694778442382812,-1.7937374114990234,0.5964418649673462
12.326409339904783,-0.8329736590385437,2.025286197662353
10.873634338378906,-1.457968831062317,1.4774492979049685
7.194693565368652,-0.6758114695549011,2.5763511657714844
4.156603813171387,-0.1932693570852279,3.469883680343628
-3.189208030700684,2.442154884338379,3.409430265426636
-4.694929122924805,1.622406005859375,-4.587561130523682
-1.7285890579223633,6.592303276062012,-10.774836540222168
-3.312458276748657,-0.9802448153495787,-2.4826505184173584
-6.842093467712402,0.85431307554245,-4.736961841583252
-7.922776699066162,0.7972949147224426,-2.2531769275665283
-9.811955451965332,1.1647114753723145,-0.2656131684780121
-9.979321479797363,1.2255147695541382,0.208532378077507
-8.915921211242676,0.0389243215322494,0.327505350112915
-7.817389488220215,-1.81074059009552,0.4159087538719177
-6.265294075012207,-4.223653316497803,0.377088338136673
-5.049997806549072,-4.501663684844971,-0.2351221889257431
-3.69476842880249,-1.7489027976989746,-1.7364521026611328
-1.903675198554993,4.151920318603516,-6.05852746963501
1.028788685798645,7.642217636108398,-0.3582876324653625
2.839824676513672,0.3855133056640625,12.10970401763916
9.558856964111328,4.038505554199219,4.693304061889648
18.84702491760254,-1.2874842882156372,0.6038040518760681
8.434154510498047,-0.4386645257472992,0.5210972428321838
8.850709915161133,-3.6830668449401855,-2.5699222087860107
9.74207592010498,-2.770890712738037,-1.5742400884628296
13.242450714111328,-2.6422674655914307,-0.2034257650375366
12.944965362548828,-2.445065259933472,2.844282865524292
10.332002639770508,-1.726118087768555,5.4878435134887695
5.067600250244141,0.8857418298721313,9.688902854919434
-7.954611778259277,1.4397575855255127,-5.23980188369751
-1.517064332962036,6.732069969177246,-10.95859718322754
-2.913662910461426,-0.4662748575210571,-10.551128387451172
-4.49526834487915,1.350922465324402,-5.886731624603272
-6.651462554931641,4.00416374206543,-1.8559441566467283
-10.194209098815918,2.1779112815856934,2.6578481197357178
-13.948678970336914,-0.0599756203591823,6.362414836883545
-12.009133338928224,-4.178785800933838,5.354223251342773
-10.137364387512209,-4.866450786590576,4.062933444976807
-8.607102394104004,-3.743754148483277,2.101174116134644
-7.5017991065979,-1.534758687019348,0.4701317548751831
-6.468673229217529,1.0613763332366943,-1.0579650402069092
-5.64615535736084,1.6981139183044434,-0.6122390627861023
-4.662533760070801,1.407619595527649,-3.2332639694213867
3.757699012756348,7.44481897354126,-30.8603630065918
11.766448974609377,-8.572861671447754,10.647443771362305
-3.89695143699646,9.733612060546877,12.739046096801758
23.85529327392578,2.134474277496338,-0.0851213634014129
11.780681610107422,2.082191467285156,3.5073320865631104
14.374587059020996,0.4893059432506561,0.5934034585952759
11.44926929473877,-1.9742697477340696,0.401751160621643
10.365894317626951,-3.770341157913208,-2.4554545879364014
8.995923042297363,-3.228601694107056,-0.7794198989868164
6.3655548095703125,-1.9869139194488523,1.4590471982955933
4.25059700012207,-0.2598207294940948,3.5033576488494877
1.0051865577697754,3.286034345626831,3.46309757232666
-3.3970601558685303,4.629297256469727,-1.9345208406448364
-3.1668248176574707,4.974064826965332,-9.513372421264648
-4.376999378204346,5.51230001449585,-10.68425750732422
-6.409229278564453,1.1918022632598877,-3.572155714035034
-10.17842960357666,0.2317768484354019,-0.5071061849594116
-10.340861320495604,-0.4674532115459442,1.3464545011520386
-11.055671691894531,-1.4860256910324097,3.342029094696045
-10.70120906829834,-2.545400619506836,2.8325207233428955
-9.86434555053711,-4.98513650894165,1.9195750951766968
-8.284963607788086,-3.211498022079468,0.3616581261157989
-6.058527946472168,-1.1159569025039673,-1.3626538515090942
-5.308457374572754,0.2895066142082214,-1.6560864448547363
-4.348967552185059,1.4199310541152954,-3.4672813415527344
0.6677970886230469,3.953519344329834,-16.219423294067383
4.64365816116333,-0.3239528834819793,-0.2390335500240326
4.528226852416992,3.353688240051269,19.478214263916016
17.64069938659668,6.017701148986816,2.527185201644897
19.074390411376957,-1.0840675830841064,2.8075203895568848
12.20119285583496,-2.157379627227783,-1.4162195920944214
10.44818115234375,-2.4606926441192627,-0.8803179264068604
10.767756462097168,-2.675648927688598,-2.345822095870972
8.616256713867188,-0.7409297823905945,-0.1646944731473922
7.713958740234375,-0.1171627342700958,2.3628385066986084
6.529770374298096,1.1866235733032229,5.5243754386901855
3.2738184928894043,3.5367536544799805,9.003225326538086
-5.830873489379883,3.38681435585022,-4.788303375244141
-1.3648271560668943,7.484549522399902,-12.756428718566896
-2.6638190746307373,-0.9501957297325134,-6.9775261878967285
-6.976028919219971,1.7090575695037842,-4.422886371612549
-8.395179748535156,1.7194072008132937,-1.940325140953064
-10.90237045288086,-0.4044836461544037,0.8189627528190613
-11.67120361328125,-2.080526113510132,2.5771918296813965
-9.954656600952148,-3.4398422241210938,1.1618821620941162
-8.662728309631348,-3.952303409576416,0.863201379776001
-7.900294303894043,-4.020122528076172,0.6992768049240112
-6.884464263916016,-2.356476306915283,0.364393800497055
-6.360392093658447,-0.4485160112380981,0.8633668422698975
-5.420082092285156,-1.2354668378829956,1.5578889846801758
-5.046992301940918,-0.676297664642334,-9.829912185668944
4.002096176147461,13.793939590454102,-17.16100311279297
8.363990783691406,-7.18194055557251,13.013352394104004
2.691391706466675,6.249165058135986,2.1310150623321533
21.23906707763672,-0.3445448577404022,1.6045873165130615
12.322702407836914,5.095631122589111,2.674652099609375
15.62360382080078,0.9613583087921144,2.2428250312805176
14.115309715270996,-1.681753396987915,-0.2021119892597198
12.327409744262695,-3.4961884021759038,0.606086254119873
9.03429889678955,-3.305650472640991,1.8769645690917969
4.976694583892822,-1.906781315803528,4.190193176269531
-1.1680692434310913,0.4943153262138366,4.083611011505127
-5.181324005126953,4.170086860656738,-8.037369728088379
-0.6942389011383057,3.6849887371063232,-8.915449142456055
-4.3362579345703125,-2.5423200130462646,-3.279176950454712
-5.398283004760742,2.905763864517212,-5.0516133308410645
-7.515106201171875,3.7231478691101074,-2.8700931072235107
-11.221746444702148,3.2407028675079346,-0.3794272541999817
-11.842267036437988,1.9392818212509155,0.4741008877754211
-9.684565544128418,-2.960880994796753,-0.3105204701423645
-9.11032772064209,-3.912933826446533,0.1628689467906952
-8.299759864807129,-3.989966630935669,0.2945656180381775
-7.402638912200928,-3.3102128505706787,0.4978543519973755
-6.156336307525635,-1.4422143697738647,0.3049846887588501
-5.11098051071167,-0.5529795289039612,-0.0202500708401203
-2.139500141143799,4.909451007843018,-14.127423286437988
5.088222503662109,4.148786067962647,-5.9308953285217285
6.554070949554443,-2.1713812351226807,18.47146987915039
4.727376937866211,6.178172111511231,3.1177022457122803
20.914663314819336,0.3487323224544525,2.1757869720458984
9.468321800231934,1.983028769493103,1.375838041305542
11.216019630432127,-0.8161247372627258,-0.2625182569026947
10.384461402893066,-2.3256173133850098,-1.028941988945007
12.755269050598145,-3.805845022201538,-0.9376097321510316
12.570133209228516,-2.197836875915528,2.1426894664764404
9.64846134185791,-0.4482343196868896,5.257656574249268
4.421581745147705,-0.1884455233812332,5.593649864196777
-5.60795783996582,2.07336688041687,2.3013007640838623
-4.4133782386779785,4.740123271942139,-8.847532272338867
-1.1207494735717771,0.303279846906662,-10.053556442260742
-5.709797382354736,-0.4567559957504272,-4.904219150543213
-6.391948699951172,1.931182861328125,-2.839068651199341
-8.828627586364746,1.6140244007110596,-0.0769841223955154
-10.9010648727417,0.9161743521690368,2.089277982711792
-10.55592155456543,-0.9019320607185364,2.63718843460083
-10.505926132202148,-3.839609384536743,2.9683849811553955
-8.89689826965332,-3.0284671783447266,1.2177257537841797
-7.511655330657959,-1.4852197170257568,-0.2068967819213867
-6.211328983306885,-2.6286075115203857,-0.6132484078407288
-5.7571892738342285,-1.253278374671936,0.2871044874191284
-5.954638481140137,0.9035733342170716,0.2683852016925812
-1.9121642112731931,8.613665580749512,-22.08246612548828
11.715004920959473,1.617761254310608,-4.642449378967285
1.6113276481628418,0.2269731163978576,20.30601692199707
17.421207427978516,5.912008285522461,1.5632586479187012
18.783510208129883,-0.4291132986545563,4.753242492675781
14.203506469726562,-0.683741569519043,0.3539218008518219
12.17013168334961,-1.656425714492798,1.1099058389663696
11.598669052124023,-3.873394966125488,-1.4138158559799194
7.211987495422363,-3.127936601638794,-0.3922998309135437
4.877968311309815,-1.65916907787323,2.294624090194702
3.3297929763793945,0.6258736848831177,6.582812786102295
-6.175500869750977,2.785827875137329,-1.533773422241211
-2.62386417388916,10.654773712158203,-12.005531311035156
-0.7018361687660217,-5.038476467132568,-7.26950740814209
-7.88258171081543,2.329606056213379,-5.033951282501221
-7.149692535400391,4.857404708862305,-4.6711745262146
-9.753993034362791,2.971097707748413,-2.309175729751587
-12.344481468200684,2.271545886993408,0.7911879420280457
-10.250093460083008,-2.485020399093628,0.6963679790496826
-9.328202247619627,-5.0665669441223145,0.921318531036377
-7.939401149749756,-4.686995983123779,0.5307842493057251
-7.278791904449463,-3.278280735015869,0.8148401379585266
-6.598128795623779,-0.500322699546814,0.7326018214225769
-5.596650123596191,1.261205792427063,0.4821572601795196
-2.940300464630127,4.272990703582764,-8.15758228302002
4.448939323425293,5.360018730163574,-8.138971328735352
7.359408378601074,-4.374214172363281,14.858176231384276
5.900858879089356,6.448579788208008,6.934475898742676
22.17938804626465,0.2657725811004638,2.00053334236145
10.73383617401123,0.4427953958511352,1.3628867864608765
9.79816722869873,-1.4898344278335571,-1.1513067483901978
9.055477142333984,-2.4380922317504883,-2.239020347595215
10.378507614135742,-2.8136727809906006,-1.1540454626083374
9.291411399841309,-1.2144311666488647,1.282402753829956
7.662990570068359,-0.5673035383224487,3.7383220195770255
6.328810691833496,2.076793909072876,10.03386116027832
-6.367023944854736,1.5548943281173706,-0.7029083371162415
-2.8047382831573486,8.036589622497559,-10.335190773010254
-1.0944688320159912,-0.8865076303482056,-6.621804237365723
-6.684645175933838,0.048114538192749,-4.968205451965332
-7.210862159729004,3.3969881534576416,-2.701099157333374
-9.860299110412598,0.6384124159812927,-0.3364391326904297
-11.364004135131836,0.1373536586761474,1.892210364341736
-10.74220848083496,-2.109871387481689,2.7450854778289795
-10.403823852539062,-4.411655426025391,3.2968971729278564
-9.347543716430664,-3.608422040939331,1.5031651258468628
-6.801135063171387,-1.7145792245864868,-0.1298017054796219
-5.8554205894470215,-0.7512643337249756,-1.3118293285369873
-4.763027191162109,1.0109145641326904,-1.5938677787780762
-4.684065341949463,1.4215542078018188,-2.9418747425079346
0.834998369216919,7.725045680999756,-14.124521255493164
7.2264227867126465,-2.706676721572876,-1.9907383918762207
8.045284271240234,3.379478693008423,15.17772388458252
17.14662742614746,3.8792901039123535,2.027893543243408
16.86707878112793,-1.0782402753829956,3.125948190689087
14.065046310424805,-1.5814555883407593,0.0494475960731506
13.10697078704834,-2.2822108268737797,0.394959807395935
11.982114791870115,-3.4058034420013428,0.1089753210544586
5.667386054992676,-1.5238755941390991,1.4099003076553345
3.765636920928955,-0.9660121202468872,3.690256357192993
1.0526142120361328,1.6604945659637451,5.462581157684326
-4.281478404998779,5.603980541229248,-6.997143745422363
-2.1593661308288574,3.176574468612671,-9.615638732910156
-4.135068893432617,0.6608879566192627,-3.604427337646485
-6.56974458694458,1.3259025812149048,-4.445466995239258
-8.28164291381836,1.9587717056274412,-2.8255045413970947
-10.384502410888672,0.8115490078926086,-0.837541937828064
-11.452860832214355,-0.0487152822315692,0.3764115571975708
-10.73577880859375,-2.5734846591949463,1.3353737592697144
-10.312177658081056,-3.775453329086304,1.8829470872879028
-8.052789688110352,-3.178349256515503,0.656049370765686
-7.047354221343994,-3.3614931106567383,0.4258644580841064
-6.104012489318848,-1.810611605644226,0.4801494479179382
-5.195633888244629,-0.6927633881568909,0.3168992102146148
-3.557206392288208,1.5119125843048096,-3.6854324340820312
3.824732542037964,11.82325267791748,-18.97176742553711
8.823946952819824,-5.089709281921387,12.39749240875244
3.152384042739868,7.054173946380615,12.769476890563965
23.59941673278809,2.354404926300049,-0.7498105764389038
9.440755844116213,-0.9625861644744872,0.3230859339237213
10.241161346435549,-1.6891043186187744,-1.4960641860961914
9.709837913513184,-2.8077547550201416,-1.1470032930374146
11.76356601715088,-3.3903095722198486,-1.7402805089950562
12.041378021240234,-1.4187390804290771,1.6381727457046509
9.70324420928955,-0.7472188472747803,3.972872495651245
6.577343463897705,-0.5725997686386108,6.591140270233154
-5.493697166442871,2.0287907123565674,2.7360284328460693
-3.685809135437012,7.541898250579834,-9.264039993286133
-1.2944127321243286,-0.5407237410545349,-10.6100435256958
-4.344536304473877,1.3442137241363523,-5.648126602172852
-6.784602642059326,3.116896152496338,-3.0289394855499268
-9.086427688598633,4.08582067489624,0.0864391177892685
-12.485288619995115,1.2858870029449463,2.759390592575073
-12.292282104492188,-1.5783953666687012,3.769129991531372
-11.732757568359377,-4.803858280181885,3.909537076950073
-9.848708152770996,-4.511561870574951,2.2748055458068848
-7.7390456199646,-3.7188775539398193,-0.7406570315361023
-6.5133442878723145,-0.9738997220993042,-1.307015895843506
-5.810969352722168,0.5477123260498047,-2.186455249786377
-4.3323187828063965,1.283369779586792,-1.8592941761016848
-2.21783447265625,0.5502614974975586,-5.712420463562012
2.736326217651367,9.370654106140137,-14.861970901489258
5.4933061599731445,-5.0529303550720215,6.720150470733643
5.981716156005859,7.432608127593994,14.37790584564209
20.2264461517334,3.297245979309082,0.0849926769733429
10.482413291931152,-2.226040363311768,-1.1185814142227173
10.401304244995115,-3.326980829238892,-3.11445426940918
12.22117519378662,-3.738713502883911,-1.952781081199646
14.980953216552734,-3.0869874954223637,-0.4697310924530029
14.819435119628906,-0.588034451007843,2.795677661895752
10.579354286193848,-2.226580619812012,4.552457809448242
4.246320724487305,-1.0729053020477295,7.669504642486572
-8.927624702453613,2.097412109375,2.131989002227783
-5.404432773590088,7.308502674102783,-11.622919082641602
0.2879368662834167,3.7078354358673096,-8.10649299621582
-7.095860958099365,-3.2526822090148926,-3.977139234542847
-7.111292839050293,4.041547775268555,-4.506979465484619
-9.671244621276855,1.524136662483215,-2.349947214126587
-11.341367721557615,2.4032442569732666,-0.9585276246070862
-10.031389236450195,0.5843310356140137,-0.2428149580955505
-9.020180702209473,-2.2832512855529785,-0.6330543160438538
-7.8617844581604,-3.4413371086120605,-0.7232488393783569
-7.368103504180908,-4.142808437347412,-0.2705162167549133
-6.304731369018555,-2.6347897052764893,-0.303744226694107
-5.759299755096436,-0.3925155103206634,0.4464855492115021
-5.72638463973999,0.947290539741516,1.904916763305664
-3.5752289295196533,1.1183890104293823,-7.547974109649658
1.1259703636169434,7.38911247253418,-9.923775672912598
13.862618446350098,-3.359025478363037,15.85368824005127
7.828431129455566,4.794275283813477,3.8939945697784415
22.9652099609375,1.195344090461731,4.473004341125488
14.12796688079834,0.3739351332187652,1.854565978050232
12.974480628967283,-0.2585443556308746,1.1643428802490234
12.034564018249512,-1.754770040512085,-1.2865561246871948
7.330037593841553,-2.1081366539001465,-1.0634870529174805
3.4991157054901123,0.1029996573925018,1.057060718536377
0.8399226069450378,1.4851698875427246,2.7791476249694824
-3.044045925140381,3.048530340194702,3.252418279647827
-2.8980069160461426,3.427335500717163,-7.144172191619873
0.6989932656288147,8.900094032287598,-10.540249824523926
-6.325151443481445,-6.134439945220947,-3.3979203701019287
-6.976983070373535,3.059259414672852,-4.38361120223999
-9.354931831359863,2.022291660308838,-1.853839993476868
-11.393988609313965,1.3102394342422483,-1.244350790977478
-9.30060577392578,2.184054374694824,-1.8050482273101809
-7.919049263000488,-2.89296293258667,-1.7382407188415527
-7.197192192077637,-4.310722351074219,-0.7692744135856628
-6.0269975662231445,-5.015200614929199,0.1643065810203552
-5.50322151184082,-3.0050501823425293,1.2857136726379397
-5.116755485534668,-1.0758155584335327,2.2846853733062744
-3.2771337032318115,-0.2833234071731567,3.256969928741455
-2.554508686065674,9.915556907653809,-8.959321975708008
7.908379077911377,-3.102921485900879,-1.8545830249786377
5.317296981811523,0.7844915390014648,15.198451042175291
13.611576080322266,1.5454401969909668,-0.9574748277664183
13.76603889465332,-1.278980016708374,1.406180739402771
8.562541961669922,-2.2323601245880127,-2.403047800064087
10.924593925476074,-0.6783137917518616,0.4486583173274994
13.613755226135254,0.3025134801864624,1.2787699699401855
14.31693172454834,0.1939442157745361,3.746511697769165
9.61935043334961,-0.4844450652599334,4.952415943145752
3.955873966217041,-0.2500248551368713,5.89314603805542
-1.6795543432235718,1.8649240732192995,5.272572994232178
-4.672837257385254,5.041976451873779,-6.695127010345459
-3.4404420852661133,1.2062499523162842,-9.44214916229248
-4.536012649536133,-0.0638550519943237,-3.244207859039306
-8.17977523803711,-0.8385965824127197,-1.6620562076568604
-9.239990234375,0.5965794324874878,-0.4232305884361267
-11.34833812713623,0.000486746430397,1.0669291019439695
-11.674243927001951,-1.5801756381988523,2.7980244159698486
-9.764214515686035,-1.4444899559020996,0.7844306230545044
-8.128368377685547,-3.738385200500488,0.2040164321660995
-7.159105777740479,-2.7373337745666504,-0.5405958294868469
-5.893192768096924,-2.2275640964508057,-0.8310790657997131
-5.075169563293457,-0.3694674968719482,-1.26916766166687
-4.470709800720215,0.6333563327789307,-0.7188786864280701
-2.6188900470733643,6.33529806137085,-16.651514053344727
8.53603458404541,5.156196594238281,-8.319476127624512
5.449506759643555,-1.6367449760437012,18.01316261291504
7.905858993530273,6.766254901885986,0.7073317170143127
20.608055114746094,-0.3788780868053436,1.8561100959777832
9.01829719543457,0.7765123248100281,-0.5281340479850769
11.351760864257812,-1.5725901126861572,0.0376325473189353
9.987696647644045,-2.2386369705200195,-1.3133203983306885
9.305705070495604,-3.0901925563812256,-0.8166873455047607
6.538661003112793,-1.3233227729797363,0.9688650369644164
5.42374324798584,-0.8178586363792419,3.670469522476196
1.6472223997116089,0.9381518363952636,5.1994147300720215
-6.285115718841553,1.6066819429397583,-3.1908862590789795
-2.291043996810913,7.405590057373047,-9.881779670715332
-2.9127492904663086,-2.359524965286255,-2.059048891067505
-6.596787929534912,0.8163697719573975,-2.186892032623291
-7.228790760040283,3.274165391921997,-1.2138707637786863
-9.534107208251951,0.4123585522174835,-0.2175928354263305
-10.842511177062988,0.1029045134782791,0.9781317114830016
-9.233477592468262,-1.4017642736434937,-0.3095102608203888
-7.460457801818848,-1.9764658212661743,-1.98189377784729
-6.793481349945068,-3.194432497024536,-2.219456911087036
-5.804629325866699,-2.131681442260742,-2.4107813835144043
-5.453074932098389,-0.3760425746440887,-1.482258915901184
-5.048303604125977,0.8471335172653198,-0.3808540105819702
-2.4703261852264404,1.551439881324768,-5.364343643188477
-0.6504442691802979,5.653105735778809,-5.067666530609131
8.818345069885254,-1.4317351579666138,7.743472576141357
7.141112804412842,5.650885105133057,9.860021591186523
16.677936553955078,0.623989999294281,-0.2391220331192016
9.759279251098633,-1.338001370429993,0.0198498889803886
9.30901336669922,-1.8299212455749512,-1.6508581638336182
9.521833419799805,-1.1074315309524536,-0.5655773282051086
11.093145370483398,-1.7312557697296145,-0.3884555697441101
10.423376083374023,-0.8137112259864807,1.7192049026489258
7.299637794494629,-0.6104034185409546,2.769185304641724
4.152542591094971,-0.6521245837211609,4.507593631744385
0.5119130611419678,1.720819354057312,6.936322212219238
-7.789775848388672,2.007671356201172,-5.577523231506348
-2.604066848754883,7.798563480377197,-12.425341606140137
-2.923445224761963,-2.8686306476593018,-5.471710681915283
-7.072590827941895,1.033205509185791,-4.815835952758789
-7.535099506378174,0.8568287491798401,-3.115448236465454
-9.555459976196287,-0.0336567610502243,-0.906213641166687
-9.739410400390623,0.2629737854003906,0.5574806332588196
-8.948250770568848,-3.278235673904419,1.6447261571884155
-8.04299545288086,-4.325681209564209,1.1313910484313965
-5.997474193572998,-3.3750545978546143,0.562164306640625
-6.2674713134765625,-2.8811564445495605,1.9316462278366089
-6.135506629943848,-1.9628914594650269,3.4092659950256348
-6.77418327331543,-1.0503050088882446,3.0407135486602783
-3.2692387104034424,8.823182106018066,-20.142793655395508
9.558500289916992,2.9482455253601074,-4.111616611480713
2.036041259765625,-0.8541489243507385,15.160881042480469
12.80063533782959,5.346680641174316,2.001729249954224
16.508859634399414,2.101370096206665,4.252072334289551
11.924790382385254,0.0318057909607887,-0.2235716134309768
13.09404754638672,-0.8957934379577637,1.2620880603790283
11.54019260406494,-2.7071728706359863,-0.2510757148265838
8.741565704345703,-3.070054292678833,0.294733464717865
4.644406318664551,-1.3166005611419678,1.796427607536316
2.8853914737701416,0.0514704436063766,3.4743051528930664
-0.6580159068107605,1.4180538654327393,5.186103820800781
-7.185487747192383,2.117675304412842,-3.27573037147522
-2.733713865280152,7.701873302459717,-12.2080717086792
-1.6104425191879272,-3.262196779251098,-3.780621290206909
-8.104597091674805,1.8290953636169436,-3.9014596939086914
-7.370742797851562,4.464797019958496,-3.4720258712768555
-10.071060180664062,2.548180103302002,-1.757229924201965
-9.660285949707031,1.058108687400818,-0.7931820154190063
-8.578293800354004,-3.085976839065552,-0.014906071126461
-6.755733489990234,-2.3693368434906006,-1.1949152946472168
-6.249146461486816,-3.10860538482666,-0.2101426422595977
-5.901168823242188,-2.317179679870605,0.3439754843711853
-5.2583489418029785,-2.4700989723205566,0.5400685667991638
-4.019946575164795,-0.6041593551635742,0.3514394462108612
-1.4989140033721924,7.354903697967529,-5.730634689331055
2.647102117538452,-0.1625682562589645,-4.367106914520264
7.356683731079102,3.196428775787353,16.277313232421875
8.32697868347168,3.0974650382995605,2.380361795425415
17.899179458618164,-0.8295965194702148,1.6752243041992188
6.505433082580566,-0.9446045756340028,-1.7357333898544312
6.452111721038818,-2.9707565307617188,-2.987090587615967
7.010025024414063,-1.8774969577789309,-1.329325795173645
10.627134323120115,-1.1895195245742798,0.5123667120933533
11.023656845092772,0.4312823116779327,3.084124088287353
9.693801879882812,-0.2407030314207077,4.340934753417969
6.209853649139404,0.2945416271686554,6.952512264251709
-4.960028648376465,0.0548615381121635,1.8458609580993648
-5.689348220825195,5.417541980743408,-7.056183815002441
-1.4733864068984983,4.331792831420898,-9.452899932861328
-5.003902435302734,-1.656710147857666,-1.930158019065857
-6.915285587310791,1.5883491039276123,-0.4596589803695678
-9.36247444152832,1.0008097887039185,2.109376907348633
-10.267199516296388,-0.0085559524595737,3.320764541625977
