Acc_X,Acc_Y,Acc_Z
3.043773412704468,0.1927924901247024,-2.5977272987365723
1.4073612689971924,1.0602058172225952,-3.032166719436645
4.061197757720947,0.7305474281311035,-1.242719054222107
6.154048442840576,0.003247155342251,1.6916656494140625
5.872818470001221,-2.288437604904175,3.543534517288208
0.2433551698923111,-1.8657139539718628,-0.3004127442836761
-4.564239978790283,-1.6224325895309448,-1.986098408699036
-2.334120035171509,1.1131776571273804,-4.166718006134033
-0.2465010285377502,-1.1026571989059448,-4.718027591705322
-2.343525648117065,-1.6633416414260864,-4.35405158996582
-6.062782287597656,-2.378700256347656,0.3471380472183227
-8.864522933959961,1.1974295377731323,4.805016040802002
-7.888479232788086,3.407041549682617,4.918426990509033
-7.514218330383301,5.695671081542969,4.157844543457031
-6.38447380065918,1.8789318799972532,2.2308812141418457
-6.046383380889893,-3.084587335586548,-2.9510531425476074
-0.1012287363409996,-5.281829833984375,-17.88214683532715
11.775205612182615,7.191887378692627,8.78013801574707
9.29442024230957,-2.5207040309906006,4.423036575317383
12.74250316619873,-4.239987373352051,4.219668865203857
10.719566345214844,-0.6074553728103638,0.7415573596954346
6.967403888702393,3.125053644180298,-1.1188238859176636
4.580649375915527,1.4126771688461304,-3.063852071762085
3.697805643081665,0.7760341763496399,-3.0738179683685303
4.315769195556641,0.407435268163681,-1.7114202976226809
4.878094673156738,0.6410908699035645,0.5846425294876099
5.197179794311523,-1.3044530153274536,4.849021911621094
-0.3966192305088043,-1.5459638833999634,-0.421021431684494
-5.123443126678467,-3.007897138595581,-5.664092063903809
-4.399493217468262,-3.436161994934082,-9.289873123168944
-1.2649613618850708,-2.3251311779022217,-8.087201118469238
-2.585346937179565,-4.298083305358887,-10.421476364135742
-5.428858280181885,-2.486101627349853,-5.609800338745117
-7.221578598022461,-0.7480948567390442,0.937368392944336
-9.024449348449709,1.348589301109314,5.888310432434082
-7.717451095581055,3.228964805603028,6.3664751052856445
-7.439002990722656,4.549343585968018,6.587660312652588
-6.071413040161133,3.3753669261932373,5.269367694854736
-5.258001327514648,0.5446136593818665,4.0250349044799805
-4.494724750518799,1.1330904960632324,-5.998804569244385
10.654687881469728,1.4138692617416382,-4.777764320373535
5.22370195388794,4.756221771240234,8.438358306884766
9.607267379760742,-1.649362325668335,2.775286912918091
10.700512886047363,-0.939418375492096,3.023268461227417
11.047812461853027,-1.402043104171753,0.857128381729126
5.706454753875732,1.191354751586914,-0.245893195271492
5.25820255279541,0.7378029823303223,-2.6397430896759038
5.633862018585205,2.362654447555542,-3.291633367538452
6.36464786529541,2.191011428833008,-1.0259491205215454
5.663045406341553,0.9770715832710266,1.2237039804458618
3.772533416748047,-1.3758302927017212,6.0655694007873535
-1.6901707649230957,-3.4665958881378174,1.1552549600601196
-6.100811004638672,-1.9452874660491943,-6.446666717529297
-4.065109729766846,-2.9038593769073486,-7.603297710418701
-3.301700592041016,-0.8534324765205383,-3.5750389099121094
-5.03717041015625,-2.244181632995605,-5.3636088371276855
-6.7731781005859375,-1.6529730558395386,-3.3497700691223145
-8.320597648620605,-0.8336271643638611,0.312759518623352
-8.56188678741455,-0.0593282245099544,2.961831331253052
-7.003164291381836,1.1438076496124268,2.169785022735596
-6.456351280212402,2.5714054107666016,3.3051111698150635
-6.077922821044922,1.5132746696472168,4.307692527770996
-6.406774997711182,0.8279514908790588,4.251822471618652
-6.260883331298828,-0.1190711185336113,-4.1992011070251465
7.136309623718262,-8.52366828918457,-8.928451538085938
7.217477321624756,3.994741201400757,11.028216361999512
9.866148948669434,-1.2589657306671145,2.9966354370117188
13.18168830871582,0.9671104550361632,2.858240365982056
13.492138862609863,4.179129123687744,-0.8573641777038574
11.540748596191406,3.273700475692749,-0.2643256783485412
8.850784301757812,0.2281919419765472,-0.4871875047683716
7.583804130554199,0.4820805490016937,0.7546674013137817
5.018734455108643,0.8382167220115662,1.6073871850967407
3.3363687992095947,-0.4363754093647003,3.3042962551116943
-3.403731107711792,0.2288676053285598,-0.9482078552246094
-4.586565971374512,-2.3559648990631104,-1.6395633220672607
-5.482504367828369,-2.755747079849243,-1.7145901918411257
-4.599278926849365,-0.7523703575134277,-1.7387768030166626
-4.8438801765441895,3.355699300765991,2.858926773071289
-7.004456996917725,-1.7418020963668823,3.244410276412964
-10.023442268371582,-3.613798141479492,4.969385147094727
-9.82989501953125,-1.2268112897872925,6.024643898010254
-6.950486183166504,1.6904923915863037,3.2056918144226074
-5.619686603546143,1.826166033744812,0.6604250073432922
-5.353989124298096,0.0316806584596633,-1.738775372505188
-3.934598684310913,-1.5443589687347412,-3.2044365406036377
-2.938466787338257,-1.8257819414138796,-4.344803333282471
-2.3503870964050293,-1.064947485923767,-10.17955493927002
7.572276592254639,-3.140214204788208,-12.797648429870604
10.470843315124512,1.9838106632232664,9.995094299316406
10.73495101928711,-1.974530577659607,0.1240781545639038
10.96395492553711,2.3998796939849854,-0.3518149256706238
9.738183975219728,3.122332811355591,-2.6089835166931152
8.20130443572998,2.46225380897522,-0.7197869420051575
7.605143070220947,0.9340196847915648,-0.6767413020133972
6.384151935577393,0.9401482343673706,0.1568122208118438
6.650421142578125,-0.8008354902267456,3.890255928039551
-0.9660273194313048,0.1657727509737014,-0.6737270951271057
-3.5574193000793457,-2.846010208129883,-1.789322018623352
-5.7497406005859375,-4.364253997802734,-1.7729264497756958
-5.086572170257568,-2.6881799697875977,-3.632773160934448
-4.014375686645508,0.2143482863903045,-3.146484136581421
-6.7335591316223145,-0.8299807906150818,-0.1293388456106186
-10.545175552368164,-2.378957271575928,2.8596460819244385
-11.333155632019045,0.6269983649253845,6.151043891906738
-9.298227310180664,3.173025369644165,5.713394641876221
-5.57680082321167,2.2101714611053467,-1.536227822303772
-5.27597188949585,1.4003137350082395,-4.264678001403809
-5.298331260681152,-1.2560116052627563,-6.966395854949951
-3.997927904129028,-1.6313481330871582,-8.470986366271973
-0.3682467341423034,-0.2798371911048889,-1.837937355041504
1.1497764587402344,-0.7953323721885681,4.634649753570557
7.800636768341064,-4.967167377471924,5.419229507446289
10.9641695022583,-0.0351937897503376,1.6177233457565308
10.549745559692385,3.763616561889648,2.898240566253662
9.25699520111084,2.8566970825195312,-1.4503564834594729
6.204236030578613,2.182651996612549,-3.694400310516357
4.00322151184082,2.4513280391693115,-3.3078320026397705
4.969826698303223,2.074227333068848,-2.198607444763184
6.399247646331787,1.4796477556228638,-1.4530305862426758
6.652100086212158,3.1334927082061768,0.4007770419120788
5.172932624816895,2.3357067108154297,2.1638107299804688
3.4276514053344727,-1.664642333984375,7.059535503387451
-3.9552485942840576,-1.2648963928222656,-0.7101722955703735
-7.406251430511475,-4.364004611968994,-6.654476165771484
-4.841763019561768,-5.115285396575928,-7.394035816192627
-2.411844491958618,0.0910242646932601,-5.766669750213623
-4.686775207519531,-0.521355152130127,-6.475990295410156
-6.917770385742188,-0.5884146094322205,-3.803046464920044
-7.909188270568848,-1.799455642700195,1.1466727256774902
-9.745404243469238,-0.5857455730438232,5.946918964385986
-9.100896835327148,2.100160360336304,6.234926700592041
-8.799034118652344,5.733160972595215,7.628585815429687
-6.848603248596191,4.885299205780029,5.878808498382568
-4.529231071472168,3.922400951385498,2.83674693107605
-3.3037240505218506,-0.2557162642478943,-16.404834747314453
10.995102882385254,-14.88766860961914,-16.144081115722656
6.353082180023193,4.753764152526856,18.026580810546875
2.069103956222534,-2.853893518447876,2.156487226486206
12.649362564086914,-1.3355653285980225,0.611585259437561
8.42550277709961,2.3869543075561523,0.5792767405509949
7.996659278869629,0.6912553906440735,-1.132244348526001
7.488354682922363,0.297132283449173,-2.8083739280700684
7.992837429046631,1.2322810888290403,-1.1682263612747192
8.825407028198242,1.4993855953216553,1.1855144500732422
8.410943984985352,1.5643858909606934,2.1274685859680176
4.601072311401367,-0.2231110781431198,5.508802890777588
-2.304514646530152,-2.267642021179199,-0.259209543466568
-6.151919841766357,-3.18596625328064,-9.863207817077637
-2.7927262783050537,-4.348972320556641,-8.653694152832031
-3.018144369125366,2.0636208057403564,-7.976785182952881
-5.5395684242248535,0.3212554156780243,-7.25580358505249
-7.375152587890625,-0.7304112911224365,-4.891524791717529
-8.754334449768066,-2.651039123535156,-1.0128495693206787
-9.177947998046877,-1.8195112943649288,2.1152360439300537
-7.580658912658691,0.9715461134910583,2.642059803009033
-7.681477069854736,4.068691730499268,4.274570465087891
-7.096375942230225,3.1650397777557373,3.833408117294312
-7.020744800567627,1.9656941890716555,5.028311252593994
-7.682334899902344,1.7037291526794434,5.750649452209473
-7.195647716522217,-0.3748102784156799,-3.0426278114318848
5.048668384552002,-9.209092140197754,-17.736753463745117
9.109954833984377,4.040914058685303,13.309919357299805
6.40178918838501,-4.204710006713867,5.203623294830322
20.33521270751953,-4.832191467285156,7.135059833526611
17.286518096923828,-1.0288949012756348,2.5427446365356445
14.567462921142578,5.47544527053833,1.3293545246124268
9.432168006896973,2.980556011199951,-1.1555894613265991
3.628237009048462,2.8211402893066406,-3.2947819232940674
0.8078997731208801,2.5485668182373047,-1.6527292728424072
2.74954891204834,-2.142324686050415,5.122279167175293
-2.0745785236358643,-2.34967303276062,-0.2251632213592529
-3.346109390258789,-4.479382991790772,-3.860161542892456
-5.592466831207275,-4.1062541007995605,-2.520265579223633
-5.055244445800781,-1.003117322921753,-2.434688806533813
-5.60471248626709,4.06848669052124,-0.6254433989524841
-7.994803428649902,0.0440052300691604,1.061225652694702
-9.725090980529783,-2.63020396232605,2.2810163497924805
-11.401910781860352,0.4993974566459656,6.319332599639893
-9.921603202819824,2.6349024772644043,6.367523193359375
-5.828477382659912,2.8812434673309326,1.702783465385437
-4.2403082847595215,0.3009447157382965,-2.579763412475586
-4.211077690124512,-1.7643812894821167,-4.580694198608398
-3.3478519916534424,-2.8145010471343994,-6.9158453941345215
1.6831179857254028,-5.087538719177246,-15.74407196044922
10.129816055297852,-3.1934151649475098,10.146522521972656
4.308549880981445,-2.860603809356689,1.2572730779647827
13.321170806884766,3.1074347496032715,1.9478060007095337
13.279667854309082,4.183407306671143,1.119866967201233
10.19117546081543,4.9356560707092285,-3.0767383575439453
8.827078819274902,3.477504014968872,-1.5170055627822876
7.196839332580566,2.1115822792053223,-0.9300618767738342
4.861693859100342,1.753380537033081,0.3898109197616577
4.733770370483398,-0.2498163729906082,2.8984055519104004
0.2895868122577667,-1.0415778160095217,0.9330835938453674
-3.515331506729126,-3.222431182861328,-0.9370571374893188
-5.745931625366211,-5.199299335479736,-1.247636795043945
-6.1641364097595215,-4.64793062210083,-1.5435035228729248
-5.48668098449707,1.0821809768676758,-1.6387381553649902
-7.633517742156982,4.455778121948242,4.374576568603516
-11.277792930603027,-2.500847101211548,6.1946306228637695
-12.347578048706056,-1.3805822134017944,7.452105522155762
-7.137904167175293,-0.5695148706436157,-0.961628556251526
-3.2853927612304688,0.8949871063232422,-4.179349899291992
-4.905967712402344,0.0936287716031074,-8.809405326843262
-4.68245792388916,-0.7227786183357239,-9.75157642364502
-2.231703996658325,-0.8650928735733032,-9.40949535369873
0.8927745819091797,0.3553261160850525,8.012123107910156
1.1925684213638306,-2.615238904953003,2.3995168209075928
15.229013442993164,-1.700181007385254,-1.1983985900878906
10.871703147888184,4.597987651824951,3.2735393047332764
9.400691032409668,2.113945245742798,0.1407799422740936
7.049802780151367,3.156531572341919,-4.280873775482178
5.533202171325684,0.7886880040168762,-2.934194564819336
6.862561225891113,0.089211456477642,-1.5039408206939695
7.513257026672363,0.6124318838119507,1.391541600227356
7.916872978210449,1.3536161184310913,2.0793545246124268
4.9632649421691895,-1.0055748224258425,6.171586990356445
-3.808365821838379,-1.4347437620162964,-1.1833425760269165
-6.992876529693604,-4.477842807769775,-6.315134525299072
-5.731895923614502,-4.281852722167969,-7.315761089324951
-4.008769512176514,-0.2228159606456756,-5.6907057762146
-6.616682052612305,0.3434860408306122,-2.54983139038086
-9.575026512145996,-2.1705162525177,-0.5800634026527405
-10.90175437927246,-2.078720569610596,0.9203364849090576
-9.48969268798828,1.4416465759277344,2.371382236480713
-6.559614181518555,2.464395046234131,-1.07998788356781
-5.315333366394043,1.9226704835891724,-2.007716417312622
-5.018287181854248,0.522622287273407,-3.003714799880981
-4.98671817779541,0.5470215082168579,-0.4364833235740661
-4.965395450592041,2.497663736343384,3.1243789196014404
-3.9098055362701416,-4.311622619628906,-5.93068265914917
14.68776798248291,-3.5682260990142822,4.92678165435791
7.187166213989258,-0.7511652708053589,5.889462471008301
13.752099990844728,-0.351874828338623,4.007425308227539
11.967424392700195,3.425713539123535,0.9407142996788024
12.070361137390137,2.345343589782715,-1.243964672088623
7.608024597167969,2.494147300720215,-3.0256187915802
4.284237861633301,3.8772006034851074,-2.8484458923339844
5.535152435302734,3.018082618713379,-1.5969603061676023
5.1443634033203125,1.850676417350769,0.6626396775245667
3.190433979034424,1.1968607902526855,2.713961601257324
-1.2699774503707886,-2.67085075378418,4.785823822021484
-7.335185527801514,-3.617035388946533,-4.947768211364746
-6.303416728973389,-5.1536383628845215,-10.195462226867676
-2.65864372253418,-1.14077627658844,-4.93277645111084
-5.02467155456543,0.2588428854942322,-5.506824016571045
-7.648244380950928,0.1054229810833931,-2.7451629638671875
-8.53400993347168,-0.7927345037460327,-0.5439186096191406
-8.639293670654297,0.5976996421813965,3.451294422149658
-6.804673671722412,0.9414443373680116,0.3609700202941894
-5.466479301452637,2.322763442993164,1.400723576545715
-6.283721446990967,1.0097678899765017,0.5096086263656616
-5.97269868850708,1.7719486951828003,2.4522082805633545
-4.868356704711914,1.2242152690887451,2.489063501358032
-0.473228245973587,-8.336603164672852,-10.900299072265623
15.809077262878418,-2.989853620529175,9.267848014831545
6.237194061279297,-1.5901237726211548,6.524691104888916
13.962815284729004,-0.8840084671974182,3.2952704429626465
7.926183223724365,2.3061423301696777,0.4285638034343719
9.210552215576172,3.137570142745972,-2.789648532867432
5.637543201446533,3.706794023513794,-3.048558235168457
5.184549331665039,1.9458187818527224,-2.68786358833313
5.541431903839111,0.5332295298576355,0.6278099417686462
5.926554203033447,-0.2936241626739502,2.738088369369507
4.041380882263184,-0.2659610211849212,2.786677122116089
-1.0666272640228271,-2.6814777851104736,4.199308395385742
-7.16392183303833,-2.603400230407715,-4.8653998374938965
-7.49775505065918,-4.741047382354736,-8.803142547607422
-3.049154281616211,-2.0667943954467773,-5.633303642272949
-5.067963600158691,2.5035958290100098,-2.58271861076355
-8.189074516296387,-0.8011481761932373,-0.8458616733551025
-9.288895606994627,-1.8612602949142456,1.475698709487915
-9.005901336669922,-0.7810584306716919,4.091078758239746
-7.202668190002441,1.8505098819732664,2.639925479888916
-6.178982257843018,2.59021520614624,2.382154703140259
-6.263238906860352,2.8947365283966064,2.103203535079956
-5.532874584197998,2.1437549591064453,1.6236666440963743
-4.887223243713379,-2.9939723014831543,-13.679646492004396
7.379822731018066,-7.13043737411499,-8.564239501953125
8.83156967163086,-0.2494296431541443,15.508959770202637
5.155827045440674,-3.82800030708313,3.183748483657837
14.536299705505373,0.7373221516609192,1.0885653495788574
9.00518798828125,4.913122177124023,-1.081161618232727
7.664710998535156,4.58141040802002,-2.0864408016204834
6.743007183074951,2.4268341064453125,-3.11589789390564
7.1371893882751465,2.55420470237732,-1.7380791902542114
7.822049140930176,1.5650283098220823,0.8092857599258423
7.39896297454834,0.5866509079933167,2.3474717140197754
5.328017711639404,-0.6325641870498657,4.356077194213867
-3.349771499633789,0.6262051463127136,-0.8243975043296814
-5.978888511657715,-4.306741237640381,-5.021810531616211
-6.092966556549072,-2.5906577110290527,-2.832852602005005
-3.7262895107269287,0.5721144676208496,-3.6363894939422607
-4.615396022796631,2.373995542526245,-0.2501470446586609
-7.9053192138671875,-3.068769931793213,1.0666393041610718
-10.944071769714355,-5.189846038818359,3.946528434753418
-9.662985801696776,-1.8195483684539795,3.704674005508423
-6.550304889678955,1.7576757669448853,1.7785584926605225
-6.757425308227539,2.659937858581543,0.5072163343429565
-6.057048797607422,1.0952523946762085,-0.4967764317989349
-5.836679935455322,-1.6476778984069824,-1.757949948310852
-4.691805839538574,-0.5440273284912109,-2.7620837688446045
-1.9395649433135984,-8.01217269897461,-18.009750366210938
12.535210609436035,0.4450689852237701,6.580587387084961
3.755070686340332,-1.881242275238037,6.000144481658936
14.217232704162598,0.0354877412319183,0.36244797706604
12.043774604797363,5.419022560119629,-0.0389180779457092
10.992809295654297,3.4992949962615967,-0.2799723744392395
10.98520278930664,0.8321962356567383,-0.9661072492599488
8.496834754943848,2.1085100173950195,-0.4096543788909912
5.713397979736328,3.586951494216919,-0.7760370969772339
4.787467956542969,2.8685381412506104,0.7041125297546387
3.2894647121429443,0.7985463738441467,3.1577398777008057
-2.896064043045044,-1.2036205530166626,-2.7876555919647217
-5.753424644470215,-5.932252883911133,-2.80413556098938
-6.800338268280029,-2.579672574996948,-4.432689189910889
-4.071712017059326,-1.5477190017700195,-4.918893814086914
-4.359697818756104,0.5772778987884521,-2.791307210922241
-7.279274940490723,-3.017857074737549,-0.993056058883667
-10.291438102722168,-3.3781538009643555,1.755057692527771
-11.039111137390137,-0.7163041830062866,6.223777770996094
-9.082479476928713,0.7693946957588196,4.456326961517334
-7.6208815574646,1.9467962980270384,2.979114532470703
-6.345725059509277,0.5330891013145447,0.5258128643035889
-5.289714813232422,-1.007835865020752,-0.9900469183921814
-3.688629627227783,-1.703728199005127,-9.817567825317385
4.386841773986816,-5.072474956512451,-15.242918014526367
9.143004417419434,-0.2472565472126007,12.764909744262695
2.929673671722412,-1.9638749361038208,5.114984035491943
13.230932235717772,1.4964641332626345,-1.282411813735962
11.190438270568848,6.636785984039307,0.8847341537475586
9.154404640197754,4.250102043151856,-1.740689754486084
7.570884704589844,1.7804666757583618,-2.816292285919189
7.889053344726562,1.1543347835540771,-1.098513960838318
6.9391069412231445,1.310184359550476,-0.9487029314041138
6.240376949310303,1.3727257251739502,1.113202452659607
5.601860046386719,-0.123275451362133,2.219046115875244
0.4652720093727112,-0.7731833457946777,1.8050965070724487
-3.529014825820923,-2.3113341331481934,-2.090057849884033
-5.534745693206787,-4.386842250823975,-3.6217875480651855
-4.995799064636231,-3.090403318405152,-5.638320446014404
-2.7381389141082764,1.8007136583328247,-4.390134811401367
-5.124434947967529,1.5648728609085083,-1.4885435104370115
-8.546316146850586,-2.866725206375122,-0.002049621194601
-11.329299926757812,-2.68009614944458,3.776050329208374
-10.068527221679688,0.1870932877063751,3.8280186653137207
-7.231476783752441,3.735776901245117,1.933690309524536
-5.64103889465332,3.501887559890747,0.066183753311634
-4.597340106964111,0.992487907409668,-1.8467565774917605
-3.786121368408203,-1.6781141757965088,-3.016531467437744
-2.8481786251068115,-1.5843602418899536,-3.4806032180786133
0.6772876977920532,-0.5268017053604126,-7.494243621826172
11.838276863098145,-0.6802064776420593,5.710851192474365
6.709473609924316,-1.7265499830245972,7.4000244140625
11.576577186584473,-2.439374685287476,1.839770793914795
10.14454174041748,2.259258270263672,0.215957298874855
8.6253023147583,2.269153118133545,-2.416947841644287
5.7977728843688965,2.185031652450561,-3.194523572921753
6.2633442878723145,1.3628181219100952,-2.4992599487304688
6.520638465881348,1.2500652074813845,-0.4484091401100158
6.929956436157227,0.7461158633232117,1.2431179285049438
5.696061134338379,0.0996126309037208,4.22866678237915
-1.4315587282180786,-1.5295382738113403,2.109999179840088
-5.13729190826416,-2.047518253326416,-6.298656463623047
-4.3712158203125,-3.643193006515503,-9.67238712310791
-2.472042798995972,-0.0093687139451503,-4.794605255126953
-3.9341561794281006,-0.1135786026716232,-4.670363903045654
-7.135044574737549,-2.0422303676605225,-2.6029036045074463
-8.678932189941406,-2.712639808654785,-0.3703464567661285
-9.177617073059082,-0.2598103880882263,3.008434295654297
-8.853515625,1.8234894275665283,4.5339531898498535
-7.774109363555908,2.8309075832366943,4.283801078796387
-6.567635536193848,2.2822093963623047,2.592679977416992
-5.966052055358887,1.3470009565353394,2.272202014923096
-5.899974822998047,0.5318772196769714,1.1677296161651611
-4.446096420288086,-4.724058628082275,-15.6795072555542
9.435002326965332,-2.513368844985962,-3.992894172668457
7.6413373947143555,1.9249963760375977,13.54411792755127
6.440207004547119,-3.268479108810425,2.788240909576416
13.592827796936035,-0.4681138396263122,2.1798553466796875
11.448002815246582,2.5671868324279785,-0.9198201894760132
9.945651054382324,3.6751868724823,-0.5389527678489685
8.419598579406738,0.9580737948417664,-1.855145812034607
6.319043159484863,1.063883662223816,-1.2736849784851074
4.4506001472473145,1.765286564826965,0.2473203688859939
4.35582160949707,1.101757526397705,1.8635449409484863
2.9139320850372314,0.0451556220650672,2.165467500686645
0.8756361603736877,-2.513760089874268,4.509893417358398
-5.315235614776611,-3.1132254600524902,-1.9697556495666504
-7.025336742401123,-3.517629623413086,-6.790279865264893
-4.375674724578857,-3.726440906524658,-6.572897911071777
-3.7188780307769775,1.1585063934326172,-3.2906949520111084
-6.180506706237793,1.9823201894760127,-1.8475220203399656
-7.88068675994873,-0.703119158744812,0.3096449971199035
-9.083748817443848,-1.1796129941940308,2.1744399070739746
-9.41482639312744,0.1563985049724578,5.071133613586426
-8.064193725585938,2.0605318546295166,3.822466611862183
-6.091424942016602,2.204564094543457,1.5216668844223022
-4.958559513092041,1.5059685707092283,0.8021420836448669
-3.382136821746826,-0.2278849333524704,-3.074534177780152
0.3574605882167816,-8.653026580810547,-20.511478424072266
10.139787673950195,0.445697009563446,7.307600975036621
0.9495506286621094,-4.217607498168945,11.228212356567385
9.860958099365234,-5.2763752937316895,0.0879588723182678
10.070734024047852,4.697205066680908,-0.3280713558197021
9.426885604858398,6.15762996673584,-0.9484104514122008
6.909992218017578,3.859676599502564,-2.0467464923858643
7.284229278564453,4.286836624145508,-3.6572396755218506
6.488482475280762,2.901815414428711,-0.7889204621315002
6.650078773498535,0.0463152080774307,0.2532442510128021
6.454814910888672,-0.1038589179515838,2.214043140411377
5.2941179275512695,-1.4836612939834597,3.6538705825805664
0.468289703130722,-3.2734405994415283,3.2810609340667725
-4.575180530548096,-5.051844120025635,-4.487383842468262
-5.372569561004639,-4.375397205352783,-5.324378967285156
-4.040003299713135,0.2791063189506531,-4.843656539916992
-4.492443084716797,2.1734554767608643,-2.3160011768341064
-6.537869453430176,-1.4173619747161863,-1.147679567337036
-8.728297233581543,-2.223292350769043,1.0728130340576172
-9.973569869995115,-0.3472744226455688,4.209789752960205
-9.847771644592283,2.3293282985687256,6.277573585510254
-8.208651542663574,2.3336634635925293,3.7736101150512695
-6.45100736618042,1.5665937662124634,1.957824945449829
-5.1108078956604,-0.4892920255661011,-1.0034414529800415
-3.827980756759644,-1.2496027946472168,-2.5071866512298584
-2.662304401397705,-1.5276914834976196,-7.5510478019714355
2.6655099391937256,-3.382180690765381,-16.059843063354492
10.126651763916016,-0.3526504933834076,13.250099182128906
4.403787136077881,-3.0354442596435547,4.116347312927246
15.318697929382324,0.63251793384552,-1.1183226108551023
10.082902908325195,5.234918117523193,0.8468025326728821
7.456831932067871,4.069997310638428,-3.179904699325561
6.527766704559326,2.4538307189941406,-2.492619276046753
6.976817607879639,0.9675513505935668,-2.2486977577209477
6.570708274841309,2.197585105895996,-0.7470267415046692
7.130454063415527,2.102180004119873,1.4076727628707886
5.510481357574463,1.9546769857406616,1.4714417457580566
2.8707146644592285,-1.6696465015411377,3.5864596366882324
-4.497888088226318,-2.0555248260498047,-2.449625253677368
-5.551908493041992,-6.780545711517334,-4.325562000274658
-4.952470779418945,-1.4976232051849363,-5.746608734130859
-4.181792259216309,0.2354187071323394,-3.371211290359497
-6.857236862182617,0.1320593059062957,-1.4400638341903689
-9.390355110168455,-2.889800310134888,-0.4836465418338775
-10.282951354980469,-2.1902010440826416,0.7827303409576416
-9.901402473449709,0.0250851362943649,2.223069429397583
-8.6461181640625,2.415109157562256,0.9010118246078492
-6.830655097961426,2.6514017581939697,-1.9753087759017944
-5.065165996551514,1.893686890602112,-4.390388011932373
-3.4930386543273926,0.7813624143600464,-5.261022567749023
-1.5718799829483032,-0.4179007112979889,-4.8114094734191895
0.2977807819843292,-1.215996503829956,2.7643485069274902
3.5512773990631104,-0.204483225941658,6.115323066711426
15.004591941833496,-5.576656341552734,6.252451419830322
16.03679656982422,-2.467901945114136,5.146536350250244
10.07467555999756,1.012909770011902,1.4495387077331543
7.00742244720459,2.5602686405181885,-2.871400117874145
3.79041051864624,3.445219755172729,-5.422799110412598
3.3356168270111084,3.958059072494507,-3.842227935791016
5.006424427032471,1.867756009101868,-1.9992817640304563
7.233709335327148,0.9527985453605652,1.3205432891845703
8.088929176330566,-0.0521374978125095,3.1454994678497314
5.119909286499023,-0.5468683242797852,3.1191322803497314
-1.9558793306350708,-3.301969051361084,4.158262252807617
-6.282505035400391,-3.409965991973877,-6.9766926765441895
-5.625338554382324,-3.9300107955932617,-11.242877960205078
-3.255397319793701,0.3394289910793304,-3.716499090194702
-4.983030319213867,0.9458374977111816,-4.314102649688721
-7.515562057495117,-0.9279670119285583,-2.746397018432617
-8.563855171203613,-1.359825849533081,-1.1371400356292725
-8.282038688659668,-0.9148069024086,1.2180211544036863
-7.844435691833496,1.113545536994934,1.7553664445877075
-7.154341697692871,2.5763697624206543,1.9681358337402344
-6.738946437835693,3.49424409866333,1.9416054487228396
-5.8149847984313965,3.5334906578063965,2.5757789611816406
-5.28747034072876,2.534860610961914,2.768237829208374
-4.886650562286377,-2.782722949981689,-13.235058784484863
8.634332656860352,-6.9266133308410645,-5.662187576293945
9.116263389587402,0.3876640498638153,13.942476272583008
9.115137100219728,-5.773724555969238,3.405073881149292
15.017465591430664,-0.3919574916362762,3.270561456680298
13.40647315979004,2.9330294132232666,-1.1822128295898438
12.488654136657717,3.883931398391724,0.1285119205713272
8.920427322387695,2.6163837909698486,-1.4359239339828491
6.630693435668945,2.8174080848693848,-2.115031480789185
5.444661617279053,2.5375194549560547,1.245835781097412
4.211019992828369,0.9379867911338806,2.108572244644165
0.7050021886825562,-0.6753152012825012,2.230312824249268
-2.3270814418792725,-4.027031898498535,3.563483715057373
-7.818964958190918,-4.149674415588379,-7.554747581481934
-6.798640251159668,-5.13996696472168,-8.291669845581055
-5.2710957527160645,-3.1544504165649414,-7.677279472351074
-7.460408687591553,-0.1403008103370666,-4.118635654449463
-8.186187744140625,0.3768140077590942,-4.263741493225098
-8.611372947692871,0.6194264888763428,-1.2996540069580078
-8.623082160949707,0.3620482385158539,0.8867461085319519
-8.448824882507324,1.2183897495269775,2.0250778198242188
-7.837244987487793,1.963552951812744,3.396138429641724
-7.157768726348877,1.6847751140594482,3.434332132339477
-4.920866966247559,0.2102647870779037,0.4589383006095886
-2.3988468647003174,-0.4126935005187988,-7.208919525146484
4.6485981941223145,-3.5206310749053955,-5.762344837188721
12.030823707580566,-2.5268712043762207,14.109323501586914
8.696091651916504,-6.480119228363037,3.811920642852783
16.216951370239258,0.2834929227828979,0.3462278842926025
11.68214988708496,3.7452144622802734,0.4261868596076965
11.970622062683104,3.7845261096954346,-3.174834966659546
10.985875129699709,4.405914783477783,-3.228687047958374
10.22021770477295,4.230695724487305,-1.299391508102417
9.405406951904297,3.62980055809021,1.2586854696273804
7.646339893341064,1.5342292785644531,3.608744144439697
1.6259796619415283,-0.5296133756637573,-0.4092142283916473
-3.252389669418335,-5.507233619689941,-2.925980567932129
-7.3033342361450195,-5.445504665374756,-4.893069267272949
-5.892778873443604,-3.1110568046569824,-7.872099876403809
-5.25859260559082,0.9811931252479552,-1.5133260488510132
-8.495573043823242,-3.551135301589966,-1.4980448484420776
-11.317465782165527,-4.08284854888916,1.3064554929733276
-12.43510627746582,-2.657458782196045,4.582388877868652
-11.98674488067627,1.2791472673416138,6.055784702301025
-10.65378761291504,2.810178518295288,4.35987663269043
-8.417810440063477,2.501405954360962,1.25876784324646
-6.389944553375244,0.4342659115791321,-2.224123001098633
-4.92263650894165,-0.8577722311019897,-3.360115766525269
-3.897700786590576,-1.5082322359085083,-4.367641925811768
-2.2280588150024414,-1.0927183628082275,-11.808566093444824
4.502455234527588,0.7740262150764465,-9.231111526489258
11.28063678741455,-3.7632899284362793,14.26224422454834
10.93520736694336,-5.465137004852295,2.039426326751709
19.44598197937012,3.1433141231536865,-0.5622435808181763
12.523621559143066,5.926914691925049,-0.7644940614700317
10.070695877075195,4.405879497528076,-4.6248040199279785
8.927562713623047,2.1812565326690674,-3.3506345748901367
8.922113418579102,1.5561493635177612,-2.3504788875579834
9.3620023727417,2.1130893230438232,0.8114140629768372
9.174304008483888,2.8204970359802246,2.251112937927246
6.3561625480651855,2.847822904586792,2.5538904666900635
-0.7203309535980225,-4.21415901184082,3.480010986328125
-5.058949947357178,-9.451985359191896,-6.817797660827637
-6.227036952972412,-3.117135524749756,-9.233492851257324
-4.589960098266602,0.2847638726234436,-10.233314514160156
-7.289731979370117,2.710413932800293,-4.302412033081055
-9.974316596984863,-0.1941930055618286,-2.834984064102173
-11.924589157104492,-3.290867805480957,-0.0554638653993606
-12.193644523620604,-1.4804763793945312,1.674118161201477
-11.735149383544922,1.9427098035812376,2.837779998779297
-10.517457962036133,3.480189800262451,2.921063184738159
-8.224356651306152,2.801033973693848,1.2498247623443604
-5.9532647132873535,1.3569120168685913,-0.8165701031684875
-4.365180969238281,-0.7261539101600647,-2.2576632499694824
-3.769440650939941,-0.2235100120306015,-3.970710277557373
0.0579032897949218,-0.2654410600662231,-9.228166580200195
2.563642263412476,-2.132698774337769,3.9171879291534415
14.745074272155762,-7.7178635597229,12.852506637573242
22.57300567626953,-8.121333122253418,2.492571353912353
15.450252532958984,3.560845136642456,1.8331736326217647
14.173624038696287,4.11631441116333,-1.7665823698043823
11.371431350708008,3.21265172958374,-4.742948055267334
8.628185272216797,3.578821420669556,-3.5622498989105225
8.023953437805176,1.261238932609558,0.3176271915435791
8.521644592285156,0.2160417586565017,3.869269132614136
7.672020435333252,1.181667447090149,5.028069019317627
4.434067249298096,-0.664429247379303,5.178014755249023
-5.425513744354248,-5.1453537940979,-3.4178466796875
-7.268835544586182,-3.516261577606201,-6.43845796585083
-7.675197601318359,-1.90242600440979,-10.506270408630373
-5.056050777435303,3.9254748821258554,-4.23697566986084
-8.7127103805542,-0.402392715215683,-3.682919979095459
-10.971435546875,-2.8861072063446045,-2.8507537841796875
-12.16428565979004,-1.6389901638031006,0.0897476971149444
-10.934240341186523,2.343498706817627,1.1794148683547974
-10.460189819335938,5.798146724700928,2.8887381553649902
-8.095539093017578,2.227196216583252,-1.879211664199829
-6.279619693756104,2.769696950912476,-1.017179012298584
-5.486272811889648,0.2711986005306244,-1.6395632028579712
-5.248537540435791,0.6029678583145142,1.2811678647994995
-5.676688194274902,0.5026628971099854,-9.181440353393556
2.867660999298096,-8.019675254821777,-13.345100402832031
14.596410751342772,0.6399742364883423,15.012208938598633
14.537029266357422,-10.237762451171877,4.772428512573242
20.3072452545166,-1.8951290845870967,3.234405279159546
16.22066307067871,2.620044946670532,-1.1958004236221311
13.878129959106444,5.827529430389404,-2.107120990753174
11.097999572753906,4.44325590133667,-3.2410342693328857
7.284764289855957,3.815356492996216,-1.546661138534546
4.706189155578613,3.552826404571533,0.8153083324432373
4.105181217193604,1.719032883644104,2.2870900630950928
1.9944672584533687,-1.5872573852539062,2.551721572875977
-3.486968755722046,-4.298417568206787,-1.835395097732544
-6.731493949890137,-4.457403182983398,-6.190656661987305
-6.63476037979126,-4.0562238693237305,-9.356812477111816
-4.46232795715332,1.727893590927124,-4.618822574615479
-8.650651931762695,0.8815361857414246,-3.2316174507141118
-10.505112648010254,-2.26975417137146,-3.089890718460083
-11.371674537658691,-2.9723196029663086,-1.0286619663238523
-10.845606803894045,-2.4002552032470703,0.0749644488096237
-9.80854034423828,1.1260610818862915,1.8064733743667605
-9.130373001098633,2.184652090072632,1.5559329986572266
-6.950876712799072,1.8774679899215696,-0.1101055741310119
-4.93731689453125,1.2308485507965088,-1.125983715057373
-4.417404651641846,-0.684158980846405,-3.8560791015625
0.0932784080505371,-2.5871150493621826,-11.911422729492188
2.6701931953430176,0.5841687917709351,5.9674482345581055
12.57219123840332,-6.656714916229248,13.781848907470703
19.60831642150879,-6.073509216308594,2.451730251312256
16.479536056518555,4.996754169464111,1.8808783292770384
11.076974868774414,3.7487637996673584,-2.2728817462921143
7.688970565795898,2.6167354583740234,-4.906286239624023
6.77959680557251,3.05623459815979,-4.442668914794922
7.441333293914795,0.64235919713974,-1.7714520692825315
10.247881889343262,-1.270864725112915,2.291022539138794
10.403998374938965,0.6333587765693665,3.967069625854492
4.662795543670654,2.7147371768951416,2.7337868213653564
-0.5316845774650574,-0.4842130839824676,5.573999881744385
-8.194546699523926,-6.944786071777344,-7.622217178344727
-6.58599853515625,-4.351449966430664,-11.380657196044922
-3.0859951972961426,-0.045378353446722,-7.67051887512207
-5.813296794891357,1.2198668718338013,-1.9435172080993648
-10.245988845825195,-2.5624828338623047,-2.238478422164917
-11.40867519378662,-3.509946823120117,1.067113161087036
-11.374822616577148,-3.2551424503326416,2.5977931022644043
-10.95522689819336,1.951601266860962,3.6399853229522714
-9.99248504638672,3.5904529094696045,2.9237282276153564
-8.14063549041748,3.5657408237457275,3.20037055015564
-7.124432563781738,1.211921215057373,2.295060157775879
-5.685036659240723,-0.5806824564933777,0.819423496723175
-4.723691463470459,0.3891574442386627,-6.374120712280273
-0.992533802986145,-7.22822904586792,-28.93275451660156
13.497037887573242,2.475471258163452,14.866808891296388
11.755292892456056,-6.701381206512451,11.861356735229492
23.15799903869629,-1.4165101051330566,-2.3776001930236816
14.911358833312988,6.925088882446289,0.5467789173126221
12.531192779541016,4.873435974121094,-1.6992220878601074
10.063373565673828,2.594155788421631,-3.7044601440429688
8.709588050842285,4.5027055740356445,-2.2785439491271973
6.635564804077148,4.923773765563965,-0.2255799472332
5.996497631072998,3.615240812301636,1.7792741060256958
4.353879928588867,0.5551936030387878,2.510617733001709
-2.551898241043091,-5.798543453216553,1.2079004049301147
-6.860770225524902,-6.743175983428955,-6.404131889343262
-7.164430618286133,-3.1060848236083984,-10.4412260055542
-4.376735210418701,0.7147208452224731,-6.274604320526123
-8.748781204223633,0.327221155166626,-3.0867953300476074
-11.00735569000244,-3.337465047836304,-3.140208005905152
-11.482134819030762,-3.803866386413574,-0.3060879111289978
-10.609128952026367,-1.608436107635498,1.0532361268997192
-10.059134483337402,2.5012125968933105,1.5872191190719604
-8.523369789123535,3.165242910385132,1.3793354034423828
-6.996286392211914,1.866080403327942,-0.34816974401474
-5.353723049163818,0.5332866311073303,-1.107779622077942
-4.215295791625977,-0.829929530620575,-2.272731065750122
-1.2360849380493164,-0.7943581342697144,-6.895230770111084
0.3907619118690491,-3.445187330245972,0.3413448631763458
14.609437942504885,-1.943879008293152,11.884132385253906
16.491724014282227,-5.542782306671143,4.77430534362793
16.563640594482422,1.9193886518478396,1.1040300130844116
10.413400650024414,4.316917896270752,-2.131499528884888
8.915149688720703,4.392172813415527,-4.244206428527832
7.47056770324707,2.172694206237793,-4.252899646759033
7.898489952087402,0.074445366859436,-1.0420799255371094
10.224509239196776,0.5180845856666565,2.4765748977661133
9.985589027404783,2.84104061126709,4.171491146087647
4.421379566192627,2.8995909690856934,3.481961965560913
-1.216386079788208,-0.6159777641296387,5.12432861328125
-8.726374626159668,-6.583808898925781,-8.265629768371582
-7.195471286773682,-3.620752334594727,-10.95349407196045
-3.489787578582764,1.141142725944519,-5.420496463775635
-7.687539100646973,0.2917046546936035,-1.292791724205017
-10.79779815673828,-1.9110825061798096,-2.32152795791626
-11.375340461730955,-2.6603243350982666,-0.9819020628929138
-10.557047843933104,-2.4098517894744877,0.0944453552365303
-9.926824569702148,1.0196603536605835,1.1838077306747437
-9.304719924926758,1.6182174682617188,0.7201809287071228
-7.561290740966797,1.523988127708435,0.3342786729335785
-5.593338489532471,0.5295244455337524,-0.7437006235122681
-5.294914245605469,0.1559587121009826,1.148749589920044
-5.563699722290039,0.7720118761062622,-11.00582218170166
0.4986766576766968,-8.039005279541016,-10.20096206665039
12.703203201293944,-1.1985739469528198,14.631075859069824
17.205209732055664,-6.082716941833496,3.727663040161133
19.57377243041992,3.2732934951782227,2.082225799560547
14.353002548217772,5.166962623596191,-1.4901626110076904
13.08315372467041,3.671704053878784,-2.3171095848083496
10.777506828308104,2.5745837688446045,-2.223411798477173
8.007465362548828,2.787182331085205,-1.0072373151779177
5.887436389923096,3.0317389965057373,1.3923468589782717
4.287411212921143,3.4948599338531494,1.988529682159424
1.6237636804580688,0.970845639705658,1.4874775409698486
-0.9314492344856262,-5.269389629364014,1.3248786926269531
-7.073986053466797,-4.457464218139648,-3.426501035690308
-8.490148544311523,-5.530787944793701,-7.399155139923096
-5.974275588989258,-2.2156245708465576,-8.64745807647705
-6.786383152008057,2.2348265647888184,-2.8440163135528564
-10.134159088134766,-0.8337978720664978,-3.857982397079468
-11.048870086669922,-1.180660367012024,-2.2752561569213867
-10.969160079956056,-1.098570466041565,0.3318365812301636
-10.477304458618164,0.6091877818107605,0.8382467031478882
-9.432318687438965,2.805187940597534,2.0397510528564453
-8.168435096740723,2.451540231704712,2.0997557640075684
-5.952530860900879,1.7075551748275757,1.1838160753250122
-3.9021501541137695,-0.0540785491466522,-1.0320180654525757
-2.5625288486480717,-0.6018409729003906,-6.1616692543029785
2.5063376426696777,-4.518558502197266,-13.543110847473145
13.39546012878418,-1.585142970085144,13.615090370178224
10.417675018310549,-9.02443790435791,6.525136470794678
18.089265823364254,-1.3976569175720217,-0.1170462891459465
11.122448921203612,4.2567138671875,-0.5544301867485046
12.129521369934082,4.935029029846191,-2.36527419090271
11.365118026733398,3.123666286468506,-3.822815179824829
10.596221923828123,2.745283365249634,-1.8744601011276243
10.210115432739258,3.0889875888824463,0.9619451761245728
7.978134155273437,3.3403260707855225,2.636068344116211
4.187455654144287,3.24316954612732,2.285825729370117
0.4799709618091583,-1.443066954612732,0.911568522453308
-5.288591384887695,-6.438675880432129,-3.082881212234497
-7.528747081756592,-4.402112483978272,-7.398163318634033
-5.830618381500244,-2.9981086254119877,-10.425281524658203
-6.030316352844238,2.155278444290161,-0.8246062397956848
-10.897579193115234,-0.9330311417579652,-1.545319437980652
-11.82731819152832,-3.362327337265014,0.8328791260719299
-12.275378227233888,-2.703299760818481,3.236435413360596
-11.351686477661133,0.4245290756225586,3.0045087337493896
-10.32986545562744,2.809584140777588,2.3730053901672363
-8.059446334838867,1.8130865097045896,-0.7453173995018005
-5.775453567504883,0.5520593523979187,-2.37591552734375
-4.95869779586792,-1.4626585245132446,-4.068463325500488
-3.817753314971924,-0.6631172299385071,-3.606365919113159
-2.0826518535614014,0.5546315908432007,-10.757298469543455
1.1348774433135986,-0.5686545968055725,-0.5063803195953369
9.939616203308104,-3.422877788543701,11.274768829345703
17.36806869506836,-7.313765525817871,2.6627895832061768
17.066431045532227,4.254301071166992,-0.6921236515045166
13.90970230102539,6.276708602905273,-0.8755762577056885
12.325967788696287,1.1795564889907837,-2.581439256668091
11.751208305358888,0.7616587281227112,-2.153409719467163
10.98158359527588,2.1983439922332764,-1.2596149444580078
9.169414520263672,2.805168867111206,0.3429965674877167
4.416013240814209,4.830958843231201,0.4007159471511841
0.1659460067749023,-0.9724256992340088,3.627454042434693
-4.481371879577637,-5.364364147186279,-4.717108726501465
-4.945868015289307,-5.549158096313477,-10.626407623291016
-2.7244014739990234,2.640040874481201,-2.3443968296051025
-6.102146625518799,-1.3034957647323608,-4.448506832122803
-9.690929412841797,-4.415147304534912,-3.02868390083313
-11.320842742919922,-6.335882186889648,-1.5129865407943726
-10.887174606323242,-3.6545019149780273,-0.6598740220069885
-9.643218994140623,0.73653244972229,0.5979676246643066
-8.987471580505371,2.3343522548675537,1.2368611097335815
-8.217281341552734,2.13928747177124,0.8500175476074219
-7.39789342880249,0.1236924305558204,-0.3351000845432281
-6.213851451873779,-0.692744255065918,-0.7783371806144714
-5.141270160675049,-1.0259158611297607,0.2744691073894501
-5.03156042098999,0.9202380180358888,1.049258828163147
-3.0953915119171143,1.9056721925735476,-14.232544898986816
10.06367301940918,2.3312137126922607,2.98547625541687
11.07986545562744,-2.332857847213745,11.29364776611328
20.550745010375977,-6.769468784332275,2.320729732513428
17.498811721801758,3.6381139755249023,1.1046901941299438
14.693750381469728,4.113997936248779,-0.784917950630188
11.120534896850586,2.4111168384552,-2.778127908706665
8.10018539428711,2.092900037765503,-3.462930679321289
4.9933061599731445,3.386512041091919,-1.339816689491272
5.300243377685547,2.161141872406006,1.3157649040222168
3.624215602874756,0.7727838158607483,2.93345046043396
0.7920777201652527,-0.4983605742454529,3.819036245346069
-4.942281723022461,-2.788816452026367,-0.8022106289863586
-7.8306884765625,-6.314349174499512,-14.834026336669922
-3.784570693969727,-0.0965859368443489,-6.627310276031494
-6.62186336517334,2.464174032211304,-4.403295040130615
-9.16037654876709,-0.7489857077598572,-6.155095100402832
-9.879481315612791,-0.967652440071106,-3.178475379943848
-9.88166332244873,-2.7627177238464355,-0.9759862422943116
-9.450550079345703,-0.3937648832798004,1.254507064819336
-9.290557861328123,2.209514617919922,4.759424209594727
-8.843690872192383,1.744470477104187,4.847244739532471
-7.228339195251465,1.0999743938446045,4.204111099243164
-6.478089809417725,1.829097867012024,-1.2959545850753784
-3.039446353912353,-9.52518081665039,-27.543182373046875
8.704172134399414,1.2314263582229614,11.90991497039795
1.7856600284576416,-4.93163537979126,14.037631034851074
17.178852081298828,-7.522209167480469,3.2600369453430176
17.66422462463379,4.766009330749512,-0.6857262253761292
10.99293613433838,7.773067951202393,0.205649733543396
7.62296724319458,2.277658224105835,-5.537047863006592
7.300880908966064,1.7475297451019287,-3.931044101715088
9.426436424255373,1.4557054042816162,-1.8744925260543823
11.665078163146973,0.6856651902198792,1.825711965560913
11.600043296813965,1.8356083631515503,3.866974115371704
5.988739013671875,1.8279634714126587,3.853328943252564
-0.0520280636847019,-1.392048716545105,3.184142827987671
-4.7944416999816895,-6.476575374603272,0.4293966293334961
-7.981232643127441,-4.677851676940918,-3.920130014419556
-7.590232849121094,-2.7969837188720703,-8.421758651733398
-5.766620635986328,3.637423038482666,0.1582382470369339
-10.542143821716309,1.4349381923675537,0.0032344870269298
-11.334901809692385,-1.5205718278884888,-0.0259055383503437
-11.844985961914062,-3.028611660003662,1.3137863874435425
-10.772476196289062,-1.8153717517852783,2.504805088043213
-8.937410354614258,-0.0710520893335342,-0.94623202085495
-7.154384136199951,0.3374394178390503,-2.124544858932495
-6.094378471374512,0.1590379029512405,-2.523803472518921
-4.863125801086426,-0.6588833928108215,-3.142461061477661
-3.81598687171936,-0.3995702266693115,-3.3151659965515137
-1.8984320163726809,-2.2546510696411133,-14.84182834625244
8.529655456542969,-2.344547271728516,2.615098237991333
10.237812042236328,-1.038729190826416,9.23952579498291
16.414459228515625,-1.0628979206085205,0.4819241762161255
16.60331153869629,6.186417579650879,-0.7065227627754211
12.052692413330078,4.562539100646973,-2.6455283164978027
10.611966133117676,1.9513081312179563,-1.9999728202819824
9.13930606842041,0.4701135754585266,-2.497769355773926
6.979490280151367,1.99092435836792,-1.430495262145996
5.967844486236572,3.253751277923584,1.172605037689209
4.215565204620361,1.9553606510162356,1.5089956521987915
1.881924390792847,-1.3755929470062256,4.630624771118164
-4.957468509674072,-5.261545181274414,-4.720426082611084
-5.694786548614502,-5.882208347320557,-7.155755519866943
-4.117162704467773,0.2220556735992431,-6.629792213439941
-5.411169528961182,2.916825532913208,-2.593136787414551
-8.60316276550293,0.5898073315620422,-2.409860610961914
-9.170870780944824,-2.884891986846924,-2.1660573482513428
-10.142744064331056,-3.303654670715332,-0.5158720016479492
-9.70938205718994,-1.389151930809021,0.5923265814781189
-9.047005653381348,1.4279841184616089,1.2652456760406494
-7.732394695281982,1.5315889120101929,0.2245426028966903
-6.428469181060791,1.4652475118637085,0.4872358441352844
-5.927920818328857,0.75531005859375,1.419103503227234
-5.904910564422607,0.179200068116188,0.0800089612603187
-4.594532489776611,-2.536465883255005,-16.65320587158203
6.115481853485107,-4.016541481018066,0.9371371865272522
9.625268936157228,-1.4244550466537476,13.435018539428713
15.739822387695312,-5.67318868637085,2.7817301750183105
15.675084114074709,2.954440116882324,0.5835198760032654
11.834956169128418,3.76647424697876,-0.9761409163475036
10.148995399475098,2.353092908859253,-2.270312547683716
8.43997859954834,1.88790225982666,-3.5276241302490234
7.392058372497559,1.5183082818984983,-1.0149167776107788
7.664653301239014,0.3289350867271423,1.5008885860443115
6.265234470367432,0.450388640165329,2.381540298461914
3.679283380508423,1.123191237449646,2.015296459197998
-0.168655127286911,-0.7283784747123718,3.707599878311157
-5.976399421691895,-5.819513320922852,-6.300264835357666
-7.008312225341797,-2.1375293731689453,-6.878152370452881
-4.096803188323975,0.7147712111473083,-7.788355350494385
-5.998116493225098,3.0441079139709477,-1.6979659795761108
-8.172453880310059,-1.6924418210983276,-3.3666255474090576
-9.831640243530272,-2.715440511703491,-1.5516849756240845
-9.772059440612791,-2.440488815307617,0.1754447370767593
-8.606721878051758,1.2846782207489014,1.7217755317687988
-8.012605667114258,3.324750661849976,2.8560705184936523
-7.161234378814697,2.4804046154022217,2.348280668258667
-6.488562107086182,1.6742438077926636,2.537594795227051
-6.472842216491699,0.4083358943462372,4.142722606658936
-6.715593338012695,0.3781625926494598,1.7799794673919678
-5.872591495513916,-5.631485462188721,-28.897188186645508
15.721185684204102,-3.393796443939209,3.138478755950928
6.213420867919922,1.4193191528320312,12.197933197021484
19.15630531311035,-4.387749671936035,1.4739079475402832
14.869343757629396,0.8433515429496765,0.966973841190338
12.968280792236328,4.32161808013916,-1.64993417263031
11.785198211669922,3.679656505584717,-1.1068485975265503
9.03634548187256,2.7960398197174072,-2.7240889072418213
5.163233280181885,4.624385356903076,-0.5797614455223083
4.8398919105529785,3.8112945556640634,0.8225978016853333
2.6789333820343018,1.006902813911438,1.3181979656219482
-0.1814999282360077,-1.420570969581604,2.097568988800049
-4.185234069824219,-5.88109302520752,-1.9273751974105835
-6.887866497039795,-3.696834325790405,-6.084991931915283
-5.65157413482666,0.2062598019838333,-6.100139141082764
-6.199598789215088,3.9729442596435542,-2.742806196212769
-7.884438514709473,0.0595422573387622,-3.462161064147949
-8.61063289642334,-2.877601861953736,-2.65362811088562
-9.906814575195312,-3.759379386901856,-1.4165213108062744
-8.972268104553223,-1.0405900478363037,0.160109594464302
-8.02524471282959,2.5249063968658447,1.6255505084991455
-6.88124942779541,1.8810288906097408,-0.2819302976131439
-5.680660247802734,1.7858164310455322,-0.9304240942001344
-5.11610221862793,0.7081872820854187,-0.1012361198663711
-4.275333404541016,1.5263550281524658,-0.7064946889877319
-0.9593473076820374,-4.716256618499756,-8.187336921691895
5.301300525665283,-1.8688560724258425,2.424968719482422
11.14310359954834,-5.148055076599121,9.76097583770752
15.067776679992676,-5.058605194091797,2.273108720779419
12.445185661315918,1.5227830410003662,2.172809839248657
7.17208194732666,1.398934841156006,-3.554267168045044
5.7298078536987305,3.637781381607056,-4.194643497467041
7.473278045654297,4.305551052093506,-3.7328641414642334
9.140390396118164,2.220797061920166,-1.297449827194214
10.749890327453612,-0.3389735519886017,2.548623561859131
9.918746948242188,-1.0431358814239502,4.845055103302002
3.854436635971069,-0.4348092079162597,4.431594371795654
-0.4968486726284027,-1.006527304649353,2.696211099624634
-4.981510162353516,-4.398767948150635,-2.395238161087036
-7.225557327270508,-5.028123378753662,-6.872394561767578
-7.206700325012207,-2.5611331462860107,-9.27598762512207
-4.617175579071045,4.204628944396973,-2.025897741317749
-8.855668067932129,0.2479284703731537,0.7207072973251343
-10.841452598571776,-4.199900627136231,2.983320713043213
-12.130685806274414,-3.787522554397583,4.035880565643311
