PacketCounter,SampleTimeFine,Quat_W,Quat_X,Quat_Y,Quat_Z,Acc_X,Acc_Y,Acc_Z,Gyr_X,Gyr_Y,Gyr_Z 
1,3137940288,0.46253705,0.4553666,-0.28118974,0.7068473,0.285608172416687,0.062096431851387024,0.013487368822097778,-0.1916080266237259,0.5769227743148804, 0.018938176333904266
2,3137956955,0.46357623,0.45521674,-0.27925283,0.70703095,16.09861183166504,0.34928131103515625,7.506510257720947,1.2760438919067383,2.2127645015716553, 0.444386750459671
3,3137973622,0.46328777,0.45524836,-0.28031188,0.7067805,15.856785774230957,0.7865737080574036,7.656130790710449,0.9832522869110107,2.1512041091918945, 0.34189751744270325
4,3137990289,0.46395445,0.45580238,-0.27818218,0.7068277,15.709324836730957,0.3653840124607086,7.331309795379639,1.304883599281311,2.136028528213501, 0.39626044034957886
5,3138006956,0.46376508,0.45605254,-0.27791938,0.70689386,15.9638032913208,0.5197839140892029,7.54638147354126,2.0630452632904053,2.342595100402832, 0.789018452167511
6,3138023623,0.4642086,0.45591694,-0.27818397,0.706586,15.814696311950684,0.81490558385849,7.52667236328125,0.6420271992683411,2.1868443489074707, 0.35598453879356384
7,3138040290,0.46434867,0.45626202,-0.27745894,0.7065564,15.918355941772461,0.19836562871932983,7.391850471496582,1.0658406019210815,1.914607048034668, 0.4288654625415802
8,3138056957,0.46392384,0.45637092,-0.27741632,0.70678174,15.719562530517578,0.6611471772193909,7.466750621795654,1.4658851623535156,2.202237367630005, 0.16586144268512726
9,3138073624,0.46407428,0.45635706,-0.2773857,0.706704,15.877781867980957,0.5443052053451538,7.46654748916626,2.400197982788086,2.0586400032043457, 0.479745090007782
10,3138090291,0.46423432,0.45622286,-0.27749905,0.70664096,15.990299224853516,0.6379505395889282,7.568344593048096,1.397448182106018,2.2210757732391357, 1.0890583992004395
11,3138106958,0.4643863,0.45605806,-0.27759466,0.70660996,15.69929313659668,0.5789709091186523,7.357526779174805,-0.14231696724891663,2.1207122802734375, 1.0155115127563477
12,3138123625,0.46452197,0.45585766,-0.27765244,0.7066275,15.992461204528809,0.4662083685398102,7.471982002258301,1.5840239524841309,2.704477310180664, 1.9368517398834229
13,3138140292,0.46493173,0.45537987,-0.2780755,0.70649964,15.643021583557129,0.7026380300521851,7.323384761810303,-1.2886645793914795,3.11725115776062, 1.6876273155212402
14,3138156959,0.46481362,0.4551457,-0.27803782,0.70674324,16.069393157958984,0.3590923547744751,7.495709419250488,0.960623562335968,3.470745086669922, 2.704989194869995
15,3138173626,0.46484548,0.4547233,-0.27823126,0.70691794,15.743680000305176,0.6219515204429626,7.431446552276611,-0.3495877981185913,3.8220365047454834, 2.545614719390869
16,3138190293,0.46515992,0.45426252,-0.27858254,0.70686895,15.669397354125977,0.24381397664546967,7.4358229637146,0.2919783592224121,3.270543098449707, 2.7117509841918945
17,3138206960,0.46527675,0.45381656,-0.27884486,0.70697504,15.825518608093262,0.35553616285324097,7.568253040313721,0.7726263403892517,3.3496739864349365, 2.7141716480255127
18,3138223627,0.46536264,0.45339033,-0.2791757,0.70706147,15.71509838104248,0.32659611105918884,7.432166576385498,-0.47616568207740784,2.6368978023529053, 2.2633235454559326
19,3138240294,0.4653763,0.45305553,-0.27940887,0.70717496,15.748062133789062,0.25908535718917847,7.477928161621094,1.0464390516281128,2.4279239177703857, 2.2873873710632324
20,3138256961,0.46534917,0.45270962,-0.27965555,0.7073168,15.694259643554688,0.2769583761692047,7.384308338165283,0.3315500020980835,2.354031562805176, 2.052236795425415
21,3138273628,0.46526542,0.45238912,-0.27980757,0.70751697,16.025304794311523,0.1948179453611374,7.468132495880127,0.858902633190155,2.630558490753174, 1.937530279159546
22,3138290295,0.46525365,0.45195773,-0.28000036,0.70772403,15.69134521484375,0.5131680369377136,7.4070563316345215,0.06501142680644989,3.308744430541992, 1.7714447975158691
23,3138306962,0.46537054,0.4515098,-0.2802604,0.70783,15.617077827453613,0.10811139643192291,7.302062511444092,-0.1236196905374527,3.1136269569396973, 1.763748049736023
24,3138323629,0.4652732,0.451138,-0.28038406,0.70808214,15.848206520080566,0.36587899923324585,7.581214904785156,0.6077830195426941,3.242600440979004, 1.9631175994873047
25,3138340296,0.46526444,0.45078716,-0.2805802,0.70823354,15.695898056030273,0.22030282020568848,7.499732494354248,0.18156200647354126,2.674638271331787, 1.6850275993347168
26,3138356963,0.46526143,0.45046565,-0.28068602,0.7083982,15.81313419342041,0.08968398720026016,7.477830410003662,1.6786243915557861,2.8240883350372314, 1.812284231185913
27,3138373630,0.46523148,0.45018652,-0.28079337,0.7085528,15.764260292053223,0.552711546421051,7.442956447601318,0.6003423929214478,2.4988579750061035, 1.1037088632583618
28,3138390297,0.46538743,0.4498088,-0.28104106,0.7085919,15.402094841003418,0.05796322226524353,7.3034443855285645,-0.16420301795005798,2.567884683609009, 1.2599207162857056
29,3138406964,0.4653861,0.4494618,-0.2811502,0.7087698,15.855045318603516,0.13928300142288208,7.500030040740967,0.7470648288726807,2.9569671154022217, 1.5702955722808838
30,3138423631,0.46538222,0.44907162,-0.28128478,0.70896626,15.772180557250977,0.5042676329612732,7.490237712860107,0.31856438517570496,3.1352057456970215, 1.6710686683654785
31,3138440298,0.46548864,0.44867307,-0.28136647,0.7091163,15.51044750213623,0.21550680696964264,7.224106788635254,0.22237585484981537,3.020550489425659, 1.4250073432922363
32,3138456965,0.46551248,0.44823954,-0.28131542,0.70939493,15.584776878356934,0.26336202025413513,7.330836296081543,1.0222604274749756,3.4674408435821533, 2.110736131668091
33,3138473632,0.4655991,0.44773364,-0.28125706,0.7096807,15.914597511291504,0.5525634288787842,7.594448566436768,0.3191150426864624,3.8266847133636475, 1.904976725578308
34,3138490299,0.46573502,0.44719887,-0.28131762,0.7099047,15.609158515930176,0.1211848258972168,7.3773274421691895,-0.33514219522476196,3.4445183277130127, 2.0835487842559814
35,3138506966,0.46583387,0.4467339,-0.28126678,0.7101528,15.35987663269043,0.13640828430652618,7.308756351470947,0.8135042190551758,3.4521124362945557, 1.9669595956802368
36,3138523633,0.46594256,0.44628572,-0.28123283,0.71037644,15.7769136428833,0.27663442492485046,7.455716609954834,0.1817285269498825,3.2424848079681396, 1.602016806602478
37,3138540300,0.4660627,0.44581455,-0.2812271,0.7105958,15.56120777130127,0.36882835626602173,7.642200469970703,0.07648591697216034,3.274116039276123, 1.7433475255966187
38,3138556967,0.46626887,0.44540647,-0.28120956,0.7107235,15.406063079833984,0.09511730074882507,7.196549892425537,-0.09310217201709747,2.8835482597351074, 0.8822486996650696
39,3138573634,0.46636456,0.44504943,-0.28111464,0.7109218,15.819482803344727,0.12086063623428345,7.554556369781494,1.4253402948379517,2.8970718383789062, 1.5597941875457764
40,3138590301,0.4665074,0.44468445,-0.2810436,0.71108454,15.545647621154785,0.33140650391578674,7.417730808258057,0.4656197130680084,2.831016778945923, 1.0029102563858032
41,3138606968,0.4666747,0.44433507,-0.28097796,0.7112192,15.366474151611328,0.16721485555171967,7.3737359046936035,0.64382004737854,2.7028636932373047, 0.9262897968292236
42,3138623635,0.46684858,0.44391668,-0.28095457,0.7113755,15.671608924865723,0.057318828999996185,7.394987106323242,0.20892919600009918,2.9830918312072754, 1.211807131767273
43,3138640302,0.46691993,0.44354576,-0.2808218,0.7116125,15.461235046386719,0.358980268239975,7.443710803985596,0.6771933436393738,3.141185998916626, 1.2002558708190918
44,3138656969,0.46704185,0.44320416,-0.28071263,0.71178824,15.38671875,0.3587478697299957,7.374061107635498,0.8479148745536804,2.8391101360321045, 1.011016607284546
45,3138673636,0.46711794,0.4428333,-0.2806487,0.7119943,15.461620330810547,0.028774958103895187,7.344665050506592,1.0273445844650269,2.8459742069244385, 1.6802635192871094
46,3138690303,0.4672582,0.44244346,-0.28063726,0.71214914,15.391737937927246,0.25591716170310974,7.377180099487305,0.2732298672199249,2.737555742263794, 1.3233121633529663
47,3138706970,0.46735603,0.44206375,-0.28060845,0.71233207,15.38396167755127,0.1659959852695465,7.350591659545898,0.5288445949554443,2.74634051322937, 1.5289947986602783
48,3138723637,0.46746355,0.44171992,-0.28052744,0.7125066,15.373666763305664,0.2391677349805832,7.352785110473633,1.0120025873184204,2.7345075607299805, 1.307342529296875
49,3138740304,0.4675547,0.4413603,-0.2805232,0.7126715,15.348422050476074,0.05950956419110298,7.341647148132324,0.5579662919044495,2.5042243003845215, 1.5938081741333008
50,3138756971,0.4676153,0.4410366,-0.2804308,0.7128684,15.580092430114746,0.18491913378238678,7.40523624420166,1.1056681871414185,2.6476166248321533, 1.4290027618408203
51,3138773638,0.46783298,0.44060183,-0.28048405,0.71297354,15.267766952514648,0.21088333427906036,7.327027797698975,-0.4925321936607361,2.7527313232421875, 1.0868556499481201
52,3138790305,0.46794185,0.4402693,-0.2803451,0.713162,15.363207817077637,0.16043134033679962,7.399814605712891,1.4997066259384155,2.9149234294891357, 1.2295440435409546
53,3138806972,0.46809813,0.43986976,-0.2803349,0.71330994,15.371581077575684,0.1348148137331009,7.301802158355713,0.28385916352272034,2.796093702316284, 1.311556100845337
54,3138823639,0.46825933,0.43949252,-0.28029707,0.7134516,15.192251205444336,0.3330981135368347,7.34604549407959,0.25174081325531006,2.7654736042022705, 1.032620906829834
55,3138840306,0.4683793,0.43909988,-0.28024888,0.7136336,15.487704277038574,-0.0691719576716423,7.308152675628662,0.5899564623832703,2.9178049564361572, 1.4375063180923462
56,3138856973,0.46853408,0.43868637,-0.28020486,0.7138036,15.32388687133789,0.46368783712387085,7.489102840423584,0.29968777298927307,3.0401828289031982, 1.2381242513656616
57,3138873640,0.46850556,0.43836713,-0.27999303,0.7141015,15.251240730285645,0.22030013799667358,7.2490010261535645,0.8563926219940186,3.1336560249328613, 1.1620419025421143
58,3138890307,0.46864676,0.43795803,-0.27995905,0.7142731,15.222969055175781,0.17794162034988403,7.332708358764648,0.6172852516174316,2.9692225456237793, 1.5016790628433228
59,3138906974,0.46882945,0.43752325,-0.28002205,0.71439487,15.248005867004395,0.19036519527435303,7.281902313232422,0.1659446656703949,2.7163546085357666, 1.6512504816055298
60,3138923641,0.4688806,0.4371479,-0.2799607,0.71461517,15.361248970031738,0.21933206915855408,7.433106899261475,0.8203170895576477,2.8628017902374268, 1.7454991340637207
61,3138940308,0.46884513,0.4368054,-0.27989107,0.7148752,15.125774383544922,0.13426943123340607,7.226012229919434,0.06613839417695999,2.6676077842712402, 1.566799521446228
62,3138956975,0.4689713,0.43643647,-0.27988997,0.71501803,15.348653793334961,0.1293894499540329,7.350998401641846,0.784997284412384,2.5513899326324463, 1.6194077730178833
63,3138973642,0.46895355,0.4361167,-0.2798621,0.71523565,15.175666809082031,0.2146720290184021,7.290903091430664,-0.1892010122537613,2.3264846801757812, 1.4287340641021729
64,3138990309,0.4688954,0.43587258,-0.27964455,0.71550775,15.14682388305664,0.15580080449581146,7.2602338790893555,1.212959885597229,2.650165319442749, 1.089634656906128
65,3139006976,0.469026,0.4355418,-0.27959916,0.7156413,15.330952644348145,0.048895321786403656,7.335840225219727,1.271523356437683,2.4854886531829834, 1.459789514541626
66,3139023643,0.46932042,0.4351153,-0.279646,0.7156893,15.072970390319824,0.24521499872207642,7.297031879425049,-0.38347333669662476,2.7155418395996094, 0.7123212218284607
67,3139040310,0.46920273,0.43491942,-0.2793499,0.71600115,15.35988712310791,0.06739479303359985,7.355800628662109,2.0378293991088867,2.671039342880249, 1.199487566947937
68,3139056977,0.46949762,0.43453312,-0.27941126,0.7160184,15.033233642578125,0.27785933017730713,7.248615741729736,-0.19852405786514282,2.3821794986724854, 0.6791783571243286
69,3139073644,0.46946996,0.43430352,-0.27920365,0.7162567,15.127310752868652,-0.087893046438694,7.208968639373779,1.098074197769165,2.506439685821533, 0.8586465120315552
70,3139090311,0.4694265,0.43404153,-0.27900168,0.71652293,15.313043594360352,0.39385226368904114,7.419810771942139,1.0680688619613647,2.703183650970459, 1.1018264293670654
71,3139106978,0.4694952,0.43369237,-0.27893785,0.716714,15.087906837463379,0.12503118813037872,7.174755096435547,-0.37467536330223083,2.677737236022949, 0.8905472159385681
72,3139123645,0.46946773,0.43340042,-0.27876723,0.71697515,14.878918647766113,0.15166443586349487,7.246496677398682,0.7575404644012451,2.767625331878662, 1.1612735986709595
73,3139140312,0.4694155,0.43308955,-0.27863485,0.71724844,15.216914176940918,0.12190014868974686,7.257412433624268,0.604863166809082,2.7262094020843506, 1.4731080532073975
74,3139156979,0.4693714,0.43277714,-0.2785087,0.7175148,15.256087303161621,0.2241724580526352,7.355409145355225,0.5318413972854614,2.711226224899292, 1.4312697649002075
75,3139173646,0.4693128,0.43251017,-0.27834284,0.71777856,15.014217376708984,0.07081762701272964,7.138857364654541,0.9121002554893494,2.581139087677002, 1.2907456159591675
76,3139190313,0.46929702,0.43218598,-0.27821967,0.7180318,15.08512020111084,0.0743866041302681,7.2458906173706055,0.36995625495910645,2.779599189758301, 1.2810641527175903
77,3139206980,0.46934465,0.43186533,-0.27806476,0.71825355,15.162812232971191,0.235863596200943,7.305421829223633,0.2896988093852997,2.8934855461120605, 0.7644557356834412
78,3139223647,0.46936655,0.4315811,-0.27792183,0.71846527,15.014777183532715,0.139765664935112,7.2944231033325195,0.40421321988105774,2.597825527191162, 0.8266050219535828
79,3139240314,0.4694,0.43133482,-0.2777058,0.7186748,14.92646598815918,0.048133958131074905,7.187054634094238,0.8495540022850037,2.663304567337036, 0.4737516939640045
80,3139256981,0.46935144,0.4311255,-0.27744967,0.7189312,15.138330459594727,0.11673669517040253,7.320608615875244,1.5001038312911987,2.5939581394195557, 0.8387070298194885
81,3139273648,0.46939233,0.4308865,-0.277273,0.71911573,14.812012672424316,0.3810613453388214,7.241783142089844,0.609230101108551,2.4439573287963867, 0.4573211967945099
82,3139290315,0.4693429,0.4307029,-0.2770587,0.7193405,15.13599681854248,0.06341690570116043,7.176051616668701,1.3164223432540894,2.239619255065918, 0.8207269906997681
83,3139306982,0.46932966,0.43042248,-0.27696353,0.71955353,15.093120574951172,0.30148744583129883,7.257811069488525,0.2858313024044037,2.372267246246338, 1.1392720937728882
84,3139323649,0.469356,0.4301084,-0.27687562,0.7197581,14.870384216308594,0.08053799718618393,7.152390956878662,0.007101120427250862,2.5690624713897705, 1.0045748949050903
85,3139340316,0.46931985,0.4298177,-0.27670592,0.72002065,15.01069450378418,0.07885386049747467,7.194332122802734,0.7829227447509766,2.771761894226074, 1.2127807140350342
86,3139356983,0.46934918,0.42948434,-0.27660307,0.7202399,14.828359603881836,0.29998794198036194,7.269272804260254,0.03907857462763786,2.7671382427215576, 1.0267170667648315
87,3139373650,0.46930778,0.42924252,-0.2763698,0.7205006,14.961878776550293,0.03771331533789635,7.144163131713867,1.2664391994476318,2.7233409881591797, 0.9542587399482727
88,3139390317,0.4693062,0.42895445,-0.27620447,0.7207365,15.228116989135742,0.15968969464302063,7.372181415557861,0.6170547008514404,2.7399888038635254, 0.9631078839302063
89,3139406984,0.46940434,0.42863953,-0.27614963,0.7208808,14.766179084777832,0.06980161368846893,7.154935359954834,-0.486013799905777,2.438655376434326, 0.5506666302680969
90,3139423651,0.46936926,0.42843115,-0.275863,0.7211373,14.807952880859375,-0.02575300820171833,7.160317897796631,1.613145351409912,2.7384135723114014, 0.6865931153297424
91,3139440318,0.4693979,0.42816243,-0.27571896,0.7213332,15.068174362182617,0.273150235414505,7.233270645141602,0.4101681709289551,2.5215253829956055, 0.7082231044769287
92,3139456985,0.46947762,0.42786315,-0.2755944,0.7215065,14.881024360656738,0.15258942544460297,7.258051872253418,0.02021482214331627,2.6401891708374023, 0.49937716126441956
93,3139473652,0.46944088,0.42766523,-0.2753417,0.7217443,14.829980850219727,0.010638131760060787,7.101879596710205,1.4479306936264038,2.5175299644470215, 0.7164576053619385
94,3139490319,0.46944565,0.42742833,-0.27512395,0.72196436,15.147601127624512,0.1020469143986702,7.285334587097168,0.9938175082206726,2.624258041381836, 0.6283115148544312
95,3139506986,0.4694784,0.42717135,-0.27496222,0.7221569,15.0287446975708,0.17040064930915833,7.3222174644470215,0.5168194770812988,2.5151479244232178, 0.6031213998794556
96,3139523653,0.46953782,0.4269088,-0.27481505,0.72232944,14.786869049072266,0.14118827879428864,7.143463611602783,0.30999690294265747,2.4859492778778076, 0.4607020318508148
97,3139540320,0.46949592,0.426654,-0.2746373,0.72257483,14.96898078918457,-0.08788050711154938,7.175957679748535,0.9217562079429626,2.5688319206237793, 1.0944626331329346
98,3139556987,0.4695745,0.42633808,-0.27448115,0.7227696,14.854643821716309,0.3515416085720062,7.218019008636475,0.16995948553085327,2.8839194774627686, 0.5084569454193115
99,3139573654,0.46956763,0.42608744,-0.2743117,0.722986,14.915628433227539,-0.02746351808309555,7.210406303405762,0.7358593344688416,2.5042245388031006, 0.8442778587341309
100,3139590321,0.46958172,0.42582333,-0.27414876,0.72319436,14.823379516601562,-0.027500711381435394,7.137874126434326,0.5844242572784424,2.567833662033081, 0.756861686706543
101,3139606988,0.46961945,0.42559496,-0.27397546,0.7233698,14.926844596862793,0.08455102890729904,7.226593971252441,0.6207045912742615,2.3736889362335205, 0.4333348870277405
102,3139623655,0.4697329,0.42535132,-0.27378064,0.7235132,14.62540340423584,0.3142941892147064,7.219751834869385,0.3973233699798584,2.570432662963867, -0.07998844981193542
103,3139640322,0.46972665,0.4251663,-0.27352604,0.7237224,14.873970985412598,-0.20577478408813477,7.092918395996094,1.355302333831787,2.4390780925750732, 0.4458978474140167
104,3139656989,0.46976736,0.4249549,-0.27330247,0.7239046,15.075876235961914,0.26347634196281433,7.372196674346924,0.9301827549934387,2.483964681625366, 0.26080772280693054
105,3139673656,0.4698793,0.42474577,-0.27316186,0.7240077,14.825332641601562,0.10951187461614609,7.074110984802246,0.16606634855270386,2.1089563369750977, -0.10804717987775803
106,3139690323,0.46989205,0.42459983,-0.27289262,0.7241866,14.780863761901855,0.10699646919965744,7.2021484375,1.4422062635421753,2.2491986751556396, 0.1361122876405716
107,3139706990,0.47002107,0.42435718,-0.27264526,0.7243383,14.748258590698242,0.26315805315971375,7.112758636474609,0.6308215856552124,2.8010752201080322, -0.2850821614265442
108,3139723657,0.47003716,0.4241276,-0.2723881,0.7245591,14.67336368560791,0.1273980587720871,7.174874782562256,1.1794583797454834,2.7613120079040527, 0.44995754957199097
109,3139740324,0.47012222,0.42388627,-0.27215964,0.72473073,14.452960014343262,0.3096085786819458,7.013661861419678,0.7050984501838684,2.7145044803619385, 0.05273014307022095
110,3139756991,0.47014228,0.42368945,-0.27194566,0.724913,14.885379791259766,-0.02487831935286522,7.137521743774414,0.9848660230636597,2.3588976860046387, 0.3730553686618805
111,3139773658,0.47019115,0.42344153,-0.27174962,0.72509974,14.883622169494629,0.33047232031822205,7.377070426940918,0.6559476852416992,2.6277413368225098, 0.3888840675354004
112,3139790325,0.47034195,0.42324027,-0.2715708,0.7251865,14.44961166381836,0.24430260062217712,7.043327331542969,0.23566888272762299,2.239990711212158, -0.47619134187698364
113,3139806992,0.47027993,0.4231382,-0.27120486,0.7254233,14.509902954101562,0.06649640202522278,7.070894241333008,2.387647867202759,2.3924500942230225, 0.34047600626945496
114,3139823659,0.47036606,0.42293566,-0.27106476,0.72553784,14.68653392791748,0.3758358955383301,7.118835926055908,0.27896714210510254,2.0876593589782715, 0.04997678101062775
115,3139840326,0.47041887,0.42272422,-0.27090377,0.7256869,14.596343040466309,0.0841241106390953,7.07902717590332,0.5135794878005981,2.2426416873931885, 0.28703513741493225
116,3139856993,0.47042808,0.4224968,-0.27069414,0.72589153,14.695845603942871,0.10307670384645462,7.11628532409668,0.9355743527412415,2.564606189727783, 0.5714001059532166
117,3139873660,0.47055283,0.422212,-0.2705602,0.7260264,14.29612922668457,0.21719667315483093,6.955870151519775,-0.09305092692375183,2.6233229637145996, 0.09487583488225937
118,3139890327,0.47053933,0.42201442,-0.27031338,0.72624195,14.598872184753418,-0.038900651037693024,7.1317973136901855,1.3034878969192505,2.534395694732666, 0.5569417476654053
119,3139906994,0.47065917,0.42172945,-0.27020833,0.7263689,14.28861141204834,0.38974931836128235,7.002771377563477,-0.23700711131095886,2.5069518089294434, 0.17499235272407532
120,3139923661,0.47067448,0.42155907,-0.27000844,0.72653204,14.416646003723145,-0.17418180406093597,7.01350736618042,0.9751716256141663,2.155776023864746, 0.33028218150138855
121,3139940328,0.47065386,0.42140162,-0.26974073,0.72673625,14.598292350769043,0.2679786682128906,7.224062919616699,1.5399315357208252,2.366978645324707, 0.41750621795654297
122,3139956995,0.470809,0.42119935,-0.2696409,0.72679013,14.104473114013672,0.24610885977745056,6.875936985015869,-0.23358777165412903,1.9365569353103638, -0.37631452083587646
123,3139973662,0.4707835,0.42108643,-0.26929653,0.7269998,14.369969367980957,-0.2478950321674347,6.865024089813232,2.088721990585327,2.3966119289398193, 0.158753901720047
124,3139990329,0.47084814,0.42088342,-0.269122,0.72713995,14.532129287719727,0.3201373219490051,7.115455627441406,0.5621795654296875,2.2637593746185303, 0.13453711569309235
125,3140006996,0.4709732,0.42065197,-0.2689673,0.7272501,14.272872924804688,0.07667670398950577,6.928877353668213,0.13872478902339935,2.3654162883758545, -0.1511533558368683
126,3140023663,0.4710068,0.42045677,-0.26871273,0.7274354,14.245466232299805,0.1092863455414772,6.981412887573242,1.1594676971435547,2.5553853511810303, 0.1926138997077942
127,3140040330,0.47114757,0.42019513,-0.26851794,0.7275674,14.17553997039795,0.2402741014957428,6.908901691436768,0.237308070063591,2.7365827560424805, -0.22069184482097626
128,3140056997,0.47116885,0.4199874,-0.2682626,0.7277676,14.284527778625488,-0.011996731162071228,6.988097667694092,1.185016393661499,2.6399714946746826, 0.32498034834861755
129,3140073664,0.4712255,0.41977766,-0.26805758,0.72792745,14.319866180419922,0.2689931392669678,7.084834098815918,0.7509835362434387,2.436516761779785, 0.16378681361675262
130,3140090331,0.47125208,0.41960612,-0.26779297,0.7281065,14.372876167297363,0.14122861623764038,6.923292636871338,1.2943570613861084,2.438783645629883, 0.13670137524604797
131,3140106998,0.4713371,0.4193702,-0.26758325,0.7282645,14.132301330566406,0.1224365159869194,6.911291122436523,0.6033134460449219,2.6332736015319824, 0.05255085229873657
132,3140123665,0.47147205,0.41910654,-0.2674172,0.7283899,14.022021293640137,0.06991807371377945,6.849314212799072,0.0918407291173935,2.630955696105957, -0.1261681616306305
133,3140140332,0.4715845,0.41886383,-0.2672266,0.7285267,14.128055572509766,0.1551729142665863,6.958671569824219,0.3684963285923004,2.599311113357544, -0.08681423962116241
134,3140156999,0.47161567,0.4187065,-0.26692614,0.7287072,14.110370635986328,0.32282134890556335,7.028759956359863,1.509657382965088,2.5065550804138184, -0.011064687743782997
135,3140173666,0.4716984,0.41855192,-0.26674372,0.7288093,14.204026222229004,-0.19963401556015015,6.820939540863037,0.6333059668540955,1.9805212020874023, -0.18567925691604614
136,3140190333,0.4717722,0.41844118,-0.26642656,0.72894096,14.06947135925293,0.4863590896129608,7.090306758880615,1.5335410833358765,2.272083044052124, -0.5190541744232178
137,3140207000,0.47193015,0.41830757,-0.26615006,0.7290164,13.942342758178711,0.07064537703990936,6.691483497619629,0.9074386954307556,2.248084545135498, -0.9584400057792664
138,3140223667,0.4719759,0.41825134,-0.26581067,0.72914284,14.033699035644531,0.19831830263137817,6.951980113983154,1.8903900384902954,2.012012004852295, -0.5544764995574951
139,3140240334,0.47208366,0.41810802,-0.2656124,0.72922754,13.931000709533691,0.3851308226585388,6.843417644500732,0.6454207897186279,1.9871293306350708, -0.4355567991733551
140,3140257001,0.47214335,0.4180351,-0.2654438,0.7292921,14.355168342590332,-0.009334511123597622,6.869243621826172,0.8245176672935486,1.3964365720748901, -0.29954054951667786
141,3140273668,0.4722041,0.41793647,-0.26517716,0.72940636,13.98176383972168,0.3927164673805237,6.944487571716309,1.3220443725585938,1.9963496923446655, -0.38173168897628784
142,3140290335,0.47228524,0.41791302,-0.2648628,0.7294813,13.913187026977539,-0.008891155011951923,6.539482593536377,1.6729316711425781,1.701336145401001, -0.8826776146888733
143,3140307002,0.47232088,0.41782618,-0.26455572,0.7296195,13.987334251403809,0.17983117699623108,6.87915563583374,1.6781761646270752,2.104294538497925, -0.31563812494277954
144,3140323669,0.4723933,0.41767445,-0.26435354,0.72973275,13.803709030151367,0.3961675465106964,6.70979118347168,0.7903247475624084,2.0883636474609375, -0.1620899885892868
145,3140340336,0.47248638,0.41753867,-0.26427442,0.7297789,13.800447463989258,-0.0018346619326621294,6.665494918823242,0.04112759605050087,1.4592386484146118, -0.15593011677265167
146,3140357003,0.4724766,0.4174893,-0.26401082,0.72990876,14.006551742553711,0.3169829249382019,6.907801628112793,1.6969630718231201,1.685501217842102, -0.05788470059633255
147,3140373670,0.47255462,0.4174279,-0.26388434,0.7299392,14.04277515411377,0.12606899440288544,6.743018627166748,0.5362595319747925,1.1788052320480347, -0.4038354456424713
148,3140390337,0.47254267,0.4174419,-0.2635865,0.73004645,13.645776748657227,0.09794843196868896,6.661651611328125,2.0391359329223633,1.4227150678634644, -0.332760214805603
149,3140407004,0.47257867,0.41743425,-0.2632907,0.7301342,13.913880348205566,0.23975443840026855,6.5933661460876465,1.7858904600143433,1.5609084367752075, -0.5931133031845093
150,3140423671,0.47261712,0.41738418,-0.2631328,0.73019505,14.135444641113281,0.2807348668575287,6.819704532623291,0.8991658091545105,1.2630326747894287, -0.21973136067390442
151,3140440338,0.47273284,0.41723973,-0.2629979,0.73025125,13.579765319824219,0.17216604948043823,6.622538089752197,0.24645179510116577,1.7945857048034668, -0.3846130669116974
152,3140457005,0.47278932,0.41720822,-0.26277807,0.7303118,14.015636444091797,-0.00010116188786923885,6.596827507019043,1.218133568763733,1.409473180770874, -0.5217562913894653
153,3140473672,0.47287223,0.4171673,-0.26255837,0.7303605,13.767526626586914,0.2896619439125061,6.618474960327148,1.0919525623321533,1.4734408855438232, -0.6794280409812927
154,3140490339,0.47295675,0.41711676,-0.26232046,0.7304202,13.853623390197754,-0.04270806908607483,6.539716720581055,1.1661783456802368,1.6152586936950684, -0.6850501298904419
155,3140507006,0.47307828,0.4170361,-0.26206964,0.7304777,13.719950675964355,0.40035760402679443,6.691847324371338,1.0252442359924316,1.8702201843261719, -0.8654788136482239
156,3140523673,0.47321436,0.41699916,-0.26192823,0.7304612,13.800189971923828,0.19190295040607452,6.530149459838867,0.4413260221481323,1.1064366102218628, -0.9403063058853149
157,3140540340,0.4733054,0.41700456,-0.26166424,0.7304938,13.784268379211426,0.26185405254364014,6.859948635101318,1.4118423461914062,1.3538553714752197, -0.982336699962616
158,3140557007,0.47337463,0.41703317,-0.26139513,0.730529,13.925151824951172,0.12803533673286438,6.535884380340576,1.5799129009246826,1.2180951833724976, -0.9202771782875061
159,3140573674,0.47346467,0.41707903,-0.26112866,0.7305396,13.882071495056152,0.33574748039245605,6.680797100067139,1.5199024677276611,1.0933997631072998, -1.1298658847808838
160,3140590341,0.4735604,0.41713262,-0.2607506,0.73058224,13.928305625915527,0.2586299180984497,6.535568714141846,2.145979404449463,1.522053837776184, -1.3862360715866089
161,3140607008,0.4736743,0.4171423,-0.26043525,0.7306151,13.968436241149902,0.37052053213119507,6.639048099517822,1.6179476976394653,1.54702627658844, -1.2510777711868286
162,3140623675,0.47383595,0.41709372,-0.2601314,0.73064625,13.76311206817627,0.415482759475708,6.546158313751221,1.229006052017212,1.8865737915039062, -1.3571912050247192
163,3140640342,0.4739427,0.4170377,-0.25987375,0.7307009,13.949292182922363,0.1894722729921341,6.607484817504883,1.1704429388046265,1.7464596033096313, -0.8568472862243652
164,3140657009,0.474033,0.4169337,-0.25969496,0.73076516,13.840928077697754,0.5339827537536621,6.59417200088501,0.6835964322090149,1.733204960823059, -0.4330979287624359
165,3140673676,0.47409922,0.41680467,-0.25959033,0.730833,13.888387680053711,0.5468317270278931,6.456577301025391,0.3024667799472809,1.5888134241104126, -0.039225850254297256
166,3140690343,0.47415197,0.41660643,-0.25973597,0.73086,13.89808464050293,0.3403474688529968,6.501183986663818,-1.2178839445114136,0.9870686531066895, 0.7398420572280884
167,3140707010,0.4741722,0.41645494,-0.2598697,0.7308858,14.084484100341797,0.4229244589805603,6.737316131591797,-0.9148088693618774,0.7364227175712585, 0.7819877862930298
168,3140723677,0.4742342,0.41630724,-0.25998545,0.7308884,13.810758590698242,0.381036639213562,6.4504618644714355,-0.9738205075263977,0.7891592979431152, 0.43991735577583313
169,3140740344,0.47422302,0.41617933,-0.26006377,0.7309406,13.836670875549316,0.011654607020318508,6.527225017547607,-0.4233010709285736,0.8306006193161011, 0.827693521976471
170,3140757011,0.47412175,0.41612265,-0.25998262,0.7310675,13.927252769470215,0.1456388235092163,6.584935188293457,1.0043059587478638,1.0515742301940918, 0.9347419142723083
171,3140773678,0.47411063,0.41610053,-0.2599387,0.73110294,13.783241271972656,0.41967034339904785,6.501364231109619,0.5106852054595947,0.6632344126701355, 0.2259616255760193
172,3140790345,0.47397512,0.41620314,-0.2599088,0.731143,14.201918601989746,0.08623180538415909,6.473970413208008,1.207773208618164,-0.21230365335941315, 0.6847747564315796
173,3140807012,0.4738617,0.41624233,-0.25997463,0.73117083,13.876363754272461,0.669461727142334,6.720587253570557,0.4359729588031769,-0.1883813887834549, 0.9171202182769775
174,3140823679,0.47370672,0.41628152,-0.2601403,0.7311899,13.675304412841797,0.21678563952445984,6.228121757507324,0.03390481323003769,-0.6095694899559021, 1.390993595123291
175,3140840346,0.47351816,0.4163359,-0.2602596,0.73123866,13.950998306274414,0.4928891062736511,6.363016128540039,0.46837297081947327,-0.49860236048698425, 1.49658203125
176,3140857013,0.47336656,0.4162727,-0.260444,0.7313072,13.917864799499512,0.2704218327999115,6.40916109085083,-0.3150618374347687,0.01473370660096407, 1.7752611637115479
177,3140873680,0.47305328,0.4163184,-0.2603464,0.73151875,13.9172945022583,-0.030790576711297035,6.385417461395264,2.177175521850586,0.5150137543678284, 2.0517373085021973
178,3140890347,0.47272965,0.41644046,-0.26015976,0.7317248,13.605084419250488,0.2527843415737152,6.299410343170166,2.894613027572632,0.3969264328479767, 1.6868972778320312
179,3140907014,0.4724207,0.41657153,-0.26004857,0.7318892,13.714733123779297,0.09769821166992188,6.416707515716553,2.4279236793518066,0.021790001541376114, 1.6772409677505493
180,3140923681,0.47209817,0.4167629,-0.2599752,0.7320145,13.785102844238281,0.035723380744457245,6.442518711090088,2.4050133228302,-0.5324752330780029, 1.6167696714401245
181,3140940348,0.47172093,0.41720432,-0.25977704,0.73207647,13.665502548217773,0.06926184147596359,6.347772121429443,3.8904988765716553,-1.6591778993606567, 0.8776896595954895
182,3140957015,0.47116733,0.41799095,-0.2592334,0.73217696,13.631349563598633,0.03996492549777031,6.355728626251221,7.324688911437988,-2.4774527549743652, 0.27921050786972046
183,3140973682,0.4705703,0.41902825,-0.2585036,0.732226,13.491423606872559,-0.14403757452964783,6.311715602874756,9.107770919799805,-3.361809015274048, -0.6549297571182251
184,3140990349,0.46987125,0.42019165,-0.2574522,0.7323786,13.843132972717285,-0.001017242670059204,6.274662494659424,11.61846923828125,-2.8418712615966797, -0.9629483819007874
185,3141007016,0.46952358,0.42121837,-0.25668988,0.7322795,13.412895202636719,0.3244181275367737,5.957308769226074,8.260628700256348,-3.1916890144348145, -2.474264144897461
186,3141023683,0.46932214,0.42222217,-0.2558558,0.7321223,13.623462677001953,0.15469707548618317,6.039061546325684,8.027360916137695,-2.752789258956909, -3.55865478515625
187,3141040350,0.46936843,0.42295003,-0.25526503,0.7318787,14.015295028686523,0.4888691008090973,6.113064765930176,5.035707473754883,-1.9620869159698486, -3.8983688354492188
188,3141057017,0.469873,0.42352724,-0.25496688,0.73132485,13.855422973632812,0.6187009811401367,5.859339237213135,1.1945699453353882,-2.2417774200439453, -6.087434768676758
189,3141073684,0.47044665,0.4242048,-0.2547667,0.7306329,14.080648422241211,0.12012730538845062,5.933403015136719,0.5747427344322205,-3.3360416889190674, -6.768220901489258
190,3141090351,0.47123072,0.42417094,-0.25519165,0.72999865,14.189242362976074,0.10320166498422623,5.916138172149658,-5.37476110458374,-1.2396162748336792, -4.572200298309326
191,3141107018,0.47193944,0.4243592,-0.25545856,0.7293375,13.583341598510742,0.3780825436115265,5.2218122482299805,-3.7026233673095703,-2.0438551902770996, -5.145963191986084
192,3141123685,0.4716667,0.4268184,-0.25464177,0.7283641,12.948943138122559,0.3959558606147766,3.4660630226135254,11.422053337097168,-12.534818649291992, -8.381804466247559
193,3141140352,0.46927997,0.4329388,-0.2511294,0.72751254,12.937559127807617,0.48849812150001526,2.1560158729553223,43.22600173950195,-25.431766510009766, -11.712285995483398
194,3141157019,0.46543977,0.44171548,-0.24771114,0.72587377,13.077741622924805,0.0017465059645473957,0.8308276534080505,54.306541442871094,-43.8155632019043, -11.28309154510498
195,3141173686,0.46201563,0.45018026,-0.24665108,0.723217,12.787983894348145,0.8584364652633667,2.2977240085601807,38.552825927734375,-52.109657287597656, -8.935893058776855
196,3141190353,0.45975798,0.45755404,-0.24984473,0.71891916,13.517890930175781,-0.9150530695915222,1.7225629091262817,7.464269161224365,-63.267723083496094, -4.9698052406311035
197,3141207020,0.45790023,0.46398225,-0.25429744,0.7144095,12.737680435180664,-0.43605679273605347,5.043616771697998,-3.102175712585449,-62.488861083984375, -1.9260501861572266
198,3141223687,0.45697314,0.4688802,-0.25870028,0.710212,13.054917335510254,-0.00682444404810667,8.673665046691895,-10.31130313873291,-52.23533248901367, -3.134411096572876
199,3141240354,0.4585266,0.4715087,-0.26289362,0.7059177,12.83002758026123,0.17539376020431519,10.17099380493164,-8.14223861694336,-35.41075897216797, -4.283500671386719
200,3141257021,0.46008423,0.47302058,-0.2641654,0.7034136,12.628556251525879,1.599961280822754,10.7042818069458,1.7385210990905762,-15.352523803710938, -8.154746055603027
201,3141273688,0.46204355,0.47368383,-0.26338342,0.7019749,12.403050422668457,2.4950883388519287,7.5713701248168945,7.828470230102539,-0.7731326818466187, -12.713205337524414
202,3141290355,0.46394035,0.47460845,-0.26293087,0.70026696,13.117881774902344,1.474897027015686,2.401214122772217,5.639556407928467,-4.167420387268066, -13.165911674499512
203,3141307022,0.4657887,0.4750422,-0.26414892,0.6982844,12.934154510498047,1.8750196695327759,4.129367351531982,-8.30119800567627,-8.343151092529297, -9.32730770111084
204,3141323689,0.4682256,0.47438774,-0.26654553,0.6961857,12.459344863891602,2.058490514755249,4.446159839630127,-20.75535011291504,-6.27667236328125, -7.229735851287842
205,3141340356,0.47005612,0.4738553,-0.26869017,0.6944885,12.431654930114746,1.1165177822113037,3.36225962638855,-18.630640029907227,-6.022809028625488, -5.063701629638672
206,3141357023,0.4706911,0.47395745,-0.2698521,0.6935375,12.525224685668945,0.9167759418487549,3.340576171875,-8.161002159118652,-5.750308513641357, -2.025158166885376
207,3141373690,0.47074154,0.47419968,-0.27069616,0.6930085,12.251998901367188,0.8730148673057556,3.519707202911377,-4.165521621704102,-5.123935699462891, 0.528857409954071
208,3141390357,0.47041437,0.47448176,-0.27144492,0.6927447,12.217330932617188,0.7278332114219666,3.717726945877075,-1.8802924156188965,-4.825675964355469, 2.7883074283599854
209,3141407024,0.46993992,0.47471,-0.27227855,0.6925834,11.99077033996582,0.8682249188423157,3.8206818103790283,-1.3838926553726196,-4.739297389984131, 4.3730549812316895
210,3141423691,0.46917552,0.47504395,-0.27299544,0.6925903,12.033978462219238,0.6406792998313904,3.7934184074401855,-0.3966895341873169,-4.9418044090271, 5.196081161499023
211,3141440358,0.4685003,0.4753452,-0.27383974,0.69250727,11.905611991882324,0.5766122341156006,3.705289602279663,-0.277052640914917,-5.2160139083862305, 5.5234880447387695
212,3141457025,0.46786606,0.4756672,-0.27472767,0.6923633,11.516643524169922,0.46229124069213867,3.5628316402435303,-0.4036306142807007,-5.5531415939331055, 5.341049671173096
213,3141473692,0.46731257,0.476105,-0.27557632,0.69209874,11.709734916687012,0.49264097213745117,3.5131468772888184,-0.10056827962398529,-6.2016425132751465, 4.312903881072998
214,3141490359,0.4669441,0.4765508,-0.2765412,0.6916556,11.525036811828613,0.5928130745887756,3.6746277809143066,-1.5333555936813354,-6.841473579406738, 3.230677604675293
215,3141507026,0.46676335,0.47705913,-0.27758276,0.69100976,11.055787086486816,0.2614867687225342,3.539400577545166,-2.2001442909240723,-7.6600565910339355, 2.0242552757263184
216,3141523693,0.46622217,0.478058,-0.2779782,0.6905257,11.224695205688477,0.093932144343853,3.3354339599609375,3.037980794906616,-8.148284912109375, 0.8092271089553833
217,3141540360,0.4658455,0.47898972,-0.27825734,0.6900217,11.312602043151855,0.7152114510536194,3.336479425430298,2.917178153991699,-7.1991167068481445, -0.25496163964271545
218,3141557027,0.46582347,0.47964108,-0.27885908,0.68934083,10.761996269226074,0.4282738268375397,3.189751625061035,-1.0143400430679321,-6.804719924926758, -0.9019386768341064
219,3141573694,0.46575642,0.48013934,-0.27927387,0.6888712,11.034602165222168,0.3493526875972748,3.3735954761505127,-0.9606428742408752,-4.942944526672363, -0.7010197043418884
220,3141590361,0.46597803,0.4799966,-0.28005618,0.68850297,10.536959648132324,0.4081920087337494,3.1769464015960693,-4.318275451660156,-2.1036860942840576, 1.172389268875122
221,3141607028,0.4662524,0.47934273,-0.28112563,0.6883369,10.46493911743164,0.4579298496246338,2.8895764350891113,-7.944650650024414,0.09444044530391693, 3.164584159851074
222,3141623695,0.46615544,0.47940397,-0.28147295,0.68821794,10.52811050415039,0.6934146285057068,2.854361057281494,-0.8233587145805359,-1.5265169143676758, 1.349040150642395
223,3141640362,0.4660542,0.47984388,-0.28156817,0.68794096,10.166894912719727,0.917550802230835,2.894458055496216,0.8079077005386353,-3.0731654167175293, -0.882754385471344
224,3141657029,0.46609822,0.4802454,-0.28176215,0.6875515,10.092865943908691,0.42435142397880554,2.9321210384368896,0.5783411264419556,-3.211576223373413, -1.1132175922393799
225,3141673696,0.46578267,0.48090792,-0.2815327,0.6873962,9.943195343017578,0.4399257004261017,2.8146250247955322,4.377703666687012,-3.067646026611328, -0.8274567723274231
226,3141690363,0.46546993,0.48160705,-0.2813437,0.68719584,9.962601661682129,0.8331241607666016,2.9175527095794678,4.799890518188477,-3.462965250015259, -0.704067587852478
227,3141707030,0.4654929,0.4819014,-0.28184783,0.6867672,9.669853210449219,1.0896176099777222,2.8906426429748535,-1.9408661127090454,-3.928232192993164, -0.162679061293602
228,3141723697,0.4657081,0.48166433,-0.28321448,0.68622524,9.530969619750977,0.6917107105255127,2.7823479175567627,-9.184000015258789,-4.238083839416504, 2.2488532066345215
229,3141740364,0.46580333,0.481498,-0.28483033,0.68560827,9.37492847442627,0.5029894709587097,2.8427162170410156,-9.104743003845215,-5.783760070800781, 3.546623945236206
230,3141757031,0.46547863,0.48170936,-0.28602958,0.6851809,9.278162002563477,0.5002286434173584,2.798788547515869,-5.202708721160889,-6.5168843269348145, 3.652890682220459
231,3141773698,0.46501938,0.4821856,-0.2871193,0.68470186,9.006654739379883,0.38011032342910767,2.4297289848327637,-3.3058316707611084,-7.835476875305176, 3.3082456588745117
232,3141790365,0.4644103,0.4830759,-0.2878172,0.68419445,9.058642387390137,0.3855139911174774,2.391629695892334,1.136877417564392,-8.845616340637207, 2.0887224674224854
233,3141807032,0.4639832,0.48418614,-0.28854316,0.6833932,8.600088119506836,0.4713972806930542,2.4444658756256104,0.666718065738678,-10.567867279052734, -0.0028302043210715055
234,3141823699,0.46359825,0.4856061,-0.28927255,0.68233776,8.574936866760254,0.14334596693515778,2.327338457107544,0.009547139517962933,-12.885128021240234, -1.9277024269104004
235,3141840366,0.4632794,0.48731956,-0.28978735,0.68111324,8.529582023620605,0.21088160574436188,2.379920721054077,2.306098461151123,-13.927862167358398, -3.7967779636383057
236,3141857033,0.46298254,0.48941454,-0.2901378,0.6796622,8.214898109436035,0.19268018007278442,2.334092378616333,2.658261299133301,-16.011064529418945, -6.267817974090576
237,3141873700,0.4625655,0.49192953,-0.2901831,0.6781095,8.14947509765625,0.21194125711917877,2.373013973236084,5.592777252197266,-17.593412399291992, -7.897929668426514
238,3141890367,0.4621726,0.4946501,-0.29042864,0.67629075,7.784978866577148,0.6604500412940979,2.4028284549713135,4.7410407066345215,-20.0452880859375, -8.5719575881958
239,3141907034,0.46197394,0.49744332,-0.29093456,0.6741569,7.6291704177856445,0.4586309790611267,2.2707860469818115,2.0707716941833496,-21.949871063232422, -9.820555686950684
240,3141923701,0.46161303,0.5005377,-0.29125622,0.6719712,7.679150581359863,-0.016291813924908638,2.180562734603882,5.756960868835449,-23.115772247314453, -10.095973014831543
241,3141940368,0.4611491,0.5036668,-0.2916013,0.66979855,7.383304595947266,0.23201598227024078,1.6679739952087402,6.144008159637451,-23.517045974731445, -9.580119132995605
242,3141957035,0.46116102,0.5064828,-0.29262435,0.6672159,7.156132698059082,0.6766150593757629,1.9632784128189087,-0.4406804144382477,-24.68570899963379, -10.101341247558594
243,3141973702,0.46123344,0.50929844,-0.29381514,0.66449344,6.892154693603516,-0.10407998412847519,1.9559359550476074,-1.7056312561035156,-25.586402893066406, -10.230905532836914
244,3141990369,0.4606895,0.51250786,-0.29419747,0.66223013,7.150666236877441,0.05172482132911682,1.4545633792877197,6.3268327713012695,-24.467731475830078, -9.60039234161377
245,3142007036,0.46011683,0.51568115,-0.29508707,0.65976465,6.9050612449646,0.9258911609649658,2.2757749557495117,3.5972557067871094,-26.674137115478516, -8.260041236877441
246,3142023703,0.45918718,0.51900387,-0.29615325,0.6573245,6.848886489868164,0.8461533784866333,1.7180927991867065,4.583195209503174,-28.563716888427734, -6.225480556488037
247,3142040370,0.4574894,0.52277887,-0.29689026,0.6551809,7.143909931182861,1.400618076324463,1.384979009628296,10.839686393737793,-30.0792179107666, -3.9041452407836914
248,3142057037,0.45618945,0.52615327,-0.29888147,0.65247524,6.8943071365356445,1.7624337673187256,1.9630078077316284,1.3451008796691895,-33.42130661010742, -2.1155786514282227
249,3142073704,0.4548461,0.5295443,-0.3015379,0.6494404,6.368151664733887,0.9174733757972717,2.345085382461548,-2.1149404048919678,-36.87644577026367, -0.5487803220748901
250,3142090371,0.45267805,0.5336237,-0.30343282,0.64672804,6.371350288391113,0.30027464032173157,1.5637043714523315,7.108989238739014,-38.13412857055664, -0.04874122142791748
251,3142107038,0.45027027,0.5379816,-0.30493912,0.64408445,6.561220169067383,0.22106604278087616,0.9798124432563782,10.73072338104248,-38.41863250732422, -0.7848798632621765
252,3142123705,0.4482748,0.5423695,-0.3062189,0.6411826,6.307524681091309,0.7064698934555054,1.1278232336044312,9.762210845947266,-37.93214797973633, -4.323126792907715
253,3142140372,0.44638368,0.5470464,-0.3066365,0.6383228,6.036120891571045,0.367093563079834,1.0545835494995117,14.152203559875488,-36.172515869140625, -8.474084854125977
254,3142157039,0.44444627,0.5521242,-0.30581945,0.6356893,5.734231948852539,-0.22235915064811707,0.6482093930244446,21.453283309936523,-33.38994216918945, -13.072391510009766
255,3142173706,0.44238028,0.5575534,-0.3033878,0.63355356,6.120725631713867,0.060181859880685806,0.2582637369632721,31.122583389282227,-28.36591339111328, -17.882251739501953
256,3142190373,0.4409576,0.56277835,-0.3001136,0.63148165,6.015293121337891,0.4792173206806183,0.022067934274673462,31.838350296020508,-23.307662963867188, -23.3122615814209
257,3142207040,0.43976927,0.5680089,-0.29574612,0.6296851,5.765025615692139,0.24161219596862793,0.12319795787334442,36.25944519042969,-18.44469451904297, -27.74256706237793
258,3142223707,0.43850803,0.57328564,-0.2906214,0.62816685,5.2487688064575195,-0.43217864632606506,0.8548112511634827,40.526641845703125,-15.399335861206055, -29.65140151977539
259,3142240374,0.4362337,0.5790925,-0.2837104,0.627583,5.370579719543457,0.1493896245956421,0.6068590879440308,55.70612716674805,-10.655282974243164, -30.593332290649414
260,3142257041,0.43368348,0.58494717,-0.27596644,0.62737393,5.394816875457764,0.7254337072372437,0.5395470261573792,61.273990631103516,-7.412619113922119, -31.707494735717773
261,3142273708,0.43162784,0.59025115,-0.2692151,0.6267571,5.4856977462768555,1.7624619007110596,0.6874021291732788,52.584327697753906,-8.699557304382324, -30.021488189697266
262,3142290375,0.43181944,0.59387016,-0.266157,0.6245084,4.747910499572754,2.509348154067993,0.5509597063064575,19.52104377746582,-14.866100311279297, -26.41092300415039
263,3142307042,0.43333626,0.59588933,-0.2657549,0.6216992,5.4305315017700195,1.7259259223937988,0.14968210458755493,-3.0816116333007812,-15.749629020690918, -19.9359073638916
264,3142323709,0.4356098,0.59723943,-0.26655787,0.6184628,5.197868824005127,2.113156795501709,-0.22331762313842773,-14.114120483398438,-16.835426330566406, -18.258216857910156
265,3142340376,0.43900505,0.5977185,-0.26927048,0.61441094,4.7306976318359375,1.3898261785507202,-0.46390849351882935,-30.95540428161621,-20.121156692504883, -15.993223190307617
266,3142357043,0.4412146,0.5993608,-0.27120796,0.6103628,3.8759613037109375,-0.1842733770608902,-0.4449597895145416,-19.299484252929688,-24.847795486450195, -16.294973373413086
267,3142373710,0.43941408,0.6035049,-0.2694469,0.60835487,2.813077211380005,-2.5543766021728516,0.9456139206886292,24.140111923217773,-23.175668716430664, -13.217827796936035
268,3142390377,0.43409365,0.6091272,-0.26270875,0.60951704,3.5148062705993652,2.415757894515991,0.968277096748352,69.92564392089844,-7.721831321716309, -12.417645454406738
269,3142407044,0.43046758,0.612956,-0.25796413,0.6102763,5.429718971252441,3.529226064682007,-1.4091135263442993,48.38996124267578,-4.812450408935547, -9.074735641479492
270,3142423711,0.4268804,0.61580163,-0.25429708,0.61146927,4.131250858306885,1.4132968187332153,-0.6469240188598633,41.5377311706543,-1.9167765378952026, -1.5899947881698608
271,3142440378,0.4233308,0.6180812,-0.25178456,0.6126754,4.330874443054199,2.5553066730499268,0.46117010712623596,34.87798309326172,-2.774955987930298, 4.181361675262451
272,3142457045,0.42096642,0.6192603,-0.25153977,0.6132143,2.883352279663086,1.630550503730774,2.850120782852173,15.925873756408691,-5.5350260734558105, 8.84109878540039
273,3142473712,0.41876546,0.6199676,-0.2503535,0.6144909,2.392504930496216,0.44708389043807983,2.1892201900482178,19.12726402282715,2.500859260559082, 7.125546455383301
274,3142490379,0.4176132,0.6199622,-0.24963804,0.6155705,3.960071563720703,0.6576387286186218,-0.6066335439682007,10.294229507446289,5.043828964233398, 5.352499961853027
275,3142507046,0.4169612,0.61935407,-0.2513143,0.6159424,3.709468364715576,-0.502254843711853,0.3775797486305237,-4.9104180335998535,-1.3959953784942627, 12.421876907348633
276,3142523713,0.41577014,0.6186482,-0.25384638,0.6164184,2.5756924152374268,-0.07910087704658508,0.4473329484462738,-6.330226421356201,-3.9289298057556152, 18.764467239379883
277,3142540380,0.41409564,0.61826664,-0.25616187,0.61697024,2.497103214263916,1.0920324325561523,0.6041731238365173,-2.2891767024993896,-5.217583179473877, 19.518203735351562
278,3142557047,0.41205925,0.61808944,-0.25763622,0.6178967,2.452620267868042,0.8955485820770264,0.22849714756011963,4.059111595153809,-2.751767635345459, 18.205469131469727
279,3142573714,0.4090394,0.6184147,-0.25787863,0.61947453,2.523134469985962,0.7577019333839417,0.7088075876235962,16.048471450805664,-0.37279364466667175, 18.11685562133789
280,3142590381,0.40609187,0.61821955,-0.25812754,0.6215018,1.987197756767273,1.4998811483383179,2.501150369644165,15.04952335357666,3.8430464267730713, 20.030807495117188
281,3142607048,0.40268832,0.61795616,-0.2567153,0.6245554,2.7732770442962646,0.9999615550041199,1.6938273906707764,25.727706909179688,12.231733322143555, 17.945819854736328
282,3142623715,0.39915222,0.61746824,-0.25585574,0.6276532,2.5367608070373535,0.9699382185935974,-0.7237858772277832,23.380435943603516,11.562804222106934, 21.397672653198242
283,3142640382,0.39515105,0.6170442,-0.25350282,0.6315445,1.9277104139328003,0.8552728295326233,-1.7049150466918945,33.359737396240234,17.9794921875, 19.1470947265625
284,3142657049,0.39117774,0.61598694,-0.25007388,0.63639855,2.1646533012390137,1.1440715789794922,-0.8133927583694458,37.855350494384766,27.865093231201172, 18.196672439575195
285,3142673716,0.3888214,0.6136109,-0.24748231,0.64113355,3.162949800491333,1.8172719478607178,-0.38780996203422546,23.578874588012695,33.702632904052734, 16.64124298095703
286,3142690383,0.38769522,0.61049724,-0.24669543,0.6450792,4.146907806396484,1.0703530311584473,-0.10590802133083344,7.103760719299316,30.922876358032227, 18.02363395690918
287,3142707050,0.38656443,0.6078759,-0.24558824,0.6486458,3.1957545280456543,0.587218165397644,0.7628430724143982,9.206589698791504,28.017986297607422, 14.864200592041016
288,3142723717,0.38474005,0.60657823,-0.24339904,0.6517631,3.260596752166748,-0.6840241551399231,0.2270597219467163,19.691537857055664,21.924102783203125, 10.001633644104004
289,3142740384,0.3837676,0.6060646,-0.2427783,0.6530443,2.408176898956299,0.15436048805713654,2.5803558826446533,8.121312141418457,8.037801742553711, 6.499783515930176
290,3142757051,0.3837556,0.6059703,-0.24295326,0.6530738,0.8444311022758484,-0.18730945885181427,2.1377017498016357,-0.4189341068267822,0.3420383930206299, 1.485863208770752
291,3142773718,0.38391143,0.6058474,-0.24191266,0.6534824,1.6919838190078735,-0.7574758529663086,-1.6240788698196411,4.913599014282227,5.447649002075195, -3.302361011505127
292,3142790385,0.38470027,0.60518026,-0.24143474,0.6538135,2.813755989074707,1.1566234827041626,-0.4568500816822052,-1.8190655708312988,7.222096920013428, -3.148928165435791
293,3142807052,0.38614145,0.60426295,-0.24294166,0.65325373,3.025402307510376,3.626457929611206,1.916856050491333,-15.608532905578613,0.5100581645965576, 0.26610976457595825
294,3142823719,0.38876924,0.60284805,-0.24632886,0.6517321,0.33194664120674133,1.9561070203781128,3.893395185470581,-31.931074142456055,-4.33162260055542, 1.1621358394622803
295,3142840386,0.39024532,0.60131496,-0.24794072,0.6516551,1.447792410850525,-1.76097571849823,-1.7467334270477295,-17.063491821289062,4.79938268661499, 3.1016433238983154
296,3142857053,0.3924788,0.5994623,-0.24913241,0.65156627,2.323982000350952,-0.07125463336706161,-0.14149132370948792,-19.18350601196289,8.695364952087402, -1.6116687059402466
297,3142873720,0.3961741,0.5977843,-0.2515866,0.64992636,3.4991490840911865,-0.871110737323761,0.7283380031585693,-33.04815673828125,0.640185534954071, -7.466311454772949
298,3142890387,0.3998344,0.5978442,-0.2529652,0.6470885,4.26356840133667,-1.5965908765792847,-0.5359678268432617,-25.419776916503906,-9.187116622924805, -18.06830406188965
299,3142907054,0.40364182,0.5993855,-0.25422174,0.6427921,4.426604747772217,0.5323385000228882,-1.5877214670181274,-23.930192947387695,-21.121679306030273, -25.9168643951416
300,3142923721,0.40671095,0.60203046,-0.2559122,0.6376946,4.2832489013671875,-1.3999838829040527,-1.9904948472976685,-21.15742301940918,-31.68571662902832, -25.0238037109375
301,3142940388,0.40703946,0.6050613,-0.25784814,0.63382506,2.2266547679901123,-3.091805934906006,0.44078412652015686,-7.649125576019287,-33.6777229309082, -9.3331937789917
302,3142957055,0.4072598,0.60663795,-0.26392242,0.6296625,3.1275174617767334,-2.966459035873413,1.859094262123108,-29.788190841674805,-40.344356536865234, 9.952719688415527
303,3142973722,0.40664023,0.608144,-0.274426,0.6240955,5.35318660736084,-8.132290840148926,-3.7566072940826416,-48.168701171875,-59.89821243286133, 28.10601234436035
304,3142990389,0.40080673,0.60946715,-0.29153246,0.61879927,7.429058074951172,-15.64305591583252,-10.302921295166016,-54.666934967041016,-86.0667495727539, 78.80249786376953
305,3143007056,0.38932738,0.6151807,-0.3085436,0.61219114,2.1031246185302734,-3.573495388031006,-8.368699073791504,-21.093778610229492,-120.77996063232422, 89.30207061767578
306,3143023723,0.37285691,0.6253008,-0.32319975,0.60458136,-0.9686924815177917,-2.6762712001800537,-5.272421836853027,19.556812286376953,-147.51358032226562, 88.24787902832031
307,3143040390,0.35975495,0.63520646,-0.33680332,0.59468704,-5.052931308746338,6.4848809242248535,-0.24560637772083282,3.780332565307617,-146.10592651367188, 64.32533264160156
308,3143057057,0.353005,0.6419842,-0.35288867,0.581991,-7.883326530456543,7.896628379821777,0.5808941721916199,-48.37897872924805,-137.06100463867188, 49.93144989013672
309,3143073724,0.34950012,0.64784735,-0.3629265,0.57133865,-8.510087013244629,10.115710258483887,6.154604434967041,-35.77717208862305,-101.92040252685547, 17.892332077026367
310,3143090391,0.34783384,0.6526535,-0.3663637,0.56465274,-7.718869686126709,8.134401321411133,5.026063442230225,-10.667265892028809,-59.9767951965332, -6.058635234832764
311,3143107058,0.34401932,0.65691435,-0.36342022,0.5639505,-6.307744026184082,4.120499134063721,6.957500457763672,37.530181884765625,-21.40601348876953, -10.304686546325684
312,3143123725,0.3400003,0.65856236,-0.3587063,0.567473,-4.337740421295166,1.9515080451965332,7.130660057067871,49.70745849609375,11.18039608001709, -0.8301407098770142
313,3143140392,0.33815724,0.656156,-0.3567541,0.57256943,-2.6231772899627686,-4.333934307098389,3.9486184120178223,23.488712310791016,32.74589538574219, 16.915847778320312
314,3143157059,0.33563888,0.6517811,-0.35371974,0.5808705,1.3806376457214355,-2.887528419494629,-0.7449536323547363,34.06924819946289,55.66746139526367, 26.7696533203125
315,3143173726,0.33588398,0.6462808,-0.35729948,0.584671,9.844072341918945,-2.6541547775268555,-3.515878677368164,-18.277795791625977,31.483816146850586, 37.59196090698242
316,3143190393,0.33396626,0.6434648,-0.35696578,0.58906287,11.156106948852539,9.518892288208008,12.367669105529785,14.713991165161133,27.15230369567871, 23.552597045898438
317,3143207060,0.3286427,0.64612055,-0.35329285,0.59135973,22.43665313720703,12.422761917114258,13.767501831054688,50.72277069091797,-5.477504730224609, 4.687314510345459
318,3143223727,0.3185685,0.65309584,-0.3480084,0.5923431,5.46185302734375,2.0977344512939453,3.4515225887298584,84.94782257080078,-37.31182098388672, 3.823765754699707
319,3143240394,0.31033167,0.6576204,-0.34358504,0.59428895,-5.068872928619385,0.6053670048713684,-6.53346586227417,70.12721252441406,-20.549510955810547, 8.21862506866455
320,3143257061,0.31024036,0.6560533,-0.347175,0.593982,-5.41888952255249,-6.001399517059326,-4.18104887008667,-17.762863159179688,-3.358691930770874, 20.719491958618164
321,3143273728,0.31039363,0.6534088,-0.34859267,0.59598315,0.06892628222703934,-3.1609480381011963,-0.9981340169906616,-6.787764549255371,16.892667770385742, 17.1467227935791
322,3143290395,0.31095952,0.65148264,-0.34624657,0.599156,4.51240873336792,-0.6582404971122742,-1.2196491956710815,11.117531776428223,28.305208206176758, -0.8200830221176147
323,3143307062,0.31112,0.6505847,-0.3407715,0.60317415,3.123351812362671,-0.5170133113861084,0.8580564856529236,30.032827377319336,33.641143798828125, -13.849791526794434
324,3143323729,0.3114045,0.64914256,-0.33396626,0.60836476,0.28438815474510193,0.4486953020095825,-0.9011009931564331,36.57583236694336,44.267120361328125, -16.566553115844727
325,3143340396,0.3145126,0.6446053,-0.3288249,0.6143616,0.9023848176002502,3.038717269897461,-2.034554958343506,12.235908508300781,63.79085922241211, -12.11932373046875
326,3143357063,0.3218028,0.6365739,-0.32568637,0.6206008,4.285348415374756,2.199712038040161,-0.7508145570755005,-21.776235580444336,84.83805084228516, -12.400359153747559
327,3143373730,0.3302839,0.6271513,-0.3213394,0.62796086,5.12512731552124,1.4048489332199097,-0.15243878960609436,-22.41483497619629,101.05351257324219, -17.128183364868164
328,3143390397,0.3413556,0.6159209,-0.3186942,0.63446987,3.0036566257476807,1.40484619140625,0.39179518818855286,-46.93341827392578,107.0605697631836, -18.897830963134766
329,3143407064,0.3581993,0.6011619,-0.3222765,0.637523,0.5625184178352356,-2.6846089363098145,1.5188692808151245,-114.41817474365234,105.84382629394531, -18.072772979736328
330,3143423731,0.37248534,0.5904077,-0.32285148,0.63909364,-0.9173830151557922,-4.675819396972656,3.575833797454834,-84.07099914550781,83.84905242919922, -31.939239501953125
331,3143440398,0.38292572,0.5851086,-0.32486764,0.6367707,-3.0036826133728027,-2.1172266006469727,5.883472442626953,-69.42958068847656,31.732894897460938, -31.448787689208984
332,3143457065,0.38822806,0.58621013,-0.33083847,0.6294305,-3.533048391342163,-0.9887481331825256,8.010905265808105,-60.40652084350586,-38.54784393310547, -20.636747360229492
333,3143473732,0.38688916,0.5933062,-0.3381113,0.6196657,-1.6476681232452393,3.5148234367370605,6.048705577850342,-28.77362060546875,-93.08631896972656, -6.799516677856445
334,3143490399,0.38454384,0.5999276,-0.35166252,0.6070802,-2.945059299468994,0.5347591638565063,2.0270986557006836,-59.254390716552734,-121.7679443359375, 16.79865837097168
335,3143507066,0.38249746,0.6059815,-0.36841673,0.5922426,-4.370730400085449,1.8806806802749634,-1.7913932800292969,-80.8098373413086,-136.44810485839844, 24.175798416137695
336,3143523733,0.37814316,0.614865,-0.38221458,0.576941,-1.6486722230911255,-1.7757874727249146,0.8303267359733582,-52.89384841918945,-147.85609436035156, 12.910537719726562
337,3143540400,0.367221,0.6290753,-0.38480452,0.5668675,-1.6237897872924805,-2.2197282314300537,2.515089750289917,46.93128204345703,-134.9713592529297, -8.889081954956055
338,3143557067,0.35387838,0.6449673,-0.37692398,0.56277496,-2.187427520751953,-0.43637406826019287,-9.78242301940918,118.29169464111328,-95.64714813232422, -34.14604949951172
339,3143573734,0.34500873,0.6565419,-0.37083215,0.5589323,2.287471294403076,0.719628632068634,-4.450133323669434,81.6746597290039,-70.21686553955078, -31.71959686279297
340,3143590401,0.34194905,0.6623677,-0.36866096,0.55536383,1.4037917852401733,-0.41797012090682983,0.8090730309486389,27.4420223236084,-41.21187973022461, -21.016674041748047
341,3143607068,0.33649248,0.66684127,-0.36300597,0.5570659,4.677998065948486,3.796489953994751,-6.441380977630615,61.841278076171875,-9.944620132446289, -11.924895286560059
342,3143623735,0.33251923,0.66808546,-0.35741475,0.5615582,4.403402328491211,6.8485283851623535,0.2745532989501953,54.2875862121582,18.96847915649414, -2.689582347869873
343,3143640402,0.33596915,0.6629363,-0.35852435,0.56489,5.76253080368042,5.876181125640869,-0.05854043364524841,-23.144983291625977,41.221893310546875, 12.677976608276367
344,3143657069,0.34478822,0.65367246,-0.36194104,0.56818336,4.274538993835449,2.0463013648986816,-1.246736764907837,-66.1823501586914,64.91036987304688, 12.539267539978027
345,3143673736,0.35452744,0.64286035,-0.3606629,0.57529426,5.039360046386719,-2.3578405380249023,-2.397942543029785,-46.16166305541992,101.55841064453125, 0.771020770072937
346,3143690403,0.36751392,0.62949264,-0.35646147,0.5844723,6.8602423667907715,0.39514851570129395,0.26082682609558105,-50.07014083862305,136.04554748535156, -13.727025032043457
347,3143707070,0.38701752,0.6118564,-0.3610201,0.5878042,3.3498167991638184,-0.3425571322441101,-5.376448631286621,-138.61705017089844,121.7083740234375, -6.337111949920654
348,3143723737,0.39774093,0.59973186,-0.3648837,0.59074855,1.8502775430679321,-2.783618688583374,-9.747060775756836,-85.16664123535156,78.00373077392578, 11.479138374328613
349,3143740404,0.39485985,0.5943792,-0.3749751,0.5917708,2.45965313911438,-12.766870498657227,-14.538432121276855,-40.65861892700195,-8.302152633666992, 70.0780258178711
350,3143757071,0.39089713,0.5965636,-0.3917067,0.5812721,-2.856666088104248,4.355501651763916,-14.094765663146973,-72.44239807128906,-106.44918823242188, 50.53883743286133
351,3143773738,0.38848123,0.60375655,-0.41575417,0.55830896,-2.489159107208252,1.0758320093154907,-11.674038887023926,-128.14968872070312,-192.7327423095703, 27.55352020263672
352,3143790405,0.38269952,0.6179054,-0.43615034,0.5305722,-5.9104838371276855,3.0893783569335938,-2.0923962593078613,-95.21172332763672,-238.848388671875, -7.244833946228027
353,3143807072,0.36945525,0.63796854,-0.43964088,0.5130448,-12.316815376281738,4.088172912597656,10.374621391296387,44.36880874633789,-194.91798400878906, -42.62678146362305
354,3143823739,0.35670412,0.6554576,-0.42996147,0.5082036,-15.868751525878906,9.205998420715332,20.06502342224121,120.46832275390625,-95.54682159423828, -62.044769287109375
355,3143840406,0.34485182,0.66647166,-0.41467556,0.51472044,-14.52766227722168,-3.2181167602539062,19.64368438720703,153.72335815429688,-5.853322982788086, -43.21288299560547
356,3143857073,0.33760333,0.6697295,-0.4011118,0.5259238,-10.015746116638184,-3.7173640727996826,8.567643165588379,121.4830322265625,51.61753845214844, -18.501235961914062
357,3143873740,0.32841566,0.6734634,-0.39154497,0.5341189,-1.239902377128601,-7.307981491088867,-17.16657066345215,108.7509536743164,21.23334312438965, -1.4990352392196655
358,3143890407,0.321158,0.675767,-0.39254245,0.5348897,7.090534687042236,-7.2823286056518555,13.024264335632324,37.77608108520508,-26.020599365234375, 27.179990768432617
359,3143907074,0.31726676,0.67544866,-0.3980343,0.5335539,5.519257545471191,-0.3439723253250122,9.357004165649414,-5.889596462249756,-27.469181060791016, 37.882972717285156
360,3143923741,0.30601224,0.681176,-0.3990546,0.53208196,23.592374801635742,8.646538734436035,14.501166343688965,57.5179328918457,-60.99928665161133, 27.286436080932617
361,3143940408,0.28791633,0.691698,-0.39721876,0.52997667,22.090089797973633,10.487217903137207,13.39452075958252,108.3770751953125,-94.86422729492188, 24.737409591674805
362,3143957075,0.27452508,0.7005733,-0.39947984,0.5236877,6.753015518188477,2.686457633972168,-1.1194902658462524,56.41341018676758,-104.53929138183594, 23.6381893157959
363,3143973742,0.2685823,0.7057367,-0.40278697,0.51726407,-5.718505382537842,-2.7390565872192383,-7.518195152282715,9.407711029052734,-73.27721405029297, 11.86884593963623
364,3143990409,0.26660278,0.7071379,-0.4016882,0.517229,-7.896088123321533,-11.03439712524414,-11.776899337768555,16.589054107666016,-9.429238319396973, -1.502186894416809
365,3144007076,0.26828268,0.7047895,-0.3950276,0.52464235,-0.015135746449232101,-6.978503704071045,-6.992707252502441,32.228939056396484,60.902496337890625, -17.897321701049805
366,3144023743,0.27475354,0.699543,-0.38675383,0.53438926,9.300752639770508,4.083374500274658,-0.0914643332362175,15.802962303161621,98.88978576660156, -31.026208877563477
367,3144040410,0.28579757,0.6913925,-0.38108072,0.5432068,12.613465309143066,6.162952423095703,2.367231845855713,-23.68330192565918,112.27667236328125, -29.219030380249023
368,3144057077,0.29788578,0.6819893,-0.37520117,0.552611,10.531181335449219,3.4491283893585205,1.4166498184204102,-28.78326416015625,122.73430633544922, -29.482406616210938
369,3144073744,0.31445152,0.6695612,-0.3701048,0.5619882,11.334554672241211,2.5158724784851074,7.722216606140137,-59.01980209350586,143.96347045898438, -34.990142822265625
370,3144090411,0.3389403,0.65089375,-0.37478647,0.5665616,4.241441249847412,0.2975579500198364,9.590221405029297,-159.01553344726562,144.71603393554688, -15.068766593933105
371,3144107078,0.35927615,0.6360731,-0.3848207,0.5641319,-6.1913275718688965,-4.796375274658203,4.523751735687256,-170.36215209960938,74.93201446533203, -1.2348109483718872
372,3144123745,0.3666931,0.6330907,-0.39158234,0.5580286,-8.750090599060059,-10.28957462310791,-0.06609689444303513,-81.62499237060547,-13.206791877746582, -6.028645038604736
373,3144140412,0.36687702,0.6370282,-0.40188152,0.5459742,-5.6102986335754395,-4.737401962280273,-7.964170932769775,-62.28232955932617,-93.95016479492188, 3.1707959175109863
374,3144157079,0.3647851,0.6418512,-0.4214498,0.52662975,-6.117698669433594,-4.9987006187438965,-6.078948020935059,-105.04527282714844,-158.5542449951172, 31.347591400146484
375,3144173746,0.3540499,0.64986986,-0.43258056,0.514968,-13.344654083251953,1.8560487031936646,3.7558422088623047,-6.089738368988037,-139.83189392089844, 35.29426956176758
376,3144190413,0.3406858,0.6572285,-0.43240255,0.5147931,-19.35922622680664,7.2188286781311035,19.129222869873047,78.24503326416016,-66.46167755126953, 24.094316482543945
377,3144207080,0.33159328,0.6601067,-0.42338675,0.52445114,-21.62718391418457,7.384979724884033,20.91657066345215,108.96959686279297,26.823678970336914, 5.6507391929626465
378,3144223747,0.32825875,0.6584743,-0.40777418,0.54072,-16.03234100341797,2.804428815841675,-7.6861138343811035,115.59733581542969,104.48721313476562, -16.59030532836914
379,3144240414,0.31216913,0.67116404,-0.4049161,0.5367798,8.405211448669434,-13.300344467163086,-67.20549774169922,101.60831451416016,-104.39911651611328, 2.9105184078216553
380,3144257081,0.2980897,0.67971766,-0.40340325,0.5351562,-4.262949466705322,-4.9706926345825195,31.626379013061523,84.96649932861328,-73.73906707763672, 17.77410888671875
381,3144273748,0.28429857,0.68759227,-0.404796,0.5315369,17.339792251586914,3.0139095783233643,0.10060171782970428,65.94933319091797,-86.69941711425781, 27.9482421875
382,3144290415,0.27134487,0.6975638,-0.40657073,0.5239057,27.513154983520508,15.279932022094727,10.425077438354492,53.52867889404297,-111.89836883544922, 13.139643669128418
383,3144307082,0.25730595,0.7062754,-0.40674394,0.5191609,19.38258934020996,8.658384323120117,6.591548919677734,70.2638168334961,-94.10302734375, 18.769798278808594
384,3144323749,0.24969545,0.7115384,-0.4093704,0.5135964,5.876798629760742,0.729236364364624,-3.99747633934021,21.92592430114746,-72.47872924804688, 16.20592498779297
385,3144340416,0.25022355,0.71262705,-0.40969434,0.51156765,-1.5870112180709839,-4.877723693847656,-11.148045539855957,-6.961038112640381,-13.480051040649414, -5.972847938537598
386,3144357083,0.25590762,0.7091387,-0.40550047,0.5169169,1.598747968673706,-6.212072372436523,-7.317750453948975,-3.4354448318481445,61.44287872314453, -20.826448440551758
387,3144373750,0.2684555,0.7008172,-0.40046537,0.5257514,8.905181884765625,-1.5916112661361694,-2.140245199203491,-32.72525405883789,116.44957733154297, -29.910415649414062
388,3144390417,0.2889058,0.68769234,-0.39849427,0.53368056,11.087248802185059,3.0611307621002197,3.549847364425659,-93.25582885742188,145.54464721679688, -32.202579498291016
389,3144407084,0.31476155,0.6700345,-0.3969286,0.5426111,8.435346603393555,0.9305379390716553,6.681826114654541,-126.57545471191406,180.73040771484375, -35.633846282958984
390,3144423751,0.33890373,0.65224504,-0.40042022,0.5471603,-0.06626392155885696,-3.483243942260742,5.727102756500244,-149.80126953125,145.15093994140625, -15.067778587341309
391,3144440418,0.35233164,0.6417828,-0.40570137,0.54715973,-7.005760192871094,-5.343379020690918,-0.9483914375305176,-103.9273910522461,63.34938430786133, 2.3479299545288086
392,3144457085,0.35553277,0.6415055,-0.4117061,0.5408931,-7.9222493171691895,-3.695218324661255,-5.615778923034668,-54.32277297973633,-32.78976821899414, 0.24965694546699524
393,3144473752,0.34837705,0.6465111,-0.41320306,0.5384425,-10.646142959594727,-4.330922603607178,5.251947402954102,31.83869171142578,-53.64996337890625, 13.157414436340332
394,3144490419,0.3413386,0.64773107,-0.40988427,0.5439923,-16.38560676574707,4.438217639923096,12.102072715759277,62.801002502441406,7.706374645233154, 21.127216339111328
395,3144507086,0.3406624,0.6433491,-0.40368375,0.5541575,-16.6147518157959,5.613639831542969,9.845324516296387,45.10045623779297,73.64944458007812, 11.276105880737305
396,3144523753,0.35102865,0.63357854,-0.40120447,0.560707,-14.682394027709961,6.869780540466309,7.884846210479736,-40.58610534667969,99.94552612304688, -7.6807451248168945
397,3144540420,0.36328632,0.62333834,-0.4041392,0.56226677,-10.9456205368042,0.28727227449417114,-6.635092735290527,-84.60953521728516,72.04019165039062, -1.958009958267212
398,3144557087,0.36470795,0.6229698,-0.4107528,0.55693716,-11.417941093444824,-10.496391296386719,-41.956764221191406,-46.86870574951172,-34.643985748291016, 11.044659614562988
399,3144573754,0.33994988,0.6439353,-0.40599355,0.5522235,3.4310593605041504,2.638554334640503,-0.8753529787063599,164.13162231445312,-157.751220703125, 3.5591444969177246
400,3144590421,0.3220877,0.6571803,-0.40671393,0.54677,4.345668315887451,1.0751523971557617,11.815415382385254,92.66022491455078,-125.27643585205078, 21.52382469177246
401,3144607088,0.30812725,0.66903174,-0.41187042,0.53648585,15.533676147460938,2.7767274379730225,-0.4010782539844513,41.74143981933594,-141.197998046875, 20.1333065032959
402,3144623755,0.29141793,0.6801328,-0.4110217,0.5324999,20.33041000366211,0.24562129378318787,8.28518295288086,92.78602600097656,-104.61638641357422, 18.21099090576172
403,3144640422,0.2812716,0.68725187,-0.41644835,0.52453977,18.816959381103516,12.463048934936523,7.0991740226745605,19.89069175720215,-103.05661010742188, 26.850345611572266
404,3144657089,0.27573767,0.69162476,-0.4239943,0.5156093,1.3383288383483887,1.1529265642166138,-6.041831016540527,-17.60982322692871,-88.9820556640625, 26.59750747680664
405,3144673756,0.27453485,0.6918644,-0.4263928,0.51394904,-4.219612121582031,-4.37332010269165,-11.225263595581055,-6.582525253295898,-17.168092727661133, 12.606148719787598
406,3144690423,0.2823514,0.6861648,-0.42858207,0.51553184,-0.13730868697166443,-7.188776969909668,-7.397724151611328,-50.44974899291992,46.48005294799805, 3.1156632900238037
407,3144707090,0.29444453,0.67835253,-0.42749688,0.51998746,8.52573013305664,-4.2315497398376465,-1.2919414043426514,-54.674556732177734,86.70548248291016, -15.909148216247559
408,3144723757,0.30870602,0.6702,-0.42480546,0.52447414,14.061305046081543,2.7874581813812256,4.76021671295166,-59.659053802490234,97.64636993408203, -30.20320701599121
409,3144740424,0.32291228,0.6624129,-0.42000914,0.52965015,10.184287071228027,4.502810955047607,4.915863037109375,-49.029823303222656,103.54471588134766, -39.21382522583008
410,3144757091,0.33988315,0.6517323,-0.41370898,0.5371865,6.381175518035889,4.908205509185791,7.0743255615234375,-55.7573127746582,135.9398956298828, -42.408660888671875
411,3144773758,0.35704535,0.6395152,-0.4123273,0.5417795,-2.889188289642334,0.5826522707939148,2.544708490371704,-86.75341033935547,117.23096466064453, -23.462434768676758
412,3144790425,0.36396337,0.6349854,-0.4098788,0.54435635,-8.97366714477539,-4.428293704986572,-6.401383399963379,-24.579572677612305,53.26557922363281, -16.745046615600586
413,3144807092,0.36003885,0.63948935,-0.40311322,0.54674083,-9.656095504760742,1.0292071104049683,-9.113480567932129,60.98713684082031,-0.861892819404602, -21.087488174438477
414,3144823759,0.35594955,0.64369327,-0.40243158,0.5449845,-9.970836639404297,0.24041171371936798,-5.160532474517822,26.623870849609375,-33.1059684753418, -3.1068274974823
415,3144840426,0.35411772,0.6469861,-0.4030294,0.54182726,-14.804269790649414,2.246049642562866,3.4601874351501465,5.734737396240234,-32.56361389160156, -6.8060760498046875
416,3144857093,0.35442373,0.6497914,-0.40081638,0.5399086,-15.737861633300781,1.2713695764541626,7.400588512420654,8.939387321472168,-12.510171890258789, -22.841402053833008
417,3144873760,0.36086762,0.6496436,-0.4003368,0.5361607,-13.337920188903809,3.2496683597564697,8.755278587341309,-37.154109954833984,2.813650608062744, -34.16501998901367
418,3144890427,0.36243775,0.64983886,-0.39865056,0.53612155,-10.441368103027344,-7.8794965744018555,-2.051379680633545,0.12369020283222198,7.487935543060303, -13.237831115722656
419,3144907094,0.3469064,0.6601021,-0.39258993,0.5383255,-4.004404067993164,-12.5690279006958,-29.26535415649414,123.90461730957031,-55.44290542602539, 8.016176223754883
420,3144923761,0.32802916,0.67360395,-0.38713703,0.53738236,7.019787788391113,1.521356463432312,10.390202522277832,136.0595245361328,-91.24893188476562, 6.50952672958374
421,3144940428,0.31793493,0.67889863,-0.39190242,0.53331673,6.149197578430176,-2.039613962173462,4.885900974273682,30.802663803100586,-75.46308135986328, 36.22517776489258
422,3144957095,0.30783984,0.68485105,-0.39526463,0.529131,25.864891052246094,6.727492809295654,11.011198043823242,37.06502151489258,-75.58858489990234, 27.58723258972168
423,3144973762,0.29579276,0.69212717,-0.39658377,0.52553606,19.430721282958984,11.364356994628906,7.3212571144104,58.104244232177734,-79.1600112915039, 22.933107376098633
424,3144990429,0.28727543,0.6973343,-0.39668092,0.5232993,4.952164649963379,1.1220487356185913,-5.7106523513793945,45.23945999145508,-53.48179244995117, 13.118910789489746
425,3145007096,0.2855236,0.697501,-0.3952511,0.5251144,-3.3643741607666016,-2.8572638034820557,-9.685717582702637,19.395414352416992,5.71973991394043, 3.230553388595581
426,3145023763,0.2948018,0.6906485,-0.39542538,0.5289005,-0.10465127974748611,-5.232576847076416,-7.464064121246338,-47.723411560058594,67.69903564453125, -6.060240268707275
427,3145040430,0.31161764,0.6780301,-0.3961717,0.53499305,6.489993095397949,-2.5087716579437256,-3.466547727584839,-91.0297622680664,119.20170593261719, -10.568140983581543
428,3145057097,0.33344567,0.66105705,-0.3948072,0.5440081,11.447977066040039,0.9287765622138977,3.0577685832977295,-108.01132202148438,167.08633422851562, -20.79798698425293
429,3145073764,0.357565,0.64256155,-0.3963013,0.54973376,7.047630310058594,2.2829816341400146,3.5974044799804688,-141.54348754882812,157.32015991210938, -19.761024475097656
430,3145090431,0.37493265,0.6283018,-0.3981544,0.55329514,-1.3432650566101074,-1.314080834388733,-0.4104563295841217,-108.54570770263672,112.30549621582031, -9.463133811950684
431,3145107098,0.38218528,0.6223675,-0.40002126,0.5536932,-6.792418479919434,-0.058418355882167816,-9.324819564819336,-52.09054183959961,39.26602554321289, -1.9130666255950928
432,3145123765,0.3810991,0.62463546,-0.41107896,0.54369867,-5.888619899749756,-4.3616943359375,-17.954925537109375,-58.43043899536133,-83.186767578125, 19.302066802978516
433,3145140432,0.3678533,0.63864714,-0.41784376,0.5312443,-9.691926956176758,1.1606687307357788,-4.159610748291016,33.671875,-160.1960906982422, 6.567454814910889
434,3145157099,0.3490352,0.65804005,-0.41936705,0.5189309,-11.272382736206055,-0.704809308052063,0.3199777901172638,91.30411529541016,-181.85533142089844, -11.168041229248047
435,3145173766,0.32877684,0.67674047,-0.41195825,0.51402193,-14.533476829528809,7.913820266723633,14.425893783569336,149.37477111816406,-128.58038330078125, -26.716066360473633
436,3145190433,0.3190066,0.68586093,-0.40779778,0.5114007,-16.216638565063477,-0.4094544053077698,14.397989273071289,73.9117660522461,-62.07585525512695, -16.13041114807129
437,3145207100,0.3086331,0.6898011,-0.3992917,0.519121,-12.193181991577148,-2.2166495323181152,-6.082551002502441,109.6726303100586,12.4193696975708, 2.6952059268951416
438,3145223767,0.29662,0.69504476,-0.3967923,0.5210424,5.197675704956055,-7.117112636566162,-12.907188415527344,82.84906768798828,-36.69596862792969, 21.074392318725586
439,3145240434,0.2907499,0.6946224,-0.39953738,0.52281404,3.2515289783477783,-3.629322052001953,12.129143714904785,22.730693817138672,-10.72081470489502, 39.058719635009766
440,3145257101,0.2834228,0.695181,-0.40560344,0.5214218,18.426618576049805,0.25847262144088745,14.861560821533203,11.014761924743652,-40.43766403198242, 51.04065704345703
441,3145273768,0.27072716,0.70252824,-0.40651384,0.51759785,30.27992057800293,15.225441932678223,15.982132911682129,61.58966827392578,-81.96945190429688, 22.013885498046875
442,3145290435,0.25718817,0.7113204,-0.4062754,0.5126577,14.392120361328125,6.1749491691589355,3.1159632205963135,69.34663391113281,-93.48915100097656, 13.85909366607666
443,3145307102,0.25260395,0.715654,-0.4074389,0.5079608,2.8448679447174072,-0.7895634174346924,-7.653017044067383,13.42503833770752,-54.238189697265625, 2.238760471343994
444,3145323769,0.25701973,0.71419626,-0.4072833,0.50792235,-3.412747383117676,-6.1288628578186035,-10.510641098022461,-23.251821517944336,16.666488647460938, -11.411903381347656
445,3145340436,0.26594287,0.7084571,-0.40374058,0.5141563,0.8983927369117737,-6.918394088745117,-8.380480766296387,-23.572336196899414,81.42609405517578, -20.920427322387695
446,3145357103,0.2778367,0.70013595,-0.39810982,0.52356964,8.138924598693848,-1.3623836040496826,0.0482085719704628,-26.573259353637695,118.37996673583984, -28.82765769958496
447,3145373770,0.29531756,0.68906784,-0.39656472,0.52982056,9.364901542663574,3.1753790378570557,6.361715316772461,-82.08261108398438,120.46654510498047, -27.83448028564453
448,3145390437,0.31356707,0.6776825,-0.395639,0.5346889,6.7152886390686035,1.8850566148757935,8.065481185913086,-92.38977813720703,115.64156341552734, -29.557147979736328
449,3145407104,0.33168074,0.6647857,-0.3965978,0.5392199,0.9403659105300903,0.6058076620101929,9.320374488830566,-102.85819244384766,114.91104888916016, -16.864524841308594
450,3145423771,0.34353507,0.6561172,-0.40101328,0.53914964,-7.402599811553955,-1.3133625984191895,3.47318172454834,-89.96147155761719,52.97826385498047, 0.09925942867994308
451,3145440438,0.34533682,0.6558539,-0.4017825,0.5377446,-9.375388145446777,-3.3284056186676025,-4.410854816436768,-14.920103073120117,-3.320612668991089, -5.469391822814941
452,3145457105,0.34106487,0.6605955,-0.399805,0.53613865,-11.09262466430664,0.8182206749916077,-8.059917449951172,33.956180572509766,-32.734413146972656, -9.791238784790039
453,3145473772,0.3389979,0.6637813,-0.4028588,0.531206,-12.622271537780762,0.5743011236190796,-4.888889789581299,-7.4007463455200195,-47.474727630615234, 1.4452531337738037
454,3145490439,0.3401547,0.6648622,-0.40627223,0.52649415,-15.481972694396973,4.958637714385986,4.779222011566162,-27.72465705871582,-30.420804977416992, -2.3156962394714355
455,3145507106,0.34192488,0.6640333,-0.40823403,0.5248735,-14.341081619262695,-2.019498348236084,10.62747573852539,-21.10706329345703,-4.3003668785095215, 1.5491546392440796
456,3145523773,0.3344402,0.66868186,-0.40858942,0.52351624,-10.18143367767334,-7.9196038246154785,-29.231618881225586,40.560882568359375,-45.28611755371094, 12.803482055664062
457,3145540440,0.3090634,0.6863471,-0.39931807,0.5234048,0.4235644042491913,2.244081735610962,-5.140963077545166,190.92286682128906,-113.52517700195312, -1.0002472400665283
458,3145557107,0.29156488,0.6959914,-0.3992481,0.5207561,2.727292060852051,-4.352320671081543,12.087418556213379,96.59832000732422,-94.40876770019531, 30.751266479492188
459,3145573774,0.2790024,0.702661,-0.40448827,0.51460147,10.951797485351562,2.815812826156616,0.10166752338409424,38.364017486572266,-98.06432342529297, 39.50078582763672
460,3145590441,0.26978955,0.70857406,-0.40881318,0.5079451,6.603084564208984,1.5421329736709595,-0.1447182595729828,22.574832916259766,-86.85713195800781, 24.469820022583008
461,3145607108,0.25584236,0.7143768,-0.40796757,0.5077137,15.219322204589844,0.8044478893280029,5.958910942077637,81.55533599853516,-58.95493698120117, 28.10031509399414
462,3145623775,0.24735911,0.7189832,-0.40821537,0.5052098,15.735344886779785,5.815732955932617,5.356567859649658,42.41327667236328,-52.887386322021484, 13.81166934967041
463,3145640442,0.24460441,0.7216973,-0.4078582,0.5029646,6.390564441680908,3.797412395477295,-6.705300807952881,13.719521522521973,-28.25477409362793, -3.1238768100738525
464,3145657109,0.24697886,0.720727,-0.4059883,0.5047055,5.097171306610107,-2.3334760665893555,-4.875089168548584,-1.4943888187408447,21.351818084716797, -11.2185640335083
465,3145673776,0.2551774,0.7159335,-0.4040242,0.50900716,9.664363861083984,-2.972944736480713,-0.02761898934841156,-29.379751205444336,63.836151123046875, -16.95038604736328
466,3145690443,0.26982656,0.7073142,-0.40416044,0.51337594,15.237062454223633,0.21590548753738403,5.4250569343566895,-75.02457427978516,91.70071411132812, -18.531383514404297
467,3145707110,0.28978115,0.6965797,-0.40589753,0.5158013,10.804744720458984,-0.22339662909507751,8.455523490905762,-115.81050109863281,101.1802749633789, -27.205507278442383
468,3145723777,0.31201145,0.6831889,-0.40671912,0.52007824,4.555970668792725,-0.5605647563934326,9.061911582946777,-123.59075927734375,127.31389617919922, -28.605701446533203
469,3145740444,0.32688305,0.67406434,-0.40689647,0.5227046,-5.695193767547607,-5.365509510040283,-3.0691866874694824,-82.16958618164062,84.82926177978516, -20.849231719970703
470,3145757111,0.32999772,0.6727356,-0.40128458,0.526782,-9.96735668182373,-1.8833822011947632,-10.91796588897705,14.71552848815918,43.8641357421875, -24.142045974731445
471,3145773778,0.33354422,0.67032737,-0.3999642,0.5286191,-10.67203426361084,-0.5099762678146362,-6.450232982635498,-11.45299243927002,29.34185791015625, -8.00252628326416
472,3145790445,0.3356558,0.665657,-0.3977814,0.5347955,-15.296805381774902,3.640430212020874,3.3666155338287354,5.038222789764404,55.90928649902344, 9.40989875793457
473,3145807112,0.33450076,0.6614612,-0.39326328,0.5439875,-16.51504135131836,-4.435262203216553,4.692526817321777,37.91411590576172,64.43814849853516, 16.52322769165039
474,3145823779,0.3301908,0.6598606,-0.38757697,0.5525779,-12.596809387207031,-2.2682619094848633,3.90519118309021,60.98110580444336,46.12275314331055, 14.497486114501953
475,3145840446,0.32960105,0.65984654,-0.3852815,0.5545486,-12.392148971557617,1.6669095754623413,-4.845792293548584,17.186321258544922,12.241744041442871, -3.5567901134490967
476,3145857113,0.33534995,0.65786624,-0.39186275,0.54881334,-11.238409042358398,-0.005525408312678337,-0.2613014876842499,-70.2903823852539,-18.30011558532715, 0.3502281904220581
477,3145873780,0.3290886,0.66345555,-0.40343967,0.53736776,-5.022832870483398,-9.777902603149414,-34.74797058105469,-32.754478454589844,-116.4893798828125, 34.71217346191406
478,3145890447,0.31028634,0.67844164,-0.4057672,0.5280079,0.8484656810760498,12.262723922729492,9.13880443572998,85.68903350830078,-154.4062957763672, 17.222959518432617
479,3145907114,0.29482472,0.68943894,-0.40944758,0.51971626,2.710638999938965,6.724132061004639,4.018683433532715,59.654396057128906,-128.8427734375, 25.175973892211914
480,3145923781,0.27568972,0.7003032,-0.41030946,0.51499224,15.305787086486816,-2.539757251739502,6.453394889831543,96.92452239990234,-116.25909423828125, 32.741207122802734
481,3145940448,0.2560731,0.70937574,-0.4098533,0.5130622,24.514440536499023,-1.6898691654205322,9.866395950317383,108.38636779785156,-95.69373321533203, 38.38357162475586
482,3145957115,0.24754862,0.71397793,-0.4163294,0.5055939,17.583087921142578,10.41580581665039,6.886721611022949,6.323331832885742,-88.45779418945312, 35.905548095703125
483,3145973782,0.24223423,0.7190553,-0.41947573,0.49831933,5.01284122467041,2.140434980392456,-5.864384174346924,3.5255494117736816,-74.69889068603516, 7.713334560394287
484,3145990449,0.237207,0.7224351,-0.41429684,0.50017864,0.35247084498405457,-7.381244659423828,-9.72266674041748,54.16748046875,-8.874080657958984, -14.261143684387207
485,3146007116,0.2412124,0.719751,-0.4100054,0.5056391,2.3694558143615723,-4.106119155883789,-6.773441314697266,6.6003098487854,54.47268295288086, -18.000802993774414
486,3146023783,0.2547597,0.7115428,-0.4087317,0.51160806,9.00686264038086,-1.1573734283447266,-1.9407984018325806,-58.84821319580078,98.2839584350586, -19.95111846923828
487,3146040450,0.27309418,0.70021427,-0.40712726,0.51900595,11.636502265930176,2.402763605117798,2.765028715133667,-82.562744140625,130.2491455078125, -27.16366958618164
488,3146057117,0.29254168,0.6877747,-0.4020426,0.52891123,8.579948425292969,3.2275564670562744,5.253361701965332,-70.57199096679688,155.73538208007812, -39.998870849609375
489,3146073784,0.31619832,0.6713745,-0.4012756,0.5368919,1.4307161569595337,1.9468964338302612,6.9699249267578125,-119.47842407226562,163.7611846923828, -27.731876373291016
490,3146090451,0.33282802,0.6583759,-0.4025539,0.5419569,-6.804239273071289,-2.2998435497283936,-2.409672975540161,-95.23875427246094,113.68672180175781, -8.052452087402344
491,3146107118,0.34046346,0.6526154,-0.40287095,0.54394186,-9.267454147338867,-0.6180784702301025,-6.573740005493164,-42.894893646240234,50.233367919921875, -6.064131259918213
492,3146123785,0.34729037,0.649555,-0.40849376,0.5390739,-11.26286792755127,0.7651252746582031,-7.5873003005981445,-71.77025604248047,-4.975025653839111, -2.780437707901001
493,3146140452,0.3517734,0.64894795,-0.41577244,0.53127706,-12.25301742553711,1.7725653648376465,-4.255588054656982,-69.80712890625,-37.359275817871094, -0.5623520016670227
494,3146157119,0.3511876,0.6511642,-0.41928062,0.52617145,-15.268696784973145,-0.6775539517402649,2.950110912322998,-18.896093368530273,-40.823307037353516, -0.3797750174999237
495,3146173786,0.34527364,0.65723395,-0.41734734,0.5240715,-13.988387107849121,0.5684081315994263,3.969630718231201,42.6158447265625,-43.531005859375, -9.338655471801758
496,3146190453,0.33798188,0.6648843,-0.41294864,0.5226571,-11.537575721740723,0.5411298274993896,4.392563819885254,63.446346282958984,-44.26523208618164, -18.4088077545166
497,3146207120,0.32525057,0.6754784,-0.4094014,0.5199345,-8.527409553527832,-6.033114433288574,-18.52071762084961,88.3834228515625,-78.30523681640625, -6.35377311706543
498,3146223787,0.30627197,0.68957216,-0.40983415,0.5125659,1.450171947479248,-1.7323335409164429,-1.4346234798431396,97.926513671875,-138.2352294921875, 14.027473449707031
499,3146240454,0.29057562,0.69834656,-0.41231567,0.5078127,4.113547325134277,1.4462041854858398,5.192095756530762,71.30973052978516,-102.14513397216797, 32.6028938293457
500,3146257121,0.27985957,0.7039854,-0.4195579,0.5000547,7.2138800621032715,2.245954990386963,5.412941932678223,15.994109153747559,-101.24705505371094, 41.00020980834961
501,3146273788,0.26702958,0.70913494,-0.4235337,0.49642953,11.43402099609375,-3.107069253921509,3.3172013759613037,48.44211196899414,-79.63524627685547, 41.89079666137695
502,3146290455,0.25399253,0.7137133,-0.42336997,0.4968493,16.877573013305664,1.6337186098098755,2.8749654293060303,74.29547119140625,-51.20807647705078, 31.42475128173828
503,3146307122,0.24836183,0.71545136,-0.42529988,0.4955461,15.925058364868164,7.058103084564209,3.7697839736938477,20.816829681396484,-32.344383239746094, 21.739059448242188
504,3146323789,0.24889234,0.71523297,-0.427799,0.49343947,9.19225788116455,3.467111825942993,-3.3956127166748047,-17.106292724609375,-12.883493423461914, 8.130741119384766
505,3146340456,0.25408223,0.7124882,-0.42787305,0.49469942,5.244171619415283,-0.6093226075172424,-5.57675313949585,-26.19906997680664,30.10683822631836, -6.307470321655273
506,3146357123,0.26468477,0.7065252,-0.42599913,0.49928835,5.158337593078613,-2.6405885219573975,-3.0728516578674316,-41.917823791503906,76.8118896484375, -19.003890991210938
507,3146373790,0.2814129,0.6969895,-0.42335308,0.5057516,7.482010364532471,-1.5155446529388428,-0.041448600590229034,-70.05023193359375,117.57917022705078, -29.99800682067871
508,3146390457,0.30342913,0.6842277,-0.4210621,0.51231855,7.200296878814697,0.8585843443870544,3.998138666152954,-102.58234405517578,143.9356689453125, -37.15263748168945
509,3146407124,0.33134907,0.66532665,-0.4229185,0.51835144,2.619509220123291,0.6278213858604431,5.480668544769287,-159.3439483642578,171.31678771972656, -21.783512115478516
510,3146423791,0.35267764,0.64991933,-0.42351523,0.5233147,-6.275728225708008,-0.6748733520507812,-1.3397367000579834,-119.84344482421875,137.48170471191406, -16.673803329467773
511,3146440458,0.36150357,0.64377844,-0.42162254,0.5264019,-9.493759155273438,-1.4697716236114502,-9.046234130859375,-37.99723434448242,65.49430084228516, -14.385302543640137
512,3146457125,0.36497974,0.6430491,-0.4237505,0.52317595,-9.259618759155273,2.476360559463501,-8.424201965332031,-33.712982177734375,-7.153504848480225, -8.648883819580078
513,3146473792,0.3651913,0.64592916,-0.4334375,0.51141274,-8.9620361328125,-0.8733303546905518,-12.111926078796387,-62.29026794433594,-86.0202407836914, 4.654095649719238
514,3146490459,0.3592706,0.65550995,-0.4413271,0.4964494,-11.874423027038574,0.81089848279953,-2.1760506629943848,-21.43894386291504,-137.109130859375, -9.786869049072266
515,3146507126,0.34831014,0.6696559,-0.44266665,0.48403218,-14.157121658325195,0.20316027104854584,7.879140853881836,42.64185333251953,-140.18771362304688, -29.64082145690918
516,3146523793,0.33474672,0.68630576,-0.4340575,0.4780408,-12.871845245361328,6.303375244140625,13.657522201538086,113.29627990722656,-103.17390441894531, -59.01593017578125
517,3146540460,0.3294678,0.6954704,-0.4280948,0.4738213,-11.935574531555176,-0.8078168630599976,10.089028358459473,53.574501037597656,-51.8780517578125, -47.146728515625
518,3146557127,0.29962376,0.71227884,-0.415678,0.47968346,-4.375161647796631,-9.142294883728027,-32.06206512451172,239.1123046875,-86.44849395751953, 2.339606523513794
519,3146573794,0.27773,0.7248998,-0.4121042,0.4770289,4.560282230377197,-0.8093708157539368,7.798537731170654,137.95936584472656,-108.78765106201172, 13.521340370178223
520,3146590461,0.26759782,0.7293506,-0.4182447,0.47064912,3.730045795440674,0.3467552065849304,3.7385761737823486,21.318405151367188,-86.10853576660156, 39.35738754272461
521,3146607128,0.26587933,0.72891647,-0.43224937,0.45951027,8.900693893432617,-4.330744743347168,6.692899703979492,-68.98654174804688,-84.63041687011719, 56.87401580810547
522,3146623795,0.2534525,0.73289776,-0.43445706,0.45811552,18.625036239624023,0.8214234709739685,3.795984983444214,58.96451950073242,-60.34264373779297, 36.15007400512695
523,3146640462,0.24177477,0.7372497,-0.43247843,0.4593152,19.3587646484375,4.575294017791748,3.528076171875,76.76949310302734,-39.29068374633789, 16.158987045288086
524,3146657129,0.23938732,0.7378939,-0.4346484,0.45747945,11.546878814697266,3.920814037322998,-0.41134005784988403,1.405199408531189,-22.61720848083496, 13.991426467895508
525,3146673796,0.2432892,0.73609567,-0.43663305,0.4564268,7.524393081665039,-0.6443849205970764,-3.057199239730835,-31.5799503326416,8.00236701965332, 1.9763026237487793
526,3146690463,0.25157192,0.7317967,-0.4351377,0.46026143,6.197382926940918,-2.2193737030029297,-2.9083590507507324,-32.34588623046875,59.5631103515625, -13.724617004394531
527,3146707130,0.26540777,0.72484225,-0.43121308,0.46713814,5.26597261428833,-2.253227949142456,-3.006701707839966,-48.101383209228516,104.11473846435547, -30.38751792907715
528,3146723797,0.28416812,0.7152213,-0.42694443,0.47479013,5.636233806610107,-3.0098698139190674,1.0155036449432373,-74.11344146728516,131.82135009765625, -38.67708969116211
529,3146740464,0.30537012,0.7036268,-0.42242172,0.48292696,4.90818452835083,-2.8366332054138184,3.5866270065307617,-87.72581481933594,148.24310302734375, -41.262428283691406
530,3146757131,0.32814842,0.6890882,-0.41802415,0.49267823,1.5929815769195557,-2.542041063308716,7.871879577636719,-97.25051879882812,170.0213623046875, -34.055850982666016
531,3146773798,0.34581068,0.67613006,-0.41844764,0.4981614,-6.652217864990234,-5.288825035095215,-1.3314917087554932,-98.01789093017578,118.63892364501953, -8.15157699584961
532,3146790465,0.3500325,0.67180604,-0.41733462,0.5019819,-9.503989219665527,-2.501315116882324,-5.990772247314453,-14.515504837036133,46.46830749511719, 1.8014777898788452
533,3146807132,0.35131612,0.66981614,-0.42070138,0.50093293,-9.368148803710938,-0.955535888671875,-5.797146320343018,-24.766042709350586,-2.9816343784332275, 14.175884246826172
534,3146823799,0.34287003,0.6713464,-0.42069033,0.5047316,-11.56287956237793,1.2639747858047485,-0.683445155620575,54.18962478637695,-12.482841491699219, 33.66480255126953
535,3146840466,0.33493522,0.67403245,-0.4203416,0.50676596,-14.149748802185059,1.796495795249939,0.8903876543045044,50.61446762084961,-22.236434936523438, 22.901826858520508
536,3146857133,0.3277687,0.6775594,-0.4192134,0.50768214,-14.470232009887695,3.317413568496704,7.227053165435791,48.46861267089844,-26.236854553222656, 11.68918514251709
537,3146873800,0.326421,0.6792423,-0.42189714,0.5040656,-12.391406059265137,1.5364183187484741,4.537435054779053,-9.167577743530273,-32.83190155029297, 4.354170322418213
538,3146890467,0.32195938,0.6835398,-0.4223177,0.5007629,-10.803832054138184,-1.833824872970581,-15.68065357208252,19.993892669677734,-44.40281295776367, -2.2443699836730957
539,3146907134,0.29890648,0.6994414,-0.4196628,0.49529764,1.491649866104126,-1.3014202117919922,-14.90800952911377,137.373779296875,-141.11117553710938, 8.780590057373047
540,3146923801,0.28050274,0.7096461,-0.42104626,0.4903476,1.472075343132019,5.038943290710449,8.172104835510254,91.02637481689453,-113.67754364013672, 29.807966232299805
541,3146940468,0.2667725,0.71731776,-0.4258109,0.48267248,7.362687110900879,4.644634246826172,3.252493143081665,44.05622863769531,-111.72028350830078, 32.77210998535156
542,3146957135,0.255835,0.7221868,-0.43088466,0.47679472,13.102578163146973,-2.2721681594848633,3.3505449295043945,29.391700744628906,-86.1501235961914, 36.66947937011719
543,3146973802,0.24374284,0.726283,-0.43291795,0.4750626,16.426679611206055,0.13694387674331665,7.945627212524414,56.000179290771484,-61.387939453125, 34.8891487121582
544,3146990469,0.23718767,0.72965336,-0.4359768,0.4703958,15.253311157226562,8.477863311767578,3.7551379203796387,15.032920837402344,-59.37049865722656, 19.204200744628906
545,3147007136,0.23548417,0.7317221,-0.43748367,0.46662402,6.538819789886475,1.4558303356170654,-5.605337619781494,-3.6965172290802,-33.904170989990234, 1.36034095287323
546,3147023803,0.2379711,0.7310542,-0.4353896,0.4683646,4.902496814727783,-3.6192450523376465,-6.215527534484863,-1.0622889995574951,21.14221954345703, -13.00167465209961
547,3147040470,0.2478393,0.7264749,-0.4339811,0.47166768,7.885379791259766,-3.6569762229919434,-1.8587886095046997,-42.10591506958008,62.70123291015625, -19.171606063842773
548,3147057137,0.2633006,0.7192584,-0.43447483,0.47389036,11.958192825317383,-1.5313457250595093,2.779204845428467,-83.9483871459961,79.26789093017578, -21.891332626342773
549,3147073804,0.28186432,0.7105755,-0.43482855,0.47598228,10.43956470489502,0.9245670437812805,7.10833740234375,-101.88955688476562,92.69849395751953, -28.605331420898438
550,3147090471,0.30018133,0.7016259,-0.42928874,0.48303592,5.811069488525391,1.4477009773254395,10.559633255004883,-67.07232666015625,128.1826934814453, -46.1766242980957
551,3147107138,0.318186,0.6916974,-0.42860895,0.48642254,-4.005136966705322,-3.9701032638549805,-0.1065535619854927,-94.5388412475586,102.44393157958984, -26.366443634033203
552,3147123805,0.32224643,0.6896592,-0.4218446,0.49251878,-10.300803184509277,-5.759223937988281,-9.379539489746094,17.385072708129883,61.264678955078125, -26.122089385986328
553,3147140472,0.32070437,0.6915718,-0.4141588,0.49734277,-11.189908981323242,0.2616402506828308,-10.888324737548828,52.133811950683594,28.094865798950195, -25.939504623413086
554,3147157139,0.32200775,0.68960935,-0.4106738,0.502093,-12.25638484954834,1.6999434232711792,1.9545197486877441,15.479913711547852,40.31671142578125, -4.794600963592529
555,3147173806,0.32657936,0.6853199,-0.40971076,0.5057863,-14.26546573638916,3.633498191833496,6.691799640655518,-16.858671188354492,47.055931091308594, 0.17606966197490692
556,3147190473,0.33115503,0.6814532,-0.41188514,0.50626934,-12.402085304260254,-3.2014153003692627,4.518761157989502,-35.883872985839844,23.361835479736328, 6.665102005004883
557,3147207140,0.32959548,0.68193746,-0.410665,0.5076244,-11.735661506652832,1.2189042568206787,-1.1828749179840088,17.055753707885742,2.6438803672790527, 1.6996033191680908
558,3147223807,0.3265063,0.6857155,-0.40883842,0.506003,-12.211058616638184,0.14489427208900452,-2.580275297164917,25.39948081970215,-25.596372604370117, -11.799715042114258
559,3147240474,0.31831852,0.6931649,-0.4117767,0.49863404,-6.629578590393066,-2.232712745666504,-24.149715423583984,24.941003799438477,-90.29949188232422, 5.195985794067383
560,3147257141,0.299401,0.70769036,-0.4143539,0.4876931,0.9340808391571045,5.773017883300781,0.5154076814651489,82.67718505859375,-160.3731231689453, 12.341705322265625
561,3147273808,0.28518727,0.71643245,-0.41971365,0.4787833,-0.6832996606826782,2.065077781677246,2.114356517791748,44.348670959472656,-123.46837615966797, 30.917139053344727
562,3147290475,0.27071446,0.7241201,-0.425307,0.4706143,8.149609565734863,-2.2577319145202637,5.349405765533447,44.94111633300781,-117.6336441040039, 37.46381759643555
563,3147307142,0.25236878,0.7309606,-0.42754847,0.4681977,17.812284469604492,-6.712129592895508,5.780997276306152,90.31610107421875,-91.62128448486328, 46.41823196411133
564,3147323809,0.2411345,0.7346206,-0.4311819,0.46504733,19.333913803100586,4.128917217254639,6.083514213562012,42.38412857055664,-67.00106811523438, 38.42447280883789
565,3147340476,0.23629838,0.7380153,-0.43439138,0.45913038,13.492444038391113,8.187273025512695,-0.18233102560043335,2.7895874977111816,-60.90303421020508, 12.173285484313965
566,3147357143,0.2343623,0.7403446,-0.43293318,0.45774797,8.720423698425293,-1.6288704872131348,-5.188605308532715,14.660429000854492,-18.4587459564209, -9.868415832519531
567,3147373810,0.23822382,0.73888123,-0.42864844,0.46213037,6.197271347045898,-2.5887467861175537,-4.105321407318115,5.088962078094482,44.675838470458984, -21.96303367614746
568,3147390477,0.25246355,0.73207337,-0.42694753,0.4669546,6.9757466316223145,-1.4780269861221313,-1.8479092121124268,-63.307003021240234,90.30625915527344, -25.41667938232422
569,3147407144,0.27250704,0.7222226,-0.4255777,0.47224793,6.964777946472168,-0.2804453670978546,0.8088186383247375,-97.49687194824219,118.87703704833984, -32.69287109375
570,3147423811,0.2936406,0.7113295,-0.42045888,0.4806246,4.677289009094238,-0.1010967344045639,3.281742811203003,-83.66487884521484,147.6929931640625, -46.05328369140625
571,3147440478,0.31634548,0.69786435,-0.4165551,0.48927787,-0.6292494535446167,-1.4013373851776123,4.504369735717773,-99.75386047363281,159.5073699951172, -37.3366584777832
572,3147457145,0.32985452,0.68826056,-0.41373685,0.49630165,-7.143858432769775,-4.260984897613525,-4.5145721435546875,-55.53287887573242,109.89006805419922, -15.856502532958984
573,3147473812,0.33388516,0.6850229,-0.41029492,0.5009216,-9.165526390075684,1.9606983661651611,-8.884684562683105,-0.9527119398117065,51.48790740966797, -10.139935493469238
574,3147490479,0.33741844,0.68326944,-0.41413152,0.49778193,-10.01220989227295,1.846502423286438,-10.005463600158691,-42.17221450805664,-7.893666744232178, 3.9211184978485107
575,3147507146,0.33440584,0.68594664,-0.41683814,0.49385822,-12.813372611999512,2.365246534347534,-1.0379401445388794,0.4751890301704407,-42.34378433227539, 6.6520771980285645
576,3147523813,0.326184,0.69195884,-0.41567156,0.49194938,-15.441380500793457,-1.556257724761963,6.5833210945129395,51.630733489990234,-50.04285430908203, 1.230770230293274
577,3147540480,0.31422606,0.7005494,-0.40882948,0.4933063,-14.12490463256836,1.9684234857559204,6.149186134338379,103.72420501708984,-41.23870849609375, -13.210248947143555
578,3147557147,0.3087312,0.70697767,-0.40324017,0.4922046,-13.445960998535156,4.9785919189453125,5.134815692901611,56.76134490966797,-30.336349487304688, -28.2623348236084
579,3147573814,0.30141467,0.71259296,-0.40482134,0.48731974,-9.19453239440918,-12.761877059936523,-22.05274772644043,29.14175796508789,-66.26625061035156, 7.129152297973633
580,3147590481,0.2770239,0.7268237,-0.40368208,0.4816907,2.1979753971099854,-0.5208315253257751,-1.3584182262420654,137.67137145996094,-139.91192626953125, 25.108312606811523
581,3147607148,0.26366597,0.73384166,-0.40930215,0.47373885,4.953624248504639,1.6233813762664795,5.481901168823242,39.95563888549805,-109.89205169677734, 37.906715393066406
582,3147623815,0.25497407,0.7380271,-0.41975763,0.46271813,8.78836441040039,3.542964220046997,8.253312110900879,-13.094873428344727,-112.04278564453125, 49.56491470336914
583,3147640482,0.24294421,0.7428788,-0.42384148,0.45767662,17.40985870361328,2.386868953704834,3.507229804992676,42.56016540527344,-82.66525268554688, 36.514835357666016
584,3147657149,0.23094143,0.74700576,-0.4246387,0.45643258,14.531599044799805,2.2163076400756836,1.9619228839874268,62.6319694519043,-55.77706527709961, 28.175378799438477
585,3147673816,0.2267563,0.7483472,-0.4262641,0.4548155,10.460830688476562,1.7127869129180908,-0.7056383490562439,14.376385688781738,-27.706079483032227, 15.516117095947266
586,3147690483,0.23020187,0.7462377,-0.4279529,0.4549646,6.895627498626709,-0.8647174835205078,-5.381170272827148,-25.281370162963867,14.313423156738281, 4.903571605682373
587,3147707150,0.23864135,0.74176806,-0.42728087,0.45854297,7.071433067321777,-1.81637704372406,-2.255788564682007,-37.16910171508789,57.78489685058594, -10.48715591430664
588,3147723817,0.25190294,0.7351248,-0.42513525,0.4641082,10.46569538116455,-0.40304186940193176,1.7031750679016113,-54.856075286865234,91.33113861083984, -23.616247177124023
589,3147740484,0.27037597,0.72599226,-0.42438766,0.46875077,10.154452323913574,1.2651911973953247,5.4723334312438965,-92.6716079711914,107.24445343017578, -27.523780822753906
590,3147757151,0.2911873,0.71565914,-0.424253,0.4722832,5.285802364349365,2.01114559173584,6.772617340087891,-111.78626251220703,110.98465728759766, -30.55333137512207
591,3147773818,0.31233516,0.70378006,-0.42371285,0.4770827,-0.0036696866154670715,-0.13608577847480774,7.108948707580566,-111.51467895507812,123.8003921508789, -26.58330726623535
592,3147790485,0.32627308,0.6952084,-0.42103505,0.48266008,-7.460662364959717,-3.4561874866485596,-2.5068647861480713,-60.23086166381836,100.1264877319336, -21.283496856689453
593,3147807152,0.32796752,0.69519764,-0.4148138,0.4868956,-9.883759498596191,-5.866302490234375,-10.716147422790527,25.3731632232666,38.01177978515625, -25.477285385131836
594,3147823819,0.3230711,0.69990903,-0.4076415,0.48947003,-11.743701934814453,-0.09890645742416382,-10.202386856079102,65.96167755126953,-1.9237269163131714, -25.31135368347168
595,3147840486,0.3195272,0.7030252,-0.40572214,0.48892495,-12.340620040893555,1.7368818521499634,-5.816539287567139,29.468393325805664,-18.99638557434082, -7.018538951873779
596,3147857153,0.32116973,0.7036707,-0.40791798,0.48507792,-14.772186279296875,4.406764507293701,3.061608076095581,-24.08782958984375,-20.91742706298828, -4.854110240936279
597,3147873820,0.32503885,0.7034729,-0.41052705,0.4805656,-14.123740196228027,2.3061227798461914,9.10551929473877,-39.96891784667969,-15.939221382141113, -9.238203048706055
598,3147890487,0.3247176,0.7048314,-0.41055587,0.4787643,-11.09594440460205,-2.435802698135376,2.988173723220825,-0.039289917796850204,-14.164795875549316, -6.121798992156982
599,3147907154,0.31308237,0.7116751,-0.40848005,0.47816554,-7.812063217163086,-7.580475807189941,-22.194061279296875,77.35865020751953,-53.60126876831055, 8.069157600402832
600,3147923821,0.29123548,0.7253043,-0.40599248,0.4735883,3.3287079334259033,1.7624244689941406,-3.1358911991119385,132.0806427001953,-122.42867279052734, 11.782200813293457
601,3147940488,0.27989593,0.730489,-0.41263673,0.46666402,2.1037814617156982,1.5787317752838135,7.74141788482666,26.480344772338867,-95.5543441772461, 42.01025390625
602,3147957155,0.27116662,0.7347935,-0.4208969,0.457595,3.827150821685791,2.761638641357422,-0.7883194088935852,0.4281592071056366,-99.48766326904297, 40.16139221191406
603,3147973822,0.25938544,0.7389298,-0.42602938,0.45299134,7.202301979064941,-8.42168140411377,4.891904830932617,38.31221389770508,-79.44617462158203, 42.845848083496094
604,3147990489,0.24216785,0.7437875,-0.42513,0.45541131,20.003223419189453,-1.6455127000808716,6.70339298248291,106.55337524414062,-51.43570327758789, 39.31073760986328
605,3148007156,0.23665172,0.746537,-0.42639837,0.4526179,17.28075408935547,8.514986038208008,4.249996185302734,21.165420532226562,-41.39604949951172, 11.215166091918945
606,3148023823,0.23744214,0.7477601,-0.42626306,0.45030648,8.736380577087402,4.738218307495117,-5.785504341125488,-7.867206573486328,-13.772631645202637, -10.095681190490723
607,3148040490,0.24264018,0.7458541,-0.4238429,0.45297325,4.159117221832275,-0.8884697556495667,-6.20096492767334,-13.947901725769043,38.20823669433594, -18.055707931518555
608,3148057157,0.25532258,0.7398321,-0.4221222,0.45746234,4.961066246032715,0.938690185546875,-3.3888635635375977,-56.06806564331055,81.15081787109375, -22.77919578552246
609,3148073824,0.27573448,0.7300431,-0.42225915,0.46119952,7.890022277832031,0.5537580847740173,0.07591696083545685,-110.03001403808594,108.38987731933594, -28.01708984375
610,3148090491,0.30281958,0.7155065,-0.42166087,0.46749675,9.623956680297852,-1.0254048109054565,6.139225006103516,-142.7742156982422,156.97482299804688, -34.24690246582031
611,3148107158,0.32708588,0.7015314,-0.42086357,0.47301424,-0.5058816075325012,-3.478006362915039,2.8704628944396973,-129.34481811523438,143.28286743164062, -29.490875244140625
612,3148123825,0.3413147,0.6929729,-0.41728115,0.4787165,-6.2800116539001465,-5.4940619468688965,-3.3190011978149414,-59.136138916015625,103.71756744384766, -25.65970230102539
613,3148140492,0.34719107,0.6899634,-0.4131341,0.4824201,-8.37078857421875,-2.4430058002471924,-5.502805709838867,-10.193540573120117,53.49298858642578, -21.610767364501953
614,3148157159,0.34992588,0.6890803,-0.41690174,0.47844878,-8.86359691619873,-3.3714540004730225,-10.224028587341309,-38.278480529785156,-17.506324768066406, 1.9509122371673584
615,3148173826,0.34733725,0.69245887,-0.42468962,0.4685044,-9.83040714263916,-2.3420214653015137,-6.652104377746582,-33.175479888916016,-84.33882141113281, 11.859816551208496
616,3148190493,0.33738858,0.70105714,-0.42768338,0.4601901,-13.76736831665039,-0.7412790060043335,2.047714948654175,34.511451721191406,-103.13286590576172, 1.3645415306091309
617,3148207160,0.32459575,0.7112353,-0.4249247,0.4563126,-14.114283561706543,5.499474048614502,7.63460636138916,83.12236785888672,-81.69522094726562, -11.698741912841797
618,3148223827,0.3172661,0.71664083,-0.42288777,0.45490038,-12.659507751464844,4.20524787902832,10.699172973632812,50.69773483276367,-40.397953033447266, -5.670851707458496
619,3148240494,0.30700797,0.7217394,-0.42180696,0.45488176,-7.38549280166626,-2.7358038425445557,-15.619843482971191,65.53797149658203,-43.349365234375, 12.27738094329834
620,3148257161,0.2904219,0.7313258,-0.42262462,0.44967338,4.020143032073975,-1.7225905656814575,-1.1907695531845093,85.39640808105469,-104.94668579101562, 17.441774368286133
621,3148273828,0.2737302,0.73959315,-0.42327976,0.44599104,4.473648548126221,1.4140020608901978,6.359910011291504,88.22897338867188,-93.22101593017578, 23.76264190673828
622,3148290495,0.26019877,0.74621594,-0.4287255,0.4377818,9.634265899658203,1.1715145111083984,10.533577919006348,41.21363830566406,-111.29012298583984, 34.731998443603516
623,3148307162,0.24436995,0.752987,-0.42978665,0.43425488,15.57876205444336,3.480490207672119,2.4507553577423096,80.28306579589844,-87.10365295410156, 27.12116813659668
624,3148323829,0.2336203,0.7577707,-0.43064582,0.43098667,11.844377517700195,3.5092811584472656,1.390156865119934,52.03438186645508,-64.79541015625, 17.323122024536133
625,3148340496,0.22884935,0.76014024,-0.43096715,0.42904782,8.65339183807373,1.39410400390625,-2.346627712249756,22.557477951049805,-32.37054443359375, 6.196047782897949
626,3148357163,0.23119137,0.7589752,-0.4316186,0.42920017,6.851278305053711,-1.789700984954834,-3.895005702972412,-14.947921752929688,9.481070518493652, 0.7421479821205139
627,3148373830,0.23989484,0.7550132,-0.43112513,0.4318992,8.288919448852539,-1.9516435861587524,-0.5301925539970398,-41.66551208496094,51.73548889160156, -11.71479606628418
628,3148390497,0.25305507,0.749286,-0.4295542,0.43590948,10.760132789611816,-0.8007529973983765,2.4139363765716553,-60.63554382324219,78.66962432861328, -23.21541976928711
629,3148407164,0.269208,0.7422885,-0.42807096,0.43964806,9.176454544067383,0.3175690770149231,5.469531059265137,-79.32589721679688,89.54371643066406, -28.49864387512207
630,3148423831,0.28634888,0.73501116,-0.42493147,0.44406813,4.99377965927124,-0.46622514724731445,5.910396099090576,-77.85493469238281,99.5703125, -37.87782287597656
631,3148440498,0.3047677,0.725805,-0.42196742,0.4497416,-1.496859073638916,-2.8671023845672607,5.079964637756348,-84.96488189697266,114.97785186767578, -32.84293746948242
632,3148457165,0.31193718,0.7221677,-0.4170321,0.45525083,-9.534663200378418,-6.587906837463379,-4.876784324645996,-11.521207809448242,68.34919738769531, -24.491941452026367
633,3148473832,0.30869964,0.7246349,-0.40848055,0.46125102,-11.561781883239746,-0.9240776896476746,-11.033803939819336,65.95577239990234,29.927522659301758, -26.478105545043945
634,3148490499,0.30816042,0.72494733,-0.4046633,0.4644743,-11.804337501525879,2.560321092605591,-3.8875553607940674,25.095256805419922,20.982736587524414, -11.2699556350708
635,3148507166,0.31128556,0.720751,-0.40429348,0.46921873,-14.057069778442383,3.292262077331543,4.104203701019287,-9.512903213500977,46.14533615112305, 10.087176322937012
636,3148523833,0.31601357,0.7156243,-0.40486506,0.473394,-13.719860076904297,1.0985500812530518,4.362023830413818,-24.067041397094727,48.82564926147461, 11.07724666595459
637,3148540500,0.31900603,0.7120166,-0.40630886,0.4755845,-11.31936264038086,-1.7343908548355103,2.662113904953003,-20.59490966796875,27.429311752319336, 12.538339614868164
638,3148557167,0.31720757,0.713534,-0.40627575,0.47454038,-10.270208358764648,1.4257581233978271,-9.04340934753418,9.888721466064453,-15.2476806640625, -0.4674578905105591
639,3148573834,0.30478033,0.7230113,-0.40914163,0.46579677,-3.926581859588623,-6.971042633056641,-21.765565872192383,48.404685974121094,-114.59916687011719, 9.467338562011719
640,3148590501,0.28805995,0.7334241,-0.41404673,0.4557148,1.2021703720092773,2.48154616355896,10.334741592407227,61.365089416503906,-139.88356018066406, 27.709434509277344
641,3148607168,0.26958957,0.7437572,-0.41634053,0.4481153,1.8466094732284546,5.101123332977295,0.7933340072631836,85.30955505371094,-127.29228210449219, 25.23172378540039
642,3148623835,0.255024,0.7516662,-0.42100668,0.43899214,7.737317085266113,1.085745930671692,3.216376543045044,49.19638442993164,-120.90467834472656, 29.589601516723633
643,3148640502,0.23822564,0.7580812,-0.4230748,0.4353955,11.634173393249512,-3.844512939453125,3.7929532527923584,81.97347259521484,-89.970458984375, 36.9328727722168
644,3148657169,0.2262524,0.76209724,-0.4257601,0.4321413,16.341819763183594,3.5282399654388428,4.214399814605713,52.02707290649414,-68.28558349609375, 33.13466262817383
645,3148673836,0.222518,0.7641821,-0.42869866,0.42746848,9.657254219055176,6.394532680511475,-3.4806039333343506,0.9701979756355286,-46.65464401245117, 13.543551445007324
646,3148690503,0.2227805,0.76492846,-0.4280156,0.42668045,5.911717414855957,-1.5783004760742188,-5.121708869934082,0.05544509366154671,-5.044421672821045, -7.155933380126953
647,3148707170,0.2281829,0.7629732,-0.42566696,0.4296654,7.245466709136963,-2.4813482761383057,-2.197467088699341,-15.13481330871582,40.45969009399414, -17.31708335876465
648,3148723837,0.24152449,0.7577052,-0.42553565,0.4318202,9.145899772644043,0.19399668276309967,0.049510955810546875,-70.97537231445312,65.60060119628906, -20.825546264648438
649,3148740504,0.26079327,0.7497205,-0.42600635,0.434079,9.629093170166016,1.0636775493621826,3.095366954803467,-107.84777069091797,90.4102554321289, -27.18243408203125
650,3148757171,0.28006908,0.74137306,-0.42190838,0.44036415,6.646268367767334,-0.13764387369155884,3.9338912963867188,-83.09120178222656,120.23396301269531, -42.47216033935547
651,3148773838,0.3002954,0.73129237,-0.4178891,0.4476638,0.06657454371452332,-0.9139456152915955,5.482244491577148,-88.55522918701172,133.0721435546875, -38.00993728637695
652,3148790505,0.3142202,0.72371286,-0.4147071,0.4533472,-6.761046886444092,-5.0699262619018555,-3.1387360095977783,-58.910552978515625,97.27899169921875, -24.975662231445312
653,3148807172,0.3165755,0.7226533,-0.40794292,0.459494,-8.821760177612305,-4.005514144897461,-7.622140884399414,25.221607208251953,54.246498107910156, -24.467029571533203
654,3148823839,0.31534758,0.7238846,-0.40432173,0.46159622,-9.610603332519531,-1.5631707906723022,-7.411611557006836,26.708595275878906,10.40887451171875, -12.84036636352539
655,3148840506,0.31248316,0.7257417,-0.40477407,0.46022955,-10.675027847290039,-0.31684252619743347,-4.606271743774414,13.609142303466797,-21.85000228881836, 3.3548429012298584
656,3148857173,0.3087151,0.72853434,-0.4064795,0.45684487,-13.356030464172363,1.873726725578308,1.5751036405563354,10.524238586425781,-39.80095291137695, 5.551669120788574
657,3148873840,0.3055539,0.7306431,-0.40995654,0.4524747,-13.522528648376465,-1.5019010305404663,6.723482131958008,-2.2916367053985596,-44.53309631347656, 12.4312744140625
658,3148890507,0.3008937,0.73298115,-0.41159797,0.4503208,-12.554567337036133,-0.8672188520431519,3.7432589530944824,17.67856788635254,-34.51401138305664, 11.87617015838623
659,3148907174,0.29506192,0.7361562,-0.41097,0.4495734,-11.618767738342285,0.8534673452377319,-8.494400978088379,36.317359924316406,-28.585498809814453, 4.613259792327881
660,3148923841,0.27789137,0.7461275,-0.41261157,0.4425179,1.2180163860321045,-3.8083131313323975,-12.354597091674805,82.63677215576172,-117.7522201538086, 19.191696166992188
661,3148940508,0.25785214,0.7548079,-0.41520387,0.43747386,3.393702507019043,0.9243807196617126,11.199344635009766,97.67279052734375,-113.12339782714844, 40.169002532958984
662,3148957175,0.23759608,0.7650438,-0.41398558,0.4322871,9.662476539611816,5.3934478759765625,5.544234275817871,112.63877868652344,-112.8364028930664, 16.363658905029297
663,3148973842,0.22511715,0.7715556,-0.41597313,0.42542988,14.562262535095215,4.91762113571167,3.530876874923706,51.39754104614258,-94.00017547607422, 18.135475158691406
664,3148990509,0.21483216,0.77619386,-0.41660282,0.42167795,14.123382568359375,3.0092244148254395,1.3794026374816895,49.7518424987793,-64.0396499633789, 14.827616691589355
665,3149007176,0.20928423,0.7783075,-0.41774204,0.4194391,10.816238403320312,1.7147910594940186,-0.564632773399353,23.625843048095703,-36.123050689697266, 13.372018814086914
666,3149023843,0.2106439,0.77751505,-0.41897345,0.41900003,6.18386173248291,0.4699961245059967,-4.558653831481934,-12.602301597595215,1.4231384992599487, 4.929647445678711
667,3149040510,0.2178371,0.7741006,-0.4183801,0.42222452,4.021533012390137,-2.2090344429016113,-4.851068019866943,-31.775224685668945,48.041255950927734, -8.766448974609375
668,3149057177,0.23009053,0.76835734,-0.41566887,0.4288414,6.280168533325195,-3.5847299098968506,-1.1789588928222656,-46.30906295776367,90.67186737060547, -23.0267391204834
669,3149073844,0.24730605,0.7601881,-0.41273424,0.4365828,9.283230781555176,-0.8266341090202332,2.614682197570801,-72.51029205322266,118.24467468261719, -30.245929718017578
670,3149090511,0.26828492,0.74969935,-0.41114822,0.44376972,6.213605880737305,2.2609591484069824,4.808873653411865,-101.74325561523438,130.48446655273438, -28.901412963867188
671,3149107178,0.29303664,0.7355611,-0.4117054,0.45119634,2.2835121154785156,2.2175211906433105,7.068426132202148,-133.77032470703125,149.35650634765625, -18.580596923828125
672,3149123845,0.31267637,0.7226062,-0.41322473,0.45751423,-5.715324401855469,-0.7305481433868408,0.19373157620429993,-111.62898254394531,123.44429016113281, -3.423163890838623
673,3149140512,0.32014206,0.71694887,-0.41379446,0.4607251,-9.233662605285645,-1.5147732496261597,-5.234239101409912,-41.30027770996094,52.61458206176758, 2.710115671157837
674,3149157179,0.32307935,0.716052,-0.41616556,0.45792532,-9.325984954833984,3.3365285396575928,-6.892045497894287,-31.326181411743164,-8.613967895507812, -0.8745618462562561
675,3149173846,0.3252574,0.71611655,-0.4235179,0.44946373,-10.769922256469727,-0.923700213432312,-6.608150005340576,-57.36003875732422,-52.392066955566406, 10.828598976135254
676,3149190513,0.32103947,0.7198082,-0.4266747,0.44357473,-13.601095199584961,2.264742612838745,1.0725911855697632,2.677899122238159,-59.813297271728516, 5.125146389007568
677,3149207180,0.3143639,0.7249003,-0.42538017,0.441301,-15.877091407775879,1.4755052328109741,9.681848526000977,42.10944366455078,-43.42644500732422, -5.439234733581543
678,3149223847,0.30971688,0.7298948,-0.41971853,0.4417755,-14.332488059997559,5.790886402130127,8.065768241882324,53.08794021606445,-14.142662048339844, -27.058557510375977
679,3149240514,0.30252394,0.7351525,-0.4191626,0.4385578,-9.544085502624512,-13.268427848815918,-28.50218391418457,40.28083801269531,-51.73474884033203, -2.1293697357177734
680,3149257181,0.26660624,0.7533289,-0.40805575,0.4414831,2.681856393814087,-2.206622362136841,-4.744021415710449,261.83770751953125,-119.47526550292969, 6.27866792678833
681,3149273848,0.24903412,0.7606846,-0.40973046,0.4375635,3.5898263454437256,-1.9653445482254028,8.756817817687988,88.90746307373047,-93.94515991210938, 34.480796813964844
682,3149290515,0.24644564,0.7623367,-0.4227757,0.4235185,6.101084232330322,5.070059299468994,5.63992166519165,-61.947105407714844,-107.35900115966797, 47.54677200317383
683,3149307182,0.24103628,0.7636887,-0.43298873,0.4137657,8.962770462036133,-2.42490553855896,1.3224260807037354,-26.898921966552734,-87.68694305419922, 49.20841598510742
684,3149323849,0.22574356,0.7677201,-0.43323407,0.4146736,15.332505226135254,1.6838897466659546,4.999609470367432,89.52523803710938,-52.450050354003906, 34.603515625
685,3149340516,0.21608183,0.7705399,-0.43303865,0.41479504,15.184698104858398,5.473812580108643,2.3868961334228516,56.84958267211914,-36.12642288208008, 18.667795181274414
686,3149357183,0.21726651,0.76993984,-0.43533865,0.41287825,8.117631912231445,2.800201654434204,-3.6642231941223145,-18.840118408203125,-8.936491966247559, 8.278468132019043
687,3149373850,0.22487281,0.7668911,-0.43616083,0.41361094,5.168766975402832,-1.628509759902954,-4.685250282287598,-44.35083770751953,33.43310546875, -6.40940523147583
688,3149390517,0.23552158,0.76235706,-0.43320468,0.4191362,6.686318874359131,-1.690103530883789,-1.0285755395889282,-37.58660125732422,77.94769287109375, -23.178546905517578
689,3149407184,0.25225177,0.75492585,-0.43081617,0.42526886,9.737476348876953,1.221147894859314,2.189906358718872,-73.99224853515625,106.60075378417969, -28.18276596069336
690,3149423851,0.2736338,0.74535084,-0.4297632,0.42997736,7.369689464569092,2.4069931507110596,4.545656681060791,-109.97343444824219,116.7209243774414, -30.96533203125
691,3149440518,0.29823625,0.7337254,-0.42909345,0.4342594,3.0006494522094727,1.5783945322036743,6.926449298858643,-132.71315002441406,129.156005859375, -33.244773864746094
692,3149457185,0.32092878,0.72110677,-0.42817542,0.44008595,-4.349533557891846,-1.1383709907531738,0.6578910946846008,-119.79717254638672,134.55810546875, -22.707834243774414
693,3149473852,0.32916522,0.7172008,-0.4220394,0.44626915,-9.336099624633789,-5.236964225769043,-8.892142295837402,-12.048943519592285,78.99833679199219, -29.750295639038086
694,3149490519,0.32685655,0.7204568,-0.4134651,0.45072562,-9.35185718536377,-2.3500919342041016,-11.81635856628418,58.60139846801758,23.88761329650879, -34.22861862182617
695,3149507186,0.32231173,0.72452766,-0.41026697,0.45039523,-10.864194869995117,-0.7690407633781433,-10.882181167602539,41.20183181762695,-20.25518226623535, -13.776963233947754
