PacketCounter,SampleTimeFine,Quat_W,Quat_X,Quat_Y,Quat_Z,Acc_X,Acc_Y,Acc_Z,Gyr_X,Gyr_Y,Gyr_Z 
1,386979341,0.70063204,-0.04464331,-0.7119667,-0.0150082465,0.3163999617099762,-0.3010433614253998,0.33382469415664673,-0.16031751036643982,-0.3998095393180847, -1.9417107105255127
2,386996008,0.70024353,-0.04471038,-0.71234447,-0.015012575,9.872861862182617,-0.38957998156547546,-0.3043959140777588,-0.02781539037823677,1.0300594568252563, 0.7999678254127502
3,387012675,0.6995688,-0.044678126,-0.7130091,-0.015016006,9.801101684570312,-0.39023610949516296,-0.3571605682373047,-0.12379899621009827,1.1430755853652954, 0.6342665553092957
4,387029342,0.6987716,-0.04439357,-0.7138134,-0.014765121,9.813365936279297,-0.3982672393321991,-0.30629271268844604,0.5542908906936646,0.7283419370651245, 0.40420040488243103
5,387046009,0.6981878,-0.04410196,-0.7144075,-0.014518879,9.919342994689941,-0.35532769560813904,-0.2488526701927185,0.9426305890083313,0.26691633462905884, 0.060785334557294846
6,387062676,0.6978907,-0.04355093,-0.71473813,-0.014193337,9.934774398803711,-0.3217453360557556,-0.2621861398220062,1.133304238319397,0.2428916096687317, -0.07403349876403809
7,387079343,0.697718,-0.04305358,-0.71494,-0.014029758,9.966267585754395,-0.3148878216743469,-0.24494442343711853,0.9978771209716797,0.20113010704517365, -0.008529027923941612
8,387096010,0.6976451,-0.042535275,-0.7150453,-0.01387424,9.94632339477539,-0.3164297342300415,-0.25903159379959106,1.109676480293274,0.25701704621315, 0.05768619850277901
9,387112677,0.6976253,-0.0420631,-0.71509576,-0.01370389,9.909605979919434,-0.2941931188106537,-0.2663702368736267,0.6583679914474487,0.397617906332016, 0.3169635236263275
10,387129344,0.6976488,-0.04177376,-0.71509075,-0.01365403,9.899413108825684,-0.28765931725502014,-0.3104863166809082,0.31587499380111694,0.6679983139038086, 0.6196800470352173
11,387146011,0.69768095,-0.04160692,-0.7150696,-0.01362926,9.899568557739258,-0.27695584297180176,-0.3024190366268158,-0.11835629492998123,0.8894073367118835, 1.0523681640625
12,387162678,0.69770247,-0.04144663,-0.7150596,-0.013542029,9.879525184631348,-0.3168945908546448,-0.2989487946033478,0.4036369323730469,0.7711663246154785, 1.3276022672653198
13,387179345,0.6976854,-0.04127485,-0.71508914,-0.013380623,9.906160354614258,-0.29475194215774536,-0.27157554030418396,1.052393913269043,0.3510412573814392, 1.3892265558242798
14,387196012,0.69768596,-0.041146625,-0.71509945,-0.013196871,9.91425609588623,-0.26487669348716736,-0.24599577486515045,1.157098412513733,0.4061853587627411, 1.6137856245040894
15,387212679,0.6976939,-0.040975027,-0.71510637,-0.012931923,9.95273494720459,-0.3067456781864166,-0.27505987882614136,1.1432292461395264,0.31903815269470215, 1.8003230094909668
16,387229346,0.697703,-0.040941607,-0.71510303,-0.012733167,9.951800346374512,-0.3131827414035797,-0.25792330503463745,0.7783891558647156,0.3178856372833252, 2.0317723751068115
17,387246013,0.6977389,-0.04096557,-0.71507066,-0.012502328,9.923134803771973,-0.30621957778930664,-0.23349520564079285,0.5805695056915283,0.5130288004875183, 2.373445749282837
18,387262680,0.6977998,-0.041023873,-0.7150119,-0.012266832,9.946867942810059,-0.3043234050273895,-0.26381924748420715,0.43521741032600403,0.6697785258293152, 2.5010738372802734
19,387279347,0.69791716,-0.041192837,-0.7148913,-0.0120531395,9.926152229309082,-0.3703543245792389,-0.26106318831443787,0.08959963917732239,1.2131775617599487, 2.9024758338928223
20,387296014,0.69809234,-0.04123167,-0.71472454,-0.011658126,9.872910499572754,-0.40821531414985657,-0.30507785081863403,1.2457313537597656,1.6800588369369507, 3.0240211486816406
21,387312681,0.69821346,-0.041251805,-0.7146112,-0.011282271,9.858686447143555,-0.3968029022216797,-0.34320810437202454,1.3177540302276611,1.2136385440826416, 2.666557550430298
22,387329348,0.6982759,-0.041266482,-0.7145543,-0.010962337,9.901725769042969,-0.3667580485343933,-0.26937100291252136,1.1544734239578247,0.7532374858856201, 2.2470600605010986
23,387346015,0.6983427,-0.041309934,-0.7144905,-0.010706236,10.01429271697998,-0.3740820586681366,-0.2033153474330902,0.8107252717018127,0.8076261281967163, 2.038649320602417
24,387362682,0.69843274,-0.041360587,-0.71440226,-0.010516266,9.954662322998047,-0.39616984128952026,-0.26346656680107117,0.7818084955215454,0.9692679047584534, 1.7221020460128784
25,387379349,0.698502,-0.041341305,-0.7143381,-0.010349675,9.8490629196167,-0.36439716815948486,-0.29934340715408325,0.9945859909057617,0.7594358325004578, 1.2093101739883423
26,387396016,0.6985289,-0.041358158,-0.7143116,-0.010287943,9.756183624267578,-0.4109782874584198,-0.30865755677223206,0.7458482384681702,0.4070434272289276, 0.841562807559967
27,387412683,0.69851565,-0.041241564,-0.71433383,-0.010115694,9.83916187286377,-0.3970176875591278,-0.2531717121601105,1.3648942708969116,0.009508714079856873, 0.6615311503410339
28,387429350,0.6984646,-0.041136608,-0.7143918,-0.009971105,9.958617210388184,-0.4128260910511017,-0.09807844460010529,1.290553331375122,-0.3616897165775299, 0.5389487743377686
29,387446017,0.6985183,-0.041193057,-0.71433717,-0.009889399,9.995677947998047,-0.3932018578052521,-0.13787230849266052,0.14640860259532928,0.5911091566085815, 1.0371543169021606
30,387462684,0.698579,-0.041196365,-0.71427894,-0.009788535,9.951302528381348,-0.3855380117893219,-0.2900351881980896,0.8346602916717529,0.555507481098175, 0.8461474776268005
31,387479351,0.6985983,-0.041206747,-0.71425915,-0.009809814,9.837481498718262,-0.3739282488822937,-0.31005001068115234,0.2768925130367279,0.2244376689195633, 0.26876044273376465
32,387496018,0.69856876,-0.04115848,-0.7142906,-0.009825385,9.801207542419434,-0.3530181646347046,-0.26164963841438293,0.6584320068359375,-0.2292848378419876, -0.0170836690813303
33,387512685,0.698552,-0.041111395,-0.71430975,-0.009823844,10.039697647094727,-0.3883364498615265,-0.14471521973609924,0.18963001668453217,-0.08185818046331406, 0.09209685772657394
34,387529352,0.69893795,-0.041204687,-0.71392953,-0.009626019,10.340664863586426,-0.4613264501094818,0.13079653680324554,0.5851156711578369,3.6966230869293213, 1.8543018102645874
35,387546019,0.69973755,-0.040622722,-0.71319175,-0.008648119,10.319961547851562,-0.3012858033180237,-0.2162141352891922,8.252523422241211,7.08400821685791, 2.372742176055908
36,387562686,0.70050687,-0.03989856,-0.71248716,-0.0077703055,9.93140983581543,-0.21947753429412842,-0.4673081338405609,8.539386749267578,6.81719970703125, 1.2194916009902954
37,387579353,0.7012131,-0.039373476,-0.7118278,-0.007146647,9.716805458068848,-0.2689097225666046,-0.4646150469779968,6.558050155639648,6.45438289642334, 1.0096720457077026
38,387596020,0.7020165,-0.03876616,-0.7110787,-0.0061170673,9.434226036071777,-0.2909924387931824,-0.6820396780967712,8.630849838256836,7.378568172454834, 2.628690481185913
39,387612687,0.7027502,-0.03792729,-0.71040964,-0.0047006584,9.518146514892578,-0.22310763597488403,-0.7076770067214966,11.947043418884277,6.719155788421631, 3.349163293838501
40,387629354,0.7034802,-0.037035078,-0.70974344,-0.0028996337,10.02560043334961,-0.2335180640220642,-0.26986074447631836,14.039862632751465,6.756783485412598, 4.983742713928223
41,387646021,0.7041811,-0.03617201,-0.70909804,-0.00089109933,10.352705001831055,0.04363059625029564,-0.13209231197834015,15.294315338134766,6.455963611602783, 6.159240245819092
42,387662688,0.704803,-0.035633653,-0.7085074,0.00069102,10.340368270874023,0.04147796332836151,-0.07286819815635681,11.827549934387207,5.875320911407471, 5.787379741668701
43,387679355,0.705381,-0.03554173,-0.7079346,0.0018090563,9.862480163574219,-0.19705167412757874,0.1270252764225006,7.4990105628967285,5.651424407958984, 5.822876453399658
44,387696022,0.7059832,-0.035597965,-0.7073274,0.002901575,9.372170448303223,-0.5066008567810059,0.2373090535402298,6.663549900054932,5.863857269287109, 6.463168621063232
45,387712689,0.7066306,-0.035195522,-0.7066912,0.004709407,8.98398494720459,-0.9311511516571045,0.030417460948228836,12.123735427856445,5.959125995635986, 7.6598615646362305
46,387729356,0.70709753,-0.033763364,-0.70626694,0.0077681257,9.454776763916016,-0.6498866677284241,-0.14139854907989502,23.2657527923584,3.682685136795044, 8.535944938659668
47,387746023,0.70729613,-0.032522053,-0.7060931,0.010351849,10.0359525680542,-0.19597771763801575,0.431339293718338,20.14777946472168,1.2888778448104858, 7.0495285987854
48,387762690,0.70735425,-0.030773178,-0.70606786,0.013088827,9.833378791809082,-0.8637409210205078,0.36548611521720886,23.324682235717773,-0.2987214922904968, 5.368412971496582
49,387779357,0.70732933,-0.028661463,-0.70612454,0.015871644,9.920635223388672,-0.8481850028038025,-0.020565323531627655,25.382137298583984,-1.2323195934295654, 3.730402708053589
50,387796024,0.7071162,-0.026978713,-0.7063641,0.017567622,9.588295936584473,-0.6758126020431519,-0.12350987643003464,17.887052536010742,-2.7641513347625732, 0.43698519468307495
51,387812691,0.70686245,-0.025318785,-0.7066491,0.01874928,9.458887100219727,-1.3551896810531616,-0.004572245292365551,15.28654956817627,-3.0591962337493896, -1.993220567703247
52,387829358,0.70658916,-0.02311065,-0.7069673,0.019882035,9.715274810791016,-1.1462773084640503,-0.17556805908679962,17.606517791748047,-3.371428966522217, -5.065941333770752
53,387846025,0.7062204,-0.02058729,-0.70740134,0.020301398,9.863798141479492,-0.6185067892074585,-0.4520651698112488,15.756498336791992,-4.303284645080566, -10.1827392578125
54,387862692,0.70565885,-0.017826648,-0.7080443,0.020028712,9.67007064819336,-0.9650154709815979,-0.09085103124380112,13.440508842468262,-6.106179714202881, -14.710497856140137
55,387879359,0.7048866,-0.014689909,-0.70889246,0.0197626,9.567473411560059,-1.1155407428741455,0.3471200168132782,15.233383178710938,-8.170570373535156, -16.585845947265625
56,387896026,0.7039636,-0.011690388,-0.7098834,0.019079264,10.001709938049316,-0.5876047015190125,0.4348260462284088,12.53042984008789,-9.606804847717285, -18.04176139831543
57,387912693,0.7029526,-0.009108039,-0.71096104,0.017583948,10.449747085571289,-0.14371925592422485,0.7713286876678467,6.508256435394287,-10.415051460266113, -19.94861602783203
58,387929360,0.7023523,-0.007890062,-0.7116416,0.014327573,10.598748207092285,0.13708165287971497,1.9166284799575806,-8.598316192626953,-6.345930099487305, -21.766687393188477
59,387946027,0.702555,-0.008490157,-0.71151596,0.009462179,11.630594253540039,-0.5880081653594971,3.733337163925171,-25.171072006225586,1.4414430856704712, -20.596590042114258
60,387962694,0.70268255,-0.009541086,-0.7114288,0.0039251493,11.89335823059082,-0.9206321239471436,0.18402662873268127,-30.617521286010742,0.39719730615615845, -21.680810928344727
61,387979361,0.7022428,-0.010917851,-0.71184784,-0.0029466408,11.951888084411621,-0.09768887609243393,0.3644331693649292,-38.80897903442383,-4.716846942901611, -26.658281326293945
62,387996028,0.70188016,-0.012953008,-0.7120942,-0.010892734,13.353561401367188,-1.260825276374817,0.5098598599433899,-47.24265670776367,-3.4549853801727295, -28.603954315185547
63,388012695,0.7020819,-0.015926782,-0.71162045,-0.020587396,15.763823509216309,-1.0723143815994263,2.5378284454345703,-60.47404479980469,2.833624839782715, -32.51206970214844
64,388029362,0.70391834,-0.020288467,-0.70928824,-0.03158529,18.842147827148438,-2.233630418777466,6.732804298400879,-74.09941864013672,19.435022354125977, -31.73320960998535
65,388046029,0.70795596,-0.028038846,-0.7043429,-0.04374241,12.631617546081543,-3.592252016067505,4.791968822479248,-96.5295181274414,41.40192794799805, -20.331310272216797
66,388062696,0.7096208,-0.039145175,-0.70123523,-0.056347925,8.738300323486328,-5.853638172149658,-0.4651116132736206,-115.4677505493164,19.541231155395508, -7.876992702484131
67,388079363,0.70913017,-0.05890402,-0.69915277,-0.069643475,9.783670425415039,-8.748531341552734,-5.203185081481934,-161.95663452148438,1.228073239326477, 28.541629791259766
68,388096030,0.7070993,-0.0738125,-0.6998791,-0.06878807,10.509021759033203,-12.102141380310059,-2.2937967777252197,-70.36564636230469,-22.408254623413086, 71.25811767578125
69,388112697,0.7048228,-0.08351062,-0.70223105,-0.055879556,9.707741737365723,-6.007258415222168,-1.1312766075134277,13.353849411010742,-34.718841552734375, 102.49117279052734
70,388129364,0.7032904,-0.08939711,-0.7044334,-0.034122363,6.940083980560303,-2.692741632461548,-1.7993409633636475,74.89228057861328,-33.854549407958984, 126.85379791259766
71,388146031,0.7029154,-0.09039194,-0.7054572,-0.008336881,6.185689926147461,4.024087905883789,0.3018724024295807,118.65522003173828,-23.7464599609375, 123.5845947265625
72,388162698,0.7037991,-0.09013314,-0.70449555,0.015131401,4.818350791931152,6.892704010009766,-0.17965257167816162,115.09587097167969,-6.774875164031982, 108.33544158935547
73,388179365,0.7064411,-0.08970992,-0.701257,0.033644315,4.582078456878662,7.199371337890625,-1.5614680051803589,93.54492950439453,15.721258163452148, 85.79713439941406
74,388196032,0.71081966,-0.0890249,-0.69609094,0.047619637,4.730583667755127,5.871784687042236,-3.3848204612731934,74.48974609375,36.34482192993164, 64.27462005615234
75,388212699,0.71642715,-0.0867327,-0.6896887,0.059491202,4.553491115570068,4.139052391052246,-6.446709632873535,73.5112075805664,49.3930549621582, 47.45915985107422
76,388229366,0.7222967,-0.08500463,-0.68298525,0.06777089,6.6956329345703125,3.64851713180542,-8.973695755004883,54.12224578857422,55.17730712890625, 33.086997985839844
77,388246033,0.7271717,-0.08679335,-0.6772797,0.070571534,8.028961181640625,1.4165688753128052,-10.442885398864746,10.074748992919922,51.33253479003906, 22.814599990844727
78,388262700,0.73033834,-0.0899054,-0.6734103,0.07100401,8.039880752563477,-0.8602426648139954,-11.400318145751953,-9.253335952758789,37.31853103637695, 17.210657119750977
79,388279367,0.73113847,-0.09315874,-0.67198795,0.07204374,6.880419731140137,-3.964003086090088,-11.898744583129883,-9.548262596130371,14.890118598937988, 20.671125411987305
80,388296034,0.7300293,-0.091459855,-0.6727963,0.07770067,6.739394664764404,-2.464932441711426,-9.862425804138184,34.64570617675781,-9.43970775604248, 20.27666473388672
81,388312701,0.7283109,-0.0881729,-0.67415696,0.0854479,6.363839626312256,0.32951948046684265,-5.922922134399414,51.8436279296875,-16.323366165161133, 23.259838104248047
82,388329368,0.7264158,-0.08762565,-0.6756052,0.09055311,6.28944730758667,3.2564797401428223,-4.308090686798096,25.845584869384766,-13.908249855041504, 22.902236938476562
83,388346035,0.72282004,-0.09332152,-0.6791038,0.08740888,5.9995574951171875,3.576138496398926,-4.947712421417236,-45.894927978515625,-22.895244598388672, 10.992109298706055
84,388362702,0.71271425,-0.115100145,-0.68815666,0.07232435,5.975987434387207,-15.457837104797363,-28.865922927856445,-189.0233917236328,-63.264793395996094, 27.751924514770508
85,388379369,0.6832481,-0.12204826,-0.71468115,0.086644635,24.560157775878906,-24.662790298461914,-21.677467346191406,-0.3946514427661896,-268.75018310546875, 96.35946655273438
86,388396036,0.66109526,-0.112238005,-0.7341723,0.10652178,16.41205596923828,25.8763370513916,24.172502517700195,116.46967315673828,-212.7789764404297, 39.7318229675293
87,388412703,0.6313648,-0.115849525,-0.7586706,0.11124877,30.600805282592773,2.2490267753601074,-8.616586685180664,-30.95810317993164,-254.747314453125, 42.781227111816406
88,388429370,0.6077056,-0.10076051,-0.77677596,0.13099805,5.892506122589111,3.5195815563201904,-5.605889320373535,138.68336486816406,-221.4176025390625, 11.624034881591797
89,388446037,0.58929235,-0.098460734,-0.78966916,0.13950899,7.047878742218018,-9.115899085998535,-6.162977695465088,33.7767448425293,-152.07186889648438, 31.947383880615234
90,388462704,0.5750666,-0.10368836,-0.79956996,0.13869151,11.87377643585205,-5.993627071380615,-5.228759288787842,-45.22962188720703,-102.17692565917969, 33.50710678100586
91,388479371,0.5643169,-0.10505142,-0.80710274,0.13818824,14.085976600646973,-6.730999946594238,-5.605988502502441,-23.325498580932617,-77.72388458251953, 11.816717147827148
92,388496038,0.5543514,-0.104559675,-0.81425136,0.13695565,15.143467903137207,-5.691898822784424,-3.5875744819641113,-16.00054359436035,-74.51634216308594, -3.0626626014709473
93,388512705,0.54432386,-0.1075991,-0.82152104,0.13129096,19.18466567993164,-5.574794769287109,-1.4509469270706177,-54.56791305541992,-69.12806701660156, -0.17771857976913452
94,388529372,0.53288674,-0.11429228,-0.8295701,0.12158377,20.231460571289062,-3.7651782035827637,0.9243837594985962,-93.00655364990234,-74.34784698486328, 6.251636505126953
95,388546039,0.5192295,-0.12191572,-0.83864415,0.11051394,21.519535064697266,-1.5779345035552979,1.8172096014022827,-106.96578216552734,-89.79560089111328, 8.000811576843262
96,388562706,0.50207573,-0.13196652,-0.8493614,0.0953427,21.260147094726562,-0.1600058227777481,6.885883808135986,-143.57374572753906,-111.58392333984375, 9.174970626831055
97,388579373,0.48352444,-0.1418781,-0.8601656,0.0786767,17.43483543395996,-0.3670797646045685,10.441354751586914,-153.30014038085938,-120.224853515625, 4.589225769042969
98,388596040,0.46537673,-0.15017058,-0.8700668,0.06210738,13.834099769592285,-0.698750376701355,8.58519172668457,-146.67306518554688,-117.36380004882812, -3.667003870010376
99,388612707,0.4473074,-0.15685703,-0.8792515,0.047212172,11.502640724182129,-2.361191749572754,5.427409648895264,-131.2902069091797,-118.2927017211914, -7.060136795043945
100,388629374,0.4292966,-0.1582538,-0.88836515,0.038310695,12.226329803466797,-3.0698206424713135,6.377927303314209,-78.85016632080078,-126.83718872070312, -20.59929084777832
101,388646041,0.40615496,-0.15744133,-0.89953923,0.032858584,8.277653694152832,-5.3861083984375,0.638092041015625,-57.56058120727539,-169.60299682617188, -24.91823959350586
102,388662708,0.37712935,-0.15504491,-0.912381,0.03599185,10.602895736694336,-6.908509731292725,-9.731964111328125,-6.968610763549805,-220.7608642578125, -11.52371883392334
103,388679375,0.34546143,-0.15603101,-0.9247431,0.034072667,14.494816780090332,-2.585843324661255,5.721226692199707,-50.28956604003906,-229.89031982421875, -2.574770927429199
104,388696042,0.316842,-0.15585385,-0.93505424,0.031535845,9.50374698638916,0.03170005977153778,8.80754566192627,-47.83852767944336,-206.34072875976562, -10.016204833984375
105,388712709,0.2921539,-0.15773022,-0.94315886,0.014786301,13.476346015930176,-7.1766862869262695,4.542875289916992,-139.032958984375,-161.5465545654297, -26.322721481323242
106,388729376,0.27670732,-0.15307863,-0.94862455,0.010565444,15.061394691467285,-9.472288131713867,3.8553450107574463,-34.76372528076172,-111.54850006103516, -41.90922546386719
107,388746043,0.27222243,-0.1427919,-0.9513831,0.019386172,11.943727493286133,-4.677145957946777,6.255539417266846,72.24269104003906,-50.081199645996094, -52.05466079711914
108,388762710,0.27789894,-0.13413835,-0.9508054,0.027354548,9.069835662841797,-4.0156779289245605,5.035837173461914,73.79766845703125,22.767658233642578, -40.99886703491211
109,388779377,0.2935898,-0.12739258,-0.9467829,0.034327406,7.954814434051514,-5.550995826721191,1.809157133102417,73.31746673583984,95.42535400390625, -29.07346534729004
110,388796044,0.31953427,-0.121075846,-0.9388733,0.04190013,7.461950302124023,-4.07628059387207,0.8540838360786438,85.9657211303711,169.15052795410156, -24.09490203857422
111,388812711,0.35464963,-0.11673425,-0.92652905,0.04626982,6.702671051025391,-3.2426159381866455,0.33273744583129883,69.65142059326172,240.9892120361328, -17.309703826904297
112,388829378,0.39683133,-0.11411366,-0.90941274,0.04971529,7.133913993835449,-3.6722161769866943,-1.4317651987075806,66.57917785644531,298.6961975097656, -7.017584800720215
113,388846045,0.44411266,-0.112589195,-0.8872732,0.053235948,7.945096015930176,-2.644700527191162,-2.327075719833374,69.5872802734375,344.4728698730469, 2.1872973442077637
114,388862712,0.49482042,-0.113245085,-0.85988796,0.054047287,9.05298137664795,-1.8683208227157593,-2.7557780742645264,50.821895599365234,384.21844482421875, 9.983377456665039
115,388879379,0.5480133,-0.11456245,-0.82676065,0.054988418,10.410592079162598,-3.4370288848876953,-4.499057769775391,53.2929801940918,418.5732421875, 17.857471466064453
116,388896046,0.60211146,-0.114860125,-0.7880335,0.057204124,12.131712913513184,-1.671044111251831,-5.413481712341309,67.09619903564453,443.5496520996094, 20.81669807434082
117,388912713,0.6544162,-0.11724827,-0.74476546,0.057592507,15.852755546569824,-2.9381566047668457,-6.920650959014893,48.82924270629883,455.112548828125, 28.87430763244629
118,388929380,0.7019009,-0.11646219,-0.69990295,0.062511295,19.232995986938477,-6.863032341003418,-11.459290504455566,83.02542114257812,433.02545166015625, 36.187286376953125
119,388946047,0.7411718,-0.112388216,-0.6582604,0.06875114,21.286949157714844,-6.916049003601074,-19.266353607177734,97.43614959716797,376.4939270019531, 27.51249122619629
120,388962714,0.7689178,-0.11367173,-0.6251174,0.071220204,12.11773681640625,-5.468204975128174,-24.503650665283203,40.56312561035156,288.44537353515625, 31.267332077026367
121,388979381,0.7829595,-0.12588942,-0.6054814,0.06722259,5.665783882141113,-2.409853935241699,-26.69681167602539,-61.80759811401367,170.7421875, 40.012691497802734
122,388996048,0.78476775,-0.13773543,-0.60086787,0.06424003,0.554021954536438,-2.507018804550171,-28.891141891479492,-72.6143569946289,39.7136344909668, 36.515472412109375
123,389012715,0.77630097,-0.13589042,-0.61112416,0.07360674,2.745258331298828,1.3371609449386597,-26.06291389465332,36.383277893066406,-99.39478302001953, 36.96023941040039
124,389029382,0.75909716,-0.12765282,-0.63217264,0.08851074,7.775274753570557,6.081490993499756,-23.419599533081055,80.35660552978516,-201.39230346679688, 34.05550003051758
125,389046049,0.73280966,-0.12896244,-0.66037154,0.1013333,10.300162315368652,-13.941527366638184,-20.93684196472168,9.226277351379395,-270.21087646484375, 64.16178131103516
126,389062716,0.7025229,-0.12662221,-0.68740726,0.1337908,33.1084098815918,-14.646260261535645,2.411355972290039,114.2069320678711,-302.4293518066406, 149.9924774169922
127,389079383,0.67158824,-0.10771633,-0.714104,0.16559617,20.834245681762695,16.812768936157227,-7.425278186798096,190.7696533203125,-319.0965270996094, 69.3207015991211
128,389096050,0.6392185,-0.107440695,-0.7406116,0.17706111,16.690845489501953,5.243368625640869,-12.793985366821289,3.8842556476593018,-289.1341552734375, 69.1515884399414
129,389112717,0.61320025,-0.115300246,-0.76043874,0.18006715,10.08346176147461,0.05349460244178772,-8.964672088623047,-62.110721588134766,-211.3308563232422, 70.75125885009766
130,389129384,0.5935034,-0.12017913,-0.7739274,0.18533014,12.873786926269531,-8.092097282409668,-5.759703636169434,-24.902381896972656,-157.1680145263672, 61.8656005859375
131,389146051,0.5782858,-0.12298326,-0.7840577,0.18898231,12.809696197509766,-6.3861589431762695,-5.604063987731934,-17.10228157043457,-121.11309051513672, 41.217864990234375
132,389162718,0.56648177,-0.12575188,-0.79261,0.18722825,10.345744132995605,-8.255041122436523,-7.120998382568359,-41.231712341308594,-92.04963684082031, 16.38787269592285
133,389179385,0.5580452,-0.12597118,-0.7995471,0.18286987,12.208292007446289,-10.826579093933105,-5.046938419342041,-40.55778503417969,-68.51665496826172, -10.646178245544434
134,389196052,0.5516046,-0.122581266,-0.80570346,0.1776182,17.48898696899414,-9.277337074279785,-3.1934220790863037,-28.977375030517578,-58.40494155883789, -35.806827545166016
135,389212719,0.5453208,-0.11841353,-0.81211275,0.17051841,20.12459373474121,-4.908060073852539,-1.5775226354599,-36.50143814086914,-58.00027847290039, -47.53384017944336
136,389229386,0.5392838,-0.117699616,-0.81847775,0.15941802,17.709014892578125,-2.2239248752593994,-0.07191437482833862,-71.57504272460938,-49.266910552978516, -43.45488739013672
137,389246053,0.53236485,-0.1229597,-0.8251508,0.14350943,16.951507568359375,-1.1686336994171143,3.8240835666656494,-121.86426544189453,-45.03681564331055, -26.900455474853516
138,389262720,0.5249794,-0.13235871,-0.83161825,0.12364925,13.276923179626465,-1.4678031206130981,4.774422645568848,-159.6605224609375,-39.62864303588867, -17.211894989013672
139,389279387,0.51594293,-0.1439013,-0.8382037,0.102518894,10.537629127502441,-2.3183181285858154,6.239620208740234,-176.29611206054688,-46.61495590209961, -8.235848426818848
140,389296054,0.5026231,-0.15464363,-0.8463155,0.08488473,9.001511573791504,-2.7777259349823,5.547000885009766,-158.64942932128906,-80.82433319091797, 1.0489765405654907
141,389312721,0.4824888,-0.16156454,-0.857687,0.07399015,10.04489803314209,-4.147292137145996,6.321962833404541,-115.39480590820312,-141.2029266357422, 2.5925207138061523
142,389329388,0.45706928,-0.16566536,-0.8712502,0.06756957,10.80452823638916,-2.7394726276397705,3.964181423187256,-86.67095184326172,-186.11932373046875, 1.0349260568618774
143,389346055,0.42606136,-0.17223735,-0.88642603,0.055273645,15.642870903015137,-0.7290359139442444,2.394131660461426,-136.77560424804688,-216.88990783691406, -1.8758091926574707
144,389362722,0.39283094,-0.1804616,-0.90090126,0.038657416,16.62403106689453,-5.293378829956055,8.731496810913086,-170.32254028320312,-222.7144775390625, -2.778108835220337
145,389379389,0.35950413,-0.18557541,-0.9142003,0.023583898,14.256107330322266,-1.6788196563720703,12.56993579864502,-152.2037811279297,-222.98751831054688, -16.421167373657227
146,389396056,0.327374,-0.1923255,-0.9251056,0.0041128043,13.42022705078125,-6.22638463973999,10.510030746459961,-181.99911499023438,-203.78775024414062, -14.158249855041504
147,389412723,0.30184,-0.19695567,-0.93274134,-0.009739454,16.683719635009766,-10.104042053222656,9.110774993896484,-132.69126892089844,-162.02549743652344, -10.898881912231445
148,389429390,0.28644615,-0.19645168,-0.9376693,-0.011480561,18.240934371948242,-9.693486213684082,6.927786350250244,-30.86640739440918,-107.51660919189453, -14.386838912963867
149,389446057,0.28159443,-0.19256015,-0.94000524,-0.003922728,13.375094413757324,-3.1162900924682617,5.759702205657959,49.73468780517578,-46.83726119995117, -13.593852996826172
150,389462724,0.28548992,-0.19183935,-0.93897843,-0.0035741231,11.209860801696777,-3.9319558143615723,5.140453338623047,8.493186950683594,25.617820739746094, -2.354748249053955
151,389479391,0.30073556,-0.19119751,-0.93434525,-0.0010232894,8.988659858703613,-6.7643141746521,2.0819544792175293,37.430179595947266,103.04401397705078, 7.514708042144775
152,389496058,0.32709083,-0.18968685,-0.9257461,0.0050117117,7.530754566192627,-5.787334442138672,-1.543506145477295,76.16568756103516,178.06605529785156, 14.416110038757324
153,389512725,0.36309353,-0.1876151,-0.91260016,0.011181362,7.915035247802734,-5.588918685913086,-2.466592311859131,91.02452850341797,249.57879638671875, 16.73415756225586
154,389529392,0.40702298,-0.18507725,-0.89427227,0.018874045,8.757710456848145,-6.291651725769043,-2.6065568923950195,112.3830795288086,310.3465270996094, 23.677547454833984
155,389546059,0.4568857,-0.18215984,-0.87022513,0.027959954,10.539009094238281,-5.09256649017334,-3.3209781646728516,130.32350158691406,361.11138916015625, 31.737348556518555
156,389562726,0.5110699,-0.18063775,-0.83963263,0.034567147,12.857796669006348,-2.9321372509002686,-4.796698570251465,117.79840087890625,411.0090637207031, 39.6627197265625
157,389579393,0.5679328,-0.1831412,-0.80162,0.03629078,14.099602699279785,-0.9349328875541687,-6.418084144592285,80.56478118896484,459.6974182128906, 54.33922576904297
158,389596060,0.6239921,-0.18972619,-0.75731844,0.033269323,15.678204536437988,0.8340657353401184,-8.335967063903809,39.042110443115234,486.9437561035156, 66.45641326904297
159,389612727,0.6780593,-0.1944048,-0.70814687,0.031158755,19.123640060424805,0.0722668245434761,-13.925091743469238,50.536781311035156,495.9626770019531, 67.28956604003906
160,389629394,0.7260484,-0.19464797,-0.65889573,0.028680738,23.555500030517578,-2.6318728923797607,-20.92916488647461,61.38327407836914,466.37493896484375, 45.4178466796875
161,389646061,0.7644154,-0.18838769,-0.6158784,0.029550673,20.27682876586914,-5.348414897918701,-27.39966583251953,94.99832916259766,386.0173034667969, 26.252622604370117
162,389662728,0.79083896,-0.17800479,-0.58457583,0.034051757,14.332202911376953,-1.4831690788269043,-28.431182861328125,114.29151916503906,268.54583740234375, 15.136699676513672
163,389679395,0.80293864,-0.17465682,-0.56870025,0.036941517,5.540923118591309,-2.7748007774353027,-30.813718795776367,48.50467300415039,130.98321533203125, 19.15007972717285
164,389696062,0.80479866,-0.1661173,-0.56784976,0.047445394,1.8466793298721313,1.186491847038269,-29.545141220092773,90.9483413696289,-2.1464757919311523, 25.416292190551758
165,389712729,0.7983786,-0.15159132,-0.579287,0.06354736,2.111097812652588,2.6530675888061523,-25.637714385986328,132.5800018310547,-110.54450988769531, 21.65997886657715
166,389729396,0.78530896,-0.13488935,-0.5985899,0.082371265,4.700154781341553,3.4173009395599365,-17.762554168701172,145.09144592285156,-183.79322814941406, 22.603200912475586
167,389746063,0.76733714,-0.120055616,-0.6216925,0.10138562,7.647177219390869,-5.348051071166992,-14.699345588684082,129.13528442382812,-223.48812866210938, 30.54180908203125
168,389762730,0.7474365,-0.11306873,-0.64252406,0.12536786,17.111913681030273,-15.534631729125977,2.7381720542907715,109.01880645751953,-218.28953552246094, 93.4074935913086
169,389779397,0.71988446,-0.11957092,-0.6685292,0.14331026,34.6113395690918,-6.06019401550293,-5.8991546630859375,2.588388681411743,-262.49383544921875, 124.3865966796875
170,389796064,0.69062775,-0.10564088,-0.69517815,0.16911833,18.478153228759766,15.572419166564941,-2.6929121017456055,137.91290283203125,-300.14105224609375, 70.56781768798828
171,389812731,0.65995157,-0.10828344,-0.7211416,0.18081324,16.789337158203125,5.966736793518066,-8.118478775024414,-8.526565551757812,-274.1712341308594, 85.12576293945312
172,389829398,0.6344031,-0.11392917,-0.7411944,0.18757318,7.737285614013672,-0.8317244648933411,-8.85361099243164,-35.41075897216797,-214.4835205078125, 75.76465606689453
173,389846065,0.61546016,-0.12132782,-0.7548844,0.19141032,7.226939678192139,-11.601556777954102,-6.667006492614746,-44.52501678466797,-148.4839630126953, 68.41765594482422
174,389862732,0.6026253,-0.12815319,-0.76374537,0.19264622,10.517719268798828,-9.492593765258789,-7.323551177978516,-44.151092529296875,-94.93468475341797, 50.31718826293945
175,389879399,0.59340245,-0.13478494,-0.77074045,0.18885387,12.756166458129883,-7.651854991912842,-5.275584697723389,-64.10409545898438,-64.07097625732422, 25.285921096801758
176,389896066,0.58692306,-0.13864177,-0.7763786,0.18312907,14.91263484954834,-6.993216514587402,-4.815771579742432,-58.74208068847656,-45.85047912597656, 0.398970365524292
177,389912733,0.5821962,-0.14007683,-0.7813191,0.17597343,15.994085311889648,-6.158329486846924,-4.004912853240967,-54.09075927734375,-35.418479919433594, -19.815288543701172
178,389929400,0.57655895,-0.142223,-0.7874815,0.16500124,19.741352081298828,-6.499311447143555,-0.5996140241622925,-79.83418273925781,-40.730403900146484, -31.302173614501953
179,389946067,0.56969887,-0.1453792,-0.794659,0.15108036,19.627782821655273,-5.082335948944092,3.2543601989746094,-102.22312927246094,-47.48773193359375, -37.06388473510742
180,389962734,0.5611538,-0.15086167,-0.80255926,0.13507737,16.30348777770996,-2.1654794216156006,2.975623846054077,-125.24234008789062,-55.24120330810547, -31.410032272338867
181,389979401,0.5508788,-0.1575804,-0.8112116,0.11677824,13.484109878540039,-0.6589962244033813,6.384087562561035,-145.2504119873047,-64.35717010498047, -32.55078887939453
182,389996068,0.5385576,-0.16432624,-0.8204209,0.09930921,10.124731063842773,-3.538823127746582,6.808754920959473,-143.46327209472656,-78.9786376953125, -28.163427352905273
183,390012735,0.5249031,-0.17068018,-0.82926846,0.087516114,10.909924507141113,-4.5487542152404785,7.367395877838135,-111.32955169677734,-92.02503967285156, -8.052828788757324
184,390029402,0.50406545,-0.17377068,-0.84212613,0.08090537,10.835554122924805,-2.4645333290100098,6.1969733238220215,-80.92505645751953,-155.683837890625, -8.371613502502441
185,390046069,0.47677273,-0.17602023,-0.8576889,0.07794087,11.380693435668945,-3.9671714305877686,5.800659656524658,-66.16458129882812,-207.41622924804688, -0.25336477160453796
186,390062736,0.44450808,-0.17938481,-0.87462646,0.07254252,12.71367359161377,-0.8786717057228088,3.200314521789551,-90.98436737060547,-237.8444061279297, -0.6776491403579712
187,390079403,0.40782362,-0.18977274,-0.8914672,0.054340202,17.22307777404785,-2.030454158782959,7.063006401062012,-194.9032440185547,-244.96339416503906, 4.757723808288574
188,390096070,0.37392527,-0.19742973,-0.90543157,0.037351456,14.232193946838379,-2.427016258239746,12.651077270507812,-175.11273193359375,-222.57913208007812, -5.873795986175537
189,390112737,0.34442556,-0.2037782,-0.9162247,0.019437872,12.517352104187012,-1.8243306875228882,12.793391227722168,-170.75927734375,-186.28944396972656, -13.24927806854248
190,390129404,0.32169968,-0.2098439,-0.9232958,0.00008653444,14.06966495513916,-7.943779945373535,10.807565689086914,-169.18252563476562,-132.95655822753906, -14.158766746520996
191,390146071,0.31065443,-0.208822,-0.9272876,-0.0050123148,15.534762382507324,-11.990903854370117,6.854464530944824,-46.23298645019531,-72.6755599975586, -23.252899169921875
192,390162738,0.3120513,-0.20147409,-0.92844933,0.0037768392,12.349043846130371,-6.731613636016846,4.740567207336426,73.48759460449219,-7.132975101470947, -29.479270935058594
193,390179405,0.32315418,-0.19425839,-0.9261063,0.012738943,10.042559623718262,-6.4945526123046875,3.8869616985321045,87.81130981445312,62.06247329711914, -23.65795135498047
194,390196072,0.3442347,-0.18761207,-0.9196662,0.022771498,8.179566383361816,-6.6516547203063965,1.875797152519226,107.02500915527344,133.31236267089844, -13.055976867675781
195,390212739,0.3741204,-0.18275627,-0.9087195,0.029378781,7.4909515380859375,-5.891890525817871,-1.2522330284118652,93.17328643798828,204.39476013183594, -5.4194841384887695
196,390229406,0.41149193,-0.18063545,-0.89282316,0.030202951,7.829520225524902,-6.227149963378906,-3.9384732246398926,60.40510940551758,271.8040466308594, 1.4745995998382568
197,390246073,0.455078,-0.18076326,-0.8714803,0.027407348,8.851874351501465,-5.585297107696533,-4.675564289093018,40.67396926879883,330.4488525390625, 10.468900680541992
198,390262740,0.5027443,-0.18431799,-0.84427303,0.021867514,9.667513847351074,-5.488488674163818,-5.434401035308838,19.69521141052246,377.4347229003906, 28.897533416748047
199,390279407,0.55323184,-0.18992952,-0.8108918,0.01777648,10.5674409866333,-5.317819595336914,-6.755843639373779,25.528291702270508,413.767822265625, 53.214447021484375
200,390296074,0.60465366,-0.19509141,-0.77201897,0.01789457,10.748659133911133,-2.715912103652954,-8.001864433288574,52.65390396118164,434.4562683105469, 73.75504302978516
201,390312741,0.6552086,-0.1980267,-0.72865564,0.023417762,16.258121490478516,-2.6674740314483643,-11.646347999572754,90.07660675048828,441.1436462402344, 90.55706787109375
202,390329408,0.7020802,-0.19333915,-0.6845759,0.03254592,21.31311798095703,-1.0676478147506714,-17.109281539916992,137.68051147460938,419.9051513671875, 70.19629669189453
203,390346075,0.741521,-0.1814536,-0.6445658,0.041906524,18.925329208374023,-1.5214639902114868,-23.010648727416992,162.8253173828125,363.5094299316406, 33.74739456176758
204,390362742,0.76848006,-0.17544545,-0.6138195,0.043397397,13.472412109375,-2.3992414474487305,-25.599355697631836,79.79415893554688,272.67645263671875, 11.763751029968262
205,390379409,0.7832413,-0.17905891,-0.5938784,0.042185392,8.390663146972656,-4.42202091217041,-25.76142692565918,-0.28303736448287964,170.5284881591797, 28.730815887451172
206,390396076,0.7882107,-0.18056715,-0.58656526,0.04539728,3.351365327835083,1.214434027671814,-25.52301597595215,13.526961326599121,56.78923034667969, 31.242372512817383
207,390412743,0.7844737,-0.18178761,-0.5909257,0.04859178,2.664630889892578,4.458410739898682,-22.611854553222656,0.6703211665153503,-41.374568939208984, 18.242502212524414
208,390429410,0.7754273,-0.17513181,-0.6036568,0.060333803,3.820279359817505,1.4844558238983154,-17.434940338134766,68.53062438964844,-121.19434356689453, 23.698104858398438
209,390446077,0.7628122,-0.15911153,-0.6215211,0.08070257,6.54799747467041,1.2524752616882324,-14.632503509521484,147.92047119140625,-177.52099609375, 26.092241287231445
210,390462744,0.74535817,-0.14117101,-0.6423961,0.10880796,11.392477035522461,-10.606488227844238,-11.823043823242188,184.17037963867188,-223.44361877441406, 57.80503845214844
211,390479411,0.72173554,-0.14331827,-0.66503686,0.12760858,32.94656753540039,1.6282583475112915,2.130826711654663,32.839962005615234,-235.60174560546875, 101.58340454101562
212,390496078,0.69197625,-0.13791788,-0.6925948,0.14986695,21.08779525756836,0.13953079283237457,-5.912778377532959,75.74593353271484,-298.24560546875, 84.9031982421875
213,390512745,0.6614258,-0.13112168,-0.7192495,0.16734158,16.277631759643555,12.583232879638672,-5.841257572174072,59.80472183227539,-294.62481689453125, 57.19359588623047
214,390529412,0.63395613,-0.13273026,-0.7410522,0.1769862,7.958738327026367,-2.446117401123047,-10.390934944152832,-8.755541801452637,-240.58811950683594, 64.16455841064453
215,390546079,0.6128449,-0.1390215,-0.7565146,0.18105243,7.1676740646362305,-9.628436088562012,-7.44785213470459,-44.01938247680664,-169.70684814453125, 61.72325897216797
216,390562746,0.5979548,-0.14382279,-0.76698357,0.18303369,11.48759937286377,-8.439237594604492,-6.686257362365723,-36.42074966430664,-116.16857147216797, 42.114227294921875
217,390579413,0.58705336,-0.14590819,-0.7751811,0.18213591,12.439807891845703,-7.91115140914917,-6.704617977142334,-33.65046310424805,-86.3969497680664, 13.141545295715332
218,390596080,0.5793046,-0.14709121,-0.7817415,0.17790732,13.906414031982422,-5.986320972442627,-6.047220230102539,-42.572994232177734,-60.806968688964844, -7.433104515075684
219,390612747,0.57388026,-0.14611608,-0.7872093,0.17208497,16.034353256225586,-5.948831081390381,-5.43830680847168,-38.8861198425293,-45.03579330444336, -27.094274520874023
220,390629414,0.5696748,-0.14596938,-0.7922401,0.16284737,20.9060001373291,-5.827552795410156,-2.0925235748291016,-58.936180114746094,-32.36682891845703, -37.04753112792969
221,390646081,0.56595707,-0.14859246,-0.79689056,0.15026097,22.424877166748047,-5.14423131942749,0.9110265374183655,-87.17343139648438,-21.89268684387207, -35.16206359863281
222,390662748,0.5608868,-0.1538946,-0.80237883,0.13383013,19.09345817565918,-2.342921733856201,4.245166301727295,-120.98763275146484,-26.05673599243164, -34.80867385864258
223,390679415,0.55485636,-0.16080151,-0.80824643,0.11408487,15.09428882598877,-0.9530065059661865,7.135326862335205,-146.90774536132812,-28.05538558959961, -38.156394958496094
224,390696082,0.54693615,-0.16914812,-0.8147226,0.092069775,10.759662628173828,-3.0268959999084473,8.907024383544922,-167.66392517089844,-37.48507308959961, -37.931156158447266
225,390712749,0.5359907,-0.17779002,-0.822044,0.073133044,8.43734359741211,-5.213860988616943,8.532512664794922,-155.6724090576172,-61.24320602416992, -23.764049530029297
226,390729416,0.51957226,-0.1847429,-0.8319899,0.06089077,9.413835525512695,-5.46163272857666,5.909997940063477,-119.7108383178711,-111.09147644042969, -9.14661979675293
227,390746083,0.49393463,-0.18923333,-0.84691167,0.054408446,10.003037452697754,-6.413774013519287,4.53713846206665,-91.83343505859375,-190.13638305664062, -5.172106742858887
228,390762750,0.46195632,-0.19255455,-0.8642033,0.051689345,10.457460403442383,-3.014850378036499,0.259285032749176,-75.16139221191406,-240.610595703125, 0.028417252004146576
229,390779417,0.42460108,-0.20290104,-0.8815342,0.037979767,17.870328903198242,-1.9263935089111328,5.240713119506836,-169.96766662597656,-255.76222229003906, 8.707955360412598
230,390796084,0.38792944,-0.21110733,-0.8969639,0.020014524,14.721956253051758,-0.009076058864593506,11.258455276489258,-188.10598754882812,-240.9471893310547, -14.20779037475586
231,390812751,0.35320938,-0.21986882,-0.9093348,-0.0033653162,12.345773696899414,-2.4438230991363525,11.271883964538574,-219.7675323486328,-213.12481689453125, -21.06476593017578
232,390829418,0.3230329,-0.22761267,-0.9183431,-0.022101501,10.323080062866211,-5.203624248504639,10.757084846496582,-181.50389099121094,-183.79856872558594, -11.021602630615234
233,390846085,0.299687,-0.2342826,-0.92413086,-0.03580311,11.683807373046875,-8.428521156311035,8.929826736450195,-137.2047119140625,-141.43899536132812, -0.6356660723686218
234,390862752,0.28749576,-0.23493233,-0.9277612,-0.037581827,15.290663719177246,-12.57371997833252,4.564208507537842,-31.73246192932129,-84.05004119873047, -8.195211410522461
235,390879419,0.2888929,-0.22734152,-0.92971456,-0.022090187,13.021086692810059,-7.221245288848877,4.015927791595459,116.05030822753906,-20.063230514526367, -20.4691219329834
236,390896086,0.3006325,-0.21783714,-0.928524,-0.0031829022,9.476546287536621,-7.011823654174805,3.3076131343841553,157.28973388671875,47.05466842651367, -19.390798568725586
237,390912753,0.32285815,-0.20792595,-0.92314553,0.018218653,8.008001327514648,-6.325920581817627,0.708411455154419,189.60009765625,118.82245635986328, -10.275941848754883
238,390929420,0.35370427,-0.19920196,-0.9132767,0.033730887,6.983452796936035,-5.21837043762207,-2.1905736923217773,162.4074249267578,192.03553771972656, -10.43142318725586
239,390946087,0.39191023,-0.19253984,-0.89871234,0.040634338,7.4808831214904785,-5.909351348876953,-3.542163133621216,114.4760513305664,261.9887390136719, -13.691253662109375
240,390962754,0.43644553,-0.18728657,-0.87902254,0.041936137,8.31249713897705,-6.147950649261475,-4.411888599395752,85.8701171875,322.834716796875, -15.113516807556152
241,390979421,0.4855165,-0.18429257,-0.8536235,0.04046197,9.791792869567871,-6.773118495941162,-5.312869548797607,69.8165054321289,371.7643737792969, -3.8202550411224365
242,390996088,0.5382442,-0.18429703,-0.8215051,0.038172457,11.151151657104492,-5.667834758758545,-6.94139289855957,61.55598068237305,417.72705078125, 18.46973419189453
243,391012755,0.59265816,-0.19052914,-0.78183395,0.034506984,12.989014625549316,-5.165362358093262,-8.846914291381836,34.90781784057617,458.84234619140625, 57.62680435180664
244,391029422,0.64513075,-0.20137616,-0.7363494,0.03230484,15.168545722961426,-2.1968705654144287,-11.419012069702148,22.88456153869629,471.5412902832031, 96.44019317626953
245,391046089,0.69304097,-0.20947772,-0.6889667,0.03373719,20.186336517333984,-2.753805160522461,-15.938239097595215,47.70583724975586,451.47265625, 102.32469940185547
246,391062756,0.7339816,-0.20885621,-0.6452648,0.035823897,20.339872360229492,3.1139075756073,-20.096023559570312,81.65379333496094,398.2197570800781, 60.4728889465332
247,391079423,0.76270086,-0.21528515,-0.609292,0.02651489,14.880425453186035,2.760033369064331,-21.164142608642578,-23.812625885009766,323.4429016113281, 26.323177337646484
248,391096090,0.7817056,-0.218383,-0.58376515,0.021525484,10.031668663024902,-4.200189590454102,-24.194664001464844,-4.358517169952393,221.34228515625, 21.477256774902344
249,391112757,0.79235506,-0.21028605,-0.57194716,0.02880714,4.2717695236206055,2.6904382705688477,-27.118412017822266,90.680908203125,94.47347259521484, 23.149255752563477
250,391129424,0.7920182,-0.20409986,-0.57421213,0.0364823,3.280831813812256,6.168949127197266,-24.021804809570312,63.315555572509766,-25.20395278930664, 14.675397872924805
251,391146091,0.78378826,-0.1941557,-0.5876824,0.05107763,3.2511396408081055,-0.3826686143875122,-21.245101928710938,97.34956359863281,-127.70418548583984, 23.851360321044922
252,391162758,0.7712222,-0.173047,-0.607831,0.0762415,6.127422332763672,0.9567753076553345,-16.972475051879883,192.25424194335938,-199.01856994628906, 28.215702056884766
253,391179425,0.753668,-0.15500681,-0.630277,0.10348189,8.327661514282227,-11.533618927001953,-14.006048202514648,177.61610412597656,-232.74635314941406, 51.85102462768555
254,391196092,0.7312011,-0.15476215,-0.6520713,0.12726632,30.30777359008789,-4.814924716949463,1.9147733449935913,65.71964263916016,-234.2020263671875, 115.01687622070312
255,391212759,0.7030278,-0.14276244,-0.6793025,0.15465881,27.259977340698242,5.5112199783325195,-10.215070724487305,130.1705780029297,-301.4359130859375, 79.69700622558594
256,391229426,0.67243636,-0.13407932,-0.7072002,0.17239563,21.387582778930664,15.072213172912598,-5.682794094085693,65.98695373535156,-302.8760986328125, 50.579505920410156
257,391246093,0.6445604,-0.13788092,-0.73014396,0.18005788,11.128704071044922,3.3321011066436768,-8.781255722045898,-32.329341888427734,-242.6920623779297, 66.35581970214844
258,391262760,0.6231212,-0.14577317,-0.7463196,0.182968,6.983412265777588,-9.660677909851074,-8.338637351989746,-59.77063751220703,-170.8035430908203, 64.34758758544922
259,391279427,0.6084695,-0.15130986,-0.75663507,0.18540105,10.00031852722168,-10.332793235778809,-5.472752094268799,-37.9354362487793,-113.35816192626953, 47.41508865356445
260,391296094,0.59772146,-0.15491317,-0.764639,0.18454921,10.922245025634766,-8.005400657653809,-7.4011359214782715,-39.96574020385742,-82.49085998535156, 20.946468353271484
261,391312761,0.5897404,-0.15578954,-0.7715476,0.18069394,13.114624977111816,-7.962658405303955,-6.356125831604004,-40.2386589050293,-63.73774719238281, -8.116059303283691
262,391329428,0.58499616,-0.15268512,-0.7767254,0.17653453,15.265009880065918,-7.957097053527832,-4.4535322189331055,-20.141286849975586,-44.22032928466797, -32.64997482299805
263,391346095,0.5814899,-0.15057036,-0.78136086,0.16933207,18.82082748413086,-6.047232627868652,-1.8981919288635254,-38.48332977294922,-31.11948013305664, -40.533626556396484
264,391362762,0.57714206,-0.15387918,-0.78677547,0.15560517,21.319238662719727,-5.011033535003662,1.8770883083343506,-97.07652282714844,-25.832210540771484, -37.239593505859375
265,391379429,0.57211435,-0.15890843,-0.7924083,0.13972269,15.912789344787598,-2.712301254272461,3.3276638984680176,-116.6158218383789,-26.471675872802734, -35.88807678222656
266,391396096,0.56494766,-0.16625991,-0.7991621,0.12054812,14.76407241821289,-0.5641803741455078,6.2773051261901855,-147.19236755371094,-36.91728591918945, -35.272987365722656
267,391412763,0.5554939,-0.17548165,-0.80668676,0.09944533,10.26628303527832,-2.6555826663970947,7.377102851867676,-168.39390563964844,-48.97798156738281, -31.383281707763672
268,391429430,0.54336363,-0.18368784,-0.81487966,0.08358232,8.684061050415039,-3.4887335300445557,8.605770111083984,-139.22503662109375,-73.6240463256836, -15.96922492980957
269,391446097,0.5268987,-0.19026436,-0.82517135,0.072593465,8.609286308288574,-1.815211296081543,4.890993118286133,-112.60359954833984,-113.07670593261719, -7.077744960784912
270,391462764,0.5028353,-0.19421586,-0.83974636,0.06529159,9.473655700683594,-2.521681547164917,4.178402423858643,-94.30391693115234,-178.00811767578125, -10.438711166381836
271,391479431,0.47318834,-0.19597171,-0.8567768,0.0601813,8.903898239135742,-1.3658809661865234,1.516628384590149,-82.66024017333984,-222.8112335205078, -16.336870193481445
272,391496098,0.4378386,-0.1997224,-0.87497836,0.053116124,16.463699340820312,-4.414442539215088,-0.6443139910697937,-108.85746765136719,-256.8760681152344, -10.177619934082031
273,391512765,0.4029606,-0.20000844,-0.891685,0.050174072,14.605522155761719,-3.101083755493164,8.669411659240723,-72.45209503173828,-256.6071472167969, -16.748809814453125
274,391529432,0.37102032,-0.20028284,-0.9055576,0.04686986,12.737579345703125,-1.1421622037887573,12.166960716247559,-69.6858139038086,-230.49301147460938, -14.948204040527344
275,391546099,0.34246746,-0.20274088,-0.9164503,0.041605014,11.067253112792969,-4.52174711227417,11.383695602416992,-81.89656066894531,-198.64935302734375, -3.33664870262146
276,391562766,0.32082412,-0.2055852,-0.9238379,0.036475487,14.20654010772705,-8.720362663269043,10.812153816223145,-71.4133071899414,-147.13330078125, 2.283958911895752
277,391579433,0.3095065,-0.2048009,-0.9278033,0.037995167,16.9929141998291,-11.958267211914062,6.387292385101318,-5.8696064949035645,-84.53014373779297, -3.905728578567505
278,391596100,0.3090038,-0.19929709,-0.9286418,0.049213894,13.316219329833984,-8.060493469238281,4.0303263664245605,81.91703033447266,-23.987842559814453, -11.83251953125
279,391612767,0.31790546,-0.19319704,-0.92642075,0.057930037,11.7052640914917,-2.532602071762085,4.1622090339660645,81.03324890136719,45.67103958129883, -19.9393253326416
280,391629434,0.33507553,-0.19084509,-0.9210434,0.05460615,10.711565017700195,-2.151226282119751,2.306060791015625,8.37946891784668,122.64215087890625, -21.45989418029785
281,391646101,0.360472,-0.19224212,-0.9116361,0.04497423,8.901764869689941,-5.758370876312256,-1.3371448516845703,-27.903213500976562,193.6796875, -10.073159217834473
282,391662768,0.3941045,-0.1941014,-0.897597,0.036414307,8.92020034790039,-7.1498799324035645,-3.260094165802002,-10.046426773071289,255.56756591796875, -1.0274854898452759
283,391679435,0.4338207,-0.19632351,-0.87880254,0.031029519,9.159732818603516,-8.223414421081543,-4.369595527648926,17.84354591369629,301.94598388671875, 14.542051315307617
284,391696102,0.478445,-0.1970467,-0.85510576,0.03251698,9.561029434204102,-9.20317268371582,-4.959237575531006,71.49717712402344,336.7478942871094, 31.458980560302734
285,391712769,0.52768123,-0.19579607,-0.82560545,0.039904628,11.266026496887207,-5.918024063110352,-4.8782429695129395,120.23705291748047,374.671875, 46.006324768066406
286,391729436,0.57897925,-0.19592513,-0.790008,0.047789615,12.165518760681152,-4.932659149169922,-6.706313133239746,122.53526306152344,408.3512878417969, 63.26179885864258
287,391746103,0.6319745,-0.19503729,-0.74768597,0.0594504,14.021998405456543,-2.347902297973633,-9.990009307861328,151.68223571777344,439.1236572265625, 81.27464294433594
288,391762770,0.68116355,-0.19566728,-0.70254683,0.06448685,16.867618560791016,2.672224998474121,-12.021167755126953,107.13953399658203,441.48443603515625, 65.65039825439453
289,391779437,0.72395647,-0.19829708,-0.6579012,0.06108607,19.192481994628906,-1.2136808633804321,-18.004623413085938,48.27078628540039,420.7115783691406, 38.07732391357422
290,391796104,0.7572567,-0.2021371,-0.6187439,0.053469703,16.40851593017578,-3.8450281620025635,-20.713268280029297,8.06468677520752,356.98687744140625, 19.1481876373291
291,391812771,0.7810078,-0.20233968,-0.58855355,0.05186904,12.44328784942627,-4.806276798248291,-23.73522186279297,36.20984649658203,260.3237609863281, 26.088829040527344
292,391829438,0.79432243,-0.19756074,-0.571672,0.05667935,5.256481647491455,5.196250915527344,-26.76761245727539,69.83846282958984,136.3529815673828, 25.57526969909668
293,391846105,0.7961269,-0.19562206,-0.5694431,0.060402825,2.3131046295166016,6.75993013381958,-26.15247917175293,28.887109756469727,14.136869430541992, 15.505746841430664
294,391862772,0.7907255,-0.18562311,-0.57895124,0.071503155,3.0994248390197754,4.496252059936523,-22.440202713012695,87.4909896850586,-91.16859436035156, 11.63217544555664
295,391879439,0.77956647,-0.1685409,-0.5965271,0.08958527,5.476627826690674,1.387912392616272,-18.771926879882812,142.64390563964844,-170.01458740234375, 13.939562797546387
296,391896106,0.7616087,-0.15174516,-0.61944264,0.114963464,10.311384201049805,-14.419208526611328,-18.453153610229492,160.02914428710938,-234.55662536621094, 52.15726089477539
297,391912773,0.7362709,-0.16054007,-0.6443669,0.13009025,33.177772521972656,-7.786723613739014,1.7776845693588257,-26.77332305908203,-245.320068359375, 110.93184661865234
298,391929440,0.7059628,-0.15819956,-0.67414266,0.14873229,24.2460880279541,6.200570583343506,-6.965532302856445,35.38181686401367,-305.8563537597656, 78.51782989501953
299,391946107,0.673702,-0.16072248,-0.70382357,0.15788138,20.3693904876709,11.05797004699707,-7.2217183113098145,-34.204959869384766,-299.10235595703125, 57.279144287109375
300,391962774,0.64538234,-0.16433527,-0.727391,0.16546339,5.902129173278809,0.024127081036567688,-8.900867462158203,-35.74577331542969,-248.7603759765625, 58.04338455200195
301,391979441,0.6243626,-0.16858177,-0.74295056,0.17255801,3.2447855472564697,-12.547492980957031,-9.660018920898438,-23.543357849121094,-175.38531494140625, 59.759403228759766
302,391996108,0.610149,-0.17207932,-0.7529773,0.17644313,9.020345687866211,-12.377389907836914,-6.064242839813232,-22.235891342163086,-113.97162628173828, 40.24978256225586
303,392012775,0.5994925,-0.17476316,-0.7609383,0.17618077,13.291271209716797,-7.3963518142700195,-6.323261737823486,-33.61137390136719,-83.00212097167969, 16.617883682250977
304,392029442,0.590895,-0.17578378,-0.7683354,0.17205806,14.18380069732666,-4.327822208404541,-5.743393421173096,-43.82191848754883,-67.32447052001953, -9.814628601074219
305,392046109,0.58425623,-0.17271903,-0.7749513,0.16811755,15.730920791625977,-5.577188014984131,-5.861734867095947,-23.001176834106445,-58.91089630126953, -31.970428466796875
306,392062776,0.5787049,-0.16922544,-0.7810957,0.162336,18.979415893554688,-6.002949237823486,-3.2984414100646973,-29.296167373657227,-49.59107208251953, -42.30115509033203
307,392079443,0.57313323,-0.16917774,-0.7871881,0.1524219,21.1741943359375,-4.664004802703857,0.9329780340194702,-65.24176788330078,-40.96746063232422, -40.076358795166016
308,392096110,0.56623447,-0.17317866,-0.7939293,0.13807315,18.506635665893555,-2.325935125350952,2.752034902572632,-107.52777862548828,-41.53657150268555, -34.8729362487793
309,392112777,0.5579449,-0.17795266,-0.8013803,0.12173741,14.39298152923584,-1.6836045980453491,3.429518938064575,-123.8127670288086,-49.04800033569336, -37.77411651611328
310,392129444,0.5485726,-0.18225019,-0.80924493,0.10476468,11.388334274291992,-2.125232696533203,6.233039855957031,-127.25567626953125,-56.46201705932617, -42.34537887573242
311,392146111,0.53698325,-0.18703905,-0.8178774,0.08798891,8.763400077819824,-4.850930213928223,5.740815162658691,-131.45359802246094,-71.8619613647461, -38.185604095458984
312,392162778,0.5236536,-0.19053403,-0.8269241,0.075369135,10.220131874084473,-5.026796817779541,7.746893882751465,-105.90753173828125,-89.54110717773438, -29.633926391601562
313,392179445,0.50385743,-0.19413802,-0.8390169,0.06700044,8.792404174804688,-6.315690994262695,3.6783809661865234,-92.30439758300781,-143.08056640625, -14.392053604125977
314,392196112,0.4764877,-0.19215778,-0.85524786,0.06772058,9.612574577331543,-5.154304027557373,1.5381665229797363,-32.63533401489258,-216.01150512695312, -17.240278244018555
315,392212779,0.44254172,-0.19418555,-0.873319,0.061341327,15.9920654296875,-1.4251527786254883,2.529918670654297,-97.1386947631836,-249.64418029785156, -16.359041213989258
316,392229446,0.4057554,-0.20040172,-0.890514,0.046761543,15.603732109069824,-3.694392204284668,8.586172103881836,-162.5952606201172,-251.6085205078125, -13.75795841217041
317,392246113,0.37065488,-0.20480585,-0.9053721,0.031166803,14.812583923339844,-2.2538037300109863,11.218879699707031,-160.77357482910156,-234.3335723876953, -25.03117561340332
318,392262780,0.3386487,-0.20920007,-0.9172452,0.014617216,12.69745922088623,-4.786344051361084,10.425132751464844,-161.77516174316406,-206.53317260742188, -24.009607315063477
319,392279447,0.31278935,-0.2130486,-0.9256172,0.0024928923,13.093575477600098,-8.710372924804688,8.713994979858398,-123.50764465332031,-166.38023376464844, -12.80628490447998
320,392296114,0.2966535,-0.21341094,-0.9308341,0.00067064335,14.954194068908691,-10.45337963104248,4.95278263092041,-36.33028030395508,-113.18618774414062, -8.486703872680664
321,392312781,0.29230922,-0.21004573,-0.9329236,0.009486592,12.93746566772461,-7.165435791015625,2.8624651432037354,56.454647064208984,-47.28293228149414, -6.1780686378479
322,392329448,0.29799065,-0.20727201,-0.9315977,0.019121855,9.9959077835083,-6.341953277587891,3.1254897117614746,75.07610321044922,22.505720138549805, 3.544945001602173
323,392346115,0.31420287,-0.2056085,-0.9263009,0.031121645,7.203255653381348,-7.13578462600708,2.060558319091797,103.34461212158203,94.7030029296875, 19.788480758666992
324,392362782,0.340306,-0.20606379,-0.9165297,0.041266523,6.424230098724365,-5.68173885345459,-0.6367448568344116,101.74478149414062,170.36448669433594, 33.47159194946289
325,392379449,0.3748809,-0.2083155,-0.9021818,0.04622801,6.469429969787598,-4.999743461608887,-3.162358522415161,78.07173919677734,242.31858825683594, 36.710147857666016
326,392396116,0.41658765,-0.21181855,-0.8828274,0.046942107,7.602425575256348,-4.356113433837891,-4.335840702056885,60.237823486328125,306.0157165527344, 38.35888671875
327,392412783,0.46295336,-0.21682195,-0.8583079,0.044388346,8.368012428283691,-3.0825085639953613,-4.368710517883301,44.51787567138672,354.4252624511719, 44.03862380981445
328,392429450,0.51275146,-0.22340919,-0.8278834,0.04223045,9.120976448059082,-2.7885982990264893,-5.837992191314697,48.73543930053711,393.47808837890625, 62.32886505126953
329,392446117,0.56381756,-0.22767514,-0.79272676,0.04310547,9.739457130432129,2.337923049926758,-7.889988422393799,77.55545806884766,412.1883850097656, 66.64801025390625
330,392462784,0.614253,-0.2350326,-0.75218695,0.040838715,12.944303512573242,0.42812061309814453,-8.955231666564941,49.15532302856445,435.6931457519531, 80.00446319580078
331,392479451,0.66400766,-0.23746939,-0.7076748,0.04357169,17.98797607421875,-0.44356316328048706,-12.99735164642334,95.95255279541016,439.74530029296875, 82.34877014160156
332,392496118,0.70944947,-0.22845304,-0.66479677,0.05036209,19.959247589111328,-2.2727344036102295,-18.588533401489258,160.64276123046875,401.544189453125, 43.878849029541016
333,392512785,0.74756956,-0.21085894,-0.6271998,0.057435498,18.090335845947266,1.2523436546325684,-20.75551414489746,190.6760711669922,339.3573913574219, 0.41747307777404785
334,392529452,0.77246,-0.20656912,-0.5981095,0.05384984,13.888076782226562,-0.37948381900787354,-20.792888641357422,53.94158172607422,259.80633544921875, -3.902256488800049
335,392546119,0.78644645,-0.20643252,-0.579653,0.05375858,6.905507564544678,-2.5732638835906982,-24.651294708251953,27.047975540161133,155.62246704101562, 20.786378860473633
336,392562786,0.7916772,-0.19965014,-0.57417375,0.060923185,1.9295201301574707,2.3664138317108154,-24.26642417907715,74.95460510253906,38.42338943481445, 18.341764450073242
337,392579453,0.78893894,-0.18673639,-0.58079785,0.073341094,2.565384864807129,0.8071193695068359,-22.6270694732666,113.3052978515625,-68.14768981933594, 9.473372459411621
338,392596120,0.7778045,-0.16981961,-0.5978046,0.09386734,4.422001361846924,-4.382730484008789,-27.217945098876953,151.63507080078125,-169.96937561035156, 28.309078216552734
339,392612787,0.75637543,-0.15739676,-0.623716,0.11874852,15.470104217529297,-13.267118453979492,-12.224446296691895,128.0580596923828,-261.58575439453125, 66.1058578491211
340,392629454,0.7315878,-0.15293154,-0.64831233,0.14519826,29.75867462158203,-2.4829728603363037,5.250720024108887,91.01365661621094,-264.1638488769531, 112.24652099609375
341,392646121,0.70209646,-0.14647324,-0.6769642,0.16530544,19.1793155670166,10.534714698791504,-10.874787330627441,63.71453857421875,-301.0804443359375, 71.97702026367188
342,392662788,0.67029333,-0.14819197,-0.705689,0.17535396,17.218320846557617,4.416945457458496,-6.1000871658325195,-24.89556121826172,-292.6417541503906, 64.3284912109375
343,392679455,0.6429875,-0.15209757,-0.7280752,0.18259259,7.288031578063965,0.5418871641159058,-8.716466903686523,-36.30454635620117,-236.1141815185547, 63.19405746459961
344,392696122,0.62156856,-0.15634784,-0.7439893,0.18891294,6.238367080688477,-11.72550106048584,-6.957687854766846,-28.050127029418945,-176.60572814941406, 60.2320442199707
345,392712789,0.6063921,-0.15901917,-0.75472045,0.19338737,10.34450912475586,-9.18734073638916,-6.43137264251709,-17.30166244506836,-122.6105728149414, 41.48685836791992
346,392729456,0.59498996,-0.16180347,-0.7631173,0.19354273,12.980792045593262,-6.013366222381592,-7.575456619262695,-32.982933044433594,-88.47582244873047, 21.496736526489258
347,392746123,0.5857784,-0.16405907,-0.77066857,0.18978533,14.26936149597168,-4.125234603881836,-6.47122859954834,-47.79907989501953,-69.91938018798828, 0.7599416971206665
348,392762790,0.57958984,-0.1624673,-0.7767595,0.18526967,15.85350227355957,-6.2522406578063965,-5.601903438568115,-31.0371150970459,-52.25885009765625, -24.902029037475586
349,392779457,0.5751206,-0.16134022,-0.78216153,0.17728251,19.729246139526367,-6.689970970153809,-3.159968614578247,-48.69856262207031,-35.95917892456055, -37.621246337890625
350,392796124,0.571448,-0.16233456,-0.78719914,0.16556649,19.99350357055664,-6.791613578796387,0.12123319506645203,-75.91602325439453,-23.686140060424805, -41.42808532714844
351,392812791,0.56665397,-0.1667039,-0.7927965,0.15028994,19.466995239257812,-3.48752760887146,2.2101075649261475,-110.47389221191406,-24.38633155822754, -36.40155029296875
352,392829458,0.5607965,-0.17331412,-0.79900193,0.13063516,16.42511749267578,-0.9000200033187866,5.888508319854736,-145.0480194091797,-25.5098876953125, -40.695892333984375
353,392846125,0.5532514,-0.18079735,-0.80584604,0.10880115,11.814821243286133,-3.051985025405884,7.738297462463379,-163.1058349609375,-34.21170425415039, -43.40353775024414
354,392862792,0.54333776,-0.18795466,-0.81325835,0.08982328,8.591436386108398,-4.9798583984375,8.00192642211914,-149.55337524414062,-53.63414001464844, -33.24921798706055
355,392879459,0.530367,-0.19170164,-0.8220457,0.078753784,8.435819625854492,-4.381318092346191,6.252254009246826,-97.53810119628906,-88.49018096923828, -22.720468521118164
356,392896126,0.5094753,-0.19185354,-0.8354864,0.07476492,8.421188354492188,-4.404298305511475,5.104373455047607,-57.4760627746582,-161.75978088378906, -19.127103805541992
357,392912793,0.4823149,-0.18996756,-0.85180575,0.07557616,7.535828590393066,-2.6266860961914062,2.6160714626312256,-32.59846115112305,-215.45782470703125, -14.659090042114258
358,392929460,0.44932514,-0.19150043,-0.8696581,0.07161994,15.693964958190918,-1.4406791925430298,1.6826112270355225,-80.31757354736328,-246.84375, -9.456445693969727
359,392946127,0.41574243,-0.19276184,-0.88633746,0.06638851,13.482634544372559,-1.2367831468582153,8.087261199951172,-87.32260131835938,-245.46481323242188, -13.15053939819336
360,392962794,0.38403666,-0.19311759,-0.901097,0.056970622,13.349650382995605,2.2899410724639893,11.084464073181152,-106.94486999511719,-223.73255920410156, -28.940061569213867
361,392979461,0.35265696,-0.19777411,-0.91392046,0.035607018,11.99803638458252,-1.887760043144226,11.101137161254883,-191.1586456298828,-199.44647216796875, -31.367023468017578
362,392996128,0.3264401,-0.20302173,-0.9230497,0.014079222,14.05959415435791,-7.970927715301514,9.907685279846191,-185.7639617919922,-158.0093231201172, -24.37051773071289
363,393012795,0.30937448,-0.20341384,-0.9289221,0.003755249,17.97907829284668,-11.554174423217773,5.276034832000732,-90.82540893554688,-109.0480728149414, -26.518529891967773
364,393029462,0.3035211,-0.19758928,-0.9320753,0.008319521,16.775123596191406,-8.207558631896973,2.5328052043914795,33.01832580566406,-52.956024169921875, -31.151287078857422
365,393046129,0.307477,-0.1915303,-0.93196154,0.014900807,13.226792335510254,-5.781642436981201,2.9564690589904785,59.807289123535156,13.729778289794922, -24.587791442871094
366,393062796,0.3215095,-0.18607138,-0.9281018,0.025228787,9.982622146606445,-8.328109741210938,1.2084522247314453,96.10994720458984,81.190673828125, -8.904433250427246
367,393079463,0.34549624,-0.1808898,-0.91999394,0.039020803,8.159232139587402,-7.235995292663574,-1.3531899452209473,130.94717407226562,149.68006896972656, 4.221426486968994
368,393096130,0.37808767,-0.17746298,-0.9072655,0.049256403,7.607611179351807,-6.608323574066162,-2.97049617767334,116.1288833618164,220.03602600097656, 10.297266960144043
369,393112797,0.41784182,-0.17567118,-0.8895974,0.056255,7.623790740966797,-6.145397186279297,-4.684823513031006,102.03640747070312,282.1753234863281, 15.637323379516602
370,393129464,0.46318913,-0.17549324,-0.86652917,0.06152281,8.1272611618042,-4.796713352203369,-4.793398380279541,95.62371826171875,334.7803649902344, 24.83252716064453
371,393146131,0.51287025,-0.1782355,-0.8372885,0.064376056,9.082357406616211,-3.1344802379608154,-4.982029914855957,79.77240753173828,384.59490966796875, 40.09667205810547
372,393162798,0.56516904,-0.18422394,-0.8014693,0.06551653,8.999140739440918,-1.4354335069656372,-6.516454696655273,64.60728454589844,426.6031494140625, 59.60831832885742
373,393179465,0.6168023,-0.19325261,-0.7602777,0.064703666,11.309633255004883,1.288671612739563,-8.758525848388672,43.648963928222656,447.8879089355469, 75.85681915283203
374,393196132,0.66742295,-0.1994932,-0.7144864,0.06525578,16.505130767822266,0.9966978430747986,-14.273174285888672,63.42117691040039,459.3167724609375, 73.68038940429688
375,393212799,0.7128122,-0.19813839,-0.6695589,0.065810986,19.79830551147461,-3.117248296737671,-20.191633224487305,90.88892364501953,426.5356750488281, 37.62441635131836
376,393229466,0.750693,-0.1880901,-0.6295374,0.06902854,18.08734893798828,-4.1831865310668945,-23.37775993347168,133.5214385986328,360.78564453125, 7.432259559631348
377,393246133,0.77669144,-0.18284002,-0.5987775,0.06917858,14.04244327545166,-1.866310954093933,-23.636009216308594,75.90538024902344,268.2987365722656, 6.090800762176514
378,393262800,0.79046726,-0.18459158,-0.57994264,0.06894988,6.738461494445801,-1.4026974439620972,-26.46565055847168,16.12991714477539,158.65138244628906, 23.7962703704834
379,393279467,0.79457283,-0.18258958,-0.5744173,0.07321226,2.3504765033721924,2.5594136714935303,-25.264415740966797,36.11297607421875,40.8669548034668, 20.960269927978516
380,393296134,0.7913711,-0.1731966,-0.5802669,0.083815835,1.3015697002410889,0.9225217700004578,-22.463884353637695,86.859375,-61.29648971557617, 15.852365493774414
381,393312801,0.78321564,-0.15415646,-0.5933693,0.10354753,4.2149834632873535,4.238852024078369,-17.085033416748047,165.91519165039062,-136.53909301757812, 21.183435440063477
382,393329468,0.7681964,-0.14130916,-0.61268413,0.12051681,5.232283115386963,-7.8553242683410645,-18.138944625854492,109.73152923583984,-190.35321044921875, 29.86056900024414
383,393346135,0.74734056,-0.14570485,-0.6333305,0.13836466,20.461353302001953,-18.95218276977539,-2.9337549209594727,15.795965194702148,-208.2393035888672, 110.46157836914062
384,393362802,0.7202109,-0.14371286,-0.65910894,0.1619212,33.35261535644531,-5.008956432342529,-5.29139518737793,62.44017028808594,-273.7710266113281, 112.49510955810547
385,393379469,0.69227934,-0.13004339,-0.6860135,0.18227416,18.978687286376953,21.084880828857422,-5.384779453277588,103.78726959228516,-292.7633972167969, 43.52577209472656
386,393396136,0.66335386,-0.13073444,-0.71087325,0.19372568,16.082895278930664,4.861989974975586,-6.175253391265869,-4.848105430603027,-261.7325134277344, 72.45467376708984
387,393412803,0.6396958,-0.13863605,-0.73008597,0.19632605,7.0193772315979,-6.395225524902344,-8.187650680541992,-68.65348815917969,-192.6551971435547, 65.5641860961914
388,393429470,0.62375534,-0.14261052,-0.74212605,0.1996006,8.906641006469727,-12.721893310546875,-5.454440593719482,-30.871414184570312,-128.26309204101562, 45.11977767944336
389,393446137,0.6120272,-0.14716488,-0.75130284,0.19826613,10.591174125671387,-8.975377082824707,-7.450623512268066,-48.830528259277344,-89.2014389038086, 25.146873474121094
390,393462804,0.603593,-0.14996825,-0.75870246,0.19379286,13.843403816223145,-6.549709320068359,-4.732305526733398,-51.917564392089844,-63.91014862060547, 0.13693517446517944
391,393479471,0.596938,-0.1501037,-0.76526916,0.18840718,16.02501678466797,-6.141223907470703,-4.812894344329834,-42.7056884765625,-53.84964370727539, -19.04789161682129
392,393496138,0.5914511,-0.14873959,-0.77135235,0.18187328,18.99773406982422,-6.117757320404053,-2.3663430213928223,-40.81110763549805,-46.54954147338867, -32.605064392089844
393,393512805,0.5861232,-0.15081662,-0.777551,0.17067069,20.290266036987305,-4.712090969085693,1.5892956256866455,-79.6327896118164,-37.24605941772461, -33.55584716796875
394,393529472,0.57917583,-0.1569245,-0.7846939,0.15551786,17.33519172668457,-3.5374038219451904,2.40421462059021,-119.90782165527344,-41.137752532958984, -26.847938537597656
395,393546139,0.5704307,-0.16458128,-0.7927491,0.13809736,13.934795379638672,-1.7183127403259277,6.48385763168335,-141.34133911132812,-50.633087158203125, -26.441091537475586
396,393562806,0.5597695,-0.1713569,-0.8015405,0.12176916,9.448822021484375,-3.098283052444458,7.0338521003723145,-134.9333038330078,-66.37598419189453, -25.849788665771484
397,393579473,0.5454746,-0.17669174,-0.8119124,0.109708026,8.658753395080566,-3.8630175590515137,6.895209789276123,-111.6100845336914,-99.03092193603516, -16.165109634399414
398,393596140,0.52717817,-0.17957649,-0.8242097,0.10253759,9.476225852966309,-0.9353023767471313,7.315659999847412,-81.56050872802734,-136.67501831054688, -10.845441818237305
399,393612807,0.5049762,-0.18208548,-0.83825237,0.09579669,12.28054428100586,-0.1355569064617157,7.5392022132873535,-83.90694427490234,-166.24403381347656, -10.792093276977539
400,393629474,0.4762311,-0.18457739,-0.855242,0.08773007,10.989119529724121,-0.6217865943908691,3.9708878993988037,-101.6949462890625,-212.9059600830078, -14.81972599029541
401,393646141,0.44115135,-0.18738222,-0.87416214,0.07819221,13.213906288146973,-5.191320419311523,-2.603235960006714,-120.60938262939453,-254.707763671875, -16.41074562072754
402,393662808,0.40553325,-0.18712145,-0.8914835,0.07606429,18.35877799987793,-4.350107192993164,4.760758876800537,-66.62025451660156,-264.44598388671875, -10.071496963500977
403,393679475,0.37388372,-0.18378599,-0.9057959,0.07725157,12.957870483398438,-0.8321863412857056,12.347905158996582,-31.13036346435547,-237.99136352539062, -17.87470817565918
404,393696142,0.34588367,-0.18323922,-0.91727215,0.07348393,12.098886489868164,-5.706355094909668,9.661540985107422,-63.1336784362793,-200.67236328125, -11.5675687789917
405,393712809,0.326414,-0.18006916,-0.9248774,0.07504104,16.65815544128418,-12.180854797363281,8.585412979125977,-10.775651931762695,-146.06590270996094, -14.921280860900879
406,393729476,0.31865796,-0.17238533,-0.9278859,0.088139124,14.925387382507324,-8.163884162902832,8.463582038879395,89.31338500976562,-78.3208999633789, -18.124801635742188
407,393746143,0.32030055,-0.16644117,-0.9273723,0.098415956,10.635632514953613,-3.1864845752716064,7.4289374351501465,80.54441833496094,-6.632988452911377, -14.682596206665039
408,393762810,0.33029932,-0.16603729,-0.92416465,0.09619594,9.197332382202148,-5.119924545288086,4.750500679016113,-0.07663455605506897,70.35594940185547, -9.402473449707031
409,393779477,0.35018805,-0.1676741,-0.91716415,0.08979875,7.9073052406311035,-5.342915058135986,1.4264512062072754,-17.61142921447754,147.73646545410156, -8.181157112121582
410,393796144,0.37971485,-0.17007896,-0.9057523,0.08063939,8.327139854431152,-3.568924903869629,-0.45151060819625854,-23.180805206298828,222.70584106445312, -10.952713012695312
411,393812811,0.41712362,-0.17452125,-0.88921523,0.06961949,8.322439193725586,-5.442727088928223,-2.1066360473632812,-28.113807678222656,288.4403381347656, -1.5982574224472046
412,393829478,0.4605047,-0.17958386,-0.86702675,0.062849596,9.067178726196289,-6.727840423583984,-3.2941136360168457,5.8673295974731445,336.3776550292969, 18.16424560546875
413,393846145,0.508217,-0.18517676,-0.83893955,0.06004687,10.699755668640137,-6.193212509155273,-4.087636947631836,35.64077377319336,376.2696228027344, 39.140995025634766
414,393862812,0.5593135,-0.19109765,-0.8042853,0.06144583,13.047158241271973,-4.734982967376709,-4.713005065917969,65.69227600097656,413.62921142578125, 62.55413818359375
415,393879479,0.6122997,-0.19704564,-0.76279557,0.06637218,14.427391052246094,-1.757253646850586,-6.582091331481934,90.45221710205078,445.88116455078125, 84.39112091064453
416,393896146,0.6641664,-0.20066665,-0.7163329,0.07404838,17.294111251831055,-0.02158123254776001,-9.59113597869873,115.46336364746094,456.3495788574219, 91.04511260986328
417,393912813,0.71321666,-0.19671685,-0.6678576,0.08118415,20.962160110473633,3.9709200859069824,-13.700811386108398,144.62550354003906,448.8254089355469, 55.601646423339844
418,393929480,0.753704,-0.19577032,-0.62273717,0.07617766,20.21526527404785,1.1015418767929077,-18.476980209350586,60.760536193847656,411.501708984375, 10.337273597717285
419,393946147,0.7838549,-0.1964995,-0.5850258,0.06858932,16.592729568481445,-6.369940757751465,-22.80828094482422,23.422983169555664,333.7300109863281, -0.23195047676563263
420,393962814,0.80379987,-0.19118372,-0.5589176,0.070469484,9.237894058227539,-1.7830878496170044,-27.442811965942383,75.13978576660156,215.20909118652344, 15.620696067810059
421,393979481,0.8112915,-0.18573229,-0.54944205,0.0736421,1.9749603271484375,6.61570930480957,-28.99237060546875,56.785362243652344,74.49710845947266, 6.4696946144104
422,393996148,0.80734533,-0.18103488,-0.556139,0.07829044,1.2741096019744873,2.575547933578491,-28.239206314086914,35.671775817871094,-59.61798858642578, 2.86297869682312
423,394012815,0.7957883,-0.1654681,-0.5748237,0.09444079,4.994197845458984,0.4501177966594696,-24.09356117248535,124.4339599609375,-174.705322265625, 14.33215618133545
424,394029482,0.7759964,-0.15345213,-0.60108596,0.113919795,9.074034690856934,-14.383919715881348,-17.44171714782715,104.21969604492188,-249.58670043945312, 43.22419738769531
425,394046149,0.75283855,-0.15676218,-0.6257013,0.1309882,26.745147705078125,-10.186309814453125,3.296856164932251,10.556818008422852,-239.728271484375, 97.65814971923828
426,394062816,0.72322017,-0.15798178,-0.6557795,0.148148,28.647945404052734,1.6426750421524048,-8.36865520477295,9.942034721374512,-297.9209289550781, 88.98844909667969
427,394079483,0.6932714,-0.15425777,-0.684988,0.16239092,17.723690032958984,12.551665306091309,-5.655905246734619,22.072219848632812,-296.771728515625, 53.694705963134766
428,394096150,0.66568154,-0.1546039,-0.70914644,0.17342761,9.63901138305664,0.048683639615774155,-9.636711120605469,-4.171977996826172,-253.6040496826172, 60.681095123291016
429,394112817,0.6439167,-0.1591809,-0.7264691,0.17965397,5.517514228820801,-8.49453067779541,-7.814416885375977,-32.482364654541016,-183.6510772705078, 59.59544372558594
430,394129484,0.6278868,-0.1645975,-0.7383335,0.1831108,11.72752571105957,-8.177953720092773,-5.086644649505615,-36.94305419921875,-126.7446517944336, 50.185848236083984
431,394146151,0.615239,-0.16946839,-0.748049,0.18216504,12.705513000488281,-7.324721813201904,-7.038559913635254,-50.407012939453125,-96.08690643310547, 26.489248275756836
432,394162818,0.605885,-0.173461,-0.7556555,0.17832379,12.95811939239502,-6.06223201751709,-5.891005992889404,-55.10603332519531,-67.99212646484375, 8.02783489227295
433,394179485,0.59835273,-0.17409219,-0.7625905,0.17355584,13.803082466125488,-6.77189302444458,-5.492193222045898,-42.95926284790039,-58.81836700439453, -14.714653968811035
434,394196152,0.5912096,-0.17260395,-0.76988536,0.16719986,16.970544815063477,-7.985067844390869,-2.4695792198181152,-42.5967903137207,-58.96964645385742, -33.25033950805664
435,394212819,0.58334285,-0.17292434,-0.77788806,0.15715812,20.55498504638672,-6.815686225891113,0.9399760961532593,-71.26374053955078,-59.406211853027344, -38.64194869995117
436,394229486,0.5742687,-0.17581968,-0.78650075,0.14394268,19.394929885864258,-3.2855336666107178,3.421077251434326,-100.82688903808594,-62.0596809387207, -36.9155158996582
437,394246153,0.563844,-0.18007325,-0.795562,0.12936312,15.321048736572266,-1.7719318866729736,3.948063373565674,-115.80389404296875,-68.50804138183594, -34.00035095214844
438,394262820,0.55212796,-0.18354294,-0.80520326,0.114518344,12.711713790893555,-2.444622278213501,6.969770431518555,-116.46357727050781,-78.53533935546875, -38.76189041137695
439,394279487,0.5388326,-0.18649656,-0.81533116,0.10056746,9.581653594970703,-3.885807752609253,7.249763488769531,-112.09244537353516,-91.05321502685547, -37.542572021484375
440,394296154,0.5236096,-0.18779707,-0.82617366,0.089455485,9.58718490600586,-3.210679292678833,6.8997483253479,-93.18315124511719,-109.64359283447266, -35.907100677490234
441,394312821,0.5053653,-0.18737648,-0.8383604,0.081534676,10.512553215026855,-4.087630748748779,7.098940849304199,-73.72240447998047,-137.15721130371094, -34.10437774658203
442,394329488,0.47983003,-0.18521313,-0.8540103,0.07826663,10.549047470092773,-1.7210993766784668,5.209530830383301,-52.31146240234375,-198.54046630859375, -28.414552688598633
443,394346155,0.44759288,-0.18696545,-0.8717883,0.068480976,11.800318717956543,-2.962963819503784,1.5887856483459473,-113.25505065917969,-234.82241821289062, -26.0452880859375
444,394362822,0.4132201,-0.19039138,-0.8883593,0.061790053,18.641836166381836,-6.381148815155029,4.786510467529297,-102.07018280029297,-247.3392333984375, -3.9701380729675293
445,394379489,0.3836847,-0.1873259,-0.9020223,0.06364614,13.253586769104004,-0.6061078906059265,13.002594947814941,-23.97791290283203,-223.8793182373047, -17.630598068237305
446,394396156,0.3568031,-0.18943849,-0.9131265,0.05481506,12.187723159790039,-1.6633840799331665,11.94852066040039,-99.48541259765625,-185.11624145507812, -11.550286293029785
447,394412823,0.33606148,-0.19221206,-0.92093265,0.04472457,14.49073600769043,-10.760391235351562,7.081479072570801,-99.87788391113281,-137.00791931152344, -8.53166389465332
448,394429490,0.3258334,-0.18817224,-0.9252295,0.048729297,16.361604690551758,-9.985530853271484,4.518651008605957,19.827463150024414,-83.41503143310547, -17.822824478149414
449,394446157,0.32545808,-0.18148322,-0.926162,0.058007844,12.107207298278809,-3.2452874183654785,4.621556758880615,72.95144653320312,-21.261159896850586, -21.839584350585938
450,394462824,0.33344847,-0.17772932,-0.9238321,0.06130815,9.485109329223633,-4.557997226715088,3.560460090637207,39.97113800048828,47.699886322021484, -15.741411209106445
451,394479491,0.35107306,-0.17529112,-0.917443,0.06571989,8.097241401672363,-6.1839423179626465,0.6860509514808655,57.38289260864258,117.24783325195312, -3.9365241527557373
452,394496158,0.37749684,-0.17390777,-0.90687704,0.06947078,7.083014011383057,-4.999432563781738,-1.6144503355026245,63.027587890625,184.0579071044922, 2.136275053024292
453,394512825,0.41161358,-0.1742387,-0.8917273,0.0709763,6.949357032775879,-6.1487908363342285,-3.3206119537353516,55.87148666381836,247.4637451171875, 8.753022193908691
454,394529492,0.45260677,-0.17425913,-0.8713732,0.07409275,7.634150981903076,-6.154478549957275,-3.616750478744507,77.31748962402344,302.3717956542969, 14.196722030639648
455,394546159,0.4986701,-0.17426224,-0.84549904,0.07805469,8.884872436523438,-4.949840068817139,-3.798067092895508,91.25651550292969,349.0220031738281, 20.65952491760254
456,394562826,0.54863274,-0.1763142,-0.81327194,0.08064866,10.589350700378418,-3.711257219314575,-4.949451923370361,84.3199462890625,396.34783935546875, 33.32490158081055
457,394579493,0.60099334,-0.1824722,-0.7739342,0.080850355,12.619284629821777,-2.292145013809204,-6.907195568084717,62.284080505371094,441.9446105957031, 54.50103759765625
458,394596160,0.65228117,-0.19168966,-0.7290965,0.07875787,13.570510864257812,0.4780550003051758,-8.364983558654785,39.174705505371094,463.7592468261719, 68.76935577392578
459,394612827,0.7005807,-0.20055422,-0.68055403,0.07622983,20.05510902404785,-1.527950644493103,-12.903851509094238,36.70420455932617,466.03802490234375, 71.59249877929688
460,394629494,0.74318427,-0.20072298,-0.63374215,0.075884394,22.663476943969727,-3.389066696166992,-19.033231735229492,80.20263671875,423.7972106933594, 42.08316421508789
461,394646161,0.77641636,-0.19600175,-0.5941701,0.075649984,17.766626358032227,-3.48470401763916,-23.376060485839844,89.17719268798828,343.7673645019531, 16.34905242919922
462,394662828,0.7979852,-0.19286253,-0.56590176,0.07601927,11.81627082824707,-1.3206400871276855,-25.424354553222656,61.881561279296875,236.44715881347656, 16.966693878173828
463,394679495,0.8072232,-0.19135492,-0.5527903,0.07872054,3.3290891647338867,1.9985504150390625,-28.263050079345703,38.039451599121094,103.8072280883789, 22.555213928222656
464,394696162,0.805878,-0.18744294,-0.5552665,0.08429212,1.2256954908370972,4.044687747955322,-26.76666831970215,40.269569396972656,-27.251943588256836, 14.648913383483887
465,394712829,0.7971688,-0.17533298,-0.5694862,0.097292505,3.631039619445801,3.68678879737854,-21.379491806030273,98.08267974853516,-134.0901641845703, 13.707883834838867
466,394729496,0.7825568,-0.16114567,-0.59065574,0.11297255,6.800723075866699,1.047788381576538,-16.349760055541992,108.47346496582031,-199.38211059570312, 15.842432975769043
467,394746163,0.76456785,-0.1483467,-0.6126769,0.13437395,10.939774513244629,-14.978170394897461,-8.18580436706543,120.090576171875,-222.5257110595703, 53.880645751953125
468,394762830,0.74112844,-0.15535437,-0.6355013,0.15077029,27.600563049316406,-12.153873443603516,-2.5755653381347656,-11.196343421936035,-226.11476135253906, 114.82366180419922
469,394779497,0.7136005,-0.1457481,-0.662799,0.17386602,25.047956466674805,5.579065322875977,-6.402800559997559,93.92047882080078,-291.11407470703125, 75.68353271484375
470,394796164,0.6829727,-0.14356793,-0.6917711,0.18544385,20.808507919311523,13.609935760498047,-4.924135684967041,-0.0038174879737198353,-292.8886413574219, 55.29652404785156
471,394812831,0.6539028,-0.14435153,-0.7166554,0.1948818,8.560165405273438,0.2975955605506897,-6.563291549682617,-17.19877815246582,-260.3441162109375, 61.859588623046875
472,394829498,0.63035285,-0.14639784,-0.7350749,0.20220801,4.39632511138916,-10.508566856384277,-8.829724311828613,-18.980745315551758,-200.21656799316406, 57.58560562133789
473,394846165,0.6140232,-0.14844343,-0.747209,0.20644328,6.861793041229248,-11.347349166870117,-7.367458820343018,-18.47413444519043,-133.24485778808594, 40.159210205078125
474,394862832,0.60236037,-0.15024535,-0.7559008,0.20785192,12.120817184448242,-7.818258285522461,-7.446589469909668,-22.275768280029297,-92.13152313232422, 23.614721298217773
475,394879499,0.59344625,-0.15180542,-0.76347244,0.2046624,14.172490119934082,-3.7706267833709717,-6.056240081787109,-40.69709777832031,-68.76789855957031, 0.49849191308021545
476,394896166,0.5868459,-0.15043704,-0.7698399,0.20081654,15.50241470336914,-5.154812335968018,-6.037559986114502,-28.075241088867188,-55.159400939941406, -19.446821212768555
477,394912833,0.58203244,-0.14884843,-0.77546877,0.19424361,17.506637573242188,-6.657180309295654,-4.004357814788818,-38.77073669433594,-40.22831344604492, -33.22690200805664
478,394929500,0.57757324,-0.14970724,-0.7810557,0.18425244,20.566926956176758,-7.170318603515625,-0.06175381690263748,-66.447021484375,-31.50300407409668, -34.18165588378906
479,394946167,0.57234925,-0.15494323,-0.78707856,0.17004764,19.4227294921875,-4.081846714019775,3.671050548553467,-107.94490051269531,-27.71331787109375, -26.729948043823242
480,394962834,0.5648038,-0.16188346,-0.7944744,0.15362589,15.63667106628418,-3.1741762161254883,4.354829788208008,-130.90162658691406,-41.705345153808594, -24.760177612304688
481,394979501,0.55486435,-0.16827555,-0.8031604,0.13690245,13.862773895263672,-2.434601306915283,9.022430419921875,-134.61524963378906,-60.41891860961914, -27.669048309326172
482,394996168,0.54206246,-0.17542002,-0.81292534,0.1206176,9.709331512451172,-2.748509168624878,9.20221996307373,-139.60089111328125,-80.65161895751953, -20.272991180419922
483,395012835,0.52572,-0.18100181,-0.8241598,0.107785136,9.712210655212402,-2.4955408573150635,7.670705318450928,-120.16644287109375,-111.84227752685547, -14.949617385864258
484,395029502,0.50466835,-0.18363222,-0.83743525,0.10144637,10.408687591552734,-3.6372570991516113,6.197483062744141,-80.217529296875,-156.58900451660156, -7.260008811950684
485,395046169,0.4766101,-0.18542933,-0.8540871,0.09483683,10.114961624145508,0.0911276638507843,3.6494038105010986,-90.21925354003906,-209.27658081054688, -12.428258895874023
486,395062836,0.441303,-0.19174917,-0.87283784,0.0814752,15.014897346496582,-3.8453316688537598,-1.6450238227844238,-155.3474884033203,-247.50836181640625, -5.932535171508789
487,395079503,0.4050191,-0.19866611,-0.8898114,0.06875238,16.925765991210938,-4.46623420715332,7.895260810852051,-153.64407348632812,-248.76734924316406, 2.4312305450439453
488,395096170,0.3733902,-0.2025092,-0.90324146,0.061032124,13.03532600402832,-2.4851646423339844,13.147228240966797,-106.58263397216797,-219.22723388671875, 0.14403115212917328
489,395112837,0.34597015,-0.20715575,-0.9135278,0.053463086,11.151934623718262,-4.305307865142822,12.031867980957031,-100.6865005493164,-185.4376678466797, 8.086298942565918
490,395129504,0.3258972,-0.21067394,-0.9203536,0.048546128,13.370022773742676,-9.679476737976074,10.038623809814453,-69.80401611328125,-135.6980743408203, 9.452935218811035
491,395146171,0.31723672,-0.20777038,-0.92364895,0.05536388,15.516782760620117,-10.813267707824707,6.745729923248291,36.234031677246094,-75.14241790771484, -3.6904451847076416
492,395162838,0.31993246,-0.19993454,-0.923312,0.07186408,12.398079872131348,-4.524197578430176,5.650674819946289,125.77438354492188,-11.205615043640137, -13.054342269897461
493,395179505,0.332045,-0.19355959,-0.919403,0.0835403,10.073030471801758,-2.930962324142456,4.654723644256592,106.49706268310547,63.5209846496582, -14.047660827636719
494,395196172,0.35334855,-0.18974358,-0.91164565,0.089692436,9.074471473693848,-4.531037330627441,1.4976022243499756,80.06483459472656,139.0589599609375, -10.569826126098633
495,395212839,0.38353884,-0.18777342,-0.8995849,0.09157737,8.875956535339355,-4.085266590118408,-0.8937691450119019,62.950767517089844,211.85577392578125, -9.233780860900879
496,395229506,0.42127904,-0.18888624,-0.88277787,0.086886086,9.72783088684082,-4.2568254470825195,-2.823136329650879,26.773983001708984,281.5122375488281, -6.175978183746338
497,395246173,0.4652435,-0.1927491,-0.860311,0.07912904,10.605342864990234,-5.195367336273193,-3.724022626876831,11.567309379577637,341.3747863769531, 5.186675548553467
498,395262840,0.51387256,-0.19817656,-0.8315687,0.071794406,11.904487609863281,-4.862918853759766,-4.355529308319092,18.565500259399414,389.4347229003906, 21.45224380493164
499,395279507,0.56561524,-0.20524272,-0.79598045,0.0661068,12.284093856811523,-2.451643228530884,-5.7787957191467285,29.740936279296875,430.1353454589844, 44.3288688659668
500,395296174,0.6167588,-0.21498981,-0.75476855,0.06092937,13.265337944030762,-0.37085434794425964,-7.412511825561523,23.801210403442383,449.4114990234375, 69.13968658447266
501,395312841,0.66801465,-0.22158138,-0.70775133,0.06120614,17.263967514038086,0.5673820972442627,-11.039449691772461,68.13327026367188,465.5061340332031, 84.45392608642578
502,395329508,0.71588314,-0.22057483,-0.6595216,0.062366292,22.97611427307129,1.418310284614563,-15.02308464050293,102.77513885498047,450.3755187988281, 54.89889144897461
503,395346175,0.7566825,-0.21335062,-0.6149247,0.06148901,21.196775436401367,-2.390071392059326,-20.326860427856445,111.9854507446289,401.2804870605469, 14.39799976348877
504,395362842,0.78741825,-0.2035813,-0.57871133,0.06016924,16.440181732177734,-3.494030714035034,-23.592113494873047,105.25178527832031,315.2731018066406, -6.581813812255859
505,395379509,0.8052579,-0.20130025,-0.55464315,0.058387402,8.788938522338867,-1.8254449367523193,-25.8907413482666,40.03740310668945,202.6511688232422, 9.111976623535156
506,395396176,0.81223994,-0.19846518,-0.5452822,0.059543956,2.0860135555267334,4.187440395355225,-26.956350326538086,33.69176483154297,76.26830291748047, 7.303276538848877
507,395412843,0.8095736,-0.19502398,-0.55020314,0.061908558,1.5307716131210327,2.5208983421325684,-24.885969161987305,22.885976791381836,-40.86051940917969, -3.660902976989746
508,395429510,0.80122286,-0.18250956,-0.5650376,0.07392345,3.0152294635772705,1.6346409320831299,-19.836021423339844,98.36065673828125,-133.737548828125, 4.867072582244873
509,395446177,0.7877526,-0.16893655,-0.58564717,0.0890155,6.676530361175537,-2.710045576095581,-18.150192260742188,107.05635070800781,-189.36196899414062, 12.999987602233887
510,395462844,0.77009094,-0.15895317,-0.60788697,0.11030602,13.004599571228027,-18.21050262451172,-8.223116874694824,107.00364685058594,-219.63388061523438, 61.53374099731445
511,395479511,0.7461132,-0.16931568,-0.6316584,0.12512007,30.863162994384766,-9.745855331420898,-2.6159119606018066,-35.6189079284668,-231.46453857421875, 114.94457244873047
512,395496178,0.71931285,-0.1654874,-0.65944654,0.14259492,22.138084411621094,11.02768611907959,-4.58427095413208,42.16353988647461,-279.5808410644531, 64.67964172363281
513,395512845,0.6899595,-0.16947234,-0.6870473,0.15232,21.649673461914062,8.818984985351562,-5.6937174797058105,-34.239105224609375,-273.70068359375, 64.88325500488281
514,395529512,0.66367203,-0.17348833,-0.70961905,0.1608793,9.269623756408691,3.3429434299468994,-6.34672737121582,-30.875816345214844,-233.9314422607422, 62.4984245300293
515,395546179,0.6422806,-0.17928219,-0.72642326,0.16626191,5.33528995513916,-11.014993667602539,-7.315211772918701,-42.10683822631836,-177.9455108642578, 58.215431213378906
516,395562846,0.62738276,-0.1830127,-0.73799765,0.16809756,6.094338417053223,-12.006094932556152,-8.37924861907959,-36.64350509643555,-120.35572052001953, 30.976455688476562
517,395579513,0.6171046,-0.1863593,-0.7459847,0.16720995,11.356701850891113,-9.74683666229248,-6.776073932647705,-38.808536529541016,-78.38848114013672, 16.194908142089844
518,395596180,0.6096471,-0.18844137,-0.75264895,0.162296,14.184260368347168,-5.125761032104492,-6.065711498260498,-48.97074890136719,-54.60151672363281, -9.021504402160645
519,395612847,0.60355365,-0.18700641,-0.75927,0.1557586,16.615840911865234,-5.600020408630371,-4.426909446716309,-40.83354568481445,-49.21080780029297, -35.43213653564453
520,395629514,0.59852606,-0.18453105,-0.7656042,0.14685053,18.054838180541992,-7.07351016998291,-1.333460807800293,-47.28716278076172,-40.601070404052734, -51.39485168457031
521,395646181,0.5928101,-0.18561096,-0.77193975,0.13503253,21.308988571166992,-5.375857830047607,1.866823673248291,-78.24182891845703,-37.126861572265625, -43.88918685913086
522,395662848,0.58498424,-0.19099994,-0.7792787,0.11847864,17.705291748046875,-3.344405174255371,4.232166290283203,-124.72217559814453,-42.67669677734375, -39.4772834777832
523,395679515,0.57525855,-0.19637501,-0.7874504,0.10215928,14.673447608947754,-2.7060706615448,6.850037574768066,-126.73628234863281,-56.88175582885742, -37.993499755859375
524,395696182,0.56239426,-0.2017603,-0.7972251,0.08624141,11.904841423034668,-2.6303768157958984,8.669431686401367,-130.13084411621094,-81.1605453491211, -36.20132827758789
525,395712849,0.5465996,-0.20662932,-0.8081496,0.07367277,8.26198959350586,-3.619682788848877,9.127567291259766,-114.68656921386719,-107.0537109375, -25.888973236083984
526,395729516,0.5281117,-0.20834021,-0.82055265,0.06622669,10.151040077209473,-2.5220205783843994,7.771124362945557,-79.08203887939453,-136.8521728515625, -24.968217849731445
527,395746183,0.5028207,-0.20790754,-0.8365464,0.06431351,10.780717849731445,-3.5634865760803223,4.596407890319824,-51.57188034057617,-197.55982971191406, -19.04410743713379
528,395762850,0.47058725,-0.20724064,-0.85543424,0.061896518,10.715805053710938,-1.7076287269592285,2.9559171199798584,-64.93850708007812,-247.2035675048828, -23.264537811279297
529,395779517,0.43361345,-0.20976923,-0.8745499,0.056023553,17.84484100341797,-3.3969688415527344,0.9269017577171326,-102.48255920410156,-269.83038330078125, -13.989843368530273
530,395796184,0.3977407,-0.21094686,-0.8915551,0.049329367,16.107837677001953,-1.7781866788864136,8.753870010375977,-101.01701354980469,-256.61187744140625, -21.961965560913086
531,395812851,0.3640656,-0.21363594,-0.90578616,0.036981195,14.197792053222656,-1.1593477725982666,11.822741508483887,-135.76388549804688,-227.36387634277344, -24.889739990234375
532,395829518,0.33612406,-0.21753857,-0.91607445,0.022480855,13.506214141845703,-8.800817489624023,9.206028938293457,-142.86520385742188,-178.86093139648438, -18.41434669494629
533,395846185,0.31934315,-0.21496016,-0.9226726,0.022078985,15.183406829833984,-10.866507530212402,7.615969657897949,-22.054880142211914,-122.58218383789062, -23.009918212890625
534,395862852,0.31424284,-0.20844124,-0.9256238,0.032008253,11.97038745880127,-6.5003533363342285,7.568558216094971,69.64707946777344,-56.804290771484375, -21.799701690673828
535,395879519,0.3193131,-0.20355067,-0.9245912,0.04168347,9.33899974822998,-5.511422157287598,6.462222576141357,79.75640869140625,16.885604858398438, -8.502528190612793
536,395896186,0.33439714,-0.2002102,-0.91950405,0.051057752,8.133197784423828,-7.074606895446777,3.6922805309295654,89.4245834350586,90.04341888427734, 3.521401882171631
537,395912853,0.35922626,-0.19741833,-0.91008955,0.06098847,6.920047760009766,-6.276838302612305,0.17324480414390564,106.3891372680664,160.86375427246094, 10.805119514465332
538,395929520,0.3925765,-0.19598445,-0.8961091,0.06680147,7.060313701629639,-5.580305099487305,-1.4012585878372192,90.56783294677734,231.57191467285156, 11.7345552444458
539,395946187,0.4333147,-0.19522727,-0.8770741,0.06975556,8.145612716674805,-5.945261478424072,-2.844709873199463,83.25093078613281,294.913330078125, 11.561633110046387
540,395962854,0.4793918,-0.19559123,-0.85266346,0.069946565,9.53344440460205,-5.323708534240723,-3.882411241531372,72.86043548583984,347.427490234375, 14.659195899963379
541,395979521,0.5289281,-0.19849932,-0.8224314,0.066632174,11.592450141906738,-5.624115467071533,-5.611891746520996,51.2714729309082,392.9270324707031, 24.084379196166992
542,395996188,0.5808719,-0.20263292,-0.7858226,0.06333059,12.486625671386719,-4.297806739807129,-7.456899642944336,53.041587829589844,430.4292297363281, 38.5405158996582
543,396012855,0.6316629,-0.20996638,-0.7440311,0.057739034,14.220573425292969,-1.7909809350967407,-8.25153923034668,28.5214900970459,449.7034606933594, 54.31069564819336
544,396029522,0.68080294,-0.2165444,-0.69761384,0.054323263,18.42490577697754,-2.5340116024017334,-11.55280590057373,42.444679260253906,458.17608642578125, 67.21693420410156
545,396046189,0.72484946,-0.21859604,-0.65122133,0.052154526,21.0860595703125,-2.2058448791503906,-15.592561721801758,62.14566421508789,430.4037170410156, 53.229705810546875
546,396062856,0.7613893,-0.21566315,-0.60918653,0.05164865,18.89436912536621,-2.1557457447052,-19.50255012512207,81.77090454101562,371.2481384277344, 35.44731903076172
547,396079523,0.78849083,-0.210521,-0.5754945,0.052624807,14.374588012695312,-0.1253102570772171,-21.759742736816406,82.83109283447266,285.6701354980469, 25.062395095825195
548,396096190,0.8043662,-0.20576032,-0.55448,0.056657344,6.683614730834961,-2.365980863571167,-26.10326385498047,72.28176879882812,168.9346466064453, 29.00493049621582
549,396112857,0.81089664,-0.19433117,-0.5478287,0.06757306,1.7189935445785522,3.6886885166168213,-25.677091598510742,116.94673156738281,42.32772445678711, 24.972511291503906
550,396129524,0.807926,-0.18246114,-0.5545882,0.07997308,1.3418360948562622,4.802645206451416,-24.6416072845459,106.38655853271484,-69.71073913574219, 18.153291702270508
551,396146191,0.7972165,-0.17110193,-0.5713151,0.09364545,4.863095760345459,4.242183685302734,-20.680639266967773,93.51419067382812,-155.27024841308594, 18.973899841308594
552,396162858,0.77967525,-0.16339518,-0.5948513,0.10751942,6.004308223724365,-7.914101600646973,-17.29176139831543,62.1352424621582,-216.79405212402344, 30.860687255859375
553,396179525,0.7594909,-0.16070351,-0.6174822,0.1267428,23.146467208862305,-11.402920722961426,2.6271800994873047,55.15363311767578,-224.64743041992188, 82.74420928955078
554,396196192,0.7309981,-0.16078463,-0.64602953,0.1497874,33.50408935546875,-7.960200786590576,-8.377707481384277,42.66614532470703,-292.7484436035156, 115.00582122802734
555,396212859,0.7006901,-0.14673766,-0.6767364,0.171841,21.837505340576172,21.68406867980957,-5.412355422973633,105.28145599365234,-324.9086608886719, 46.715633392333984
556,396229526,0.66833365,-0.14905831,-0.70558095,0.18239333,12.90257453918457,-0.030651595443487167,-6.110989093780518,-26.857574462890625,-294.4395751953125, 72.40155029296875
557,396246193,0.64085203,-0.15318625,-0.72819966,0.18859445,1.1919342279434204,-7.59673547744751,-10.892374992370605,-43.303497314453125,-235.4193878173828, 61.45018768310547
558,396262860,0.6208466,-0.15320693,-0.7431863,0.19685364,5.115144729614258,-13.121646881103516,-6.26029634475708,3.031160831451416,-171.68771362304688, 47.9807243347168
559,396279527,0.605941,-0.15358816,-0.75451255,0.19989297,10.9541015625,-8.617761611938477,-6.707346439361572,-14.851037979125977,-124.00762176513672, 24.134305953979492
560,396296194,0.5937103,-0.15345329,-0.76436824,0.19925274,14.245292663574219,-4.904839038848877,-6.66839599609375,-26.94950294494629,-100.84251403808594, 3.888598680496216
561,396312861,0.5837762,-0.15291458,-0.7731747,0.19499595,14.488678932189941,-3.9770803451538086,-6.717876434326172,-40.45570755004883,-81.26561737060547, -14.986319541931152
562,396329528,0.5773439,-0.15029624,-0.77978486,0.18979247,15.068987846374512,-6.51540470123291,-5.874650955200195,-30.53326416015625,-55.668251037597656, -32.140724182128906
563,396346195,0.5717983,-0.14974304,-0.786034,0.18103732,18.883291244506836,-7.210654258728027,-3.7013351917266846,-56.45307540893555,-43.1845703125, -35.90434646606445
564,396362862,0.5661553,-0.152359,-0.79226726,0.16901991,21.179859161376953,-5.482780456542969,0.987542986869812,-86.72982788085938,-36.51108169555664, -31.363420486450195
565,396379529,0.5595382,-0.15825418,-0.79904526,0.15296887,18.29575538635254,-3.4252264499664307,3.242993116378784,-123.28207397460938,-36.217350006103516, -28.45770263671875
566,396396196,0.5516468,-0.16458043,-0.80638987,0.13540514,15.77159595489502,-3.5165293216705322,5.8284735679626465,-135.3881072998047,-43.661678314208984, -31.00445556640625
567,396412863,0.5416309,-0.16983218,-0.8148049,0.11783806,12.331391334533691,-2.89658260345459,9.471243858337402,-134.9110107421875,-60.901832580566406, -36.08732604980469
568,396429530,0.52927655,-0.17637487,-0.8236015,0.10217175,8.714954376220703,-2.922924041748047,8.158226013183594,-132.30747985839844,-77.05789947509766, -20.261669158935547
569,396446197,0.51116467,-0.1846118,-0.8346282,0.0895828,9.137951850891113,-4.252440929412842,4.680549621582031,-129.7479248046875,-120.70928955078125, 1.866776704788208
570,396462864,0.48511365,-0.18843585,-0.8495934,0.0857192,10.283637046813965,-4.327212810516357,1.1825127601623535,-76.78182220458984,-194.2089385986328, 7.039831161499023
571,396479531,0.45271328,-0.19251929,-0.867158,0.077615835,13.600407600402832,0.9974926710128784,2.8685555458068848,-112.24474334716797,-234.5670623779297, -5.286633491516113
572,396496198,0.41752216,-0.20071678,-0.8840151,0.062492844,14.509060859680176,-3.867300033569336,8.469953536987305,-170.23822021484375,-237.86044311523438, -0.1198011189699173
573,396512865,0.38519356,-0.20545523,-0.8981677,0.052048303,13.841926574707031,-1.9104083776474,10.644190788269043,-126.86585998535156,-221.0973358154297, -5.2679853439331055
574,396529532,0.35619247,-0.21101521,-0.9093683,0.040605444,13.274726867675781,-5.848039627075195,11.929252624511719,-129.56494140625,-191.50338745117188, 0.11869241297245026
575,396546199,0.33556694,-0.21306063,-0.91681087,0.038184293,14.362771987915039,-9.655173301696777,11.166863441467285,-51.54173278808594,-144.4617919921875, 3.2620794773101807
576,396562866,0.32565787,-0.20983392,-0.9207314,0.046589542,14.886509895324707,-7.466701984405518,8.684818267822266,45.197872161865234,-86.47489166259766, -2.733812093734741
577,396579533,0.32496405,-0.20684187,-0.9211453,0.055734076,12.96412467956543,-5.626611709594727,6.049292087554932,63.539405822753906,-21.669677734375, 2.5126266479492188
578,396596200,0.33347148,-0.20433861,-0.91808426,0.064526506,11.300623893737793,-4.958704948425293,5.37812614440918,74.45757293701172,44.77252197265625, 6.268524169921875
579,396612867,0.35066283,-0.20290613,-0.9115846,0.06984309,9.912907600402832,-4.6491570472717285,3.0205345153808594,63.62626647949219,112.614501953125, 6.063671112060547
580,396629534,0.37685445,-0.20200433,-0.9010374,0.07284672,9.235172271728516,-5.371143817901611,-0.8998207449913025,62.211158752441406,182.1435089111328, 5.141018867492676
581,396646201,0.41121277,-0.20162591,-0.88594943,0.07310716,9.285895347595215,-5.052516460418701,-2.5092923641204834,57.35725021362305,248.56419372558594, 3.4541208744049072
582,396662868,0.45234555,-0.20221688,-0.8656896,0.0712267,9.940229415893555,-5.214993953704834,-3.4946630001068115,53.4725227355957,307.95635986328125, 7.009708881378174
583,396679535,0.49830523,-0.2039258,-0.83990216,0.06834246,10.761116027832031,-4.825155258178711,-3.952364444732666,53.361202239990234,355.9052734375, 15.780900955200195
584,396696202,0.54788965,-0.20809378,-0.8077069,0.064214036,12.513710021972656,-3.917569398880005,-4.553653240203857,45.78248596191406,401.81390380859375, 32.91314697265625
585,396712869,0.5994819,-0.21435215,-0.7687992,0.06018937,13.265584945678711,-2.5821189880371094,-6.243707180023193,44.27298355102539,439.1830139160156, 53.56809997558594
586,396729536,0.65033484,-0.2215562,-0.72438496,0.0569564,15.456433296203613,-0.9175508618354797,-8.368236541748047,45.75990676879883,457.3960266113281, 70.21144104003906
587,396746203,0.6994616,-0.22354405,-0.6763994,0.05714623,20.465600967407227,-0.30912721157073975,-12.6616849899292,84.97126770019531,457.7673034667969, 65.68023681640625
588,396762870,0.742353,-0.22126831,-0.62999254,0.05533335,22.758174896240234,-0.8916205167770386,-17.626142501831055,86.06017303466797,422.89202880859375, 36.34462356567383
589,396779537,0.7763546,-0.21331844,-0.59045625,0.05595111,16.780813217163086,-5.345955848693848,-22.713457107543945,109.59050750732422,343.9093322753906, 17.25950050354004
590,396796204,0.7996822,-0.20405494,-0.56152093,0.05970246,11.865639686584473,-1.0623130798339844,-25.347414016723633,109.83805847167969,239.5008544921875, 17.237937927246094
591,396812871,0.8104737,-0.19909279,-0.5471468,0.06422474,2.8673200607299805,0.465359628200531,-27.8768253326416,65.8726806640625,112.41529846191406, 22.886119842529297
592,396829538,0.810545,-0.19511363,-0.547784,0.06985973,1.2147079706192017,2.4550578594207764,-26.64722442626953,43.59648895263672,-11.960281372070312, 16.995464324951172
593,396846205,0.8032572,-0.1855875,-0.560065,0.08162412,2.1910605430603027,1.7920830249786377,-23.414018630981445,82.4394302368164,-114.83705139160156, 18.206579208374023
594,396862872,0.7907417,-0.17297298,-0.57923,0.096438825,5.765019416809082,3.230839252471924,-17.922149658203125,101.00103759765625,-178.08975219726562, 17.282697677612305
595,396879539,0.7721397,-0.1658968,-0.6029739,0.11269833,7.100826263427734,-14.464171409606934,-15.796603202819824,66.59791564941406,-224.8696746826172, 45.79769515991211
596,396896206,0.749091,-0.17300466,-0.62615865,0.12983626,29.32905387878418,-11.36666202545166,0.7026703953742981,-9.39522647857666,-230.03005981445312, 112.9808349609375
597,396912873,0.72292507,-0.15954305,-0.6532314,0.15878983,30.585540771484375,3.3035502433776855,-7.894087314605713,140.40968322753906,-295.9523620605469, 83.33090209960938
598,396929540,0.6930154,-0.15564579,-0.6824654,0.17246766,20.44569969177246,17.5129451751709,-6.432310581207275,17.909664154052734,-296.098876953125, 52.27585220336914
599,396946207,0.6653242,-0.15706801,-0.7067373,0.18219797,9.801630973815918,1.4336293935775757,-7.091630935668945,-17.560405731201172,-251.41806030273438, 61.59912109375
600,396962874,0.6421103,-0.16450526,-0.72534466,0.18576287,4.0964484214782715,-11.62350845336914,-7.352078437805176,-62.93504333496094,-189.50697326660156, 63.16471481323242
601,396979541,0.62670237,-0.16606104,-0.736909,0.19139843,9.242256164550781,-11.67891788482666,-5.840146541595459,-8.727288246154785,-129.27468872070312, 40.66338348388672
602,396996208,0.61465156,-0.16732596,-0.7465832,0.19188316,10.713690757751465,-8.71729850769043,-7.67086124420166,-27.236116409301758,-98.62265014648438, 14.51954460144043
603,397012875,0.60555977,-0.16814077,-0.7547128,0.18824087,13.293076515197754,-4.6548967361450195,-5.5189313888549805,-41.05253982543945,-72.71391296386719, -7.449893951416016
604,397029542,0.5988353,-0.1668605,-0.7614549,0.18368623,14.872105598449707,-7.281640529632568,-5.760096073150635,-32.54588317871094,-56.334381103515625, -23.527870178222656
605,397046209,0.5941299,-0.1638565,-0.7671377,0.17793392,16.87493896484375,-4.952556610107422,-4.701442718505859,-28.106203079223633,-42.23050308227539, -38.805442810058594
606,397062876,0.5893197,-0.16533782,-0.77295,0.1670751,20.75408363342285,-5.429957389831543,-0.21565401554107666,-73.69235229492188,-32.14089584350586, -35.91526412963867
607,397079543,0.58322144,-0.17060474,-0.77950555,0.15204647,19.172060012817383,-4.077938079833984,3.3235061168670654,-113.62788391113281,-33.12873077392578, -31.886396408081055
608,397096210,0.574809,-0.17848657,-0.7872427,0.13411348,15.68588638305664,-3.289339542388916,5.983675003051758,-143.77830505371094,-44.44465255737305, -28.300491333007812
609,397112877,0.56387204,-0.18748015,-0.7960715,0.11476008,12.570926666259766,-2.852036952972412,8.390913009643555,-160.12452697753906,-60.03031539916992, -26.764408111572266
610,397129544,0.54897624,-0.19693457,-0.80648994,0.09703589,9.571653366088867,-3.2875356674194336,8.46615219116211,-159.5170135498047,-90.01539611816406, -16.760669708251953
611,397146211,0.532064,-0.20525353,-0.81712246,0.08420215,9.764517784118652,-1.9096742868423462,7.892665386199951,-131.13026428222656,-109.7718505859375, -3.5288970470428467
612,397162878,0.5077928,-0.21112064,-0.8317217,0.076247506,10.437232971191406,-3.507322311401367,4.463117599487305,-107.53936767578125,-174.3149871826172, -0.7816357612609863
613,397179545,0.4763291,-0.21521519,-0.84981316,0.06790413,11.121103286743164,-1.2365164756774902,2.9176197052001953,-115.9232406616211,-228.32028198242188, -13.621201515197754
614,397196212,0.43933275,-0.22279063,-0.8686487,0.052919965,15.632588386535645,-3.830573797225952,3.18092679977417,-174.6961669921875,-251.9442901611328, -13.559165000915527
615,397212879,0.4039814,-0.22912173,-0.8847564,0.03883956,16.139265060424805,-3.5127532482147217,10.452275276184082,-162.0739288330078,-236.0839080810547, -14.72319221496582
616,397229546,0.37271968,-0.23308204,-0.8978405,0.025206998,13.927159309387207,-1.7897722721099854,12.477144241333008,-145.62342834472656,-204.68006896972656, -24.280780792236328
617,397246213,0.34623802,-0.23781617,-0.9074385,0.010889576,12.8229341506958,-8.361278533935547,10.393843650817871,-143.66815185546875,-165.53843688964844, -16.54433250427246
618,397262880,0.3305271,-0.23605156,-0.913728,0.01152395,14.836260795593262,-11.70394515991211,7.928305625915527,-17.275789260864258,-115.8384780883789, -17.032033920288086
619,397279547,0.32646286,-0.22875653,-0.9167828,0.024533972,13.23406982421875,-6.685943603515625,6.59954309463501,91.88534545898438,-56.27750778198242, -19.427371978759766
620,397296214,0.33125323,-0.22259273,-0.916196,0.036177836,10.388427734375,-5.434760093688965,4.98769998550415,95.07732391357422,9.69265365600586, -11.102660179138184
621,397312881,0.34549838,-0.21670966,-0.9118004,0.0478354,8.792693138122559,-6.200121879577637,3.0292155742645264,109.77511596679688,77.72509765625, -5.7815141677856445
622,397329548,0.36879316,-0.21166128,-0.9032343,0.0579562,7.7426676750183105,-4.616632461547852,0.033626630902290344,112.831787109375,146.7688751220703, -0.934899628162384
623,397346215,0.39953482,-0.20882772,-0.89045954,0.06200719,7.80659294128418,-4.7940192222595215,-2.646026611328125,81.89910888671875,213.3386688232422, 0.6048847436904907
624,397362882,0.43735802,-0.20698805,-0.87289053,0.062739745,8.540175437927246,-5.225515365600586,-3.535342216491699,70.94058990478516,275.0661315917969, 1.4191614389419556
625,397379549,0.48056406,-0.20614454,-0.850161,0.06155613,9.844918251037598,-5.460178375244141,-4.082504749298096,66.21528625488281,326.0870361328125, 6.599633693695068
626,397396216,0.52802414,-0.20639494,-0.8216313,0.05927872,11.580032348632812,-4.983692169189453,-4.822854995727539,64.58223724365234,372.19677734375, 15.722396850585938
627,397412883,0.57841575,-0.20844907,-0.78662527,0.056612052,11.782119750976562,-3.6489756107330322,-6.737237453460693,62.54645919799805,413.6601257324219, 32.423072814941406
628,397429550,0.6284854,-0.21314934,-0.74619585,0.05258542,12.82986831665039,-0.370006263256073,-8.091939926147461,46.269344329833984,436.6370849609375, 49.16337585449219
629,397446217,0.6775385,-0.21779753,-0.70073164,0.049811337,16.596677780151367,-0.9086258411407471,-12.265233993530273,53.26685333251953,451.5725402832031, 62.08511734008789
630,397462884,0.72215176,-0.21810628,-0.6547393,0.04736212,20.558902740478516,-1.454628586769104,-16.861772537231445,68.66311645507812,430.9996337890625, 45.051918029785156
631,397479551,0.7588996,-0.2142147,-0.6133172,0.04500603,19.137832641601562,-3.1979875564575195,-21.142793655395508,76.80791473388672,371.8600158691406, 22.42525863647461
632,397496218,0.7857464,-0.20850612,-0.5806756,0.044087358,14.415216445922852,-1.8167349100112915,-22.823083877563477,75.27531433105469,282.25848388671875, 12.486784934997559
633,397512885,0.8011034,-0.20632397,-0.5601196,0.043932844,7.847591876983643,-0.7561076283454895,-25.31758689880371,39.41780090332031,171.78948974609375, 16.95455551147461
634,397529552,0.8065258,-0.20131473,-0.5537336,0.048659302,2.097071886062622,2.0705149173736572,-26.126720428466797,55.7318229675293,48.49005889892578, 15.908845901489258
635,397546219,0.8028385,-0.19565174,-0.5604624,0.055252906,1.9903414249420166,3.5918893814086914,-22.85639762878418,49.801795959472656,-60.97771072387695, 8.721144676208496
636,397562886,0.79333305,-0.18516392,-0.5760104,0.06744707,3.034304618835449,2.4110748767852783,-18.590167999267578,87.1430435180664,-140.8262939453125, 11.440555572509766
637,397579553,0.7796213,-0.17039944,-0.59674287,0.08398134,5.9543023109436035,-0.4218491315841675,-13.90475845336914,120.17662048339844,-192.7817840576172, 13.49155330657959
638,397596220,0.76294875,-0.15554431,-0.6179519,0.10886142,11.998961448669434,-17.643951416015625,-6.020606517791748,151.4193572998047,-216.95448303222656, 58.8723030090332
639,397612887,0.7398835,-0.15655312,-0.6413268,0.12947553,32.689842224121094,-3.118896007537842,-3.0275070667266846,41.82808303833008,-238.91070556640625, 105.82684326171875
640,397629554,0.7112463,-0.15249084,-0.66985714,0.14888504,22.18107795715332,9.279090881347656,-4.894721508026123,51.88227081298828,-292.8528747558594, 76.88025665283203
641,397646221,0.6800635,-0.15487449,-0.6984824,0.16015652,18.074556350708008,7.757075786590576,-5.026615142822266,-19.75641441345215,-289.84783935546875, 69.6360855102539
642,397662888,0.65365374,-0.15292662,-0.72054684,0.17367382,8.473106384277344,-0.472824364900589,-8.999248504638672,23.769393920898438,-243.37168884277344, 61.33201217651367
643,397679555,0.63243204,-0.15703075,-0.7369959,0.17946629,4.599626064300537,-10.630001068115234,-8.506912231445312,-29.354122161865234,-176.96493530273438, 56.243194580078125
644,397696222,0.6175402,-0.16095959,-0.74829096,0.18109909,8.894468307495117,-11.183745384216309,-6.743888854980469,-36.38370895385742,-118.12301635742188, 34.70581817626953
645,397712889,0.60676545,-0.16223907,-0.7568597,0.18076925,13.670248985290527,-8.257650375366211,-5.497577667236328,-27.273502349853516,-86.48579406738281, 10.408366203308105
646,397729556,0.59812284,-0.1617399,-0.7647492,0.17677103,14.162110328674316,-4.420279026031494,-6.397191047668457,-35.760826110839844,-70.72632598876953, -16.096811294555664
647,397746223,0.5920467,-0.15739715,-0.77140903,0.17214945,14.292219161987305,-6.555819511413574,-5.5413031578063965,-18.91033935546875,-56.18099594116211, -40.56424331665039
648,397762890,0.5881212,-0.15327635,-0.7766582,0.16559647,18.187055587768555,-6.417904376983643,-3.5506367683410645,-26.13705825805664,-36.729286193847656, -48.26261901855469
649,397779557,0.5839469,-0.153487,-0.7820525,0.15440823,21.02119255065918,-6.455432891845703,-0.2426597625017166,-68.94140625,-28.971351623535156, -43.66108322143555
650,397796224,0.5792705,-0.15726836,-0.78744715,0.14014196,19.10849380493164,-3.1941051483154297,3.180335283279419,-100.51286315917969,-24.903898239135742, -36.147647857666016
651,397812891,0.5731838,-0.16220464,-0.7935168,0.12442307,15.870055198669434,-1.6712955236434937,5.820322036743164,-115.31389617919922,-32.90819549560547, -34.860084533691406
652,397829558,0.5651071,-0.16659237,-0.8006765,0.108710766,12.117047309875488,-0.29625800251960754,7.056337833404541,-116.43032836914062,-48.951175689697266, -37.17850112915039
653,397846225,0.5543089,-0.17156546,-0.8090767,0.093284406,8.716826438903809,-0.6403996348381042,9.783482551574707,-121.32693481445312,-69.05123138427734, -32.10447311401367
654,397862892,0.5385814,-0.17758629,-0.81954414,0.08210221,8.170037269592285,-3.8022408485412598,6.689980983734131,-109.00602722167969,-109.13485717773438, -9.328021049499512
655,397879559,0.5147136,-0.1823322,-0.83418816,0.07716965,9.159151077270508,-4.34680700302124,3.8269853591918945,-81.48468780517578,-179.18162536621094, 6.052218914031982
656,397896226,0.4845761,-0.18575576,-0.8516839,0.07290794,10.442768096923828,-0.054577894508838654,2.250676393508911,-82.41999053955078,-227.07078552246094, 0.4996209144592285
657,397912893,0.44847172,-0.19421026,-0.8705311,0.057715908,16.508384704589844,-1.656663179397583,3.8186936378479004,-171.5079803466797,-250.3363494873047, -5.185899257659912
658,397929560,0.4124223,-0.20286058,-0.88720316,0.040326733,14.234607696533203,-3.6482303142547607,9.13486099243164,-184.36758422851562,-240.72024536132812, -7.901082515716553
659,397946227,0.3794202,-0.20904617,-0.90099084,0.023569746,13.986729621887207,-2.4851582050323486,11.017507553100586,-168.5853729248047,-216.0217742919922, -18.048063278198242
660,397962894,0.3494047,-0.21592268,-0.91173655,0.0055350456,13.254729270935059,-7.294138431549072,10.431368827819824,-173.6288299560547,-188.1721649169922, -13.293546676635742
661,397979561,0.3273084,-0.2183865,-0.91933405,-0.0012121511,15.899396896362305,-12.338027954101562,7.975061893463135,-80.59737396240234,-148.35537719726562, -9.627055168151855
662,397996228,0.3171841,-0.2131641,-0.92404634,0.009688369,16.538835525512695,-9.194329261779785,5.658320903778076,65.86691284179688,-93.08497619628906, -14.228363037109375
663,398012895,0.3162893,-0.20785776,-0.92533934,0.022441478,12.666153907775879,-5.2343902587890625,5.031704902648926,91.3162612915039,-30.1242733001709, -6.346189022064209
664,398029562,0.3244841,-0.20432815,-0.92294973,0.033523332,10.195761680603027,-6.783436298370361,3.860131025314331,90.21512603759766,38.09037780761719, 5.229874134063721
665,398046229,0.34208745,-0.20250428,-0.91652495,0.044159506,8.299439430236816,-6.255109786987305,0.9212098717689514,97.52814483642578,107.63331604003906, 18.566556930541992
666,398062896,0.367827,-0.20335446,-0.9060212,0.04975719,7.291713714599609,-5.511717319488525,-2.250307321548462,71.87533569335938,176.2648162841797, 26.7569522857666
667,398079563,0.40116957,-0.20641378,-0.8910363,0.050106257,7.471477031707764,-5.479562759399414,-3.4483675956726074,45.61393356323242,243.1031494140625, 30.850858688354492
668,398096230,0.44086772,-0.21071893,-0.8711357,0.04853398,8.025903701782227,-5.304426193237305,-3.8896870613098145,41.009422302246094,298.8477478027344, 37.86509323120117
669,398112897,0.48530713,-0.21638018,-0.8458698,0.04648872,9.129631996154785,-4.466152667999268,-4.343315601348877,42.62950134277344,344.7705078125, 50.631568908691406
670,398129564,0.53317523,-0.22464046,-0.8144709,0.043571133,9.826523780822754,-3.8000783920288086,-6.002363204956055,35.8778076171875,387.4563293457031, 70.75980377197266
671,398146231,0.5827513,-0.23341972,-0.7772759,0.041934587,10.00682544708252,-0.4620733857154846,-7.228055953979492,45.507286071777344,416.6553039550781, 86.70719146728516
672,398162898,0.6320945,-0.24163276,-0.7350959,0.041284308,13.765050888061523,0.3088487386703491,-9.913217544555664,54.17988586425781,433.8904113769531, 95.68852233886719
673,398179565,0.68009335,-0.24188249,-0.69066006,0.04421332,17.545759201049805,0.6286517977714539,-13.717979431152344,105.40382385253906,428.9883117675781, 75.1888656616211
674,398196232,0.7235251,-0.23270462,-0.6480899,0.04836877,19.45311164855957,-1.3201136589050293,-17.718326568603516,147.35594177246094,394.024658203125, 34.58465576171875
675,398212899,0.7588859,-0.22018963,-0.61081034,0.05019618,16.716571807861328,-0.22600606083869934,-19.42833709716797,139.0984649658203,334.84539794921875, 2.508498430252075
676,398229566,0.78402805,-0.21108434,-0.58148557,0.051168725,13.99446964263916,-1.733630657196045,-20.921817779541016,99.70767974853516,253.46051025390625, 4.0257744789123535
677,398246233,0.79864466,-0.20388046,-0.5634669,0.055719122,6.762286186218262,0.744763970375061,-24.678041458129883,84.76219177246094,146.5455780029297, 18.312536239624023
678,398262900,0.80313075,-0.1962951,-0.5589994,0.06300053,2.2964062690734863,3.2616617679595947,-23.894819259643555,78.3463363647461,29.621789932250977, 16.791982650756836
679,398279567,0.8000546,-0.18473503,-0.5659243,0.07426567,2.6725215911865234,0.7710526585578918,-21.375064849853516,100.75379943847656,-68.81507110595703, 11.475065231323242
680,398296234,0.7911239,-0.1668975,-0.58112407,0.092536464,5.206934928894043,-0.8922138214111328,-20.52556037902832,151.1851806640625,-148.68019104003906, 18.010387420654297
681,398312901,0.77283627,-0.15261456,-0.60504305,0.11556777,8.042384147644043,-13.5679349899292,-22.78492546081543,134.9027099609375,-236.20162963867188, 53.927894592285156
682,398329568,0.74861926,-0.1563453,-0.6302158,0.13399062,33.19780349731445,-6.239917755126953,4.799638748168945,13.189311027526855,-247.8276824951172, 107.34921264648438
683,398346235,0.72049594,-0.14767328,-0.6591818,0.15670902,23.735475540161133,6.204468250274658,-10.08841323852539,88.01555633544922,-300.45452880859375, 75.28478240966797
684,398362902,0.6895,-0.14323543,-0.6889861,0.17138125,17.085594177246094,8.030374526977539,-5.632182598114014,26.928539276123047,-304.6631164550781, 57.09196853637695
685,398379569,0.66216904,-0.14011502,-0.7122459,0.18602674,11.220209121704102,2.8846724033355713,-7.377492904663086,32.01988220214844,-254.6206512451172, 65.55915832519531
686,398396236,0.63825744,-0.14612493,-0.73135895,0.19075955,5.442195892333984,-8.854134559631348,-6.419435024261475,-49.33606719970703,-197.70535278320312, 64.82917785644531
687,398412903,0.62130946,-0.14810985,-0.7440927,0.19586758,8.502227783203125,-10.462121963500977,-6.8881378173828125,-14.343916893005371,-140.316162109375, 43.25867462158203
688,398429570,0.6079745,-0.14985873,-0.75430995,0.19729702,10.956775665283203,-7.362746715545654,-7.542401313781738,-25.04926872253418,-107.63578796386719, 23.81144905090332
689,398446237,0.5977652,-0.1509802,-0.76265657,0.19554259,13.781970024108887,-5.301307201385498,-5.71586275100708,-33.15834426879883,-81.1548843383789, 4.8633246421813965
690,398462904,0.5901049,-0.14937848,-0.7698088,0.19198105,13.785606384277344,-5.946113586425781,-6.050538539886475,-27.209932327270508,-64.7137451171875, -18.994413375854492
691,398479571,0.5844915,-0.1478201,-0.7759423,0.18556002,16.21659278869629,-7.0471930503845215,-4.582818508148193,-39.11431121826172,-46.79255294799805, -31.991479873657227
