PacketCounter,SampleTimeFine,Quat_W,Quat_X,Quat_Y,Quat_Z,Acc_X,Acc_Y,Acc_Z,Gyr_X,Gyr_Y,Gyr_Z 
1,684970707,0.5877354,0.37295505,-0.24764459,0.6739017,-0.013076119124889374,-0.02521049976348877,-0.04492630809545517,-0.015876466408371925,0.18297463655471802, -0.011897231452167034
2,684987374,0.5885414,0.3734332,-0.24502148,0.6738927,13.029160499572754,2.152529001235962,10.195460319519043,2.7589550018310547,2.5748767852783203, -3.0341827869415283
3,685004041,0.5910291,0.37337252,-0.24069408,0.67330843,13.654212951660156,1.6436985731124878,10.087226867675781,-1.1860218048095703,2.359320640563965, -2.8104305267333984
4,685020708,0.59071505,0.3736963,-0.24136746,0.67316335,13.324305534362793,2.1722140312194824,10.23913860321045,2.443957567214966,2.649012804031372, -2.9812285900115967
5,685037375,0.5911604,0.374071,-0.24082789,0.67275715,13.30539608001709,1.7996413707733154,10.113503456115723,-0.4521537721157074,2.676469326019287, -2.440659761428833
6,685054042,0.591312,0.37407795,-0.24078253,0.67263633,13.386032104492188,2.165067434310913,10.124504089355469,2.0698580741882324,2.9295995235443115, -2.386462926864624
7,685070709,0.5915912,0.3743124,-0.24052522,0.67235243,13.18272876739502,1.9114058017730713,10.114213943481445,-0.221639484167099,2.857346296310425, -2.2910943031311035
8,685087376,0.5916601,0.37440562,-0.24008386,0.6723977,13.114474296569824,2.1397480964660645,10.183141708374023,1.9350457191467285,3.1727278232574463, -1.8554350137710571
9,685104043,0.5919779,0.37419602,-0.23966645,0.67238355,13.38620376586914,1.8114134073257446,10.162640571594238,-0.8754675984382629,3.0863490104675293, -1.515541672706604
10,685120710,0.59198785,0.3741421,-0.23924337,0.67255527,13.090614318847656,2.1164679527282715,10.073578834533691,2.1974098682403564,3.0988235473632812, -1.4075461626052856
11,685137377,0.5920492,0.37394953,-0.23901714,0.67268884,13.14847183227539,2.0599067211151123,10.11493968963623,-0.6331203579902649,2.5790133476257324, -0.7329202890396118
12,685154044,0.592188,0.37385553,-0.23870465,0.6727299,12.934194564819336,1.9126776456832886,10.090373039245605,1.002410650253296,2.4734506607055664, -0.7193583250045776
13,685170711,0.59236,0.37360895,-0.2384507,0.6728055,13.112265586853027,1.9646114110946655,10.02463150024414,0.6094989776611328,2.630277156829834, -0.48831889033317566
14,685187378,0.5925125,0.37333807,-0.23825802,0.6728898,13.204367637634277,1.8467494249343872,10.072994232177734,-0.5093725323677063,2.67488169670105, -0.9569417238235474
15,685204045,0.5925271,0.3732964,-0.23783459,0.6730501,13.321742057800293,1.9402743577957153,10.093011856079102,2.6507930755615234,2.880359649658203, -1.052285075187683
16,685220712,0.5927182,0.37304464,-0.2377181,0.67306244,12.958587646484375,2.0232198238372803,10.034036636352539,-0.17088793218135834,2.8868908882141113, -1.3390960693359375
17,685237379,0.59278923,0.3728485,-0.2374531,0.67320234,13.297956466674805,1.9327096939086914,10.132220268249512,0.3716338574886322,3.0921378135681152, -1.1393424272537231
18,685254046,0.59279287,0.37270468,-0.23722081,0.6733604,12.979887008666992,1.9360548257827759,10.020170211791992,0.3551008701324463,2.7701992988586426, -1.0980805158615112
19,685270713,0.5929109,0.37247097,-0.23705794,0.67344326,13.030311584472656,1.9914829730987549,10.008938789367676,0.18603146076202393,2.97953200340271, -0.8644927740097046
20,685287380,0.59305215,0.3723218,-0.23679061,0.67349535,13.225106239318848,1.9642102718353271,10.172006607055664,1.0725637674331665,3.0327160358428955, -1.245967984199524
21,685304047,0.5930157,0.37228337,-0.23640658,0.67368364,13.27139663696289,1.8261609077453613,10.028599739074707,1.9549083709716797,2.9420599937438965, -0.9675837159156799
22,685320714,0.5930749,0.37214354,-0.23617649,0.67378956,13.010003089904785,2.136129856109619,10.172086715698242,0.8437271118164062,2.969132900238037, -1.0967998504638672
23,685337381,0.59328914,0.37194782,-0.23600988,0.67376715,13.352672576904297,1.9816128015518188,10.2522554397583,0.19178147614002228,2.8235244750976562, -1.4026026725769043
24,685354048,0.59331113,0.37189296,-0.23567502,0.67389524,13.155911445617676,1.9187989234924316,10.064286231994629,1.5100414752960205,2.8382649421691895, -1.1769931316375732
25,685370715,0.5935324,0.37163782,-0.23556238,0.67388076,13.119025230407715,2.1493887901306152,10.101419448852539,-0.6965500712394714,2.9266157150268555, -1.5374661684036255
26,685387382,0.5936351,0.3715614,-0.2352029,0.6739578,13.196245193481445,1.960625171661377,10.18688678741455,1.6767293214797974,3.1711409091949463, -1.275371789932251
27,685404049,0.59371203,0.3713783,-0.23503545,0.6740494,13.358317375183105,1.9816538095474243,10.174113273620605,0.19969581067562103,2.8217575550079346, -0.6550320386886597
28,685420716,0.5936977,0.3713393,-0.23470025,0.6742003,12.80871868133545,2.049564838409424,10.015223503112793,1.8622163534164429,2.909609317779541, -0.6956409811973572
29,685437383,0.59380335,0.3711377,-0.2344582,0.6743024,13.387141227722168,1.9009000062942505,10.29782772064209,0.6931372880935669,3.3214609622955322, -0.6046133041381836
30,685454050,0.5938404,0.3710974,-0.23412578,0.6744075,13.377167701721191,1.9425382614135742,10.099628448486328,1.5995705127716064,2.7938268184661865, -1.1429153680801392
31,685470717,0.5938504,0.37105253,-0.23365128,0.67458797,12.711548805236816,2.0848770141601562,10.063597679138184,2.4153223037719727,3.2629103660583496, -0.8216553330421448
32,685487384,0.5941051,0.370593,-0.23360057,0.67463386,13.611544609069824,1.7999627590179443,10.37643051147461,-2.2417008876800537,3.0466504096984863, -0.5419135689735413
33,685504051,0.5941851,0.37055475,-0.2330925,0.6747602,13.263161659240723,1.9756934642791748,10.12265682220459,2.3449647426605225,2.8069920539855957, -1.0562678575515747
34,685520718,0.5943866,0.3701869,-0.23292965,0.6748409,13.22458267211914,1.9901539087295532,10.253077507019043,-1.124922513961792,2.9451849460601807, -0.46282145380973816
35,685537385,0.5945964,0.36993563,-0.23262934,0.6748975,13.334028244018555,1.8771480321884155,10.26042652130127,0.041191622614860535,2.917741298675537, -1.0323967933654785
36,685554052,0.59465075,0.36980686,-0.23214903,0.6750854,13.22348690032959,1.894057035446167,10.142704010009766,1.9023385047912598,3.152456045150757, -0.4904063642024994
37,685570719,0.59487885,0.3694652,-0.23191063,0.6751536,13.038982391357422,1.976365089416504,10.150972366333008,-0.696050763130188,3.1283798217773438, -0.807504415512085
38,685587386,0.5949826,0.3692402,-0.23147584,0.67533433,13.354095458984375,1.7498568296432495,10.209212303161621,1.2303764820098877,3.48183536529541, -0.4174870252609253
39,685604053,0.5950591,0.36906508,-0.2310164,0.67552,13.243847846984863,1.8448766469955444,10.185302734375,1.6194206476211548,3.3207056522369385, -0.4228785037994385
40,685620720,0.59519476,0.36883506,-0.23059063,0.67567146,13.065381050109863,1.9133461713790894,10.235875129699707,1.0683889389038086,3.45131778717041, -0.6375256776809692
41,685637387,0.5953595,0.3685522,-0.23022047,0.6758069,13.46868896484375,1.8017007112503052,10.307405471801758,0.6342024803161621,3.496114492416382, -0.4991915225982666
42,685654054,0.5955231,0.36826253,-0.22990666,0.67592746,13.148406028747559,1.764367938041687,10.124308586120605,0.3635018467903137,3.267047166824341, -0.37172994017601013
43,685670721,0.5957193,0.3679575,-0.22955509,0.6760403,13.33965015411377,1.9357599020004272,10.323986053466797,0.06402534991502762,3.472666025161743, -0.8849060535430908
44,685687388,0.59591883,0.36769632,-0.22911696,0.67615515,13.285131454467773,1.7815433740615845,10.234762191772461,0.9006513953208923,3.6780800819396973, -0.9673404693603516
45,685704055,0.5961539,0.3673943,-0.22870249,0.6762525,13.307044982910156,1.8061072826385498,10.216687202453613,0.7263698577880859,3.8215370178222656, -0.9031295776367188
46,685720722,0.5964086,0.36710793,-0.22824511,0.67633784,13.201628684997559,2.0162770748138428,10.22853946685791,0.872374951839447,3.91876220703125, -1.2164751291275024
47,685737389,0.59660566,0.36688888,-0.2276809,0.6764732,13.18542766571045,1.941800594329834,10.295873641967773,1.8337219953536987,4.074603080749512, -1.1431077718734741
48,685754056,0.59677076,0.36665967,-0.22720794,0.6766106,13.35352611541748,1.7915475368499756,10.324566841125488,1.5880193710327148,3.7254374027252197, -0.627421498298645
49,685770723,0.59704256,0.36634463,-0.2269168,0.6766392,13.170964241027832,2.141103982925415,10.272756576538086,-0.10674092173576355,3.263345956802368, -1.0284395217895508
50,685787390,0.5971876,0.36618423,-0.226448,0.6767552,13.111359596252441,2.0987184047698975,10.396161079406738,1.6824407577514648,3.274641513824463, -0.8675277829170227
51,685804057,0.59743756,0.36579514,-0.22629407,0.6767965,13.476176261901855,1.877984881401062,10.286243438720703,-1.0945714712142944,3.0212032794952393, -0.5045573711395264
52,685820724,0.5974874,0.36574042,-0.22572893,0.67697066,13.162728309631348,2.2052533626556396,10.40540885925293,3.029937744140625,3.2039759159088135, -0.48067355155944824
53,685837391,0.59762955,0.3654989,-0.22548321,0.67705745,13.194886207580566,2.010730028152466,10.213082313537598,0.3469560444355011,2.6740362644195557, -0.2215498685836792
54,685854058,0.59772336,0.3652465,-0.22519067,0.67720836,13.313051223754883,1.941681981086731,10.250683784484863,0.8242743611335754,3.0203328132629395, 0.23491328954696655
55,685870725,0.5978429,0.36496183,-0.22491859,0.67734677,13.129646301269531,2.129697322845459,10.240869522094727,0.5902381539344788,3.1113343238830566, 0.2277032732963562
56,685887392,0.5980129,0.3645765,-0.2248082,0.67744094,13.327666282653809,1.948657751083374,10.261449813842773,-0.9784179925918579,2.8474984169006348, 0.2027437388896942
57,685904059,0.59814966,0.364286,-0.22453725,0.67756623,13.292810440063477,1.992738127708435,10.33127212524414,0.3247626721858978,3.1010899543762207, -0.037817154079675674
58,685920726,0.598333,0.3639708,-0.22424145,0.6776716,13.322463035583496,1.925311803817749,10.31208610534668,0.406902551651001,3.3803319931030273, -0.1799292117357254
59,685937393,0.59852535,0.3636697,-0.22391176,0.67777246,13.418740272521973,1.969041347503662,10.321274757385254,0.5718483328819275,3.454685926437378, -0.3679136037826538
60,685954060,0.59879464,0.36330903,-0.22365445,0.67781293,13.336517333984375,2.0325992107391357,10.358531951904297,-0.45650792121887207,3.3770790100097656, -0.8382011651992798
61,685970727,0.5988969,0.3631793,-0.22309189,0.6779774,13.28299617767334,2.062253475189209,10.278535842895508,2.1870744228363037,3.5506820678710938, -0.9511403441429138
62,685987394,0.5991208,0.36281496,-0.2228517,0.67805374,13.302699089050293,2.060319185256958,10.40088176727295,-0.7225213646888733,3.282042980194092, -0.7145046591758728
63,686004061,0.59936213,0.3625243,-0.2225397,0.6780985,13.410195350646973,2.108384132385254,10.45576286315918,0.1884518265724182,3.2442901134490967, -0.9059467911720276
64,686020728,0.59944,0.36235598,-0.22210413,0.6782624,13.227034568786621,2.011692523956299,10.314674377441406,1.4978370666503906,3.1643528938293457, -0.45342159271240234
65,686037395,0.5995299,0.36213216,-0.22166944,0.6784445,13.266741752624512,2.1670827865600586,10.399618148803711,1.2627254724502563,3.483090400695801, -0.3483071029186249
66,686054062,0.5995693,0.3619152,-0.22128296,0.67865163,13.416816711425781,1.8054715394973755,10.419413566589355,1.2285706996917725,3.23732328414917, 0.10129182040691376
67,686070729,0.599612,0.36177918,-0.22081485,0.67883885,13.271220207214355,2.2856178283691406,10.320006370544434,1.9081909656524658,3.152635097503662, -0.325178861618042
68,686087396,0.5997573,0.3614135,-0.22060704,0.6789728,13.471818923950195,1.8802534341812134,10.345597267150879,-0.5926522612571716,3.176340103149414, -0.024741869419813156
69,686104063,0.5998574,0.36120057,-0.22020964,0.6791266,13.43492317199707,2.172698974609375,10.397903442382812,1.0668264627456665,3.2284228801727295, -0.43751612305641174
70,686120730,0.5999971,0.36094597,-0.21983711,0.6792593,13.240188598632812,2.0348799228668213,10.30521297454834,0.6469831466674805,3.3300671577453613, -0.5839439630508423
71,686137397,0.60013074,0.36064345,-0.21943294,0.6794327,13.638144493103027,1.8861533403396606,10.461480140686035,0.6744401454925537,3.7772269248962402, -0.3935520052909851
72,686154064,0.6002304,0.3603968,-0.21890925,0.6796444,13.493868827819824,2.015831232070923,10.461036682128906,1.6070624589920044,4.056239128112793, -0.46109262108802795
73,686170731,0.60033923,0.36012238,-0.21839462,0.6798592,13.220382690429688,2.232036828994751,10.349933624267578,1.4324605464935303,4.1723151206970215, -0.42753997445106506
74,686187398,0.6005539,0.35958523,-0.21821359,0.68001217,13.497687339782715,2.0109691619873047,10.536463737487793,-1.5683680772781372,4.029639720916748, 0.04525124281644821
75,686204065,0.6006673,0.35928997,-0.21783559,0.68018925,13.505475044250488,2.2016348838806152,10.466240882873535,0.6389535665512085,3.621398687362671, -0.23321640491485596
76,686220732,0.600832,0.35880107,-0.2177144,0.6803405,13.423131942749023,2.0709328651428223,10.532435417175293,-1.5284380912780762,3.4826042652130127, 0.34580352902412415
77,686237399,0.60089695,0.35852554,-0.21738644,0.6805333,13.364171981811523,2.173750638961792,10.563791275024414,0.628951907157898,3.2928264141082764, 0.15340086817741394
78,686254066,0.6009484,0.35822812,-0.21709496,0.6807376,13.728215217590332,2.108299732208252,10.648448944091797,0.41737812757492065,3.253472328186035, 0.38759055733680725
79,686270733,0.60093725,0.35807008,-0.21670009,0.68095624,13.187597274780273,2.107393980026245,10.318264961242676,1.6531908512115479,2.9738457202911377, 0.27562466263771057
80,686287400,0.6010682,0.35765323,-0.21650715,0.6811211,13.359586715698242,2.0870707035064697,10.480117797851562,-0.791419506072998,3.4326841831207275, 0.27123206853866577
81,686304067,0.6012095,0.35725012,-0.21632418,0.68126607,13.694546699523926,1.8268587589263916,10.438923835754395,-0.8365875482559204,3.295912504196167, 0.14319419860839844
82,686320734,0.60122645,0.35704386,-0.21584228,0.68151194,13.295323371887207,2.292438268661499,10.549415588378906,1.8356812000274658,3.6783998012542725, 0.11116550862789154
83,686337401,0.60137135,0.35654318,-0.21573123,0.6816815,13.656119346618652,1.8713021278381348,10.53632926940918,-1.5484800338745117,3.5282461643218994, 0.5468248128890991
84,686354068,0.6014164,0.35618946,-0.21545,0.6819155,13.648526191711426,2.1212456226348877,10.464495658874512,0.19929881393909454,3.557840585708618, 0.6420142650604248
85,686370735,0.60148984,0.35577732,-0.21520881,0.68214214,13.396793365478516,2.2580440044403076,10.678621292114258,-0.31114307045936584,3.6958167552948, 0.6628758907318115
86,686387402,0.6015285,0.35533935,-0.21501692,0.68239677,13.82006549835205,1.8901420831680298,10.65571117401123,-0.5244969129562378,3.629953622817993, 1.1021721363067627
87,686404069,0.6015837,0.35497978,-0.2146515,0.6826501,13.478373527526855,2.1737022399902344,10.559687614440918,0.5743071436882019,4.00640869140625, 0.47572386264801025
88,686420736,0.6015956,0.3546625,-0.21420346,0.68294525,13.502943992614746,1.9890471696853638,10.651273727416992,1.3033472299575806,4.191371440887451, 0.5891241431236267
89,686437403,0.60162234,0.3543149,-0.21386151,0.6832093,13.807560920715332,1.8523156642913818,10.717369079589844,0.5987417697906494,3.8432822227478027, 0.6916902661323547
90,686454070,0.6016768,0.35402384,-0.21355402,0.6834082,13.610893249511719,2.119123697280884,10.711965560913086,0.5105956196784973,3.322434902191162, 0.28896892070770264
91,686470737,0.6017704,0.35359913,-0.21348695,0.68356675,13.654402732849121,1.8795435428619385,10.601189613342285,-1.3276598453521729,2.9163320064544678, 0.7205555438995361
92,686487404,0.6018849,0.35320732,-0.21334429,0.68371314,13.64688777923584,2.142883539199829,10.728608131408691,-0.903603196144104,3.0758097171783447, 0.3383629620075226
93,686504071,0.6019482,0.3529217,-0.21308376,0.68388605,13.588526725769043,2.0766866207122803,10.801628112792969,0.2514590919017792,3.0510170459747314, 0.24961496889591217
94,686520738,0.6019919,0.3525287,-0.21304259,0.68406326,14.004069328308105,1.793178915977478,10.643282890319824,-1.1709743738174438,2.6262943744659424, 1.0504473447799683
95,686537405,0.60196644,0.35237926,-0.21271151,0.6842655,13.644962310791016,2.2448742389678955,10.847127914428711,1.4065150022506714,2.6437110900878906, 0.4163280129432678
96,686554072,0.60191756,0.3521867,-0.2123922,0.6845068,13.941566467285156,1.9354196786880493,10.758016586303711,1.284022331237793,2.8552334308624268, 0.7829738259315491
97,686570739,0.6020093,0.35174915,-0.21234691,0.68466526,14.034717559814453,1.9443408250808716,10.72732925415039,-1.4797992706298828,2.8815758228302, 0.7987000346183777
98,686587406,0.6020292,0.35141504,-0.21192147,0.68495095,13.724861145019531,2.068864583969116,10.582697868347168,1.0981509685516357,4.174966335296631, 0.5916342735290527
99,686604073,0.60213155,0.35094076,-0.21158008,0.6852097,13.936269760131836,1.9739084243774414,10.721024513244629,-0.11763913929462433,4.544147491455078, 0.4998510777950287
100,686620740,0.60220134,0.35053957,-0.21105559,0.6855154,13.968748092651367,2.0068767070770264,10.842535972595215,1.1948133707046509,5.027370452880859, 0.29867613315582275
101,686637407,0.6022522,0.35015205,-0.21052419,0.6858321,13.810504913330078,1.9218930006027222,10.750325202941895,1.3458642959594727,4.992895126342773, 0.3956074118614197
102,686654074,0.6024784,0.34953249,-0.2102936,0.6860202,13.837555885314941,2.0327887535095215,10.683295249938965,-1.6410315036773682,4.788531303405762, 0.09478621184825897
103,686670741,0.6025771,0.34913826,-0.20977704,0.6862923,13.77563762664795,2.2476537227630615,11.01272201538086,1.069016456604004,4.931680679321289, 0.03135634586215019
104,686687408,0.6026698,0.3487432,-0.209439,0.68651485,13.861310005187988,2.0818395614624023,10.805946350097656,0.16408134996891022,4.068366050720215, 0.2865740954875946
105,686704075,0.60281473,0.34827015,-0.20921984,0.6866947,13.638644218444824,2.434762954711914,10.782596588134766,-0.9072532057762146,3.920926809310913, 0.2600649893283844
106,686720742,0.60287136,0.34785035,-0.20896976,0.6869338,13.893433570861816,2.0786452293395996,10.967790603637695,-0.24803341925144196,3.8149352073669434, 0.7755782604217529
107,686737409,0.6028282,0.34750435,-0.20877296,0.6872065,14.059340476989746,1.952237606048584,10.64604377746582,0.0941971018910408,3.1858034133911133, 1.4068351984024048
108,686754076,0.6028033,0.34715465,-0.20845331,0.6875022,13.593101501464844,2.601461172103882,10.973215103149414,0.649711012840271,3.803070306777954, 1.1240198612213135
109,686770743,0.60267997,0.3468482,-0.20812573,0.68786407,14.032812118530273,1.9542362689971924,10.916385650634766,1.1906768083572388,3.6480233669281006, 1.7881443500518799
110,686787410,0.6026198,0.34654853,-0.20791139,0.6881326,13.951736450195312,2.0885043144226074,10.497273445129395,0.40138307213783264,3.021165370941162, 1.3588242530822754
111,686804077,0.60267997,0.34598982,-0.2078517,0.688379,13.621160507202148,2.275186061859131,10.893532752990723,-1.722108244895935,3.7356183528900146, 1.4354957342147827
112,686820744,0.6027162,0.34556985,-0.20763604,0.6886234,13.99874496459961,1.8987401723861694,10.712024688720703,-0.3566184937953949,3.687748908996582, 0.9731996059417725
113,686837411,0.6028147,0.34500661,-0.2076009,0.6888301,14.114646911621094,1.9705662727355957,10.680850982666016,-2.004129648208618,3.6256117820739746, 1.1511693000793457
114,686854078,0.60277915,0.34475422,-0.20711222,0.6891348,13.522977828979492,2.3487462997436523,10.956186294555664,1.8906975984573364,4.085193634033203, 0.6698297262191772
115,686870745,0.6028042,0.34431788,-0.20696819,0.6893741,14.180960655212402,1.6585273742675781,10.595416069030762,-0.7440490126609802,3.4588608741760254, 1.1941986083984375
116,686887412,0.6028015,0.34399572,-0.20660314,0.6896467,13.789556503295898,2.306359052658081,10.798263549804688,0.8942099213600159,3.8865420818328857, 0.7700907588005066
117,686904079,0.6028187,0.34365836,-0.20629695,0.6898916,13.444612503051758,2.1070151329040527,10.637906074523926,0.46213632822036743,3.68249773979187, 0.7238596677780151
118,686920746,0.602843,0.34323424,-0.20612103,0.6901339,13.954954147338867,1.798498511314392,10.6233491897583,-0.5362018942832947,3.5616190433502197, 1.1116873025894165
119,686937413,0.6028681,0.34285498,-0.20585409,0.6903802,13.855727195739746,2.2004506587982178,10.840529441833496,0.0882933959364891,3.747260332107544, 0.8403592109680176
120,686954080,0.6028198,0.34258988,-0.205484,0.6906642,13.804718971252441,2.027536153793335,10.687688827514648,1.275122046470642,3.6239476203918457, 0.9407225847244263
121,686970747,0.6028181,0.3421975,-0.20531686,0.6909098,13.859323501586914,1.7846206426620483,10.590019226074219,-0.3798106908798218,3.368345260620117, 1.2181206941604614
122,686987414,0.60288024,0.3417164,-0.20518693,0.6911322,13.757285118103027,2.079771041870117,10.644325256347656,-1.1045349836349487,3.6743664741516113, 1.027472734451294
123,687004081,0.60285485,0.34130284,-0.20495704,0.6914267,13.7855224609375,1.8319095373153687,10.64818286895752,-0.0435543991625309,3.8130462169647217, 1.414096474647522
124,687020748,0.60280186,0.34093842,-0.20470163,0.69172835,13.660137176513672,1.9988794326782227,10.621452331542969,0.35823848843574524,3.661726713180542, 1.4443836212158203
125,687037415,0.60285014,0.34038022,-0.20467709,0.6919685,13.565814018249512,1.867103099822998,10.600213050842285,-1.8676012754440308,3.6225132942199707, 1.5229120254516602
126,687054082,0.6028434,0.3399627,-0.20446052,0.6922435,13.771445274353027,1.8751769065856934,10.65450668334961,-0.1920824497938156,3.751281261444092, 1.2812306880950928
127,687070749,0.6028622,0.33949333,-0.20433138,0.69249564,13.703218460083008,1.8720027208328247,10.59164810180664,-0.9143479466438293,3.6182363033294678, 1.3413052558898926
128,687087416,0.6027521,0.33927718,-0.20394078,0.69281244,13.38360595703125,1.8365447521209717,10.369604110717773,1.771905779838562,3.468132257461548, 1.2564501762390137
129,687104083,0.6027889,0.33881998,-0.2037927,0.69304776,13.506546020507812,1.9503573179244995,10.52780532836914,-0.8392386436462402,3.628340005874634, 1.1227391958236694
130,687120750,0.6027232,0.33852854,-0.20349093,0.69333607,13.413174629211426,1.7214245796203613,10.441706657409668,0.8924041390419006,3.4566454887390137, 1.2411338090896606
131,687137417,0.60283005,0.3380008,-0.20353314,0.6934882,13.71900749206543,2.0417392253875732,10.494475364685059,-2.317539691925049,3.084275484085083, 0.9831244349479675
132,687154084,0.6028099,0.33764014,-0.2033475,0.6937357,13.176483154296875,1.722072958946228,10.248495101928711,-0.11179942637681961,3.2820687294006348, 1.2228846549987793
133,687170751,0.60282767,0.33717346,-0.20320185,0.69398993,13.753846168518066,2.061439037322998,10.724016189575195,-0.8192863464355469,3.693460702896118, 1.3087002038955688
134,687187418,0.60269976,0.33696052,-0.20282903,0.6943133,13.373950004577637,1.7280144691467285,10.308540344238281,1.7482271194458008,3.385493755340576, 1.4104596376419067
135,687204085,0.60265136,0.336533,-0.20274769,0.6945866,13.279293060302734,1.9102226495742798,10.290098190307617,-0.7847091555595398,3.2028489112854004, 1.796020269393921
136,687220752,0.60265654,0.3360643,-0.20269123,0.69482523,13.236416816711426,1.752089023590088,10.28844928741455,-1.247556209564209,3.296130895614624, 1.5118730068206787
137,687237419,0.60265523,0.33562624,-0.20261736,0.69505984,13.654905319213867,1.8669923543930054,10.490931510925293,-1.0273829698562622,3.20889949798584, 1.4422638416290283
138,687254086,0.60255426,0.33535478,-0.20235021,0.6953562,13.339425086975098,1.7185488939285278,10.288437843322754,0.9021624326705933,3.22525954246521, 1.4946609735488892
139,687270753,0.60254073,0.33482864,-0.20232145,0.69562966,13.264638900756836,1.552969217300415,10.326398849487305,-1.5254669189453125,3.531613826751709, 1.8833211660385132
140,687287420,0.6024878,0.33440453,-0.20211138,0.6959405,13.6524076461792,1.6213726997375488,10.361026763916016,-0.08982373028993607,3.8317174911499023, 1.6632182598114014
141,687304087,0.6023639,0.33412775,-0.2017893,0.6962741,13.067707061767578,1.860741376876831,10.541580200195312,1.2531334161758423,3.5559325218200684, 1.6314200162887573
142,687320754,0.6023235,0.3337422,-0.201738,0.6965088,13.654178619384766,1.605045199394226,10.297392845153809,-0.8236660957336426,2.8451294898986816, 1.5964332818984985
143,687337421,0.60227156,0.33343107,-0.20159364,0.69674444,13.285151481628418,1.5862512588500977,10.178297996520996,-0.0409034788608551,2.87312388420105, 1.3343383073806763
144,687354088,0.6022312,0.33309865,-0.20141497,0.69698995,13.347786903381348,1.6471459865570068,10.238216400146484,0.02389024943113327,3.1660821437835693, 1.2681297063827515
145,687370755,0.60217744,0.33280873,-0.20115326,0.6972505,13.018534660339355,1.5864455699920654,10.019660949707031,0.6501592397689819,3.3315529823303223, 1.1438183784484863
146,687387422,0.6022761,0.33222318,-0.20118879,0.6974343,13.501944541931152,1.6338701248168945,10.458932876586914,-2.4530563354492188,3.5627715587615967, 1.1819430589675903
147,687404089,0.60221857,0.3318935,-0.20106298,0.697677,13.47865104675293,1.4704209566116333,10.160270690917969,-0.18090249598026276,2.932187080383301, 1.4502360820770264
148,687420756,0.60215086,0.33153027,-0.20093796,0.6979441,12.834234237670898,1.7235721349716187,10.10376262664795,-0.26420778036117554,3.145322322845459, 1.6431506872177124
149,687437423,0.60219216,0.330975,-0.2011072,0.69812334,13.638896942138672,1.3768715858459473,10.334269523620605,-2.8427793979644775,2.80452036857605, 1.6930699348449707
150,687454090,0.602028,0.33079034,-0.2008394,0.6984294,13.365915298461914,1.6810051202774048,10.281874656677246,1.435867190361023,2.854196071624756, 1.690547227859497
151,687470757,0.6019395,0.3303975,-0.20085265,0.698688,13.088311195373535,1.4989230632781982,10.109302520751953,-1.0137121677398682,2.6956660747528076, 2.0584347248077393
152,687487424,0.601869,0.33001357,-0.2008414,0.69893324,13.382100105285645,1.5154335498809814,10.032764434814453,-0.9174981713294983,2.750771999359131, 1.847962737083435
153,687504091,0.6018651,0.32965374,-0.20077948,0.69912434,13.119905471801758,1.6117472648620605,10.165959358215332,-0.8003456592559814,2.8180181980133057, 1.1544221639633179
154,687520758,0.60186076,0.3292959,-0.2007555,0.6993034,13.195601463317871,1.40968656539917,10.04611873626709,-0.9910323023796082,2.6207234859466553, 1.1922647953033447
155,687537425,0.6019046,0.32893184,-0.20068744,0.6994566,13.086861610412598,1.4423649311065674,9.94501781463623,-0.9483999609947205,2.8409671783447266, 0.7614079117774963
156,687554092,0.6018557,0.32874528,-0.20035307,0.69968206,13.017358779907227,1.568021535873413,9.954183578491211,1.3760230541229248,3.124922037124634, 0.6586241722106934
157,687570759,0.60197836,0.32831305,-0.20038626,0.69977003,13.23269271850586,1.4149205684661865,10.035001754760742,-1.9870587587356567,2.7103419303894043, 0.4351661503314972
158,687587426,0.60196674,0.3281329,-0.20012836,0.69993824,13.35058307647705,1.7031326293945312,10.153716087341309,0.8713760375976562,2.7008655071258545, 0.4080807864665985
159,687604093,0.60190445,0.32799846,-0.1998515,0.7001341,12.773681640625,1.6105300188064575,9.932779312133789,1.3013108968734741,2.5542330741882324, 0.6627222299575806
160,687620760,0.6019991,0.32761317,-0.19987878,0.70022535,13.377483367919922,1.5840651988983154,9.923027038574219,-1.7002094984054565,2.481826066970825, 0.5074452757835388
161,687637427,0.60196865,0.32737088,-0.19970536,0.7004141,13.131701469421387,1.63565194606781,10.024660110473633,0.2727048397064209,2.6801321506500244, 0.864780843257904
162,687654094,0.6019158,0.32715613,-0.19950262,0.70061755,12.877425193786621,1.704065203666687,9.977685928344727,0.5967951416969299,2.6750993728637695, 0.929901123046875
163,687670761,0.60194904,0.32675272,-0.19955836,0.70076156,13.331310272216797,1.3942517042160034,9.721478462219238,-1.7063820362091064,2.5003433227539062, 1.111840844154358
164,687687428,0.60189664,0.3265238,-0.19938254,0.70096314,12.835549354553223,1.684145212173462,9.854238510131836,0.40432843565940857,2.6424942016601562, 0.9994394779205322
165,687704095,0.6018318,0.32629305,-0.19915165,0.701192,12.696223258972168,1.4447457790374756,9.684786796569824,0.7252172231674194,2.9273200035095215, 1.053110957145691
166,687720762,0.60188586,0.32594618,-0.19907986,0.70132726,13.094796180725098,1.4674972295761108,9.820690155029297,-0.9168833494186401,2.786975383758545, 0.6060925126075745
167,687737429,0.6018819,0.32579213,-0.1988524,0.7014666,12.968482971191406,1.6125584840774536,9.931113243103027,0.7683617472648621,2.4411144256591797, 0.2884694039821625
168,687754096,0.60189515,0.3256081,-0.19875483,0.70156837,12.848844528198242,1.447839379310608,9.610518455505371,-0.07332915812730789,1.9943774938583374, 0.38209664821624756
169,687770763,0.6019767,0.3253373,-0.19871481,0.7016353,13.153895378112793,1.7885873317718506,10.026972770690918,-0.9097631573677063,2.200406074523926, 0.15400275588035583
170,687787430,0.6019128,0.32529956,-0.19846067,0.70177954,13.021246910095215,1.3549360036849976,9.671661376953125,1.514805555343628,1.9461491107940674, 0.380034863948822
171,687804097,0.601886,0.32511386,-0.19829896,0.7019344,12.757453918457031,1.5912983417510986,9.505965232849121,0.3905104696750641,2.3643276691436768, 0.6491091251373291
172,687820764,0.6019501,0.32478687,-0.19822346,0.70205206,13.026873588562012,1.6284825801849365,9.884480476379395,-0.866144597530365,2.7421276569366455, 0.4414668679237366
173,687837431,0.60185766,0.32467958,-0.19795665,0.7022564,13.091796875,1.2850443124771118,9.517507553100586,1.432678461074829,2.46390962600708, 0.8286157250404358
174,687854098,0.60188013,0.32440808,-0.19789642,0.7023792,12.575587272644043,1.8379096984863281,9.612800598144531,-0.6085065007209778,2.393922805786133, 0.6159405708312988
175,687870765,0.60190016,0.3240246,-0.19803573,0.70250005,12.95773983001709,1.3032304048538208,9.726197242736816,-2.038130283355713,2.1093785762786865, 1.2204771041870117
176,687887432,0.60189795,0.32382336,-0.19813406,0.7025669,12.837090492248535,1.5125707387924194,9.427610397338867,-1.1061099767684937,1.2609835863113403, 0.7605242133140564
177,687904099,0.60205275,0.32333142,-0.19864278,0.7025173,12.845489501953125,1.6132805347442627,9.62314224243164,-4.800664901733398,0.9374440908432007, 0.828269898891449
178,687920766,0.6021846,0.32288814,-0.19925217,0.7024355,12.934778213500977,1.538912296295166,9.58427906036377,-5.080484867095947,0.19627654552459717, 0.9645295739173889
179,687937433,0.60232335,0.3223195,-0.19997008,0.7023736,12.921847343444824,1.5074180364608765,9.571481704711914,-6.11268949508667,0.4221165180206299, 1.4249690771102905
180,687954100,0.6023605,0.32187515,-0.20026855,0.7024605,12.905169486999512,1.7741962671279907,9.685290336608887,-3.1436519622802734,1.7647089958190918, 1.4309496879577637
181,687970767,0.60223204,0.32162806,-0.20014082,0.70272034,13.021836280822754,1.4325286149978638,9.517563819885254,0.3309992849826813,2.742281198501587, 1.7352793216705322
182,687987434,0.60207003,0.32141453,-0.19987743,0.7030317,12.929680824279785,1.4147264957427979,9.37553596496582,1.271305799484253,3.218921661376953, 1.7632105350494385
183,688004101,0.60196745,0.32105678,-0.1997573,0.7033171,12.735153198242188,1.5087625980377197,9.41517162322998,-0.18479564785957336,3.354105234146118, 1.8819254636764526
184,688020768,0.601937,0.3206075,-0.1997919,0.7035383,13.100935935974121,1.447899580001831,9.62784194946289,-1.559993028640747,3.113499402999878, 1.7365221977233887
185,688037435,0.60189474,0.32024336,-0.1997687,0.7037467,12.883441925048828,1.3929693698883057,9.330379486083984,-0.919854462146759,2.8985443115234375, 1.4964282512664795
186,688054102,0.6019903,0.31980106,-0.19983536,0.70384735,12.80949878692627,1.7429577112197876,9.685039520263672,-2.1287996768951416,2.8597795963287354, 0.6884245872497559
187,688070769,0.60202265,0.31950065,-0.19990566,0.7039359,12.919254302978516,1.4107698202133179,9.514692306518555,-1.4416874647140503,2.040313959121704, 0.7620097398757935
188,688087436,0.60215193,0.31898442,-0.20036976,0.70392764,12.987265586853027,1.7416601181030273,9.594887733459473,-4.586312294006348,1.3775469064712524, 1.0540201663970947
189,688104103,0.6021649,0.31865537,-0.20062464,0.7039931,12.748167991638184,1.7793567180633545,9.653877258300781,-2.4470632076263428,1.3409850597381592, 1.2097584009170532
190,688120770,0.60213405,0.3182462,-0.20100759,0.7040953,13.341739654541016,1.1796702146530151,9.447700500488281,-3.2563350200653076,1.2172502279281616, 1.9711089134216309
191,688137437,0.60190517,0.31817612,-0.2009024,0.70435244,12.775090217590332,1.5105704069137573,9.524492263793945,1.1622852087020874,1.673911690711975, 2.028660297393799
192,688154104,0.6017815,0.31788802,-0.20109509,0.7045333,13.010185241699219,1.3816229104995728,9.428505897521973,-1.5193326473236084,1.4773725271224976, 2.157325506210327
193,688170771,0.60174525,0.3175183,-0.20147018,0.7046239,13.267141342163086,1.409570574760437,9.440054893493652,-3.0557234287261963,1.0499863624572754, 1.8708221912384033
194,688187438,0.6016139,0.31722817,-0.20185506,0.7047564,12.904341697692871,1.4136199951171875,9.504029273986816,-2.5086612701416016,0.5966670513153076, 2.4151816368103027
195,688204105,0.6015984,0.31680202,-0.20257841,0.70475376,12.89880084991455,1.4569919109344482,9.462372779846191,-5.1516876220703125,-0.27217334508895874, 2.221818685531616
196,688220772,0.6016641,0.31638074,-0.2034044,0.70464903,12.906719207763672,1.5226093530654907,9.7225923538208,-5.949779987335205,-0.8216555118560791, 1.6231728792190552
197,688237439,0.60165447,0.31601474,-0.20423336,0.70458186,13.18289852142334,0.9640120267868042,9.261039733886719,-5.520627021789551,-1.1208888292312622, 2.0760443210601807
198,688254106,0.60165805,0.31569448,-0.2049188,0.70452327,12.99106502532959,1.513202428817749,9.323756217956543,-4.647552490234375,-0.6949750185012817, 1.6646268367767334
199,688270773,0.60164034,0.31535354,-0.20539589,0.70455205,13.010079383850098,1.1842230558395386,9.365167617797852,-3.5581297874450684,0.43945637345314026, 1.7092318534851074
200,688287440,0.6016761,0.31495476,-0.20589872,0.7045531,12.912071228027344,1.2454339265823364,9.095208168029785,-4.0758256912231445,0.6420015692710876, 1.4707645177841187
201,688304107,0.60163546,0.31469485,-0.20604004,0.7046626,12.874777793884277,1.3984180688858032,9.460987091064453,-1.431993007659912,1.6070367097854614, 1.3087128400802612
202,688320774,0.60157543,0.31448284,-0.20612529,0.70478356,13.124591827392578,0.8988882899284363,9.24263858795166,-0.9066895842552185,1.6142724752426147, 1.262085199356079
203,688337441,0.6013974,0.31460854,-0.20586847,0.7049547,12.449557304382324,1.2826721668243408,9.159136772155762,2.479315757751465,1.3519343137741089, 0.8158477544784546
204,688354108,0.60140264,0.3143993,-0.2061034,0.7049748,13.056385040283203,1.2275818586349487,9.324156761169434,-1.9013460874557495,0.8833371996879578, 0.8414732813835144
205,688370775,0.6013048,0.31439838,-0.20608589,0.7050638,12.796507835388184,1.0150405168533325,9.040274620056152,0.5041027069091797,0.937981903553009, 0.7841392159461975
206,688387442,0.60126793,0.31433788,-0.20603259,0.7051377,12.465909957885742,1.3901352882385254,9.12444019317627,0.2803502082824707,1.4458562135696411, 0.42768728733062744
207,688404109,0.60130733,0.3142104,-0.20597005,0.7051792,12.858490943908691,1.102112889289856,9.162693977355957,-0.16690512001514435,1.8577336072921753, 0.0008644284680485725
208,688420776,0.6012403,0.31443307,-0.2056402,0.7052336,12.459471702575684,1.3022327423095703,9.075312614440918,2.826470375061035,1.1606202125549316, -0.5055946707725525
209,688437443,0.6012276,0.31451944,-0.20559591,0.7052186,12.351386070251465,1.2966357469558716,8.98146915435791,0.6604042649269104,0.581235408782959, -0.24576666951179504
210,688454110,0.6012905,0.3144486,-0.20597555,0.7050857,12.733869552612305,1.2561594247817993,9.030930519104004,-2.377703905105591,-0.5435271263122559, 0.03937311843037605
211,688470777,0.60114735,0.3146398,-0.20613414,0.7050762,12.154762268066406,1.23576819896698,8.791930198669434,0.3960299789905548,-0.908789873123169, 0.6990922093391418
212,688487444,0.60106313,0.31470716,-0.20649385,0.7050127,12.355392456054688,1.323312520980835,8.877549171447754,-1.2962586879730225,-1.1689122915267944, 0.8015941977500916
213,688504111,0.60092896,0.3148998,-0.20685515,0.70493495,12.196869850158691,1.1164735555648804,8.816571235656738,-0.7000976204872131,-1.8823286294937134, 0.8131968975067139
214,688520778,0.6006939,0.31534737,-0.2067551,0.70496476,11.989598274230957,1.3134692907333374,8.61521053314209,2.9624862670898438,-1.124666452407837, 0.38537511229515076
215,688537445,0.6005851,0.31559446,-0.20693453,0.7048941,12.181670188903809,1.2531076669692993,8.700895309448242,0.3652050793170929,-1.3485727310180664, 0.2568889558315277
216,688554112,0.60044914,0.31597832,-0.20713738,0.7047785,11.933274269104004,1.1269139051437378,8.415337562561035,0.8041812181472778,-2.2476940155029297, 0.05392114073038101
217,688570779,0.60023236,0.31644902,-0.20736395,0.7046854,11.941191673278809,1.157300591468811,8.430364608764648,1.2560917139053345,-2.8351082801818848, 0.4658758342266083
218,688587446,0.59975857,0.31731185,-0.20724596,0.70473546,11.971162796020508,0.8162570595741272,8.312560081481934,5.302309513092041,-3.371476888656616, 0.9876449108123779
219,688604113,0.5988056,0.31893855,-0.20622197,0.705112,11.717048645019531,1.043781042098999,8.393378257751465,14.35871410369873,-3.306307315826416, 1.5833334922790527
220,688620780,0.5982658,0.3201871,-0.20576535,0.70513755,11.506284713745117,1.5321276187896729,8.356415748596191,8.66008472442627,-3.9960172176361084, -0.07623621076345444
221,688637447,0.5978039,0.3212856,-0.2056223,0.7050715,11.63845157623291,1.2534288167953491,8.08928394317627,6.210766792297363,-4.657055377960205, 0.07204212993383408
222,688654114,0.5972683,0.32249135,-0.20550437,0.7050092,11.590862274169922,1.3929537534713745,8.042189598083496,6.693644046783447,-5.37529993057251, 0.34584200382232666
223,688670781,0.59672445,0.3237505,-0.2054379,0.7049119,11.370293617248535,1.320720911026001,8.0900239944458,6.631046772003174,-5.932543754577637, 0.2853703796863556
224,688687448,0.59605396,0.32518634,-0.20526144,0.7048698,11.480949401855469,1.1653084754943848,7.879933834075928,8.246837615966797,-6.396146774291992, 0.6307963132858276
225,688704115,0.59530777,0.3265471,-0.20519058,0.7048918,11.3355131149292,1.2508959770202637,7.89640474319458,7.685803413391113,-6.4244866371154785, 1.5971635580062866
226,688720782,0.5947252,0.32727614,-0.2054835,0.70496017,11.218914985656738,1.4684243202209473,7.8763885498046875,3.041104793548584,-4.51478910446167, 2.7069742679595947
227,688737449,0.59431005,0.32774994,-0.2058745,0.7049762,11.085176467895508,1.2604843378067017,7.603460311889648,1.0641757249832153,-3.5597429275512695, 2.261927843093872
228,688754116,0.5938149,0.3283872,-0.20609511,0.70503235,10.915213584899902,1.3098115921020508,7.568124294281006,2.793699026107788,-3.674269914627075, 2.1976401805877686
229,688770783,0.59338444,0.3288745,-0.20642234,0.7050719,10.975533485412598,1.3314002752304077,7.632781505584717,1.494750738143921,-3.3255016803741455, 2.271263837814331
230,688787450,0.59253466,0.32965484,-0.20618789,0.70549065,11.403668403625488,1.1339905261993408,7.555081367492676,6.898379325866699,-2.1894893646240234, 4.165567398071289
231,688804117,0.59095114,0.33091435,-0.20506997,0.70655435,11.770865440368652,1.2600239515304565,7.921395301818848,15.714987754821777,-0.48027703166007996, 7.665011882781982
232,688820784,0.58895063,0.33190703,-0.20478894,0.70783913,11.601479530334473,1.522794485092163,8.501033782958984,11.827336311340332,-2.6562960147857666, 12.864357948303223
233,688837451,0.58677965,0.3328574,-0.20520552,0.7090743,11.503630638122559,1.3449761867523193,8.551531791687012,8.579630851745605,-5.62843656539917, 15.145326614379883
234,688854118,0.5848556,0.33379397,-0.20528418,0.7102002,11.981148719787598,2.031121015548706,8.775110244750977,9.454790115356445,-4.101660251617432, 12.746101379394531
235,688870785,0.5816477,0.33794793,-0.19950654,0.7125127,10.48648452758789,4.659333229064941,9.413620948791504,55.599761962890625,4.65084981918335, 5.81133508682251
236,688887452,0.5792348,0.34269282,-0.1933132,0.71391803,10.397273063659668,2.122278928756714,4.823766708374023,56.85398483276367,2.367581605911255, -3.4345099925994873
237,688904119,0.5746316,0.35141474,-0.18332903,0.7160287,9.671133041381836,3.287775754928589,3.7080700397491455,97.38207244873047,-3.2544326782226562, -4.09804105758667
238,688920786,0.57013595,0.3603742,-0.17450921,0.71737164,9.76823616027832,3.059849739074707,3.9690003395080566,91.32131958007812,-10.686155319213867, -5.136447429656982
239,688937453,0.5663332,0.36856395,-0.16797416,0.7177828,9.233278274536133,3.268540382385254,4.150221824645996,74.16979217529297,-17.27286720275879, -5.618683338165283
240,688954120,0.56462675,0.3771601,-0.16487758,0.7153758,10.089985847473145,7.120831489562988,-0.8457979559898376,50.18522262573242,-37.35396957397461, -18.684541702270508
241,688970787,0.5670574,0.38254797,-0.1696441,0.7094534,11.037871360778809,5.2135090827941895,0.16244763135910034,-15.776442527770996,-56.388511657714844, -28.562711715698242
242,688987454,0.57037884,0.38845855,-0.17656103,0.7018506,10.106770515441895,4.034051418304443,1.3551652431488037,-28.602354049682617,-70.58981323242188, -34.35982131958008
243,689004121,0.57230663,0.39652026,-0.18224984,0.6942781,10.429458618164062,2.397094488143921,2.0352892875671387,-10.517303466796875,-77.70832824707031, -33.37376403808594
244,689020788,0.5720411,0.40698442,-0.18536893,0.6875836,10.235882759094238,1.9023228883743286,3.4162471294403076,18.282270431518555,-79.38201141357422, -29.4783935546875
245,689037455,0.5704105,0.41868445,-0.18715896,0.6814007,9.888447761535645,1.9647300243377686,4.451240539550781,33.916500091552734,-80.30887603759766, -26.336694717407227
246,689054122,0.56879866,0.43003476,-0.18947795,0.67500836,9.529563903808594,2.1704936027526855,5.185880184173584,29.76787757873535,-81.36009216308594, -25.301231384277344
247,689070789,0.5677619,0.44041103,-0.19253205,0.66829336,9.179313659667969,2.3345847129821777,5.945298671722412,20.451839447021484,-79.98046112060547, -25.809741973876953
248,689087456,0.570426,0.4485064,-0.19807316,0.65895635,9.029204368591309,2.4006524085998535,6.158963203430176,7.369307041168213,-75.51673889160156, -27.27985191345215
249,689104123,0.57253045,0.45525536,-0.20324092,0.65088004,9.085813522338867,1.8943767547607422,6.4757513999938965,-4.543063640594482,-68.54833984375, -27.608537673950195
250,689120790,0.574142,0.46096846,-0.20768933,0.64399856,9.244906425476074,1.621047854423523,6.375265121459961,-9.871378898620605,-60.56026840209961, -26.699583053588867
251,689137457,0.5752613,0.46595702,-0.21145613,0.6381575,9.292901992797852,1.284340262413025,6.21083927154541,-9.68127155303955,-53.133853912353516, -23.486303329467773
252,689154124,0.5753434,0.47097334,-0.21385692,0.6335847,9.208386421203613,1.1175659894943237,5.781059265136719,0.004488665144890547,-45.9136962890625, -19.30727767944336
253,689170791,0.57440007,0.4760409,-0.21519399,0.63019156,9.139942169189453,1.2558095455169678,5.558569431304932,8.301419258117676,-40.24365997314453, -14.59787654876709
254,689187458,0.5731667,0.4808373,-0.21612202,0.62734914,9.039965629577637,1.6790552139282227,5.4387431144714355,11.352001190185547,-35.971595764160156, -11.749288558959961
255,689204125,0.57210255,0.4848287,-0.21715,0.6248887,8.91977310180664,1.8991069793701172,5.258202075958252,7.246367931365967,-31.640878677368164, -9.669524192810059
256,689220792,0.572326,0.48720607,-0.2192194,0.6221062,8.861242294311523,2.256880044937134,5.034521579742432,-4.338317394256592,-26.597034454345703, -8.550492286682129
257,689237459,0.5736027,0.4880627,-0.22217463,0.6192039,8.550427436828613,2.127328634262085,5.232430934906006,-17.804529190063477,-22.43126106262207, -8.271417617797852
258,689254126,0.57551455,0.4878798,-0.22541332,0.61639684,8.36838150024414,1.9397563934326172,4.94558572769165,-25.07962417602539,-17.878841400146484, -8.065787315368652
259,689270793,0.5777293,0.4868769,-0.22852598,0.6139673,8.188467979431152,1.7653247117996216,4.829256534576416,-28.204431533813477,-12.207119941711426, -7.014869213104248
260,689287460,0.57989717,0.4854761,-0.2312606,0.6120058,7.953011512756348,1.8464126586914062,4.661628723144531,-27.280338287353516,-7.56749963760376, -5.608250617980957
261,689304127,0.5821459,0.48357633,-0.23373,0.6104347,7.704862594604492,1.973222255706787,4.4365620613098145,-27.789339065551758,-3.008769989013672, -4.488253593444824
262,689320794,0.5843261,0.48127013,-0.2357118,0.6094112,7.663341045379639,2.113652467727661,4.290129661560059,-26.25231170654297,2.33332896232605, -2.977329969406128
263,689337461,0.5861587,0.47876436,-0.23683736,0.60918856,7.700897693634033,2.104818820953369,3.7653329372406006,-21.012426376342773,8.675472259521484, -0.8102464079856873
264,689354128,0.58748484,0.4763679,-0.23703314,0.60971355,7.645275592803955,2.3102638721466064,3.2998275756835938,-13.791714668273926,13.595487594604492, 1.088112235069275
265,689370795,0.58849055,0.474012,-0.23665668,0.61072516,7.561858177185059,2.4469051361083984,3.0039055347442627,-9.390498161315918,16.814252853393555, 2.4648730754852295
266,689387462,0.58933085,0.47181728,-0.2358986,0.6119065,7.448160648345947,2.678870677947998,2.6702985763549805,-6.328432083129883,17.977670669555664, 2.35148549079895
267,689404129,0.5902602,0.46967137,-0.23524255,0.6129135,7.374402046203613,2.8481709957122803,2.527198076248169,-7.145913124084473,16.957656860351562, 1.5385247468948364
268,689420796,0.59114695,0.4678709,-0.23497115,0.6135396,7.218416690826416,3.0150551795959473,2.2385077476501465,-7.859684944152832,12.66480541229248, 0.875820517539978
269,689437463,0.59243643,0.46592695,-0.23580804,0.6134539,7.437044143676758,3.312544345855713,1.7246148586273193,-15.584383010864258,7.154293060302734, 0.10577414929866791
270,689454130,0.5940422,0.46386418,-0.23749566,0.61281306,7.723841667175293,3.319152355194092,1.1903667449951172,-21.597816467285156,2.9668071269989014, -0.5426571369171143
271,689470797,0.59516555,0.4625611,-0.23909824,0.6120844,7.472439765930176,2.9321682453155518,1.3598240613937378,-16.771875381469727,-0.8969448208808899, -0.35354524850845337
272,689487464,0.59556407,0.462469,-0.24029836,0.6112958,7.220213413238525,3.2741458415985107,1.208369493484497,-7.939324855804443,-5.680233001708984, -0.8014729022979736
273,689504131,0.59591377,0.46278995,-0.24185485,0.61009717,6.840686798095703,3.0980329513549805,1.31673002243042,-8.296073913574219,-10.213838577270508, -1.7968727350234985
274,689520798,0.59620434,0.4636773,-0.24355073,0.6084628,6.448431491851807,3.221203088760376,1.641191005706787,-7.120298862457275,-14.608614921569824, -3.8075621128082275
275,689537465,0.59692156,0.46452633,-0.2458403,0.6061869,6.1073689460754395,2.962998390197754,1.9362410306930542,-12.217408180236816,-18.19187355041504, -6.235154151916504
276,689554132,0.5976003,0.4659019,-0.24780421,0.60365766,5.794526100158691,2.5540578365325928,2.2502973079681396,-9.019645690917969,-19.91683578491211, -9.018659591674805
277,689570799,0.5980516,0.46805346,-0.24871744,0.60116565,5.864339828491211,2.2188241481781006,1.9254217147827148,-0.6856276392936707,-19.093751907348633, -12.593416213989258
278,689587466,0.5980441,0.4709068,-0.24815075,0.5991755,5.844507694244385,1.667125940322876,2.3002769947052,10.64676570892334,-15.074079513549805, -14.590994834899902
279,689604133,0.5980115,0.47390422,-0.24701777,0.5973102,5.460895538330078,1.6285440921783447,2.3865227699279785,13.873003005981445,-12.984092712402344, -16.0648193359375
280,689620800,0.5983843,0.47653037,-0.2460979,0.5952235,5.11121129989624,1.5893217325210571,2.407650947570801,9.780618667602539,-12.382240295410156, -17.324718475341797
281,689637467,0.59939444,0.47842044,-0.24570945,0.59284675,4.985658645629883,1.8038591146469116,2.420961618423462,2.0067901611328125,-11.44644832611084, -18.146677017211914
282,689654134,0.60103834,0.47953746,-0.24604414,0.59013486,4.745019912719727,1.6268937587738037,2.6859848499298096,-6.773137092590332,-11.32741641998291, -18.426847457885742
283,689670801,0.60274506,0.48051003,-0.24645664,0.58742464,4.581057548522949,1.2276039123535156,2.607426166534424,-7.880158424377441,-10.981325149536133, -18.17690658569336
284,689687468,0.6042971,0.48136878,-0.2467196,0.5850116,4.620657920837402,1.0898492336273193,2.7932331562042236,-6.719283103942871,-9.209725379943848, -16.634103775024414
285,689704135,0.605899,0.48173144,-0.24707241,0.5829037,4.671271800994873,1.0712153911590576,2.899620294570923,-8.770526885986328,-6.5253167152404785, -14.44434928894043
286,689720802,0.60773915,0.48115355,-0.24781497,0.58114743,4.728306293487549,0.943326473236084,3.4775960445404053,-14.42343521118164,-2.8418216705322266, -11.063288688659668
287,689737469,0.6097984,0.47961846,-0.2491635,0.57968074,4.6725077629089355,1.2118526697158813,3.6797828674316406,-21.049373626708984,-0.2642595171928406, -7.113927841186523
288,689754136,0.61253357,0.47640696,-0.25177222,0.57831645,4.410072326660156,1.388922929763794,3.8307976722717285,-35.13137435913086,2.578486204147339, -2.364152193069458
289,689770803,0.6156961,0.47182763,-0.255463,0.57709265,3.691145896911621,1.0640496015548706,3.71919322013855,-46.33018112182617,4.6040263175964355, 2.4365739822387695
290,689787470,0.61869735,0.46666396,-0.25961322,0.5762287,3.3428008556365967,0.6489677429199219,3.4373090267181396,-49.44887924194336,5.801321506500244, 7.110346794128418
291,689804137,0.62084496,0.46172452,-0.26358032,0.5760968,3.3526716232299805,0.3017151355743408,2.8504607677459717,-43.699649810791016,6.462573528289795, 12.604005813598633
292,689820804,0.6216585,0.45776173,-0.26652268,0.5770274,3.473520278930664,0.42268410325050354,2.2653064727783203,-29.289474487304688,7.8898138999938965, 17.377119064331055
293,689837471,0.62178504,0.45404333,-0.2692057,0.5785813,3.3031375408172607,0.34304606914520264,2.2332801818847656,-23.898008346557617,8.7186918258667, 21.48330307006836
294,689854138,0.6217171,0.45003676,-0.27221164,0.5803755,3.4702093601226807,0.2442917674779892,2.0749690532684326,-25.348865509033203,8.861080169677734, 24.808441162109375
295,689870805,0.62170297,0.44571465,-0.2758139,0.582023,3.0750715732574463,0.34524571895599365,1.6892311573028564,-29.506086349487305,7.21200704574585, 26.38083839416504
296,689887472,0.6224135,0.4402316,-0.2813748,0.5827743,2.6009063720703125,0.4289097189903259,1.1144516468048096,-46.2204475402832,2.113677740097046, 27.840721130371094
297,689904139,0.6232785,0.4345483,-0.28753045,0.58311063,2.356688976287842,0.11990026384592056,0.4574759006500244,-50.73112869262695,-0.5738592147827148, 27.628747940063477
298,689920806,0.62343657,0.42995068,-0.29292625,0.58366394,2.492496967315674,-0.38849973678588867,-0.11506570875644684,-40.49164962768555,-2.3916828632354736, 26.964937210083008
299,689937473,0.6225639,0.4269849,-0.2973463,0.5845369,2.516422748565674,-0.6300367712974548,-0.2762426733970642,-25.885417938232422,-5.840338230133057, 26.274641036987305
300,689954140,0.6208066,0.42560267,-0.30128235,0.5853978,2.3931095600128174,-0.27745261788368225,-0.13124650716781616,-14.581515312194824,-11.924429893493652, 25.087615966796875
301,689970807,0.6186518,0.42529517,-0.3046284,0.58617014,2.182079792022705,0.441450297832489,0.15992841124534607,-6.636895179748535,-14.770024299621582, 22.3385009765625
302,689987474,0.61679137,0.4254066,-0.30742645,0.58658916,1.4729615449905396,0.82174152135849,0.27935853600502014,-4.256070613861084,-14.515731811523438, 17.176645278930664
303,690004141,0.6151111,0.4264255,-0.3090248,0.58677363,1.1270837783813477,0.6610391736030579,0.5553597807884216,3.393026828765869,-13.381420135498047, 10.05142593383789
304,690020808,0.6143035,0.42680922,-0.3110994,0.5862441,1.1502271890640259,0.16710060834884644,0.5022672414779663,-5.30024528503418,-13.07657527923584, 6.27756929397583
305,690037475,0.6138264,0.42662886,-0.3134404,0.5856279,1.7281527519226074,-0.39595529437065125,-0.0565166212618351,-9.912790298461914,-11.476831436157227, 6.571053504943848
306,690054142,0.61276764,0.42717072,-0.3146172,0.5857109,2.1204922199249268,-0.2985406816005707,-0.41251277923583984,1.0420467853546143,-8.646492958068848, 6.872127056121826
307,690070809,0.61103714,0.42888758,-0.31455737,0.5862959,1.8053785562515259,-0.08464214205741882,-0.6471078991889954,14.033615112304688,-8.100805282592773, 5.500121116638184
308,690087476,0.6088887,0.43165293,-0.31341946,0.5871103,1.249149203300476,-0.19245405495166779,-1.4234507083892822,24.510427474975586,-7.977619171142578, 2.6918303966522217
309,690104143,0.6063134,0.4354776,-0.31091806,0.58827984,0.764803946018219,-0.6722351312637329,-2.0901448726654053,36.47648239135742,-6.346640110015869, -0.4391190707683563
310,690120810,0.6028875,0.44085076,-0.30729905,0.58969873,0.359234482049942,-1.1932549476623535,-2.4489541053771973,50.53123474121094,-8.944242477416992, -2.643498659133911
311,690137477,0.59917504,0.44649464,-0.30382463,0.59103507,0.693218469619751,-1.2137000560760498,-2.8095250129699707,51.767845153808594,-11.414142608642578, -2.002868890762329
312,690154144,0.5956227,0.45153758,-0.3015805,0.59194314,1.0874137878417969,-0.46858319640159607,-3.890319347381592,42.909297943115234,-14.920364379882812, 0.5644503831863403
313,690170811,0.5921814,0.45630202,-0.30106238,0.59200615,1.4026477336883545,0.8020615577697754,-4.890510082244873,32.6279411315918,-23.100107192993164, 2.5650174617767334
314,690187478,0.5894218,0.4601046,-0.3033633,0.59064066,1.2487680912017822,1.5223963260650635,-4.977431774139404,12.090944290161133,-33.54014587402344, 4.832183837890625
315,690204145,0.58708143,0.46381846,-0.30756325,0.58788836,0.374677836894989,2.239744186401367,-4.331300258636475,-0.26277533173561096,-44.19580078125, 3.759298086166382
316,690220812,0.5859838,0.46667206,-0.31269324,0.5840062,-0.6941912770271301,1.8703291416168213,-2.5189778804779053,-13.918959617614746,-45.29596710205078, -0.9444373846054077
317,690237479,0.58622307,0.46815494,-0.3180622,0.57966375,-1.5720914602279663,1.0410164594650269,-0.55558180809021,-25.730257034301758,-39.297706604003906, -4.360109806060791
318,690254146,0.5878374,0.4675196,-0.32229105,0.57619524,-1.291433572769165,0.7379953265190125,0.3217581808567047,-32.25841522216797,-20.47574234008789, -5.287346363067627
319,690270813,0.5886117,0.46733627,-0.32317346,0.5750584,-0.17077137529850006,1.9653124809265137,-0.558976948261261,-9.314908981323242,-3.1730310916900635, -4.246984958648682
320,690287480,0.5886261,0.4679816,-0.3235561,0.574303,0.8829545378684998,3.9842991828918457,-3.333721399307251,-0.7317676544189453,-4.897148132324219, -3.0652127265930176
321,690304147,0.5876411,0.47075593,-0.32711416,0.5710195,2.7293548583984375,4.219066619873047,-11.844820976257324,-7.151561737060547,-36.38315963745117, -3.711721181869507
322,690320814,0.58488387,0.480646,-0.33230656,0.5625503,9.210393905639648,8.996947288513184,-20.492656707763672,9.101120948791504,-91.172607421875, -28.262197494506836
323,690337481,0.5699015,0.50955814,-0.34122095,0.5469287,10.71833324432373,7.229884147644043,-38.34008026123047,94.9888687133789,-230.3267059326172, -40.61725997924805
324,690354148,0.5530927,0.5412498,-0.36145088,0.52008706,25.13344383239746,3.5756402015686035,-0.7995363473892212,43.01335144042969,-326.9870910644531, -44.38806915283203
325,690370815,0.545081,0.55670804,-0.38274303,0.49645826,-5.662137031555176,-6.416269779205322,13.160853385925293,-47.26885986328125,-238.9365692138672, -19.339378356933594
326,690387482,0.5343836,0.57539034,-0.3995429,0.47299644,11.164631843566895,-4.635647773742676,-1.7047550678253174,-8.890432357788086,-240.35482788085938, -35.398826599121094
327,690404149,0.5291815,0.58669704,-0.41594774,0.450268,2.5918164253234863,-2.594442367553711,0.08533792197704315,-54.391395568847656,-196.9732666015625, -32.150367736816406
328,690420816,0.52839303,0.5925714,-0.43559515,0.42416653,0.5085020661354065,-6.710406303405762,-4.812097549438477,-111.61354064941406,-193.15219116210938, -29.509614944458008
329,690437483,0.52317125,0.60046005,-0.44932637,0.40477848,1.1780046224594116,-1.5955049991607666,-2.9459457397460938,-48.87718963623047,-163.43316650390625, -22.529884338378906
330,690454150,0.51830924,0.6076976,-0.4593986,0.38860288,1.4196040630340576,4.979747772216797,-0.862636923789978,-32.590576171875,-134.17425537109375, -25.09377098083496
331,690470817,0.512534,0.6160525,-0.46291065,0.37881655,2.6857621669769287,5.033253192901611,-3.0854241847991943,12.971339225769043,-90.16394805908203, -30.609872817993164
332,690487484,0.5047237,0.6261961,-0.45951048,0.37680572,4.438838005065918,2.9974184036254883,-2.393679618835449,70.67498779296875,-44.11149597167969, -32.75852584838867
333,690504151,0.4928227,0.63893855,-0.45021254,0.38235083,9.26167106628418,3.166759729385376,-0.062001608312129974,136.48818969726562,-10.915736198425293, -29.602596282958984
334,690520818,0.47789004,0.6514497,-0.44280997,0.38878512,13.459463119506836,2.462658405303955,4.345626354217529,146.858154296875,-22.490169525146484, -9.709214210510254
335,690537485,0.46070534,0.664087,-0.43918094,0.39224887,15.21414852142334,2.6306381225585938,13.083784103393555,138.3482208251953,-55.88287353515625, 2.8932390213012695
336,690554152,0.4380692,0.6799318,-0.43602726,0.39454854,12.938018798828125,2.2930757999420166,14.657790184020996,168.8187713623047,-88.65522766113281, 6.258619785308838
337,690570819,0.4081538,0.70114726,-0.4272485,0.39907634,16.136192321777344,7.083535194396973,10.946033477783203,241.1892852783203,-98.51815032958984, -9.762275695800781
338,690587486,0.3855367,0.71648294,-0.43192214,0.38917494,10.963187217712402,3.6493616104125977,11.098185539245605,110.35932922363281,-168.91770935058594, 11.96147632598877
339,690604153,0.36008674,0.7331435,-0.4353194,0.37859675,9.513252258300781,0.8303864002227783,8.838347434997559,129.3779754638672,-181.39129638671875, 7.570230007171631
340,690620820,0.32531816,0.75168526,-0.43445775,0.37467882,9.762296676635742,1.6361005306243896,16.202865600585938,212.12884521484375,-170.4945831298828, 21.207324981689453
341,690637487,0.30101788,0.7664352,-0.43702555,0.36190373,7.137073516845703,8.964617729187012,14.135540962219238,114.33706665039062,-183.5348663330078, 3.5205020904541016
342,690654154,0.29204273,0.77517694,-0.444493,0.34093675,4.672972679138184,6.469135761260986,18.069194793701172,-15.450763702392578,-176.3119659423828, -7.4525065422058105
343,690670821,0.28718916,0.7812139,-0.45110425,0.32207474,4.3230299949646,3.6096465587615967,19.64533233642578,-34.205589294433594,-144.94085693359375, -9.089137077331543
344,690687488,0.2850696,0.7842583,-0.45615476,0.3091882,2.8780252933502197,-0.17594048380851746,21.330881118774414,-32.665321350097656,-95.14725494384766, -2.455115795135498
345,690704155,0.28611556,0.7838291,-0.45882398,0.30533704,1.9647216796875,-0.9206809997558594,22.09698486328125,-23.085731506347656,-24.906070709228516, 6.481570243835449
346,690720822,0.2922144,0.779022,-0.45966744,0.31055054,0.4397568106651306,-1.032347321510315,21.5487117767334,-26.476511001586914,52.24485778808594, 17.59381866455078
347,690737489,0.30546385,0.769295,-0.45900267,0.32279077,-0.8726072311401367,1.3127392530441284,19.9984130859375,-49.23474884033203,125.67414093017578, 23.84831428527832
348,690754156,0.3288757,0.75329274,-0.45716384,0.33969435,-1.4036493301391602,2.808464765548706,17.70247459411621,-98.83206176757812,198.55682373046875, 24.667463302612305
349,690770823,0.35825807,0.7320482,-0.45198324,0.36258528,-1.4044651985168457,3.105340003967285,13.708651542663574,-114.97303771972656,267.9720153808594, 23.439233779907227
350,690787490,0.38943577,0.70717293,-0.44111487,0.39200014,0.2565690875053406,3.4350662231445312,9.637493133544922,-98.50361633300781,329.3990173339844, 17.72269058227539
351,690804157,0.42230105,0.67871684,-0.42422578,0.42548555,2.955962657928467,4.448744773864746,5.29398775100708,-87.7515640258789,380.1224365234375, 5.721931457519531
352,690820824,0.45302233,0.64835584,-0.40040946,0.46268526,6.277675151824951,3.558137893676758,-0.03949695825576782,-52.21145248413086,417.0151062011719, -3.877180337905884
353,690837491,0.4776757,0.61823493,-0.37153435,0.5015715,8.934849739074707,0.4240812361240387,-4.855260848999023,-3.7524516582489014,423.0563049316406, -2.415508270263672
354,690854158,0.4921256,0.59305096,-0.33695477,0.5408922,10.974150657653809,0.46868810057640076,-7.627481937408447,76.52058410644531,400.9184265136719, -2.6054961681365967
355,690870825,0.50459725,0.56933963,-0.30470386,0.5730529,11.927059173583984,1.5787640810012817,-10.359130859375,64.15859985351562,354.2329406738281, -13.352256774902344
356,690887492,0.52329016,0.5419815,-0.28447875,0.59287053,10.642555236816406,4.241030693054199,-11.838083267211914,-46.28706741333008,292.1479797363281, -25.997798919677734
357,690904159,0.5463589,0.5113251,-0.2751749,0.6035873,9.683507919311523,5.539802074432373,-17.318857192993164,-136.98272705078125,241.55934143066406, -29.463476181030273
358,690920826,0.5674898,0.48245895,-0.27038488,0.60998416,7.246673107147217,3.2106144428253174,-21.560964584350586,-150.58299255371094,199.07215881347656, -25.178617477416992
359,690937493,0.57594955,0.46938726,-0.25699857,0.61798847,4.213841438293457,-0.3569016754627228,-24.41951560974121,-8.074872970581055,148.96234130859375, -23.65957260131836
360,690954160,0.5778424,0.46587005,-0.24355371,0.6242956,2.0747480392456055,-0.6269669532775879,-25.11600685119629,48.03690719604492,92.3539810180664, -19.62833595275879
361,690970827,0.57412386,0.47127885,-0.23193474,0.6280801,0.6492008566856384,-2.6052651405334473,-26.325796127319336,92.72010803222656,31.342891693115234, -15.455889701843262
362,690987494,0.5658949,0.48541477,-0.22346966,0.627851,0.35478150844573975,-1.9096615314483643,-24.971126556396484,122.0539779663086,-38.12034225463867, -15.79322624206543
363,691004161,0.56085235,0.49990982,-0.22824536,0.61922455,1.7470457553863525,-1.1111689805984497,-24.054349899291992,42.65790557861328,-113.66825866699219, -18.82023811340332
364,691020828,0.5565058,0.5196248,-0.23927316,0.6025278,6.103816986083984,7.941167831420898,-49.9069938659668,15.979180335998535,-187.9442138671875, -38.3214111328125
365,691037495,0.5592298,0.5324154,-0.28090486,0.56999,27.790348052978516,-11.680482864379883,-16.548429489135742,-188.1375274658203,-319.71246337890625, -7.477055072784424
366,691054162,0.555788,0.5512096,-0.31391576,0.53733104,-0.6805804967880249,-12.517135620117188,23.532358169555664,-108.8265380859375,-321.92230224609375, -27.150068283081055
367,691070829,0.54737014,0.57615584,-0.33772048,0.50435627,4.018756866455078,-2.9271068572998047,-7.173151969909668,-32.74283981323242,-322.4183044433594, -58.335601806640625
368,691087496,0.5425929,0.5923966,-0.36426514,0.47113732,15.889713287353516,-2.2532989978790283,1.6688852310180664,-90.03730010986328,-295.03045654296875, -40.75721740722656
369,691104163,0.54155827,0.5995812,-0.38694778,0.44439712,2.6136634349823,-3.0468173027038574,-3.338857889175415,-110.25177764892578,-215.7125244140625, -21.78512191772461
370,691120830,0.5369002,0.60962707,-0.39822632,0.42603862,2.136823892593384,1.8290340900421143,-0.4513781666755676,-27.481430053710938,-157.15431213378906, -34.12190246582031
371,691137497,0.52747387,0.62261385,-0.4017093,0.41563576,2.4954633712768555,3.5791947841644287,-2.108335494995117,48.016212463378906,-116.87870025634766, -31.46295928955078
372,691154164,0.51664895,0.63445157,-0.40218332,0.41084537,4.28989315032959,3.9725048542022705,-1.3541910648345947,73.9611587524414,-82.63337707519531, -16.779071807861328
373,691170831,0.50614125,0.6438891,-0.40287724,0.40855587,6.495493412017822,2.942080497741699,1.2102597951889038,70.39167022705078,-64.9813232421875, -1.1809499263763428
374,691187498,0.49503097,0.652465,-0.40378192,0.40766907,8.460485458374023,1.175505518913269,0.13446533679962158,73.43203735351562,-58.96577453613281, 8.677939414978027
375,691204165,0.48135993,0.6616471,-0.40266967,0.41033277,9.4306640625,0.31146350502967834,3.1269888877868652,102.56063079833984,-45.16492462158203, 17.10411262512207
376,691220832,0.46660697,0.67066723,-0.39923364,0.41604817,9.19750690460205,-0.18723465502262115,4.9797282218933105,122.04063415527344,-26.40352439880371, 19.991207122802734
377,691237499,0.4485339,0.680061,-0.39437592,0.42520833,9.045602798461914,-2.5573537349700928,7.3506364822387695,152.1733856201172,-16.46171760559082, 32.81325912475586
378,691254166,0.42573515,0.69067633,-0.38999188,0.43545634,6.742658615112305,-3.044095516204834,10.230247497558594,179.710693359375,-29.60974884033203, 48.69683837890625
379,691270833,0.40129143,0.70100856,-0.38923985,0.44276932,3.9146921634674072,-2.119455575942993,6.778414726257324,168.0493621826172,-58.19231033325195, 62.88789367675781
380,691287500,0.3803245,0.7113045,-0.39461187,0.44009185,5.1927008628845215,6.01939582824707,10.750579833984375,105.85354614257812,-114.12745666503906, 54.28169631958008
381,691304167,0.36226502,0.71838945,-0.4038137,0.43544844,1.7366340160369873,4.646420001983643,18.7410945892334,66.42192077636719,-116.56053924560547, 67.94551849365234
382,691320834,0.35016364,0.7250332,-0.41849646,0.42020613,2.31730580329895,4.79715633392334,11.71590805053711,-9.820453643798828,-165.29391479492188, 52.14503479003906
383,691337501,0.34246022,0.7323997,-0.4377343,0.39331973,6.754495143890381,9.292445182800293,5.950587272644043,-76.60116577148438,-224.11654663085938, 32.15003204345703
384,691354168,0.35290867,0.7334198,-0.46082333,0.35382625,9.363805770874023,7.091022491455078,20.67629623413086,-231.25961303710938,-225.1438446044922, -7.978098392486572
385,691370835,0.34480342,0.7403581,-0.47419292,0.32881865,3.8426456451416016,-3.978991746902466,19.355947494506836,-53.54452133178711,-202.32125854492188, 4.581916809082031
386,691387502,0.327433,0.74924713,-0.47958025,0.31846392,5.42177677154541,-1.6277191638946533,22.052425384521484,64.10263061523438,-143.91082763671875, 13.13472843170166
387,691404169,0.30794695,0.7577655,-0.47903922,0.3185618,2.2743043899536133,-2.0453975200653076,21.509273529052734,121.67924499511719,-83.443603515625, 11.973100662231445
388,691420836,0.28927124,0.76505506,-0.4731971,0.32725775,2.4007294178009033,0.2636793255805969,19.368942260742188,154.8320770263672,-22.510311126708984, 4.897616386413574
389,691437503,0.27622816,0.7689667,-0.4654601,0.34019884,1.4604730606079102,1.671265721321106,17.581619262695312,136.6140899658203,29.156984329223633, 1.8380489349365234
390,691454170,0.27396262,0.7683733,-0.4582741,0.35289103,1.3904006481170654,2.799827814102173,13.749042510986328,69.0444564819336,71.55306243896484, -6.362288951873779
391,691470837,0.28592792,0.76223,-0.45280775,0.36361504,1.6861563920974731,2.7842977046966553,11.637994766235352,-26.909549713134766,116.0638198852539, -17.937528610229492
392,691487504,0.30796942,0.7508786,-0.44821322,0.37475502,1.3205928802490234,2.249940872192383,9.055441856384277,-90.79887390136719,160.82083129882812, -21.52800941467285
393,691504171,0.33780766,0.733892,-0.44340032,0.3881816,1.8275774717330933,2.4728832244873047,7.133852005004883,-135.36166381835938,211.6217498779297, -20.604202270507812
394,691520838,0.3726517,0.7111724,-0.43714872,0.40529704,2.8736190795898438,1.9915460348129272,4.976078033447266,-158.85043334960938,264.17877197265625, -15.26490306854248
395,691537505,0.40905643,0.6835885,-0.4273773,0.42746747,4.970421314239502,2.1941685676574707,2.4196438789367676,-153.95095825195312,316.2547302246094, -9.344839096069336
396,691554172,0.44413397,0.6525388,-0.4116891,0.45546705,8.059921264648438,1.8404426574707031,-0.3334052562713623,-122.94644927978516,366.7325439453125, -6.733646392822266
397,691570839,0.4728633,0.6219025,-0.38852125,0.48855808,9.292215347290039,1.2451560497283936,-3.9932262897491455,-55.356136322021484,393.3426818847656, -6.048768997192383
398,691587506,0.4943789,0.5935691,-0.3594555,0.5235046,10.484167098999023,1.0464926958084106,-7.961996555328369,7.731714248657227,393.73297119140625, -7.120023727416992
399,691604173,0.50886744,0.56949973,-0.32483733,0.5578574,10.707948684692383,0.089581198990345,-10.885665893554688,69.37866973876953,377.87969970703125, -16.974884033203125
400,691620840,0.5240732,0.54551387,-0.2951371,0.58365744,10.11337947845459,0.8630793690681458,-15.003955841064453,28.785480499267578,328.927734375, -30.55224609375
401,691637507,0.54419446,0.5173744,-0.27934203,0.5984517,8.977479934692383,1.5997896194458008,-21.37480354309082,-82.90674591064453,264.7821350097656, -29.3682804107666
402,691654174,0.5662877,0.4871718,-0.27493483,0.60530376,8.205312728881836,3.8396058082580566,-25.06403923034668,-159.94720458984375,206.98094177246094, -22.761735916137695
403,691670841,0.582479,0.4636637,-0.274772,0.6084692,3.217153549194336,1.1504435539245605,-27.249778747558594,-138.95889282226562,139.92230224609375, -10.948128700256348
404,691687508,0.5886092,0.45366198,-0.27257243,0.61109275,3.763451099395752,0.9019415974617004,-27.8360538482666,-45.47704315185547,71.64028930664062, -3.005009651184082
405,691704175,0.5879858,0.45380077,-0.27146187,0.61208344,1.9883487224578857,1.4926687479019165,-26.709659576416016,8.81372356414795,7.672396659851074, 3.1711292266845703
406,691720842,0.582679,0.46211308,-0.27083096,0.6112179,0.3431728482246399,1.8697330951690674,-23.96681785583496,43.4249382019043,-45.18537139892578, 5.151572227478027
407,691737509,0.57568645,0.47377953,-0.27374625,0.6076031,-1.8247076272964478,0.9552198648452759,-18.899049758911133,49.42597579956055,-82.10504150390625, 2.7484018802642822
408,691754176,0.5684102,0.48794645,-0.27933934,0.6006561,-2.3923497200012207,1.4785325527191162,-14.84745979309082,42.691646575927734,-114.158935546875, -5.225316524505615
409,691770843,0.5631129,0.5010881,-0.2897565,0.5897932,-2.9204812049865723,-0.5955449342727661,-11.586258888244629,4.520492076873779,-137.86639404296875, -10.495652198791504
410,691787510,0.55777735,0.51430446,-0.30238757,0.5770071,-3.1072638034820557,-2.6900627613067627,-8.805818557739258,-7.900193214416504,-153.29930114746094, -10.270526885986328
411,691804177,0.550425,0.52822584,-0.3154242,0.5643736,-1.935671091079712,-5.063715934753418,-6.951859951019287,0.6585437655448914,-161.2392578125, -1.722778558731079
412,691820844,0.54398775,0.5408739,-0.32958886,0.5503672,0.8182856440544128,1.1781716346740723,-20.105897903442383,-14.79365062713623,-163.53900146484375, -3.6800875663757324
413,691837511,0.5398008,0.55768627,-0.3470127,0.5264821,8.064635276794434,4.105063438415527,-10.379711151123047,-42.437129974365234,-222.69390869140625, -46.349334716796875
414,691854178,0.52489656,0.58225834,-0.3607606,0.505283,8.639068603515625,-2.9102492332458496,9.144628524780273,47.114707946777344,-252.2478485107422, -30.07441520690918
415,691870845,0.52149,0.5956724,-0.37641314,0.48118198,1.3487478494644165,-0.353115975856781,13.499565124511719,-52.899600982666016,-203.88856506347656, -45.28227233886719
416,691887512,0.51353115,0.6137216,-0.39031518,0.4552862,12.899252891540527,3.5588340759277344,3.009763240814209,-16.360380172729492,-232.70465087890625, -55.794219970703125
417,691904179,0.5108,0.6239364,-0.40497768,0.43102187,15.006668090820312,-3.833357334136963,3.0336930751800537,-64.03925323486328,-190.2031707763672, -42.104957580566406
418,691920846,0.5032098,0.63444656,-0.41860887,0.41112536,8.614473342895508,0.006365141831338406,1.5233204364776611,-26.860769271850586,-182.52947998046875, -17.776647567749023
419,691937513,0.49561805,0.644187,-0.4302482,0.39277542,5.352644443511963,-3.358323812484741,-0.17143793404102325,-19.378870010375977,-166.9320068359375, -18.933063507080078
420,691954180,0.48751396,0.65361345,-0.43943697,0.37684873,2.452888011932373,2.450228452682495,0.7557229995727539,-4.36663293838501,-148.66055297851562, -19.324087142944336
421,691970847,0.47976115,0.6617072,-0.44710517,0.36341408,4.395554065704346,1.5744507312774658,-1.52547287940979,1.101685881614685,-127.99944305419922, -14.632351875305176
422,691987514,0.47069255,0.66956615,-0.45278412,0.35371807,4.592411518096924,1.3982059955596924,0.4365720748901367,22.805463790893555,-107.9801254272461, -7.336818695068359
423,692004181,0.4602749,0.6765164,-0.4573669,0.34826452,8.436266899108887,1.9743489027023315,0.6597741842269897,41.99628448486328,-87.04347229003906, 7.436245441436768
424,692020848,0.4476528,0.683767,-0.45825326,0.34939054,10.8532133102417,2.225163221359253,4.066877365112305,82.80193328857422,-52.58588409423828, 15.34250545501709
425,692037515,0.4317564,0.6923837,-0.4544516,0.3573026,11.122562408447266,2.2683827877044678,9.795923233032227,135.1335906982422,-20.167455673217773, 17.6661376953125
426,692054182,0.41361532,0.7010678,-0.44927794,0.3682062,9.038568496704102,-0.5608752965927124,12.919456481933594,158.86532592773438,-9.508841514587402, 25.241403579711914
427,692070849,0.39085454,0.7103075,-0.44627276,0.3788625,4.799726486206055,-2.9463112354278564,11.518622398376465,176.5757293701172,-33.07382583618164, 44.873870849609375
428,692087516,0.36709327,0.7199117,-0.44721514,0.38336506,4.3238301277160645,0.5545288324356079,1.8866984844207764,153.33074951171875,-78.17267608642578, 49.01088333129883
429,692104183,0.35285825,0.7246515,-0.4523618,0.3817593,3.838222026824951,1.3760783672332764,19.32646369934082,64.03687286376953,-77.01069641113281, 44.25859832763672
430,692120850,0.3322218,0.73354334,-0.45498443,0.38017395,2.361600160598755,4.476212024688721,12.774029731750488,112.79645538330078,-102.19160461425781, 35.664833068847656
431,692137517,0.31376827,0.74271166,-0.46275762,0.3684895,5.857002258300781,4.987077713012695,3.81999135017395,57.44119644165039,-159.145751953125, 32.130985260009766
432,692154184,0.29743826,0.7502934,-0.47108436,0.3559071,10.852285385131836,4.574079990386963,13.63388729095459,38.96355438232422,-154.2908477783203, 32.7955322265625
433,692170851,0.27801535,0.7584147,-0.47868344,0.34405932,1.4830775260925293,0.011545829474925995,14.488358497619629,60.26671600341797,-160.84666442871094, 36.445838928222656
434,692187518,0.25763133,0.7678621,-0.4825913,0.33334622,6.182328224182129,6.97424840927124,13.01720142364502,80.30060577392578,-154.4866485595703, 17.295272827148438
435,692204185,0.24602863,0.7742229,-0.48836276,0.31867006,3.4372169971466064,5.523743629455566,13.889265060424805,11.161705017089844,-142.84259033203125, 10.376388549804688
436,692220852,0.23847146,0.779311,-0.49345478,0.303823,3.153965950012207,5.759541034698486,14.957965850830078,-11.512539863586426,-126.5240249633789, 1.9577605724334717
437,692237519,0.2352757,0.7831135,-0.49718773,0.29014373,3.4752869606018066,4.303944110870361,15.33964729309082,-30.07610321044922,-100.8495101928711, -8.100951194763184
438,692254186,0.23256983,0.78591734,-0.49848723,0.28241086,5.433546543121338,2.9423177242279053,14.3549165725708,-9.05359935760498,-61.518394470214844, -9.123459815979004
439,692270853,0.2324374,0.7868058,-0.49827877,0.28040674,6.286314487457275,3.574753522872925,14.54666519165039,-3.394582986831665,-15.909013748168945, -6.53214168548584
440,692287520,0.23812486,0.7848429,-0.49716434,0.28310025,4.916069507598877,1.3508695363998413,14.28072452545166,-21.526777267456055,36.075042724609375, -5.354650020599365
441,692304187,0.24594398,0.78133017,-0.49304864,0.2931516,4.001969337463379,1.4866082668304443,11.82133960723877,-4.549793720245361,90.73580932617188, -8.362444877624512
442,692320854,0.2609652,0.77525365,-0.4865101,0.30689916,3.4989922046661377,2.653913974761963,9.599750518798828,-30.140336990356445,144.09823608398438, -20.947647094726562
443,692337521,0.28329068,0.76621103,-0.4774991,0.32351455,2.2619857788085938,3.106398105621338,8.381304740905762,-59.54866409301758,194.40884399414062, -34.464298248291016
444,692354188,0.31131715,0.75379395,-0.46619013,0.34284553,1.9196017980575562,3.1855509281158447,5.889125823974609,-82.0863037109375,239.36898803710938, -42.882080078125
445,692370855,0.3430959,0.7376438,-0.45230633,0.3654943,1.7472120523452759,1.4779551029205322,4.889949321746826,-92.78995513916016,282.9358215332031, -46.00690841674805
446,692387522,0.3740774,0.7187331,-0.43491086,0.39286324,1.5889980792999268,-0.22864650189876556,2.9456846714019775,-71.74388885498047,319.6837463378906, -42.11104202270508
447,692404189,0.40443712,0.69672596,-0.41422355,0.4235829,1.7421728372573853,-1.9512208700180054,0.9752027988433838,-57.745479583740234,351.3486328125, -38.84428024291992
448,692420856,0.43534225,0.67096186,-0.391982,0.45457408,2.4389760494232178,-4.5569376945495605,-1.7333018779754639,-65.55712127685547,369.6513977050781, -36.4786491394043
449,692437523,0.46343425,0.64319503,-0.36792392,0.48596397,3.7393293380737305,-6.845785140991211,-4.942227363586426,-51.87188720703125,375.8534851074219, -29.588836669921875
450,692454190,0.48655277,0.61529464,-0.34142262,0.51779294,4.578060626983643,-5.69512414932251,-7.654591083526611,-21.069040298461914,373.7784423828125, -22.1855525970459
451,692470857,0.50702316,0.58661723,-0.31637466,0.5465481,5.6291327476501465,-2.1098599433898926,-11.098729133605957,-24.913366317749023,352.85638427734375, -15.174622535705566
452,692487524,0.52426994,0.55863184,-0.29204965,0.57251966,7.690517425537109,-0.29174715280532837,-18.13385772705078,-18.362558364868164,329.994384765625, -11.384675025939941
453,692504191,0.5359744,0.53493524,-0.2680472,0.5955893,7.812797546386719,-0.611327588558197,-22.860694885253906,11.134126663208008,290.3778076171875, -7.405453205108643
454,692520858,0.54220235,0.51866275,-0.24664237,0.6133296,6.500894069671631,-0.6762710213661194,-27.420326232910156,37.98377990722656,221.52691650390625, -8.77778148651123
455,692537525,0.5452071,0.5101545,-0.2330551,0.6230387,3.538278579711914,0.885055422782898,-31.061317443847656,31.602462768554688,126.44938659667969, -10.466876983642578
456,692554192,0.54438215,0.5113759,-0.22692375,0.62501866,0.5569263100624084,0.144720658659935,-34.30754852294922,36.900596618652344,24.527881622314453, -12.500638961791992
457,692570859,0.54074943,0.5201682,-0.23039228,0.6196246,0.1358564794063568,-1.5606486797332764,-32.327415466308594,31.624534606933594,-70.91219329833984, -12.555594444274902
458,692587526,0.5354911,0.5358022,-0.2417244,0.6064113,0.43456220626831055,-0.34292811155319214,-26.98240852355957,7.171444416046143,-161.3603973388672, -11.021587371826172
459,692604193,0.53151304,0.5531545,-0.26289287,0.5851509,2.6891355514526367,-0.43269068002700806,-24.316478729248047,-45.83773422241211,-231.6154022216797, -12.553337097167969
460,692620860,0.5393291,0.5644449,-0.29811054,0.54923236,15.567832946777344,16.459074020385742,-31.89735221862793,-196.1507568359375,-292.4933776855469, -49.00613021850586
461,692637527,0.5530718,0.572922,-0.3446949,0.4970488,6.027106285095215,-9.955317497253418,21.381750106811523,-306.4187927246094,-374.35321044921875, -81.12287139892578
462,692654194,0.54950726,0.5919104,-0.37079033,0.45847392,12.129919052124023,-5.8125996589660645,-6.458944797515869,-95.45738983154297,-320.5080871582031, -75.776123046875
463,692670861,0.54249436,0.6081604,-0.39173785,0.42706257,11.596078872680664,-1.730951189994812,4.982825756072998,-57.222877502441406,-271.99853515625, -51.849700927734375
464,692687528,0.5381795,0.61828077,-0.4097392,0.400257,9.185819625854492,-5.157175540924072,-3.8803577423095703,-70.18142700195312,-216.8094940185547, -38.4305534362793
465,692704195,0.533447,0.6250115,-0.42429334,0.38048676,10.988972663879395,0.6452805995941162,2.109480142593384,-51.58961868286133,-166.05422973632812, -16.4530086517334
466,692720862,0.5286299,0.6302832,-0.43397704,0.3673659,9.078139305114746,-0.4229413568973541,-0.015650629997253418,-24.33822250366211,-116.30094146728516, -8.560805320739746
467,692737529,0.52178246,0.63566625,-0.4398789,0.36080217,8.53122615814209,1.097335934638977,-0.35785940289497375,14.053244590759277,-80.65914154052734, 3.5874056816101074
468,692754196,0.5129781,0.6421268,-0.44311783,0.35801312,9.944245338439941,0.28959864377975464,0.6534726023674011,44.55686950683594,-63.35920715332031, 7.003294467926025
469,692770863,0.5015848,0.650106,-0.44283408,0.36010134,9.563590049743652,0.20522165298461914,2.3602190017700195,84.94440460205078,-41.224021911621094, 10.25573444366455
470,692787530,0.48823106,0.65846705,-0.44044235,0.36614528,10.402776718139648,-1.475368857383728,5.280919075012207,112.36930847167969,-23.42894744873047, 18.007526397705078
471,692804197,0.47014046,0.6676518,-0.43466988,0.3798307,7.417450904846191,-2.4171030521392822,7.846715927124023,168.3460693359375,5.762111186981201, 37.56578063964844
472,692820864,0.4423707,0.6819536,-0.41505593,0.40862694,5.713326930999756,-0.7435877323150635,6.000413417816162,310.8333435058594,77.21028137207031, 32.62532424926758
473,692837531,0.41232288,0.6965205,-0.4076638,0.42268115,1.0029125213623047,2.1499521732330322,1.186475396156311,245.9482879638672,-36.6904182434082, 50.58206558227539
474,692854198,0.39487115,0.7034991,-0.41352794,0.4220907,-5.006387233734131,2.5396175384521484,6.178577423095703,84.53480529785156,-87.15130615234375, 57.220420837402344
475,692870865,0.37983754,0.7118289,-0.42383176,0.41157025,-1.3789434432983398,3.1524882316589355,-2.4193766117095947,35.44563293457031,-144.4722900390625, 40.973087310791016
476,692887532,0.36067224,0.72501636,-0.43283266,0.39613494,4.831257343292236,2.0389559268951416,2.738826036453247,57.727134704589844,-190.87460327148438, 19.391653060913086
477,692904199,0.34340698,0.7393357,-0.44319823,0.37286705,1.1123182773590088,4.891770362854004,8.657026290893555,24.06603240966797,-230.9363250732422, -1.736653208732605
478,692920866,0.33170587,0.7512109,-0.45641568,0.3425465,3.921534538269043,3.507120370864868,12.02222728729248,-38.71855926513672,-250.61813354492188, -10.586276054382324
479,692937533,0.31500608,0.7634176,-0.46791437,0.31467623,3.212460994720459,0.37084102630615234,15.113243103027344,-0.2955465018749237,-250.9329833984375, -3.080610752105713
480,692954200,0.2913269,0.77508,-0.47732064,0.2941848,4.439358234405518,-3.957423448562622,14.081378936767578,63.52239227294922,-229.401611328125, 18.761545181274414
481,692970867,0.2539464,0.7883911,-0.48135656,0.2867869,4.6157050132751465,-2.392439126968384,15.524232864379883,193.7227325439453,-197.60572814941406, 38.60215377807617
482,692987534,0.21164389,0.799533,-0.4838804,0.2860311,2.9220852851867676,0.0044005513191223145,16.474098205566406,241.61483764648438,-171.4171905517578, 58.911373138427734
483,693004201,0.1743681,0.8071435,-0.48688447,0.28470847,1.6085941791534424,3.015002965927124,17.111629486083984,206.00465393066406,-151.931884765625, 62.69098663330078
484,693020868,0.14985189,0.81108284,-0.49195966,0.27868402,1.7509174346923828,2.978273391723633,16.83724021911621,111.00567626953125,-130.9143829345703, 55.997703552246094
485,693037535,0.13620637,0.8137736,-0.4965705,0.2695154,3.304821252822876,5.296736717224121,15.688433647155762,39.373512268066406,-109.09156036376953, 33.656044006347656
486,693054202,0.13590044,0.8149466,-0.50087726,0.25790516,5.0219316482543945,7.050015449523926,15.025186538696289,-44.383426666259766,-74.40007781982422, 10.211359024047852
487,693070869,0.14679316,0.81424046,-0.50448245,0.24690501,4.894057750701904,5.47269868850708,12.842629432678223,-105.42973327636719,-28.739660263061523, -6.489430904388428
488,693087536,0.16289258,0.81162846,-0.506304,0.2416227,4.180120944976807,3.560344696044922,10.21109676361084,-113.54896545410156,26.116016387939453, -12.952353477478027
489,693104203,0.17979388,0.80738086,-0.5051018,0.24633832,3.976642608642578,2.2404651641845703,8.66635513305664,-79.96794128417969,90.63741302490234, -14.307601928710938
490,693120870,0.19774672,0.8014721,-0.50087297,0.2601253,3.7680344581604004,2.2422420978546143,6.329376220703125,-51.19468688964844,151.08319091796875, -15.933989524841309
491,693137537,0.21836434,0.79325247,-0.4942515,0.28068343,3.7366273403167725,2.361560583114624,4.652517795562744,-41.396949768066406,204.9020233154297, -16.717437744140625
492,693154204,0.24114667,0.78278905,-0.4849946,0.3063824,3.667496919631958,3.1126303672790527,3.2872133255004883,-33.994136810302734,248.5668182373047, -19.902090072631836
493,693170871,0.26698035,0.7700103,-0.47316465,0.33454606,3.4923481941223145,3.4402735233306885,1.7540785074234009,-40.59379196166992,281.1660461425781, -28.328588485717773
494,693187538,0.29662186,0.75450563,-0.45925108,0.36307758,3.077922821044922,2.605302333831787,0.5838682651519775,-59.75311279296875,305.6513671875, -38.53178787231445
495,693204205,0.32745343,0.7364472,-0.44317985,0.3924433,2.234147071838379,1.0425201654434204,-0.9137743711471558,-63.11295700073242,324.6036376953125, -42.90765380859375
496,693220872,0.3589755,0.71569705,-0.42576483,0.42147192,1.8959380388259888,-1.1582034826278687,-1.8556597232818604,-70.09383392333984,335.4335021972656, -44.13960647583008
497,693237539,0.38875148,0.69306767,-0.40756112,0.44991505,2.266193151473999,-3.6280062198638916,-3.8646721839904785,-65.60213470458984,334.99755859375, -38.95790100097656
498,693254206,0.41623592,0.66904175,-0.3894996,0.4768868,2.521822214126587,-4.756810665130615,-6.107936859130859,-63.024410247802734,325.7191162109375, -31.314861297607422
499,693270873,0.4394393,0.6457494,-0.3699319,0.50304204,2.2159392833709717,-4.17450475692749,-9.434175491333008,-38.51620864868164,312.683837890625, -28.628629684448242
500,693287540,0.4609536,0.6223011,-0.35321724,0.5248816,1.9115879535675049,-1.2814213037490845,-12.794379234313965,-52.38966369628906,281.5204162597656, -22.86069679260254
501,693304207,0.48104584,0.5993336,-0.33992907,0.5420725,2.2246439456939697,1.8014642000198364,-16.56432342529297,-68.52076721191406,246.05743408203125, -19.007673263549805
502,693320874,0.4978137,0.5793077,-0.32935432,0.5550766,1.738677740097046,2.82572078704834,-20.188819885253906,-65.11276245117188,201.6759490966797, -16.13297462463379
503,693337541,0.5098104,0.5647884,-0.32098037,0.5639851,0.03450891375541687,1.70063316822052,-22.87989616394043,-45.09516906738281,146.68873596191406, -15.592386245727539
504,693354208,0.5152676,0.55837387,-0.31360915,0.56953263,-0.7972314357757568,0.9714964628219604,-24.70823097229004,-2.7749147415161133,85.00320434570312, -15.971540451049805
505,693370875,0.5137272,0.56073976,-0.30743954,0.5719583,-1.8407031297683716,0.8829694986343384,-24.77739715576172,43.57197952270508,20.062545776367188, -13.935543060302734
506,693387542,0.507404,0.5699232,-0.30453166,0.57007825,-2.1641225814819336,-0.6237484812736511,-22.686119079589844,63.980186462402344,-44.242679595947266, -12.174009323120117
507,693404209,0.49950477,0.5823636,-0.3073825,0.56290656,-2.478864908218384,-1.8304333686828613,-18.65747833251953,47.71338653564453,-100.50084686279297, -8.747261047363281
508,693420876,0.49441442,0.59423125,-0.31794876,0.5489557,-2.7370967864990234,-1.394531011581421,-12.755632400512695,-9.80284595489502,-145.5155029296875, -10.818939208984375
509,693437543,0.4942919,0.60347366,-0.33893934,0.5259424,0.9512220621109009,6.563532829284668,-46.61568832397461,-98.26229095458984,-196.9599151611328, -11.975554466247559
510,693454210,0.50293934,0.61177677,-0.3742658,0.4823964,17.383390426635742,-3.1733455657958984,-7.552895545959473,-238.02769470214844,-305.8424377441406, -51.373443603515625
511,693470877,0.50339645,0.6264631,-0.3981789,0.4422554,-1.100440502166748,-6.854490280151367,20.75816535949707,-134.81614685058594,-294.24896240234375, -76.7035903930664
512,693487544,0.50212866,0.6398004,-0.4189737,0.40371212,9.337186813354492,-0.9805330038070679,-9.512076377868652,-117.9764404296875,-278.0776062011719, -75.65766143798828
513,693504211,0.49552807,0.65210795,-0.4327026,0.37679657,16.580900192260742,-3.5019192695617676,4.066605567932129,-44.96354293823242,-214.91969299316406, -48.75496292114258
514,693520878,0.48714182,0.6634406,-0.44092673,0.3579431,8.182170867919922,2.414461135864258,0.2747853994369507,-1.921476125717163,-163.19610595703125, -38.621337890625
515,693537545,0.47827375,0.673671,-0.4468013,0.34320587,10.161386489868164,-0.9396290183067322,1.4348957538604736,14.902820587158203,-135.51800537109375, -31.037017822265625
516,693554212,0.4705613,0.681357,-0.45183566,0.33191782,7.6388702392578125,0.6742110848426819,-0.2645314931869507,13.828726768493652,-107.497314453125, -18.622634887695312
517,693570879,0.4614557,0.68794334,-0.4560271,0.32531855,9.336588859558105,-0.24353155493736267,1.3887529373168945,33.34275817871094,-84.81410217285156, -0.8803470134735107
518,693587546,0.45208904,0.6928945,-0.45955488,0.3229891,10.823469161987305,0.6439940929412842,2.540839910507202,44.3371467590332,-59.92713165283203, 15.112102508544922
519,693604213,0.43935466,0.6985961,-0.4587885,0.32930878,10.555166244506836,0.9668137431144714,6.088555812835693,99.6706771850586,-17.980796813964844, 26.50870132446289
520,693620880,0.42409912,0.70404744,-0.45400664,0.34399894,8.706206321716309,-2.278663158416748,8.32407283782959,146.6431427001953,26.580734252929688, 38.85768508911133
521,693637547,0.4027657,0.71015614,-0.45051304,0.36124274,3.9872937202453613,-2.391324996948242,9.155252456665039,183.02772521972656,14.235894203186035, 64.6756591796875
522,693654214,0.37740627,0.71754044,-0.44437304,0.38109437,1.2477768659591675,0.4053652286529541,3.1618895530700684,220.9781036376953,18.281089782714844, 64.89459228515625
523,693670881,0.35609064,0.72537625,-0.44059226,0.39103368,1.9029390811920166,11.318608283996582,8.877614974975586,165.7552032470703,-25.73458480834961, 38.80598831176758
524,693687548,0.3466008,0.72712165,-0.4498999,0.38568407,-3.8582825660705566,3.448323965072632,3.4614336490631104,10.467763900756836,-82.1563949584961, 53.548282623291016
525,693704215,0.3395822,0.7305285,-0.46379256,0.368658,1.100369930267334,5.1286211013793945,-2.4516186714172363,-46.171539306640625,-148.28802490234375, 37.053096771240234
526,693720882,0.3273928,0.7382514,-0.474439,0.35029495,4.3735833168029785,1.3688517808914185,4.861484050750732,-6.1249823570251465,-174.8221893310547, 17.07961654663086
527,693737549,0.31138757,0.7488201,-0.4838131,0.3289852,1.7990678548812866,3.5184948444366455,9.766944885253906,13.146479606628418,-206.45010375976562, 3.9006919860839844
528,693754216,0.29481107,0.76023895,-0.49205878,0.3049613,4.851679801940918,4.935942649841309,13.239259719848633,11.511838912963867,-222.13858032226562, -9.203418731689453
529,693770883,0.27946618,0.7703839,-0.4998645,0.2802553,3.8210062980651855,2.376286268234253,17.243894577026367,1.222988247871399,-218.4038543701172, -11.098828315734863
530,693787550,0.2630636,0.78010875,-0.5053407,0.25857076,4.0585126876831055,1.2568501234054565,17.764724731445312,21.00095558166504,-201.21827697753906, -14.147522926330566
531,693804217,0.24297683,0.78941023,-0.50866014,0.24302018,5.281258583068848,-0.607649564743042,17.657108306884766,65.2397232055664,-176.91400146484375, -6.60693359375
532,693820884,0.21909006,0.7982647,-0.5099013,0.2340379,5.030116558074951,0.5933589935302734,17.460664749145508,111.62528228759766,-150.7779083251953, 0.985052227973938
533,693837551,0.19655788,0.8051126,-0.5110181,0.22807704,4.551462650299072,1.202418565750122,16.47974395751953,112.01837158203125,-126.42998504638672, 9.75016975402832
534,693854218,0.1776504,0.8101618,-0.5118901,0.2237111,3.90244460105896,1.1003608703613281,15.850255012512207,95.5567398071289,-102.05706024169922, 11.250663757324219
535,693870885,0.1623597,0.8139791,-0.51175106,0.2217846,4.278433322906494,0.5627383589744568,14.548182487487793,84.08003997802734,-72.8987045288086, 7.4344682693481445
536,693887552,0.15284517,0.8162682,-0.5106484,0.22267258,5.3993048667907715,2.3035149574279785,12.69441032409668,61.43606185913086,-33.671939849853516, 1.8029541969299316
537,693904219,0.15420052,0.8163816,-0.5092538,0.22450858,4.657979965209961,2.350844144821167,11.6385498046875,1.9626199007034302,13.208141326904297, -7.793438911437988
538,693920886,0.16446586,0.8144098,-0.5070766,0.22926201,3.2250375747680664,1.6530612707138062,9.26297378540039,-38.79783630371094,64.63447570800781, -15.539063453674316
539,693937553,0.18204193,0.81013,-0.50351083,0.23880371,2.8398187160491943,2.242523670196533,7.909473419189453,-63.44144058227539,122.0411148071289, -21.4085693359375
540,693954220,0.20575123,0.8031591,-0.49860066,0.2529811,2.328819751739502,1.301086187362671,5.492931842803955,-82.69353485107422,175.13616943359375, -23.88298797607422
541,693970887,0.23160478,0.7940913,-0.49082342,0.27362525,1.747750163078308,1.8612395524978638,3.372629404067993,-70.3382797241211,225.90859985351562, -27.14950180053711
542,693987554,0.25951514,0.78281015,-0.47998083,0.2991296,1.0855355262756348,1.7102513313293457,1.645707607269287,-62.91591262817383,268.50128173828125, -32.55385208129883
543,694004221,0.28772363,0.7696263,-0.46541747,0.32905504,0.8864655494689941,0.7841442227363586,0.23770226538181305,-45.6690673828125,303.95855712890625, -39.008602142333984
544,694020888,0.3170316,0.75425225,-0.4477734,0.36068484,1.6738102436065674,-0.031057285144925117,-1.1760966777801514,-43.41109848022461,327.7052001953125, -47.403221130371094
545,694037555,0.34866983,0.73591447,-0.42896676,0.3909563,2.1045923233032227,-1.8627848625183105,-2.54705548286438,-63.2868537902832,337.8888854980469, -53.05685043334961
546,694054222,0.3811143,0.7143281,-0.4104934,0.41950294,2.674187660217285,-3.885850667953491,-3.957517623901367,-81.1822738647461,339.6652526855469, -48.15204620361328
547,694070889,0.41184866,0.68980646,-0.39305672,0.44727415,2.8757643699645996,-4.977879524230957,-5.561467170715332,-85.70328521728516,337.0024108886719, -31.987627029418945
548,694087556,0.4366359,0.665772,-0.37394407,0.47567084,2.6872167587280273,-3.617793560028076,-8.53968620300293,-49.3079719543457,327.4039001464844, -21.31201934814453
549,694104223,0.45679516,0.6432453,-0.3536905,0.50247085,2.8772928714752197,-2.0545973777770996,-12.887638092041016,-24.02239418029785,307.0356750488281, -20.1381778717041
550,694120890,0.47572234,0.62076664,-0.33613318,0.52473956,3.1154191493988037,0.947040855884552,-16.452665328979492,-38.851688385009766,275.8361511230469, -18.342756271362305
551,694137557,0.49723604,0.5957919,-0.32681742,0.5394246,2.8650877475738525,3.1964292526245117,-19.302021026611328,-105.46722412109375,232.06625366210938, -11.532383918762207
552,694154224,0.5133503,0.57566,-0.31974378,0.55031914,1.6432148218154907,-0.13542449474334717,-23.18155860900879,-83.79290008544922,179.4127960205078, -6.1202073097229
553,694170891,0.5187859,0.56686306,-0.31022242,0.5597227,0.8110450506210327,0.009517792612314224,-26.195825576782227,4.291927337646484,116.52787780761719, -5.594478607177734
554,694187558,0.51752174,0.56670463,-0.3038026,0.564554,-1.0865225791931152,-0.0021771639585494995,-27.138307571411133,39.32766342163086,40.92308044433594, -2.471512794494629
555,694204225,0.51150906,0.57296014,-0.30353516,0.5638633,-2.3920931816101074,-0.8305363655090332,-25.50127410888672,45.03379440307617,-36.498722076416016, 6.868005752563477
556,694220892,0.5052478,0.58170253,-0.31225443,0.5557375,-2.737276792526245,-0.21020549535751343,-21.543231964111328,4.229949474334717,-106.84284973144531, 11.882670402526855
557,694237559,0.50066936,0.59173894,-0.3275832,0.540245,-1.9745228290557861,-0.09767016768455505,-16.65020751953125,-39.22026824951172,-160.04055786132812, 3.5700795650482178
558,694254226,0.49678507,0.60720795,-0.34654906,0.5142052,5.833333969116211,12.204780578613281,-47.39924621582031,-60.73019790649414,-233.72494506835938, -32.6555061340332
559,694270893,0.49518284,0.62579334,-0.3791447,0.46842942,13.452510833740234,-8.726727485656738,-0.092396080493927,-155.33389282226562,-367.08074951171875, -58.19481658935547
560,694287560,0.49395645,0.6387284,-0.40505183,0.428913,2.9736461639404297,-5.581939697265625,24.778242111206055,-138.20388793945312,-298.31744384765625, -52.100650787353516
561,694304227,0.49583894,0.64762723,-0.42559904,0.39190343,10.682365417480469,-0.9791064858436584,-11.16638469696045,-142.5201416015625,-249.4895782470703, -65.02684020996094
562,694320894,0.49259704,0.6563114,-0.44227552,0.36193386,13.131857872009277,-4.205933094024658,3.534097909927368,-89.41950225830078,-219.2123260498047, -43.725257873535156
563,694337561,0.48701933,0.6644186,-0.45352402,0.34011215,8.425834655761719,2.3870232105255127,-1.7702269554138184,-42.44312286376953,-170.05857849121094, -33.16739273071289
564,694354228,0.47796226,0.673756,-0.46003485,0.32553506,9.128592491149902,0.2846449017524719,1.45042085647583,11.284451484680176,-134.9650115966797, -26.238872528076172
565,694370895,0.4682524,0.6822849,-0.4641397,0.31591362,8.235603332519531,2.411820888519287,0.22672294080257416,32.777626037597656,-104.60088348388672, -17.175493240356445
566,694387562,0.45713678,0.68939286,-0.46799958,0.31103057,10.183876037597656,1.3486953973770142,2.618736982345581,50.51639175415039,-83.18251037597656, 4.457533359527588
567,694404229,0.4471821,0.693586,-0.47297743,0.30864114,10.918902397155762,1.872025489807129,2.41365122795105,41.5809211730957,-65.19844055175781, 24.380685806274414
568,694420896,0.4336344,0.69874483,-0.4745236,0.31391767,10.041692733764648,-0.13683399558067322,5.893219470977783,93.9963607788086,-32.11577224731445, 35.954681396484375
569,694437563,0.41809633,0.705673,-0.46892673,0.32761112,6.724607944488525,-0.7273257374763489,9.597167015075684,151.82205200195312,18.93258285522461, 25.08344268798828
570,694454230,0.3932942,0.71593773,-0.45246065,0.35781625,6.003628253936768,-0.27109473943710327,16.676090240478516,284.2616882324219,92.50222778320312, 29.7526798248291
571,694470897,0.36978692,0.7232497,-0.45409748,0.36600986,-4.806445598602295,-3.6955108642578125,-10.449517250061035,156.9666748046875,-54.154624938964844, 65.23091125488281
572,694487564,0.3560492,0.72888315,-0.46253702,0.35779598,5.333250522613525,11.539863586425781,2.604079246520996,35.68907928466797,-117.97340393066406, 37.93707275390625
573,694504231,0.3415103,0.7351648,-0.4728241,0.34545755,2.9373183250427246,-4.136168479919434,-0.5728062391281128,23.725326538085938,-147.52052307128906, 37.234222412109375
574,694520898,0.3183617,0.7462053,-0.4796769,0.33426616,3.9867022037506104,1.3482435941696167,7.261460304260254,90.29948425292969,-173.02174377441406, 27.444793701171875
575,694537565,0.29401046,0.75915706,-0.48609784,0.31772244,5.247998237609863,5.384180068969727,9.579143524169922,84.04623413085938,-208.20567321777344, 9.980835914611816
576,694554232,0.27361634,0.77070296,-0.49469912,0.29397985,3.955965518951416,6.694104194641113,14.701488494873047,31.810359954833984,-234.27108764648438, 2.954744815826416
577,694570899,0.25778887,0.77938086,-0.50493354,0.266744,3.088519334793091,1.7872897386550903,16.60178565979004,-12.847508430480957,-234.9747314453125, 5.671957969665527
578,694587566,0.23494844,0.78865534,-0.510939,0.24852203,3.962606430053711,-1.3446602821350098,17.069255828857422,64.93193054199219,-205.03970336914062, 9.793277740478516
579,694604233,0.206609,0.7980328,-0.5134308,0.2384228,3.8795456886291504,0.32213839888572693,17.92289924621582,129.5030975341797,-175.23109436035156, 12.876123428344727
580,694620900,0.17586558,0.8062224,-0.5141778,0.23387608,3.4185631275177,0.5943706631660461,16.545246124267578,163.52037048339844,-149.2242431640625, 19.3752498626709
581,694637567,0.14643277,0.8128454,-0.5139555,0.23171034,3.3072266578674316,3.366309642791748,15.532306671142578,164.3665771484375,-128.02316284179688, 20.393117904663086
582,694654234,0.12505203,0.81808406,-0.51320314,0.22742745,3.7009201049804688,5.240116596221924,15.148391723632812,111.38188934326172,-108.93079376220703, 7.487124443054199
583,694670901,0.113937,0.822522,-0.51175386,0.22041848,5.566141128540039,7.178741455078125,13.612643241882324,44.50664520263672,-86.4461441040039, -11.88496208190918
584,694687568,0.11703093,0.8256299,-0.5104933,0.20984764,6.215056419372559,7.042776107788086,12.809549331665039,-49.579612731933594,-55.00541687011719, -30.371200561523438
585,694704235,0.1274781,0.8278511,-0.5075833,0.20191866,4.760931015014648,4.73272180557251,11.18215274810791,-80.24452209472656,-11.87142276763916, -45.074771881103516
586,694720902,0.14133666,0.8292157,-0.5022007,0.20054875,4.1212263107299805,3.518965721130371,9.244176864624023,-73.982421875,40.528045654296875, -55.160953521728516
587,694737569,0.15898134,0.82928663,-0.49478328,0.20542265,3.605806589126587,2.2028555870056152,7.666692733764648,-72.37336730957031,92.8241195678711, -61.472869873046875
588,694754236,0.17883527,0.8279498,-0.48519838,0.21702439,3.3507728576660156,0.8748741149902344,6.328421592712402,-60.49519729614258,142.97097778320312, -64.8353042602539
589,694770903,0.20161474,0.8244104,-0.4743841,0.2337921,3.2437596321105957,0.3981893062591553,5.068912982940674,-60.749717712402344,186.88636779785156, -62.5272331237793
590,694787570,0.22845079,0.8176198,-0.46339002,0.25412172,2.6464438438415527,-0.9201887249946594,4.401022911071777,-76.32445526123047,225.75869750976562, -54.55647659301758
591,694804237,0.25801858,0.80749226,-0.45196098,0.2776945,1.6997432708740234,-1.5763823986053467,3.4606122970581055,-85.837646484375,259.2109069824219, -46.103118896484375
592,694820904,0.28948453,0.79382735,-0.43979597,0.30432925,0.9954171180725098,-2.8949952125549316,2.4543426036834717,-91.75614929199219,290.2129211425781, -37.44965362548828
593,694837571,0.32003453,0.7767929,-0.42662743,0.33490312,0.46996253728866577,-4.371761798858643,1.1440025568008423,-79.49198150634766,318.0695495605469, -23.04819107055664
594,694854238,0.34925982,0.75690895,-0.41197073,0.36794943,0.6543564796447754,-4.324462413787842,-0.5898327827453613,-68.06395721435547,337.33868408203125, -14.229106903076172
595,694870905,0.3756492,0.7350099,-0.39574045,0.40253907,1.453594446182251,-5.5624494552612305,-2.7221059799194336,-49.844154357910156,346.3558654785156, -5.895016193389893
596,694887572,0.3963927,0.71351576,-0.37566352,0.4389135,2.27170729637146,-4.496591567993164,-5.6079020500183105,-4.808058261871338,349.01507568359375, -6.268033027648926
597,694904239,0.4121831,0.6935345,-0.3511277,0.47520983,3.110248327255249,-4.096564769744873,-9.573694229125977,36.82534408569336,343.6844482421875, -17.343996047973633
598,694920906,0.42894655,0.67249167,-0.3285816,0.50576097,3.471977949142456,-1.1446785926818848,-12.891668319702148,8.721356391906738,316.8163757324219, -24.78803062438965
599,694937573,0.44877818,0.650393,-0.3113971,0.5278438,3.850355386734009,1.7548863887786865,-18.127002716064453,-46.47309494018555,272.888427734375, -33.271305084228516
600,694954240,0.47116324,0.62793195,-0.30196062,0.5408573,2.8801488876342773,2.3823940753936768,-22.585308074951172,-106.72078704833984,215.79847717285156, -35.10065460205078
601,694970907,0.48959684,0.6094601,-0.29783952,0.547855,2.042081356048584,1.0167479515075684,-26.21697425842285,-109.20282745361328,150.28219604492188, -25.227575302124023
602,694987574,0.4938475,0.6029343,-0.29202047,0.5543546,1.9823365211486816,-2.63226580619812,-27.897014617919922,-4.417792797088623,80.6822738647461, -5.068498611450195
603,695004241,0.48732814,0.6067782,-0.28727517,0.5583948,0.29490914940834045,-4.379038333892822,-28.027685165405273,66.186279296875,6.549380779266357, 11.162967681884766
604,695020908,0.4743081,0.6185212,-0.28487086,0.55795354,-1.5075805187225342,-3.099175214767456,-24.12230682373047,101.73709106445312,-62.338584899902344, 15.118699073791504
605,695037575,0.4641587,0.6317718,-0.2909034,0.5484491,-1.133472204208374,-1.3476982116699219,-20.426240921020508,44.14640808105469,-127.89904022216797, 7.369281768798828
606,695054242,0.46961513,0.64021766,-0.3118642,0.52184683,7.722647190093994,19.425600051879883,-53.57792663574219,-129.675537109375,-199.97984313964844, -31.548189163208008
607,695070909,0.49123433,0.641737,-0.35736433,0.46813825,20.628671646118164,-19.104938507080078,9.381237983703613,-370.2738952636719,-337.8360290527344, -53.49452590942383
608,695087576,0.49081886,0.65472275,-0.38016105,0.43117577,-0.91627436876297,-6.986965179443359,5.222019195556641,-119.5789794921875,-278.565673828125, -54.44157791137695
609,695104243,0.4812724,0.67340654,-0.39727265,0.39632693,16.82785415649414,3.844024896621704,2.644744396209717,-36.76472473144531,-290.948974609375, -60.69450378417969
610,695120910,0.47998264,0.6814101,-0.40888038,0.3716369,8.009956359863281,1.2541383504867554,-0.23121324181556702,-67.51348114013672,-174.3153076171875, -45.814144134521484
611,695137577,0.4723011,0.69137436,-0.41718343,0.35339937,10.068499565124512,0.8889607787132263,0.8929364085197449,-4.4623870849609375,-156.3468780517578, -29.148115158081055
612,695154244,0.4640848,0.6995045,-0.42171827,0.3427424,10.750870704650879,0.1800694316625595,0.30559152364730835,23.09566307067871,-105.38317108154297, -15.939231872558594
613,695170911,0.4532242,0.7072279,-0.42410475,0.33845517,11.37595272064209,-0.9407803416252136,-0.4003641903400421,58.121726989746094,-74.82353210449219, 1.3478147983551025
614,695187578,0.44151643,0.7133275,-0.4236479,0.34168652,11.772165298461914,1.2247158288955688,2.620885133743286,85.79644775390625,-28.29979133605957, 17.485767364501953
615,695204245,0.4283335,0.7187207,-0.42091477,0.35043126,11.26325511932373,-2.1677334308624268,3.200364589691162,112.40471649169922,2.7144923210144043, 28.43492317199707
616,695220912,0.4096205,0.72538805,-0.41797653,0.36237994,7.921119213104248,-2.18790864944458,4.767158508300781,153.36642456054688,-0.22679534554481506, 46.28121566772461
617,695237579,0.38448012,0.73296386,-0.41618043,0.3764744,6.078010082244873,-4.099809646606445,8.995678901672363,191.425048828125,-13.787483215332031, 71.24885559082031
618,695254246,0.34778687,0.746167,-0.40033525,0.40250582,3.07047176361084,2.296663522720337,13.119733810424805,335.2684020996094,35.47392654418945, 45.60438919067383
619,695270913,0.32724023,0.753856,-0.40471464,0.40102512,-5.846169948577881,8.660560607910156,-1.823983073234558,107.55281829833984,-94.8501968383789, 54.06637954711914
620,695287580,0.32601467,0.75537467,-0.42144313,0.38145676,1.052315592765808,5.672088146209717,1.2911714315414429,-90.86341094970703,-145.53207397460938, 41.51337814331055
621,695304247,0.3154168,0.76078427,-0.43520284,0.36375552,2.8628549575805664,-2.0953116416931152,1.1697570085525513,-20.225421905517578,-166.6316375732422, 43.73891830444336
622,695320914,0.2963339,0.770585,-0.4444912,0.34758118,1.1703903675079346,0.5368987321853638,8.648151397705078,49.44022750854492,-185.42176818847656, 31.704532623291016
623,695337581,0.27135456,0.78232396,-0.45199817,0.3317133,3.5070762634277344,2.502260684967041,11.566762924194336,89.87626647949219,-203.1103973388672, 31.08040428161621
624,695354248,0.24525957,0.79296505,-0.460032,0.31531706,2.1783275604248047,4.00492525100708,14.766525268554688,91.05802917480469,-208.29025268554688, 38.94429397583008
625,695370915,0.22021154,0.8018532,-0.4677192,0.29962906,1.5901418924331665,3.5733559131622314,17.25357437133789,85.47245788574219,-197.1478729248047, 41.62491989135742
626,695387582,0.19479626,0.8093155,-0.4735485,0.28777564,2.156826972961426,2.4679770469665527,17.16592025756836,101.58213806152344,-171.86444091796875, 42.62529373168945
627,695404249,0.16729558,0.8159599,-0.47729194,0.280025,1.8911123275756836,3.98402738571167,16.946718215942383,129.64279174804688,-151.8152618408203, 43.391597747802734
628,695420916,0.143426,0.82081914,-0.48118165,0.27230343,2.2689707279205322,4.765100479125977,15.985784530639648,107.09314727783203,-136.82211303710938, 43.238494873046875
629,695437583,0.12512185,0.82415354,-0.48531723,0.26378572,2.8575921058654785,4.350734710693359,14.957183837890625,71.1467514038086,-120.6052017211914, 38.59290313720703
630,695454250,0.112161055,0.82651716,-0.48902443,0.25523454,3.636286735534668,3.9716522693634033,13.878507614135742,40.750972747802734,-101.12126922607422, 29.78468894958496
631,695470917,0.102846615,0.82822657,-0.4913584,0.24905874,4.91628885269165,4.084652900695801,12.268477439880371,29.9689884185791,-73.42169189453125, 19.69316291809082
632,695487584,0.09746137,0.829255,-0.49213082,0.24626188,5.910420894622803,5.0753350257873535,10.300092697143555,21.252756118774414,-38.893211364746094, 8.839729309082031
633,695504251,0.10049271,0.8289266,-0.49249563,0.24541804,5.998182773590088,5.148159980773926,8.368030548095703,-20.277563095092773,3.047269105911255, -1.7562012672424316
634,695520918,0.11259151,0.8268625,-0.49264142,0.24683215,5.231316089630127,4.869139671325684,6.6702799797058105,-65.07427978515625,49.48965072631836, -10.824020385742188
635,695537585,0.13094072,0.8236226,-0.4909112,0.25200555,4.261377811431885,3.521951198577881,4.6736884117126465,-85.54328155517578,95.32520294189453, -25.196273803710938
636,695554252,0.15003759,0.8195426,-0.48608032,0.26375088,3.5632517337799072,4.462843894958496,3.1349971294403076,-62.93696975708008,139.22915649414062, -35.31092071533203
637,695570919,0.17399864,0.8138447,-0.47941604,0.2784633,3.1104373931884766,5.566161155700684,1.7652021646499634,-78.72640228271484,177.0029296875, -45.9787712097168
638,695587586,0.20252289,0.8061716,-0.47088683,0.29552922,2.6395833492279053,5.513278484344482,0.5256271362304688,-95.2431869506836,211.2384490966797, -55.797454833984375
639,695604253,0.23501359,0.7960589,-0.46059933,0.31449535,1.8611688613891602,4.251720905303955,-0.07007205486297607,-110.86346435546875,242.07122802734375, -63.0360221862793
640,695620920,0.2685398,0.783679,-0.4478475,0.3364021,1.4762965440750122,1.9377952814102173,-1.2738580703735352,-105.53753662109375,270.4181213378906, -66.82735443115234
641,695637587,0.30073527,0.7691847,-0.43243676,0.36181748,0.9998781681060791,-0.7467103004455566,-2.6328299045562744,-85.3317642211914,295.15936279296875, -65.10430145263672
642,695654254,0.33008185,0.75312793,-0.4151937,0.38917667,0.34023767709732056,-2.4311747550964355,-4.377497673034668,-63.202301025390625,304.82275390625, -59.08935546875
643,695670921,0.35728934,0.73524064,-0.39760625,0.41674316,0.30048760771751404,-4.34525203704834,-5.861144065856934,-54.83833694458008,305.70745849609375, -49.516746520996094
644,695687588,0.38000908,0.7171596,-0.37902716,0.44453743,-0.10412102937698364,-4.790935516357422,-7.546009540557861,-29.241304397583008,297.8591003417969, -40.67496871948242
645,695704255,0.39880136,0.69962406,-0.3598767,0.47113958,0.012625277042388916,-3.3728222846984863,-10.491796493530273,-9.894804000854492,281.8998718261719, -36.11732864379883
646,695720922,0.41748536,0.68144834,-0.3433953,0.49337006,-0.015472948551177979,-0.9794497489929199,-12.63858413696289,-30.70306968688965,255.75868225097656, -33.401973724365234
647,695737589,0.43760788,0.6624054,-0.33134794,0.5098305,0.8307593464851379,0.1841471940279007,-16.035058975219727,-68.72894287109375,222.78497314453125, -32.06291961669922
648,695754256,0.4559882,0.64462674,-0.32273945,0.5218914,1.1541246175765991,-1.1495360136032104,-19.530038833618164,-79.22408294677734,184.5363311767578, -26.444671630859375
649,695770923,0.46871242,0.6321775,-0.31460395,0.5307401,-0.0579511821269989,-1.0764451026916504,-21.76662254333496,-46.44511795043945,137.78334045410156, -26.008726119995117
650,695787590,0.47352114,0.6277458,-0.30614445,0.5366457,-1.1078746318817139,-0.17196619510650635,-23.529539108276367,8.417704582214355,80.3595962524414, -25.410362243652344
651,695804257,0.47274628,0.63026786,-0.29998842,0.53784794,-1.4870238304138184,1.0291364192962646,-23.6541805267334,36.53172302246094,15.887609481811523, -24.855165481567383
652,695820924,0.46923655,0.637488,-0.29840043,0.5332762,-1.9269927740097046,0.06543784588575363,-21.447540283203125,34.61319351196289,-46.284053802490234, -23.421947479248047
653,695837591,0.4669775,0.6464286,-0.30396086,0.5212198,-2.474337577819824,0.6666485071182251,-17.202016830444336,-7.09625244140625,-105.28126525878906, -24.35820770263672
654,695854258,0.47238246,0.65131885,-0.32140917,0.49933425,-2.6594808101654053,-0.2102741301059723,-13.279228210449219,-117.4926986694336,-156.16574096679688, -21.978681564331055
655,695870925,0.47849998,0.6559033,-0.34313345,0.47232196,-1.154701828956604,3.04496169090271,-40.10102462768555,-147.81088256835938,-190.09628295898438, -21.06641960144043
656,695887592,0.49661756,0.6561414,-0.37606624,0.4259384,17.98288345336914,3.2765250205993652,-14.200835227966309,-298.8733825683594,-270.9085388183594, -62.54014205932617
657,695904259,0.5000101,0.66819227,-0.39774117,0.38119712,3.034608840942383,-8.994121551513672,18.693477630615234,-154.8533935546875,-297.5657958984375, -94.78350067138672
658,695920926,0.49367574,0.6818812,-0.41311395,0.34736043,9.80585765838623,-1.5091196298599243,-6.135636329650879,-57.858272552490234,-257.461669921875, -65.27043151855469
659,695937593,0.48887533,0.69084907,-0.42575184,0.32009992,19.506954193115234,-3.5480940341949463,3.0369980335235596,-55.818180084228516,-201.74081420898438, -46.02057647705078
660,695954260,0.48209134,0.69809884,-0.4371516,0.2985709,13.174903869628906,-2.037353992462158,-0.949123740196228,-32.4870491027832,-172.8004150390625, -23.4573917388916
661,695970927,0.47351795,0.70583224,-0.44507053,0.2819465,10.909377098083496,-2.5474846363067627,0.9419964551925659,-0.3031618595123291,-144.33070373535156, -21.84668731689453
662,695987594,0.46295857,0.7134177,-0.45158523,0.26976916,10.741539001464844,-0.8464087247848511,-0.6776164174079895,25.286806106567383,-124.23837280273438, -10.066161155700684
663,696004261,0.45189953,0.7198338,-0.4582611,0.2600441,11.340202331542969,-1.1875312328338623,0.9224321842193604,31.41509437561035,-112.32921600341797, 2.9299967288970947
664,696020928,0.4402905,0.725838,-0.46298417,0.2548516,10.964034080505371,0.5014942288398743,1.4066193103790283,50.72684860229492,-85.1038589477539, 9.443304061889648
665,696037595,0.42748398,0.7315986,-0.46548718,0.25562224,12.148813247680664,-0.09735174477100372,2.3247830867767334,78.93663787841797,-52.29857635498047, 19.132143020629883
666,696054262,0.41456404,0.7362791,-0.46430576,0.26542455,8.600056648254395,0.41224855184555054,8.458294868469238,111.82136535644531,5.162593364715576, 30.607545852661133
667,696070929,0.39781895,0.74261737,-0.4526044,0.29224804,8.575053215026855,0.7350137233734131,13.329591751098633,209.62451171875,105.65233612060547, 27.40193748474121
668,696087596,0.37509897,0.75027317,-0.4479174,0.3094527,-2.9627890586853027,-2.247119903564453,-3.8910107612609863,199.8746795654297,15.52134895324707, 44.69247055053711
669,696104263,0.35385162,0.7567229,-0.45338884,0.31080252,3.6499409675598145,12.116474151611328,-0.15745291113853455,118.67391204833984,-85.24494934082031, 56.75275802612305
670,696120930,0.34882322,0.75725025,-0.46689227,0.29479834,-0.7958787083625793,1.5922290086746216,0.29492929577827454,-51.30810546875,-131.9818572998047, 40.368350982666016
671,696137597,0.32333186,0.76674384,-0.47327018,0.28909463,5.8247151374816895,-2.1888914108276367,3.072645664215088,124.279052734375,-145.15277099609375, 40.71469497680664
672,696154264,0.29243687,0.7796661,-0.4774927,0.28036103,2.1941139698028564,1.9904581308364868,7.433282852172852,154.84947204589844,-180.97067260742188, 22.109249114990234
673,696170931,0.25998798,0.79365826,-0.48039946,0.26782346,4.709353923797607,7.264792442321777,12.117939949035645,155.44113159179688,-206.15333557128906, 6.923312664031982
674,696187598,0.23379023,0.8047826,-0.4856675,0.24858443,3.1940994262695312,3.774848461151123,15.539108276367188,89.84070587158203,-221.43417358398438, 5.930706977844238
675,696204265,0.20813818,0.81429565,-0.4906227,0.2299797,3.7885348796844482,0.8560279607772827,17.329448699951172,86.99514770507812,-213.26622009277344, 9.73780632019043
676,696220932,0.17689505,0.82334,-0.49357104,0.21727182,4.546583652496338,0.0533469021320343,17.57768440246582,140.78346252441406,-195.9326171875, 17.39397430419922
677,696237599,0.1433604,0.83099145,-0.495348,0.20864154,5.389404773712158,1.4817681312561035,17.45832633972168,167.7102813720703,-177.5354766845703, 23.916353225708008
678,696254266,0.112253875,0.83656645,-0.49710262,0.20110875,5.106749057769775,2.702765941619873,17.043447494506836,155.61131286621094,-160.38844299316406, 28.550466537475586
679,696270933,0.087172925,0.8403828,-0.49922663,0.1921728,5.027598857879639,3.6913974285125732,16.22979736328125,114.33634948730469,-146.06021118164062, 27.38044548034668
680,696287600,0.069916576,0.8433623,-0.5008203,0.18174446,5.279303550720215,4.379790782928467,14.968697547912598,64.25890350341797,-126.70237731933594, 16.056766510009766
681,696304267,0.05861911,0.846336,-0.50055903,0.17239545,5.623141288757324,4.905101299285889,13.843323707580566,35.81434631347656,-99.2965087890625, -1.5219662189483643
682,696320934,0.05320815,0.8489583,-0.49887115,0.16603155,6.465671539306641,5.647377014160156,12.108019828796387,13.47696304321289,-60.92564392089844, -14.313928604125977
683,696337601,0.05706819,0.8508768,-0.49635044,0.16244535,6.0480194091796875,5.273906230926514,10.64880084991455,-30.303466796875,-12.052678108215332, -26.268632888793945
684,696354268,0.06931526,0.85185736,-0.49283883,0.16323103,4.780125141143799,3.873215436935425,8.81542682647705,-63.603370666503906,43.36981964111328, -36.49753189086914
685,696370935,0.086430006,0.8520853,-0.4872182,0.17058478,4.059683799743652,2.3873095512390137,7.307413578033447,-67.76683807373047,100.04488372802734, -48.645626068115234
686,696387602,0.10584082,0.8513183,-0.4792895,0.18530189,3.660547971725464,2.779242753982544,5.445809364318848,-54.37847900390625,153.3326873779297, -57.17283630371094
687,696404269,0.13047685,0.84876496,-0.46966878,0.20490323,3.2570977210998535,2.690716028213501,3.9997143745422363,-67.95480346679688,202.61514282226562, -64.29335021972656
688,696420936,0.15918975,0.84387577,-0.4584306,0.2288535,2.980922222137451,2.082022190093994,2.133486747741699,-77.47124481201172,245.908203125, -68.02698516845703
689,696437603,0.19124244,0.8359812,-0.44608527,0.25606596,2.428154945373535,1.3090472221374512,1.2796714305877686,-88.09159851074219,281.35235595703125, -66.66622161865234
690,696454270,0.22449413,0.8250263,-0.4327318,0.28579238,1.9232152700424194,-0.13287131488323212,0.15320196747779846,-89.5210952758789,306.2703857421875, -61.886207580566406
691,696470937,0.2598173,0.8103778,-0.41914168,0.31639066,2.426422119140625,-2.130516290664673,-1.4118366241455078,-103.95266723632812,325.12030029296875, -55.0006103515625
692,696487604,0.2949867,0.79207486,-0.40576935,0.34778103,1.940644383430481,-3.485366106033325,-3.006585121154785,-107.87940216064453,336.792236328125, -41.589473724365234
693,696504271,0.3277224,0.7712838,-0.39195195,0.37959602,1.564368724822998,-3.6439168453216553,-4.770142555236816,-97.49835205078125,339.35736083984375, -30.498653411865234
694,696520938,0.35611403,0.74931824,-0.37706724,0.41173488,1.322082757949829,-4.323631763458252,-6.675858020782471,-73.52936553955078,335.08050537109375, -21.012971878051758
695,696537605,0.37858498,0.7277789,-0.36019596,0.44415113,1.2015209197998047,-2.9073610305786133,-9.822380065917969,-35.72148513793945,325.1200866699219, -14.997843742370605
696,696554272,0.39971954,0.70563716,-0.3443585,0.47298828,1.6113464832305908,1.0167509317398071,-12.577202796936035,-42.738277435302734,303.4398498535156, -13.621611595153809
697,696570939,0.42179734,0.6825416,-0.33166793,0.49620616,2.687413454055786,3.0369484424591064,-15.186932563781738,-73.62476348876953,273.3161315917969, -14.597789764404297
698,696587606,0.44343016,0.65977705,-0.32328784,0.5133704,3.9282822608947754,3.6719260215759277,-18.717918395996094,-99.2647933959961,230.77378845214844, -11.140345573425293
699,696604273,0.45936394,0.64164764,-0.31558633,0.526952,3.141782760620117,0.7880042791366577,-21.378145217895508,-69.84049987792969,184.0371856689453, -9.151864051818848
