Acc_X,Acc_Y,Acc_Z
-0.3660231828689575,-0.958887219429016,-0.3491879403591156
-0.1412989348173141,-1.3715436458587646,-1.2144672870635986
-1.0343974828720093,-1.4518377780914309,-0.940709352493286
-0.1974188089370727,1.1593263149261477,0.1358852833509445
0.9136746525764464,2.7404944896698,1.0447367429733276
0.6931923031806946,3.8393397331237793,0.5848680734634399
0.6649612784385681,1.8717944622039795,0.5699158906936646
0.3887330889701843,-0.4936058223247528,1.3348109722137451
0.5725969076156616,-1.59014892578125,1.4832547903060913
-0.3678045570850372,-3.504832029342652,1.778120756149292
1.6255669593811035,-1.9343029260635376,0.9770508408546448
2.5941591262817383,-1.005684733390808,1.1859605312347412
3.002009868621826,0.8329373002052307,0.9384766817092896
3.2806313037872314,2.1525490283966064,1.8988561630249023
3.995514869689941,2.358550786972046,1.1384435892105105
4.839612007141113,3.490293025970459,1.5326087474822998
5.412548542022705,3.532418966293335,1.5517239570617676
5.811399936676025,3.0498528480529785,3.1794464588165283
6.223538398742676,0.841610848903656,5.551766872406006
6.611123561859131,-0.6078926920890808,5.019942283630371
9.27479362487793,-2.165178775787353,10.903729438781738
9.872142791748049,-5.371684551239014,10.48327350616455
11.853282928466797,-7.02472448348999,17.0892333984375
5.670810699462891,-7.641111373901367,13.56255340576172
6.2019805908203125,-11.467365264892578,9.184328079223633
6.509585380554199,-7.492384433746338,9.568246841430664
3.257352590560913,-2.634660482406616,18.37114906311035
-0.646262526512146,-3.7734763622283936,14.13038730621338
-2.453010320663452,-3.0666656494140625,14.36928653717041
-3.6750259399414062,-2.001589775085449,15.25417137145996
-2.935409545898437,-2.2546424865722656,13.763298988342283
-1.886974811553955,-0.0831362605094909,10.952129364013672
0.2010326087474823,1.1942983865737915,9.070489883422852
1.6419990062713623,2.0034162998199463,7.088881969451904
2.9640214443206787,1.5796527862548828,4.733298778533936
4.10053014755249,1.3894888162612915,2.7839269638061523
5.240251541137695,0.6647164225578308,0.1648725122213363
5.943480491638184,0.5993927717208862,-2.20840835571289
6.425060272216797,-1.5930031538009644,-4.962652206420898
7.006165504455566,-1.0712789297103882,-6.275380611419678
8.017350196838379,-1.0429635047912598,-8.087026596069336
8.81285285949707,-0.374142050743103,-10.038208961486816
8.77144718170166,-0.4255563616752624,-11.73538589477539
7.733186721801758,-0.3113794326782226,-13.923834800720217
6.768064022064209,-1.8361693620681765,-18.98815155029297
4.343329429626465,-2.359820604324341,-22.728168487548828
2.7105958461761475,-2.006621599197388,-23.78037643432617
2.455132007598877,-2.396423101425171,-23.06163024902344
2.929916381835937,-3.130099058151245,-19.46278381347656
3.65368914604187,-4.566161155700684,-15.138710975646973
3.1037702560424805,-3.6588268280029297,-11.385226249694824
1.465257167816162,-1.4413416385650637,-7.919218063354492
3.617151260375977,2.3653829097747803,10.304978370666504
7.350334644317627,9.160582542419434,7.681508541107178
10.690566062927246,4.835287094116211,-10.461956977844238
1.2390655279159546,-1.0975629091262815,-2.4399983882904053
-2.419562578201294,1.8176794052124023,-1.754233717918396
1.363573670387268,-3.727397918701172,-6.296513557434082
3.676978588104248,-1.8127970695495603,-3.5842576026916504
0.7924091219902039,-0.8479018211364746,-1.3536696434020996
-0.5959840416908264,1.3019863367080688,-0.5458378791809082
0.926075279712677,-0.12614606320858,-1.2026230096817017
-0.0313637256622314,-2.233044147491455,-1.2787542343139648
-0.7755898833274841,-1.784246802330017,-0.8772650957107544
-0.8083151578903198,-0.7231804728507996,0.8380787372589111
-1.817596197128296,-1.403787612915039,1.1389974355697632
-1.8338218927383425,-2.5305604934692383,0.8129088878631592
-0.5408393144607544,-1.4839115142822266,0.2818438112735748
0.0061795129440724,0.6984639763832092,0.7374626994132996
0.1048154309391975,1.5407575368881226,0.4973059594631195
-0.1162203773856163,1.2726852893829346,0.8202816247940063
-0.2014712393283844,-0.0382695421576499,1.103022575378418
0.7987684607505798,-4.068232536315918,2.7026827335357666
0.4285808801651001,-1.7977579832077026,0.196200355887413
2.4913620948791504,0.1031064912676811,0.8438732028007507
2.7734568119049072,1.037799596786499,1.986218810081482
3.4104926586151123,1.0645153522491455,1.4916576147079468
4.399458885192871,2.797067403793335,1.4257891178131104
4.427155494689941,3.271669626235962,1.6010470390319824
6.172103404998779,2.9137325286865234,3.636527299880981
7.07877254486084,1.9833580255508425,4.831176280975342
7.466270923614502,0.4235979914665222,7.173733711242676
8.434758186340332,-1.066030740737915,8.112526893615723
8.325850486755371,-5.594902038574219,8.670463562011719
8.627022743225098,-5.73653507232666,11.39629364013672
9.0316162109375,-9.846762657165527,14.185007095336914
6.147869110107422,-11.4422607421875,10.831758499145508
1.7840250730514526,-6.384391784667969,5.945114612579346
2.587955474853516,-7.775414943695068,10.957140922546388
-1.8385589122772217,-3.3896656036376958,15.694555282592772
-1.2007067203521729,-3.140687704086304,11.482335090637209
-1.3255375623703003,-0.9168336391448976,12.295424461364746
-2.056676387786865,-0.7788585424423218,11.130160331726074
-1.900461316108704,0.2668456435203552,10.203447341918944
-1.4836182594299316,1.287516951560974,8.964224815368652
-0.4139988422393799,1.8527177572250368,6.58623743057251
0.8476815223693848,1.2475824356079102,4.337991714477539
1.7630950212478638,1.585509181022644,3.083590507507324
3.011756658554077,0.9628783464431764,0.8662924766540527
4.2055768966674805,1.2138389348983765,-0.6700074672698975
5.014201641082764,0.9758774042129515,-2.461778402328491
5.534440994262695,0.8196483850479126,-4.892560005187988
6.332411289215088,0.4356904327869415,-6.228376388549805
7.889434337615967,1.136170744895935,-6.971996307373047
8.722943305969238,1.6257644891738892,-9.554312705993652
7.537498474121094,0.5765354037284851,-12.839404106140137
4.614865303039551,-1.6549391746520996,-17.193782806396484
4.489811420440674,-2.3992550373077397,-21.90614318847656
4.11547327041626,-1.629421591758728,-22.181995391845703
4.2613301277160645,-1.7842330932617188,-22.91448783874512
3.9899163246154794,-2.6205124855041504,-20.40076446533203
3.9921391010284415,-5.4674482345581055,-16.466516494750977
4.346254825592041,-5.532106399536133,-12.59763240814209
5.821098327636719,-1.0353976488113403,10.400368690490724
3.017221450805664,7.660195350646973,10.058028221130373
4.753172874450684,1.454423189163208,-9.11009407043457
2.9394278526306152,-3.608463048934937,-8.683003425598145
1.6953742504119873,1.5286117792129517,-1.804698586463928
3.867820262908936,-1.1615052223205566,-2.9507856369018555
1.099376201629639,0.8544641733169556,-1.2077102661132812
-0.1505933701992035,-0.8464462757110596,-1.2939740419387815
0.0259195920079946,0.3835422098636627,-0.6753370761871338
0.9498333930969238,0.4268331825733185,-1.8808435201644895
-0.1229703724384307,-1.4305040836334229,-0.2818710207939148
0.0080099115148186,-1.6021217107772827,0.7462736368179321
0.8491606712341309,-0.3671989440917969,0.641406238079071
-0.4712424576282501,-1.729421615600586,0.0799503549933433
-0.5916543006896973,-1.4909734725952148,0.4663591086864471
-0.6237326264381409,-1.52171528339386,0.2799778282642364
0.0264161638915538,-0.5238397121429443,0.5253458023071289
0.5176213979721069,-0.0377333089709281,0.2647584676742553
0.6875415444374084,0.0854800567030906,0.094755470752716
1.444633960723877,0.5806035399436951,0.3082357048988342
2.5424916744232178,0.3336533010005951,0.7354661822319031
1.2717591524124146,-2.837550640106201,2.020159721374512
2.8277063369750977,0.8049181699752808,3.2528727054595947
3.242495059967041,0.1525777876377105,2.877375364303589
4.74959135055542,2.0220983028411865,2.0145184993743896
5.303467750549316,5.017045974731445,1.0622289180755615
5.426374912261963,4.635619640350342,2.760347604751587
6.538503170013428,2.982632875442505,4.794068336486816
6.892324924468994,1.5193588733673096,6.835753917694092
8.423651695251465,-0.2869926393032074,9.243395805358888
9.904189109802246,-1.801255464553833,4.142128467559815
11.83725929260254,-6.927596092224121,14.480579376220703
10.923312187194824,-9.352453231811523,15.65438461303711
10.028057098388672,-13.841341972351074,16.202856063842773
2.946596622467041,-11.614459037780762,6.427684783935547
3.5612986087799072,-9.333606719970703,8.152236938476562
1.7188647985458374,-2.4071547985076904,16.498950958251953
-0.0902412608265876,-3.672149419784546,12.328662872314451
-0.155087411403656,-7.4803361892700195,9.771373748779297
-1.4064562320709229,-4.234401226043701,10.776037216186523
-1.5514169931411743,-2.479002952575684,10.39643669128418
-1.1849186420440674,-1.963866949081421,9.437204360961914
-0.2799465954303741,0.0555947571992874,7.55187463760376
0.496957778930664,0.4756242334842682,5.738667011260986
1.0402884483337402,2.2354953289031982,4.733994483947754
1.4105952978134155,3.5559957027435303,3.096330165863037
2.151500701904297,3.5984880924224854,1.0513132810592651
3.141308069229126,3.6865217685699454,-0.4915333986282348
4.018645286560059,2.4766669273376465,-2.942167282104492
5.807795524597168,1.5351945161819458,-4.147085189819336
7.781659126281738,1.0150600671768188,-6.987523555755615
9.589378356933594,1.8212820291519165,-9.82988166809082
10.819140434265137,1.5081708431243896,-13.334064483642578
10.151778221130373,-1.0435965061187744,-15.528779029846191
7.7277512550354,-3.4052181243896484,-19.624170303344727
4.881216049194336,-4.659328460693359,-24.861665725708008
3.10373854637146,-2.4939467906951904,-27.054244995117188
2.840082883834839,-3.303741216659546,-23.80356979370117
4.313196659088135,-5.486532211303711,-13.63074779510498
6.166045188903809,11.646811485290527,-1.658535361289978
0.780426025390625,0.2503058016300201,-4.441435813903809
0.3339623212814331,-3.2253899574279785,-1.2464338541030884
0.3684718906879425,-0.3685693740844726,0.1850926429033279
0.0884724110364914,0.5792637467384338,1.0338202714920044
2.712448835372925,-0.969171106815338,1.4111809730529783
3.8756203651428223,1.4941375255584717,0.563829243183136
5.021140098571777,2.688743352890014,1.885944366455078
5.750432968139648,1.8312090635299685,4.610095500946045
8.622293472290039,0.9175395965576172,7.942957401275635
9.64966869354248,-1.2661962509155271,6.15587043762207
12.623760223388672,-7.53767728805542,15.658650398254396
1.680270433425903,-9.517660140991213,5.922021389007568
2.792811155319214,-3.9910364151000977,14.971282958984377
-0.473570853471756,-4.022345542907715,9.927520751953123
-1.8224191665649412,-0.3932937979698181,10.535077095031738
-1.251367449760437,0.0525686740875244,9.38917350769043
-1.3085002899169922,0.0325332768261432,7.889815330505371
-1.1876665353775024,0.8012664914131165,7.039544105529785
-0.9729655981063844,0.93741637468338,4.647340297698975
-0.3542569875717163,1.885986328125,3.6436047554016113
0.540341317653656,1.3212242126464844,2.3388381004333496
1.8272818326950075,0.178288847208023,0.4148882329463959
3.156320095062256,0.1971786320209503,-0.5540322065353394
4.23028039932251,0.5782575607299805,-2.1573495864868164
5.553210735321045,2.005051374435425,-3.405137062072754
6.951474189758301,3.363473415374756,-6.192805767059326
7.934373378753662,4.344520092010498,-7.128169059753418
8.595550537109375,2.1188244819641118,-8.866246223449707
8.705769538879395,-1.1539528369903564,-11.160063743591309
8.071377754211426,-2.69191575050354,-14.234243392944336
6.557500839233398,-2.3531479835510254,-16.88471221923828
4.743725299835205,-2.276619911193848,-20.530487060546875
4.33545446395874,-0.9143853187561036,-20.50470924377441
3.3901987075805664,-3.01282286643982,-20.23266220092773
4.062186241149902,-3.9207730293273926,-18.19942092895508
4.807969093322754,-3.928046703338623,-14.734254837036133
7.692378997802734,-1.6838047504425049,1.6152398586273191
8.414694786071777,9.04623794555664,11.741880416870115
5.321038722991943,5.700577735900879,-7.981529235839844
1.370590090751648,-0.3896603286266327,-7.075860977172852
1.006331443786621,2.6307692527771,-1.7283740043640137
2.934527635574341,-1.4865511655807495,-4.288296699523926
5.052994251251221,-2.273532629013061,-3.99545693397522
1.8130083084106443,0.2948300838470459,-0.3871885538101196
-0.5946245789527893,0.6060112118721008,-1.566900610923767
0.9496025443077089,1.7083256244659424,-0.4059368669986725
0.953900158405304,-0.7715996503829956,-0.9722213745117188
0.5069403052330017,-2.684849262237549,-1.0547606945037842
-0.272470474243164,-2.0074703693389893,-0.8606649041175842
-0.0246633570641279,-1.2442398071289062,-0.4182817339897156
0.4909789860248565,-0.243631511926651,0.9148174524307252
0.6365110278129578,0.398554116487503,0.6555337905883789
-0.2705348432064056,-0.8533949255943298,0.87003493309021
-0.1272419244050979,-1.3102519512176514,0.5082604289054871
-0.1665435135364532,-0.968333065509796,-0.0186796020716428
-0.059486024081707,0.639360249042511,0.2543875277042389
0.5820658802986145,0.8937023878097534,0.6430938839912415
0.8800811171531677,-0.0595835447311401,0.8094335198402405
2.0823211669921875,-1.5922986268997192,1.2438733577728271
0.9521235823631288,-1.069082736968994,2.041594982147217
3.073489189147949,0.777975857257843,0.4621569216251373
3.701946020126343,0.565057635307312,1.9747623205184937
4.521202564239502,1.8302258253097532,2.0373177528381348
5.907372951507568,3.687079668045044,2.715517520904541
6.459090232849121,3.023831367492676,4.516737461090088
7.105258941650391,1.8301033973693848,5.682591438293457
8.489608764648438,2.20043683052063,8.420300483703613
9.851256370544434,2.827448844909668,10.776776313781738
10.256624221801758,-4.000709533691406,7.301027774810791
13.437355041503906,-19.28422737121582,9.468746185302734
14.89256763458252,-14.342517852783203,12.796503067016602
3.4462404251098637,-9.613299369812012,16.55521011352539
-0.7860406041145325,-3.972800731658936,2.217848062515259
1.9066652059555051,-8.408536911010742,10.384038925170898
-2.099498987197876,-3.585397958755493,15.033689498901367
-0.9884275197982788,-2.436582088470459,11.559539794921877
-1.7548340559005735,-2.199082136154175,9.7241849899292
-2.031899690628052,0.6071064472198486,10.25062370300293
-1.749439358711243,0.8673384785652161,8.93964672088623
-1.6874772310256958,1.6682980060577393,7.548654079437256
-0.7675808668136597,1.7646881341934204,5.971707344055176
-0.1283974796533584,2.810462713241577,4.836209297180176
0.3882922828197479,2.198200225830078,2.892378091812134
1.6514434814453125,1.9386953115463257,1.2465988397598269
3.042791843414306,1.660446047782898,-0.0192557498812675
3.8109054565429688,1.1524547338485718,-1.056220293045044
4.783328056335449,1.9684783220291135,-2.0024006366729736
5.511437892913818,3.3850350379943848,-2.58760404586792
6.628994941711426,3.3742964267730717,-3.89658784866333
7.200902938842773,2.313152313232422,-5.363626003265381
7.928640842437744,0.4153635203838348,-7.5520219802856445
8.809548377990723,-1.035712718963623,-9.614850997924805
8.13869857788086,-1.609467625617981,-11.56348705291748
6.630246162414551,-1.955942153930664,-16.20090103149414
4.941291809082031,-1.5315649509429932,-19.69850730895996
3.7421936988830566,-2.145936965942383,-21.98591041564941
2.770455837249756,-2.869809150695801,-22.179893493652344
3.206895589828491,-3.650448799133301,-20.73958396911621
3.9654695987701416,-4.210285663604736,-17.023910522460938
3.75171422958374,-4.715147018432617,-12.95153522491455
5.52207088470459,-1.505199313163757,8.473560333251953
4.827561378479004,10.804733276367188,22.915508270263672
7.6624755859375,3.1095855236053467,-16.18265151977539
6.944340705871582,-5.965081214904785,-8.728355407714844
-0.2095479667186737,9.667729377746582,2.4856927394866943
2.518808603286743,-3.9847054481506343,-6.841832160949707
3.2699434757232666,-1.890076160430908,-3.4370105266571045
0.5616958141326904,0.2419035583734512,-0.865288496017456
-0.3640573918819427,-2.5561671257019043,-1.099729061126709
0.4419779777526855,-0.2372929602861404,0.0567358657717704
-0.0073617631569504,-2.271662950515747,-0.9895939826965332
0.1617428809404373,-3.753863096237183,-0.6876865029335022
0.018216535449028,-1.7827569246292114,-0.5956101417541504
-0.0465598218142986,0.8864262700080872,0.2405594885349273
-0.2525661885738373,0.3908990025520324,0.3208882510662079
0.3802986443042755,0.5706788301467896,0.5949513912200928
0.0565685704350471,-0.2246961891651153,-0.1096413657069206
-0.1582981944084167,0.2474922686815261,0.511274516582489
-0.4989580512046814,0.971608817577362,1.5752861499786377
-0.5910016298294067,-0.0344582647085189,1.07919180393219
-0.1865161806344986,-0.5998517274856567,1.1661750078201294
1.1522108316421509,-0.6595468521118164,0.9099679589271544
0.7879481911659241,-4.072838306427002,2.100252389907837
4.547628402709961,1.3305834531784058,0.0849314406514167
4.593751430511475,1.1340752840042114,1.4993140697479248
5.245548725128174,2.2546868324279785,1.9726219177246092
6.376896381378174,3.852369546890259,1.5163366794586182
6.6515398025512695,3.6409122943878174,4.183157920837402
7.788740158081055,1.8814295530319212,6.176849842071533
8.578635215759277,0.3150085210800171,8.814057350158691
9.48363971710205,-1.868599772453308,12.985475540161133
10.227431297302246,-3.6743342876434326,5.300486564636231
12.34264087677002,-14.815988540649414,8.926251411437988
9.85197925567627,-14.113957405090332,16.99925994873047
-0.8992002010345459,-8.354532241821289,7.358247756958008
0.3819907903671264,-7.306487083435059,4.560882091522217
2.2473013401031494,-4.904499053955078,13.330235481262209
-0.9788714647293092,-1.4135879278182983,13.60569190979004
-0.5281123518943787,-3.4717516899108887,10.472018241882324
-1.8500876426696775,-3.2292256355285645,9.464397430419922
-1.7387875318527222,-1.323885202407837,9.849997520446776
-1.9185794591903689,-0.6128915548324585,8.12968635559082
-1.3698344230651855,-0.3004304468631744,6.645083904266357
-0.6154347658157349,-0.2345475703477859,5.952877998352051
-0.378722220659256,-0.2539559602737427,5.28291654586792
-0.008712887763977,-0.0391331538558006,4.231727123260498
0.6390421390533447,0.8900161981582642,3.1667938232421875
1.7650511264801023,1.5309220552444458,1.9607526063919067
2.996556520462036,2.280437707901001,1.0728024244308472
4.168004035949707,2.6733410358428955,-0.5025279521942139
5.35745096206665,2.9149703979492188,-2.048112392425537
6.4045915603637695,2.2626545429229736,-3.571380853652954
7.598368167877197,0.99989914894104,-5.2453789710998535
8.850613594055176,-0.2492858171463012,-7.695278167724609
10.170950889587402,-0.6096992492675781,-10.133106231689451
9.067804336547852,-1.1619919538497925,-13.980927467346191
6.161646842956543,-2.044570207595825,-18.6713924407959
4.390836715698242,-1.5125634670257568,-22.63789939880371
3.4300551414489746,-0.0253158807754516,-24.129880905151367
2.5557796955108643,-1.493134379386902,-23.18136215209961
3.717437744140625,-2.8498497009277344,-19.821067810058597
4.908760070800781,-3.642669916152954,-15.14402675628662
6.596282958984375,-0.6738333106040955,1.390432834625244
8.832616806030273,8.581082344055176,18.79021453857422
6.7115678787231445,8.297337532043457,-10.96153450012207
5.145499706268311,-4.710964679718018,-11.028718948364258
-0.0551975779235363,4.133840560913086,1.4908231496810913
1.178576946258545,-1.6097133159637451,-6.365911960601807
3.2960751056671143,-2.4474050998687744,-4.504899501800537
3.373199701309204,0.7439003586769104,-1.243760347366333
0.2580542266368866,-0.0125091280788183,-1.4350956678390503
0.3743481934070587,0.7332788109779358,-0.68718022108078
0.6976403594017029,-0.2678921222686767,-1.812121033668518
0.4808591604232788,-2.853412628173828,-0.8526703715324402
0.1295509487390518,-2.8488857746124268,-0.9588440656661988
-0.0252978540956974,-0.657704770565033,-0.0306562054902315
-0.3527064919471741,0.3197562992572784,0.164621040225029
-0.4384985864162445,-0.4867132306098938,0.9370545148849488
0.2375931441783905,-0.7341523766517639,0.7601487636566162
0.0684633925557136,-0.8552430868148804,0.5642945170402527
0.2234944850206375,0.2925876677036285,0.7878997921943665
0.0433603711426258,0.7132576704025269,1.329137921333313
0.1204644590616226,0.3389889597892761,0.9834997057914734
0.8131152987480164,-2.0213394165039062,1.97989022731781
-0.6314641237258911,-2.445538282394409,2.29343056678772
2.249565601348877,0.7683404684066772,1.0595004558563232
3.528345823287964,1.0290749073028564,1.7387025356292725
3.824758052825928,1.9500724077224727,1.107875943183899
5.062699794769287,3.029769897460937,2.4178638458251958
5.555680274963379,2.978142738342285,2.8571207523345947
6.953670024871826,2.9916679859161377,4.5446624755859375
7.984081268310547,2.0179364681243896,6.449856281280518
8.946589469909668,1.2728997468948364,9.803836822509766
8.955697059631348,-1.4361865520477295,9.292539596557615
8.857805252075195,-5.625656127929688,6.104218006134033
12.726736068725586,-11.36443042755127,11.47524070739746
10.337912559509276,-14.459385871887209,16.909862518310547
1.151459813117981,-8.416452407836914,3.378894090652466
1.4856538772583008,-5.88093376159668,4.364193439483643
1.4177396297454834,-1.8358502388000488,15.535581588745115
-1.7436554431915283,-0.793884813785553,12.062207221984863
-0.2157551646232605,-4.331064224243164,9.062335968017578
-1.909350633621216,-3.187244176864624,8.449652671813965
-1.8954265117645264,-1.3883482217788696,8.476569175720215
-2.9119808673858643,-0.6057008504867554,6.82119083404541
-2.915447950363159,-0.1749504208564758,6.56809139251709
-1.6654521226882937,0.2527941763401031,5.754580020904541
-0.4696435630321502,0.8696335554122925,3.273386240005493
-0.1807186007499694,1.6160688400268557,2.2416892051696777
0.4945796132087707,1.2581766843795776,0.7392820119857788
1.6158463954925537,1.6250827312469482,-0.2183181792497635
2.381528377532959,1.6237311363220217,-0.9911580681800842
2.9762625694274902,1.5691421031951904,-1.817400932312012
3.874082088470459,1.949597954750061,-2.2286529541015625
5.146142482757568,1.3738023042678833,-3.169995069503784
6.181204795837402,0.416344404220581,-5.315011024475098
6.599376678466797,-0.2995781600475311,-7.881638526916504
7.20160722732544,-0.5397348403930664,-8.936843872070312
7.405471801757812,-0.8940572142601013,-10.999691009521484
6.839938640594482,-1.653386473655701,-13.82643699645996
5.707316875457764,-2.265618801116944,-16.942867279052734
3.842673301696777,-2.1857476234436035,-19.193145751953125
3.047083616256714,-1.371163010597229,-19.700756072998047
3.1671905517578125,-1.499495506286621,-18.508100509643555
3.709450483322144,-1.868510603904724,-16.153179168701172
4.837622165679932,-3.163788080215454,-8.833900451660156
9.150389671325684,1.1578105688095093,13.90830135345459
4.014056205749512,6.985493183135986,-3.0201337337493896
3.3488929271698,-1.46403968334198,-9.529906272888184
2.2726001739501958,0.9490804672241212,-2.068795680999756
1.2059496641159058,-0.7978633642196655,-3.2943148612976074
3.847961902618408,-2.7011430263519287,-5.045068740844727
2.4419078826904297,1.3704540729522705,-1.9825565814971924
0.6497114300727844,0.7412002682685852,-2.2373626232147217
0.7638989686965942,1.4922170639038086,-0.3676020801067352
0.7777953147888184,0.8512701988220215,-0.2142528593540191
0.8742625117301941,-1.383935570716858,-1.8224502801895144
0.0649130940437316,-2.797407388687134,-0.710597574710846
-0.1541446596384048,-1.4131183624267578,-0.6636562347412109
-0.0347639247775077,-1.2381186485290527,0.4129321575164795
0.4634690284729004,-0.5296953320503235,0.8137735724449158
-0.039484404027462,-0.9555566310882568,0.9050910472869872
-0.0848098695278167,-0.7795259356498718,0.5320034623146057
-0.3163968026638031,-0.4911149442195892,0.7963278293609619
-0.5288997888565063,0.5374661684036255,0.8885437846183777
-0.3438014984130859,-0.0489089339971542,1.3416029214859009
0.8110297918319702,-2.021558284759521,2.4115560054779053
-0.1675922870635986,-2.978059768676758,1.8315849304199217
2.557316303253174,-0.1174689382314682,0.6981562972068787
2.6165192127227783,0.4287921190261841,1.639828085899353
3.713064193725586,0.6471152305603027,1.4975017309188845
4.7707061767578125,1.9916877746582031,1.5026098489761353
5.672106742858887,3.1547443866729736,2.6954567432403564
6.603247165679932,3.002286434173584,4.078786849975586
6.437261581420898,2.240882158279419,5.890162944793701
7.2978835105896,0.6902500987052917,8.204107284545898
8.74648666381836,-0.3080989122390747,9.807201385498049
9.201359748840332,-2.0416624546051025,4.378390789031982
10.982091903686523,-8.654623985290527,11.434175491333008
8.904526710510254,-6.985764503479004,16.913982391357422
6.991084575653076,-10.499905586242676,15.16689395904541
2.6926462650299072,-12.696635246276855,2.23006272315979
2.9373836517333984,-8.944626808166504,6.872037410736084
-0.3171659111976623,-1.106717824935913,15.449179649353027
-2.0688605308532715,-1.418773174285889,11.349085807800291
-1.0350421667099,-6.243342399597168,7.466400623321533
-1.4771873950958252,-3.239008903503418,8.437803268432617
-2.1300370693206787,-1.307545185089111,8.293338775634766
-2.602647304534912,-1.4058547019958496,6.787866115570068
-2.04736590385437,-1.1601793766021729,6.235691547393799
-0.5242205262184143,-0.8216955661773682,3.4559202194213867
0.0131227746605873,0.0464269146323204,1.4925434589385986
0.3012091219425201,0.429811030626297,0.7693790197372437
0.8699869513511658,0.4182699024677276,-0.4895678460597992
1.6928691864013672,0.5285612940788269,-0.984900176525116
2.726649284362793,0.7418470978736877,-1.5256016254425049
3.9193367958068848,0.8643692135810852,-2.322005271911621
4.981480121612549,1.504833102226257,-2.729354858398437
5.993287086486816,2.1406710147857666,-4.021771430969238
6.67984676361084,2.048970460891724,-6.226817607879639
7.368397235870361,1.987241625785828,-7.855801105499268
7.545812606811523,0.0172239243984222,-9.231575965881348
6.944044589996338,-1.657758116722107,-11.377772331237791
6.279216289520264,-2.456801652908325,-14.751774787902832
4.780759811401367,-1.2479783296585083,-17.30205535888672
3.3086957931518555,-0.7749597430229187,-19.031707763671875
2.9125547409057617,-0.5024974346160889,-19.095571517944336
3.3063948154449463,-1.5283775329589844,-17.689212799072266
3.537980556488037,-3.209213733673096,-16.228059768676758
3.3076183795928955,-2.946932792663574,-9.524179458618164
9.085478782653809,1.1954530477523804,11.60779857635498
5.796164512634277,6.828398704528809,-2.117905855178833
4.06656551361084,-0.7219294905662537,-10.964787483215332
3.218971014022827,1.1977064609527588,-0.6770163178443909
0.5712053179740906,-2.134407758712769,-3.965463399887085
2.8551888465881348,-2.865900039672852,-4.468163013458252
1.107296109199524,0.9369064569473268,-1.4651672840118408
0.1097743064165115,-1.4163076877593994,-0.707654595375061
0.8412384986877441,-0.0492238327860832,-0.4386662244796753
1.0118156671524048,-0.9131760001182556,-1.46459698677063
0.8292118310928345,-1.5273956060409546,-1.1820582151412964
0.6862122416496277,-0.5490642189979553,-0.5544939041137695
0.3979030549526214,1.682889103889465,-0.0373973101377487
-0.3841490149497986,0.5622311234474182,0.6388055086135864
-0.2257640957832336,-0.9169867038726808,0.1185034438967704
0.0001944154500961,-1.333832621574402,0.5078743100166321
-0.2989946007728576,-0.555616021156311,0.1936458796262741
0.0157567765563726,-0.2559053003787994,1.0576460361480713
0.0323188677430152,-0.2774531841278076,1.7241779565811155
0.6494035720825195,-1.102303147315979,1.6656955480575562
0.1423408538103103,-3.766676425933838,1.8336955308914185
1.609614372253418,0.2032003551721573,0.8675199151039124
2.779681921005249,-0.1780428439378738,0.8318671584129333
3.503528356552124,0.8734700679779053,1.970542550086975
4.77811861038208,1.3720436096191406,0.7116433382034302
5.324814319610596,3.2635843753814697,2.380678415298462
5.031805515289307,3.759463310241699,1.8346139192581177
5.612674236297607,3.4388833045959477,4.38706111907959
6.371125221252441,1.3324642181396484,6.0089616775512695
8.042834281921387,-0.1774024218320846,7.688649177551269
8.098847389221191,-1.9727795124053955,6.718796730041504
7.7369704246521,-7.705779552459717,4.650755405426025
10.14705753326416,-7.0785322189331055,13.520038604736328
7.871645927429199,-9.610673904418944,14.661273956298828
5.1651930809021,-9.717071533203123,7.945686340332031
1.97736394405365,-10.045736312866213,2.607852935791016
2.9338550567626958,-4.364838600158691,9.329506874084473
-0.3752542734146118,-0.7852948904037476,13.351570129394531
0.0544574409723281,-4.785933494567871,9.007391929626465
-0.7076410055160522,-5.346115112304688,8.13025188446045
-1.5976413488388062,-1.7373367547988892,9.328420639038086
-1.7021863460540771,-1.0687487125396729,8.112792015075684
-1.7486587762832642,-0.6288507580757141,7.505245208740234
-1.1234688758850098,-0.1887417286634445,6.608528137207031
-0.331386387348175,0.3765959441661834,4.43867826461792
0.0387946590781211,0.5176336169242859,3.561232328414917
0.3096800446510315,1.4915043115615845,2.588806629180908
0.9463046193122864,1.339750051498413,1.2623703479766846
1.6687216758728027,1.4944809675216677,0.7242268323898315
2.572000741958618,1.011585712432861,0.1972445845603943
3.5883359909057617,1.1874775886535645,-0.8060899376869202
4.707713603973389,1.4492937326431274,-2.061220407485962
5.849666595458984,1.1535232067108154,-3.5428225994110107
6.684266567230225,1.8341938257217407,-4.78946590423584
7.061522006988525,2.2256200313568115,-6.27543830871582
6.9631218910217285,0.8228727579116821,-8.582160949707031
7.199016571044922,-0.9195672869682312,-10.601971626281738
6.2707953453063965,-1.3265012502670288,-12.762261390686035
5.444540977478027,-1.4959347248077393,-15.567516326904297
4.447607517242432,-0.239132672548294,-17.834884643554688
3.4952518939971924,0.1888124644756317,-18.884096145629883
2.966547727584839,-0.3291259109973907,-18.77068519592285
4.085340023040772,-1.5568058490753174,-16.929832458496094
4.647425651550293,-3.6481916904449454,-14.097537994384766
6.613439559936523,-6.34406042098999,0.0352379232645034
9.159409523010254,4.227513790130615,7.348310470581055
6.207007884979248,5.299628257751465,-4.996104717254639
2.341540813446045,-3.487828493118286,-7.991534233093262
1.0886540412902832,2.543365240097046,-0.4405558705329895
1.1343324184417725,0.2664109468460083,-4.162256240844727
3.741304874420166,-3.2030017375946045,-4.810472011566162
3.6177937984466553,0.1128151416778564,-1.8949941396713257
0.5316643118858337,0.551293134689331,-1.3011460304260254
0.3114638924598694,0.5017372369766235,-0.995685577392578
0.4877947866916656,-0.4924622178077698,-0.9207299947738647
0.0471157953143119,-2.446828842163086,-0.3012377023696899
-0.2096917182207107,-2.300863027572632,-0.7893148064613342
-0.2921652495861053,-1.1346447467803955,-0.3051188588142395
-0.3879551589488983,0.2860160171985626,0.3732409179210663
-0.1121043488383293,-0.7307595014572144,1.5954372882843018
0.1959937810897827,-0.5334833264350891,0.6742764115333557
-0.4098834991455078,-1.4484494924545288,0.942215621471405
-0.3968032598495483,-0.3186125755310058,0.6647742986679077
-0.5259350538253784,-0.0094731152057647,1.4139728546142578
-0.1738273799419403,0.4474289417266845,0.803476095199585
0.5343882441520691,0.5215381979942322,-0.0868751555681228
0.9664589166641236,0.6597357392311096,-0.0171276219189167
2.0649142265319824,-1.3953789472579956,1.477116584777832
0.8376521468162537,-4.470268726348877,1.472061038017273
4.315432548522949,1.0349828004837036,0.6032216548919678
4.4302897453308105,2.04936146736145,1.6442172527313232
4.634485244750977,2.899577379226685,1.126846432685852
5.543176174163818,4.597812175750732,1.181969165802002
6.734930515289307,4.089136600494385,2.3023810386657715
7.21848201751709,3.2251968383789062,4.964814186096191
8.325080871582031,0.6881906986236572,7.318075180053711
9.276613235473633,-1.4705469608306885,9.970078468322754
7.994585037231445,-2.240795135498047,5.420773506164551
8.217823028564453,-6.291771411895752,5.5124125480651855
10.611993789672852,-10.104576110839844,12.769166946411133
6.656320571899414,-9.733553886413574,16.332014083862305
2.4380416870117188,-10.063642501831056,7.878699779510498
-0.0816767737269401,-11.249238967895508,0.0322864837944507
2.8942790031433105,-6.295619964599609,10.347716331481934
-1.866438627243042,-0.8886141180992126,13.912389755249023
0.0288011655211448,-1.628133773803711,10.747403144836426
-0.7095043063163757,-4.771270751953125,8.459187507629395
-1.5523641109466553,-1.4452356100082395,9.506035804748535
-1.9891642332077024,-1.0292266607284546,8.956961631774902
-2.271079540252685,-1.1604031324386597,8.073258399963379
-1.0729840993881226,-0.5530171394348145,7.0035481452941895
0.1392024606466293,0.0044335015118122,5.197380065917969
0.6615761518478394,-0.5076243281364441,3.40161395072937
1.3083761930465698,0.6292708516120911,2.5797104835510254
2.23203444480896,1.0911420583724976,1.0085711479187012
3.2272777557373047,1.7270750999450684,0.4567807018756866
3.911941289901733,2.1878981590271,-0.7554985880851746
4.796646118164063,2.074610948562622,-1.6328452825546265
5.690703392028809,1.26749587059021,-2.6673898696899414
7.1007890701293945,0.8243303298950195,-4.898810386657715
8.060774803161621,0.7393327355384827,-6.260035991668701
8.225746154785156,0.2652123272418976,-8.58038330078125
7.539611339569092,-0.0402870699763298,-11.853673934936523
6.611711502075195,-0.9277517795562744,-14.83328914642334
5.396928787231445,-1.975885391235352,-18.074047088623047
4.211516857147217,-1.2663462162017822,-20.5137939453125
2.81862473487854,-0.7360574007034302,-21.489826202392575
2.683111906051636,-1.460206151008606,-20.016691207885746
3.8144609928131104,-3.2754156589508057,-17.224428176879883
6.887472629547119,-7.382338523864746,0.6463707685470581
11.278295516967772,3.1895318031311035,-2.912061214447021
6.516660690307617,5.1894636154174805,-4.921680450439453
3.4120428562164307,-3.962162494659424,-9.307733535766602
2.1697585582733154,4.304129123687744,-1.977947473526001
2.9155802726745605,-2.998307943344116,-4.548290729522705
2.294534921646118,-0.4631056189537048,-3.43041467666626
1.3926289081573486,-0.6015481352806091,-2.19346022605896
1.3087798357009888,1.2319722175598145,-1.1502453088760376
0.961890459060669,0.813207745552063,-0.3150926828384399
0.5112751722335815,-1.0906095504760742,-1.5186827182769775
0.4717346429824829,-2.436652183532715,-0.8805941343307495
0.1040682345628738,-1.783362865447998,-0.442666232585907
0.049162209033966,0.0989381596446037,0.169190913438797
-0.1250276267528534,0.3687361180782318,0.5809375047683716
0.0940452441573143,-0.877290666103363,1.0603599548339844
0.1798444837331771,-2.014636278152466,0.8285871744155884
0.1331121772527694,-1.5763630867004397,0.7152702212333679
0.0957067683339119,-0.2573859691619873,0.9121849536895752
0.4287557303905487,-0.1030077189207077,0.5950421690940857
0.4246691167354584,-1.972946047782898,1.932362675666809
0.8581631183624268,-0.2531270384788513,1.7060846090316772
1.4791408777236938,-0.8280112743377686,1.656420350074768
1.845810055732727,-0.0158881396055221,1.0815365314483645
3.1404359340667725,1.002146601676941,1.912264108657837
3.754592895507813,1.84539794921875,1.4372620582580566
5.062010288238525,1.871627688407898,2.268784999847412
4.683051109313965,1.731170892715454,3.137578010559082
5.418231964111328,2.1753532886505127,4.327592372894287
6.031298637390137,1.7809714078903198,5.856936931610107
7.316597461700439,0.646030068397522,7.290253162384033
7.5589599609375,-0.2851784825325012,6.851398944854736
7.714956760406494,-6.037395000457764,6.244152069091797
10.378377914428713,-8.24092960357666,11.498213768005373
9.215648651123049,-11.714107513427734,12.37119197845459
6.078144073486328,-11.535433769226074,8.482439994812012
1.381837248802185,-9.2528657913208,2.8158106803894043
2.494103193283081,-5.357440948486328,9.222189903259276
-1.09238600730896,-2.363921880722046,12.053943634033203
-0.1713592112064361,-3.683859825134277,9.171263694763184
-0.3294287323951721,-6.511618614196777,6.9969024658203125
-1.1062496900558472,-1.9602293968200684,7.838257789611816
-1.3693299293518066,-0.6649577617645264,7.604987621307373
-2.0344300270080566,-0.9043526649475098,5.608799457550049
-1.5061452388763428,0.1245534718036651,5.70311450958252
-0.7654186487197876,0.2483196258544922,4.871359348297119
-0.236960768699646,0.1693336963653564,2.881153345108032
0.084424503147602,1.2117635011672974,2.245893239974976
0.5916491746902466,1.8532770872116089,1.3776153326034546
1.1836155652999878,2.197472095489502,0.4011684060096741
1.878795027732849,2.7876665592193604,-0.3729869127273559
2.965286493301392,2.973552703857422,-1.169702172279358
4.0839362144470215,3.3636693954467773,-1.801934599876404
5.237693786621094,3.4033331871032715,-2.422948837280273
6.21097469329834,2.308788299560547,-4.228645324707031
6.945955276489258,1.183388113975525,-6.5785651206970215
7.336422920227051,0.2103041708469391,-8.509056091308594
7.356736660003662,-1.2377290725708008,-10.60799789428711
6.882065773010254,-2.255970001220703,-13.349090576171877
5.792081832885742,-2.250365734100342,-16.465234756469727
4.118800640106201,-2.5002291202545166,-18.864450454711918
3.01999831199646,-2.3868000507354736,-20.05985450744629
3.0126776695251465,-2.4206042289733887,-18.6757755279541
3.4966933727264404,-3.898430585861206,-15.57904815673828
3.474082946777344,-5.6547627449035645,-13.04183578491211
5.275431156158447,-3.703251361846924,7.266068458557129
5.815794467926025,5.783440113067627,6.271308422088623
5.9749250411987305,2.302325963973999,-8.235540390014648
5.044968605041504,-5.538590908050537,-7.535177230834961
0.818079948425293,1.3759409189224243,-0.7805827856063843
2.7807531356811523,-2.403764486312866,-5.086397647857666
1.9879945516586304,-0.2530291378498077,-2.1612303256988525
0.9827565550804138,0.896012544631958,-2.412561416625977
0.6573801636695862,0.0425651930272579,-1.1563233137130735
0.8619454503059387,0.2804465889930725,-0.495981752872467
0.6868691444396973,-0.0879001468420028,-1.059145450592041
0.3051781356334686,-1.5900464057922363,-1.0434834957122805
-0.2386690974235534,-1.645700216293335,-0.3256303071975708
-0.3519385159015655,-0.254551887512207,0.2467807084321975
0.2341241687536239,-0.5344482064247131,0.6294680237770081
0.157071828842163,-0.574933648109436,1.7046372890472412
-0.3960463106632232,-1.4574408531188965,0.3874151110649109
-0.1159730479121208,-0.98186993598938,0.1993449181318283
0.0186125636100769,0.0332138165831565,0.2080471217632293
-0.005284353159368,0.7221909761428833,1.0981051921844482
0.0954618155956268,-0.5860111117362976,1.6861412525177002
0.3316943347454071,-1.2969056367874146,1.4673221111297607
2.3034491539001465,-4.56707763671875,2.610326051712036
2.467611789703369,0.0983316674828529,0.4857745468616485
4.508930206298828,0.9634370803833008,1.238942265510559
4.859649181365967,2.506156206130981,2.0647947788238525
5.833388805389404,4.455344200134277,1.5115602016448977
7.119541645050049,5.094120979309082,3.5868656635284424
7.332180023193359,3.450892210006714,5.325587749481201
8.999228477478027,1.4621424674987793,7.899052143096924
9.7338228225708,0.3194990754127502,11.326014518737791
9.258047103881836,0.0730481892824173,7.858370780944824
9.089591026306152,-9.700861930847168,5.788928985595703
13.169909477233888,-13.894814491271973,13.542720794677734
6.430344104766846,-12.609243392944336,16.966825485229492
-0.2724124789237976,-7.791157245635986,2.4979913234710693
1.5566668510437012,-7.251667499542236,8.790315628051758
-1.871375679969788,-1.6794663667678833,14.503945350646973
-1.1439749002456665,-0.1882316023111343,12.14242935180664
-1.0400328636169434,-3.3906822204589844,9.5101957321167
-2.0110037326812744,-1.7064586877822876,9.18726634979248
-2.028486967086792,-1.6755573749542236,7.931651592254639
-2.374682903289795,-1.7497577667236328,6.522769927978516
-1.7050491571426392,-1.2816306352615356,6.314935207366943
-0.4519922137260437,-1.561347723007202,4.63435173034668
0.1473194062709808,-1.1264580488204956,2.730458974838257
0.5846161842346191,-0.5285434126853943,1.5027434825897217
1.42119300365448,0.4501986503601074,0.4612824618816376
2.2260334491729736,0.5488205552101135,-0.5263899564743042
3.236684083938598,0.6596855521202087,-1.3550018072128296
4.292518138885498,1.664316177368164,-2.107240676879883
5.585995674133301,2.8228914737701416,-2.4255733489990234
6.267034530639648,2.34567666053772,-3.528763771057129
6.630178928375244,0.795796811580658,-7.060787677764893
7.218419551849365,-0.4120242893695831,-10.200511932373049
7.384676456451416,-0.0936779081821441,-10.70376968383789
7.152858257293701,-1.0902724266052246,-13.829627990722656
6.003839015960693,-1.53972589969635,-17.13676643371582
4.493239879608154,-1.013474941253662,-19.379854202270508
3.657551527023315,-0.6408276557922363,-20.154417037963867
3.1641881465911865,-1.1078152656555176,-19.52223014831543
3.782158851623535,-1.8397375345230105,-17.559219360351562
4.313127517700195,-2.9500503540039062,-15.22262477874756
5.466805458068848,-1.685386061668396,-1.24723482131958
7.012797832489014,5.118414402008057,14.13051414489746
3.899230480194092,5.717538356781006,-5.907810688018799
3.556222915649414,-1.5480962991714478,-11.483763694763184
3.6372787952423096,1.2105883359909058,-0.6202837228775024
2.6833655834198,-1.2596899271011353,-4.39414119720459
2.16430926322937,-0.9733976721763612,-2.8162808418273926
0.2552464604377746,1.0082926750183103,-1.890921950340271
0.5503382682800293,-0.7548889517784119,-1.3944411277770996
1.2774487733840942,0.4271202385425567,-0.1103139445185661
1.244906306266785,-0.4103624820709228,-1.5095912218093872
0.8639583587646484,-1.459468960762024,-1.183509111404419
0.0873127952218055,-0.8307064771652222,-0.8879297375679016
0.5453544855117798,0.2900424301624298,0.4226656556129455
0.505927324295044,-0.5773710012435913,0.5623487830162048
0.2357830703258514,-1.2154337167739868,1.4983723163604736
-0.5928164124488831,-1.982881546020508,0.831760048866272
-0.3842620253562927,-2.004746437072754,0.5427616834640503
-0.0467940233647823,-2.123962163925171,1.6160423755645752
-0.4295239746570587,-0.3064999878406524,1.3138521909713743
0.2528461813926697,-0.8983638882637024,0.9616792798042296
0.8848156929016113,-0.3951274752616882,1.331900715827942
1.4867445230484009,0.2507311403751373,2.0205087661743164
2.4251129627227783,0.9993492960929872,1.417998194694519
3.582070827484131,1.8841744661331177,1.018157720565796
5.010776042938232,3.0855510234832764,1.819029688835144
5.295175075531006,3.3352692127227783,2.8022427558898926
5.2778096199035645,3.142566204071045,3.8299176692962646
5.385893821716309,2.7137701511383057,5.0888752937316895
6.756608963012695,2.054647207260132,6.596330165863037
7.49891996383667,0.3599844574928283,8.340948104858398
7.000229358673096,-2.850785255432129,3.1741538047790527
10.591623306274414,-9.066699981689451,10.78953456878662
10.943788528442385,-8.740731239318848,12.86871337890625
7.888051986694336,-9.809255599975586,15.19425106048584
2.160263776779175,-9.327269554138184,4.399961471557617
1.1591259241104126,-9.184307098388672,1.6110103130340576
3.490812063217163,-2.907457113265991,12.451435089111328
-0.4961091876029968,-1.8981759548187256,12.23499870300293
0.341450572013855,-3.6531052589416495,10.21812629699707
-1.0233919620513916,-4.674415588378906,8.874898910522461
-1.9312528371810915,-2.0059406757354736,8.831011772155762
-2.1328604221343994,-0.8447707295417786,8.619659423828125
-2.218341827392578,0.3046614229679107,8.055527687072754
-0.8150618076324463,0.7995637059211731,7.434391021728516
0.1946651339530944,1.2325257062911987,5.691911697387695
0.3688414096832275,0.9018753170967102,4.1904072761535645
0.7077230215072632,1.9956753253936768,3.1981475353240967
1.592057704925537,2.1137561798095703,2.117330312728882
2.664288282394409,2.1642439365386963,1.1094191074371338
4.0550079345703125,2.37764573097229,0.2819227576255798
5.0955305099487305,2.7404661178588867,-1.368791580200195
6.48330020904541,2.2274539470672607,-3.03916335105896
7.953111171722412,1.7564924955368042,-5.551015377044678
9.155698776245115,0.4933128654956817,-7.664277076721191
10.076067924499512,-1.0660929679870603,-9.893354415893556
9.407690048217772,-2.0077357292175293,-13.23873233795166
7.529802799224853,-2.531083822250366,-17.124906539916992
5.1872406005859375,-1.6032443046569824,-21.593664169311523
3.646952152252197,-0.7689160108566284,-23.16861915588379
2.9202229976654053,-1.3686459064483645,-22.326351165771484
3.4763143062591557,-3.019851922988892,-19.96639633178711
4.439123630523682,-4.152341842651367,-15.763826370239258
4.181248664855957,-4.9072465896606445,-12.413772583007812
6.739313125610352,-3.45241641998291,12.465158462524414
4.47887134552002,9.880830764770508,5.672852993011475
5.935518741607666,0.4805390238761902,-10.027636528015137
3.649199724197388,-2.861351728439331,-6.2333502769470215
0.0710426270961761,2.5587639808654785,-0.4833855926990509
2.716695547103882,-3.3021199703216557,-6.081229209899902
4.103240489959717,0.7032904028892517,-3.423181295394897
1.899617910385132,0.7504002451896667,-1.6096259355545044
-0.435473769903183,0.2795431911945343,-1.2713489532470703
-0.0430925488471984,0.894155740737915,-0.2923256456851959
0.5309793949127197,-1.5394316911697388,-1.8620470762252808
0.2231488078832626,-3.40834641456604,-0.379161924123764
-0.1098897531628608,-2.6685023307800293,-0.6694433689117432
-0.3629082441329956,-0.1963264495134353,-0.0208157654851675
-0.6145412921905518,0.0097651965916156,0.2088502794504165
-0.3266729116439819,-0.7302209734916687,0.6487436890602112
0.1406857222318649,-1.3491723537445068,0.5155478715896606
0.0426485054194927,-0.6145882606506348,0.934046983718872
-0.2855053842067718,0.4987121820449829,0.2859752774238586
-0.184332475066185,1.1541523933410645,0.6995639801025391
-0.312584638595581,0.2460454106330871,0.958343505859375
0.2664196193218231,-1.1107877492904663,2.2276923656463623
1.20993173122406,-4.770887851715088,2.9027953147888184
0.6406940221786499,-1.965662240982056,0.1596593558788299
3.5538170337677,0.6141796112060547,0.1154580563306808
3.392414331436157,2.580916166305542,1.629105567932129
4.399714469909668,2.729434967041016,0.8103572130203247
4.855623722076416,3.599238157272339,1.6716923713684082
4.989742279052734,3.490487098693848,2.9187591075897217
5.102255821228027,2.534856081008911,4.028946876525879
5.52827787399292,1.0954796075820925,6.067259788513184
6.757387638092041,0.021649420261383,7.392855644226074
7.039056301116943,-1.235986351966858,7.955129623413086
6.145971298217773,-3.647016048431397,3.3276922702789307
8.287277221679688,-9.43404483795166,10.62058162689209
5.8207106590271,-5.60150957107544,13.646062850952148
7.120361328125,-9.888129234313965,13.524511337280272
3.527789354324341,-12.120426177978516,3.675708770751953
2.9858181476593018,-8.652729034423828,3.350480556488037
3.064136266708374,-2.6329619884490967,14.476591110229492
-1.7619565725326538,-3.2429471015930176,12.619545936584473
-0.5452204942703247,-5.844639301300049,8.982487678527832
-1.0473685264587402,-3.689576148986816,8.808357238769531
-1.3322536945343018,-0.1341677904129028,9.614625930786133
-1.523734450340271,0.2184223234653473,8.7037935256958
-1.702889919281006,0.3269380629062652,7.7735114097595215
-0.7837463617324829,0.9335783123970032,6.043765544891357
-0.2774367332458496,0.5859639644622803,4.19498872756958
0.071622833609581,0.5306074619293213,3.36246395111084
0.5019689202308655,0.4824448227882385,2.3456149101257324
1.3918675184249878,-0.0859699100255966,0.8133655786514282
2.5517361164093018,0.236855462193489,0.4013880789279938
3.4602153301239014,0.1303365975618362,-0.6597621440887451
4.471437454223633,0.2812395691871643,-2.174013614654541
5.380355358123779,0.4630882143974304,-3.781332492828369
6.393908500671387,1.3574323654174805,-4.503539085388184
7.766240119934082,2.023430585861206,-5.416130065917969
8.542862892150879,1.1751034259796145,-7.611579418182373
8.585030555725098,-0.4476485848426819,-10.32085418701172
7.838706016540527,-1.6160751581192017,-13.221415519714355
6.561900615692139,-1.5361212491989136,-17.651052474975586
4.62352180480957,0.1721571683883667,-20.7315616607666
3.169956684112549,0.5893294811248779,-22.23892974853516
2.467266082763672,-1.110255479812622,-21.421730041503903
3.3542733192443848,-2.452831506729126,-18.32075881958008
4.120621204376221,-3.5865769386291504,-14.590993881225586
4.087392330169678,-3.2617459297180176,-11.316156387329102
3.606211423873901,-1.328094720840454,-1.5439332723617554
6.212786674499512,4.03798246383667,25.04378318786621
3.56147575378418,6.279491424560547,-10.520625114440918
8.37526798248291,-4.856145858764648,-12.331541061401367
0.6116573810577393,5.193284034729004,2.844266414642334
0.1163014993071556,-2.8080222606658936,-5.5378923416137695
3.7172329425811768,-3.0572309494018555,-4.504531383514404
1.4909955263137815,2.669071912765503,-0.5344383716583252
-1.1223491430282593,-2.228295087814331,-1.313496708869934
0.1845860332250595,0.1043960303068161,-0.1592630743980407
0.2316676378250122,-0.87811279296875,-1.3793224096298218
0.122027039527893,-3.1042869091033936,-1.6057995557785034
-0.1374646127223968,-0.9192689657211304,-0.4032271206378937
-0.4994517266750335,0.4940575361251831,0.0804920867085456
-0.5895582437515259,0.4174395501613617,0.5997329354286194
-0.6902249455451965,-0.9753052592277528,0.7322782278060913
-0.0183056332170963,-1.2018038034439087,0.7947472333908081
-0.459945410490036,-0.6923575401306152,0.1887470930814743
-0.5594467520713806,0.8006583452224731,0.8321322798728943
-0.973595142364502,0.9372791051864624,1.1254525184631348
-0.9899192452430724,-0.4418415129184723,2.293635606765747
0.5054761171340942,-0.61546790599823,1.4898653030395508
1.841801404953003,-4.127171039581299,0.6933441162109375
3.1872687339782715,2.526366949081421,-1.467664361000061
4.257713794708252,0.8846313953399658,1.5732784271240234
4.496269702911377,1.5020991563796997,2.351478099822998
6.04093599319458,3.964462995529175,1.6332932710647583
7.152152061462402,4.77492618560791,3.862648725509644
7.909169673919678,3.3430190086364746,6.386759281158447
8.918124198913574,1.906402349472046,9.067364692687988
9.708980560302734,0.7618570327758789,13.008512496948242
10.205323219299316,-2.3809170722961426,8.970640182495117
12.91030979156494,-17.950674057006836,6.090536117553711
11.259987831115724,-13.78709316253662,15.286505699157717
-0.1444003582000732,-6.190340518951416,7.811275005340576
-0.0416540652513504,-6.219452857971191,7.615362644195557
-0.496509313583374,-3.869050264358521,16.159143447875977
-2.8794095516204834,-0.6388474702835083,12.548831939697266
-0.718823254108429,-3.1644275188446045,9.66822624206543
-2.075157165527344,-3.4162685871124268,7.645712375640869
-1.8211095333099363,-1.6056557893753052,7.620443820953369
-2.719618797302246,-1.6610243320465088,6.592021465301514
-2.943938970565796,-1.4012086391448977,6.574347019195557
-1.7397056818008425,-1.3873448371887207,5.8276848793029785
-1.162463903427124,-0.0741148144006729,5.232830047607422
-0.889034628868103,0.6456180214881897,4.109579086303711
0.0370945557951927,1.6723533868789673,2.9782958030700684
1.1536455154418943,2.12030291557312,1.724888801574707
2.153849840164185,2.48919415473938,0.3662614524364471
