PacketCounter,SampleTimeFine,Quat_W,Quat_X,Quat_Y,Quat_Z,Acc_X,Acc_Y,Acc_Z,Gyr_X,Gyr_Y,Gyr_Z 
1,850265890,0.6871112,0.33372962,-0.5037727,0.4033803,0.43617528676986694,-0.9245502352714539,-0.7053341865539551,-0.6264393925666809,0.46365928649902344, -1.125840425491333
2,850282557,0.6868935,0.3342518,-0.5038817,0.40318274,9.50305461883545,0.5381434559822083,2.6068670749664307,1.4028651714324951,-0.3560037314891815, -0.11405333876609802
3,850299224,0.6865746,0.33479422,-0.5041678,0.40291813,9.489394187927246,0.5333951115608215,2.628666639328003,0.9454735517501831,-0.6508698463439941, -0.05392753705382347
4,850315891,0.68639636,0.3350904,-0.5044001,0.4026849,9.509476661682129,0.5622226595878601,2.6302692890167236,0.16104625165462494,-0.9307014346122742, -0.09264113008975983
5,850332558,0.68632305,0.33532816,-0.5045279,0.40245166,9.4954833984375,0.5617432594299316,2.583282470703125,-0.17264239490032196,-0.9448524117469788, 0.032893106341362
6,850349225,0.686194,0.33560655,-0.5046947,0.40223062,9.521787643432617,0.5436263084411621,2.6142542362213135,0.05052744969725609,-1.0281322002410889, 0.06070849671959877
7,850365892,0.6860327,0.335893,-0.50476336,0.40218043,9.507742881774902,0.5295377373695374,2.610477924346924,0.9898859858512878,-0.837228000164032, 0.08757621794939041
8,850382559,0.68587244,0.3361236,-0.5048334,0.40217325,9.490392684936523,0.5396591424942017,2.6099936962127686,1.1738747358322144,-0.9188300371170044, 0.059748027473688126
9,850399226,0.6857401,0.33628255,-0.5049014,0.40218073,9.501774787902832,0.538329541683197,2.6167314052581787,0.8717474341392517,-0.8581534624099731, 0.16257019340991974
10,850415893,0.68563515,0.3364087,-0.5049364,0.40221003,9.508392333984375,0.5621299743652344,2.5834922790527344,0.8161806464195251,-0.6700025796890259, 0.1263410449028015
11,850432560,0.6855547,0.33651146,-0.50498027,0.40220618,9.554266929626465,0.5349648594856262,2.6211204528808594,0.5592213273048401,-0.5526580214500427, 0.11461042612791061
12,850449227,0.6854872,0.3365762,-0.50501215,0.4022271,9.5143461227417,0.5516299605369568,2.610001802444458,0.4607788622379303,-0.38395997881889343, 0.18298353254795074
13,850465894,0.6854792,0.33655468,-0.5050918,0.40215856,9.509725570678711,0.5523452162742615,2.629181146621704,0.044598110020160675,-0.4036945700645447, 0.17778414487838745
14,850482561,0.68546903,0.3365405,-0.5051841,0.40207165,9.501761436462402,0.5001862049102783,2.577908992767334,0.09239140152931213,-0.6446587443351746, 0.1402999609708786
15,850499228,0.68530107,0.3367216,-0.50517946,0.4022123,9.54452133178711,0.497511625289917,2.641091823577881,0.5014389753341675,-0.7933148741722107, 0.06255261600017548
16,850515895,0.68496853,0.33710605,-0.5050216,0.40265477,9.513317108154297,0.5183395147323608,2.631410598754883,0.80048006772995,-0.7477371096611023, 0.0795082151889801
17,850532562,0.6848636,0.33719358,-0.5050502,0.40272427,9.534022331237793,0.562933623790741,2.6070470809936523,0.563011884689331,-0.7427170276641846, 0.09167425334453583
18,850549229,0.68581754,0.33592147,-0.50597495,0.40099928,9.507954597473145,0.5695860981941223,2.5750980377197266,-0.08409929275512695,-0.7015958428382874, 0.19917075335979462
19,850565896,0.6840586,0.33803993,-0.5046182,0.40392253,9.515497207641602,0.5536790490150452,2.587926149368286,-0.30484235286712646,-0.5024827122688293, 0.3738493323326111
20,850582563,0.68541074,0.33626166,-0.505825,0.40159857,9.536046028137207,0.5660885572433472,2.5890846252441406,-0.420112282037735,-0.230309396982193, 0.378254771232605
21,850599230,0.68583214,0.33562765,-0.50623274,0.40089512,9.554688453674316,0.5296077132225037,2.57651424407959,-0.5824584364891052,0.019689762964844704, 0.5675966739654541
22,850615897,0.6856656,0.33572188,-0.50611454,0.40124997,9.51706600189209,0.5235490202903748,2.5747482776641846,-0.3056619167327881,0.37767842411994934, 0.7875456213951111
23,850632564,0.6856788,0.33557904,-0.50612426,0.4013346,9.519346237182617,0.5732846260070801,2.570524215698242,-0.5028412938117981,0.5967695116996765, 0.8405383825302124
24,850649231,0.68512875,0.33613667,-0.50562745,0.4024322,9.552491188049316,0.5104791522026062,2.6051924228668213,-0.6513822078704834,0.9098078608512878, 0.9733914136886597
25,850665898,0.6849718,0.3362351,-0.505384,0.40292275,9.534368515014648,0.4841669499874115,2.603895664215088,-0.02275688387453556,1.3083927631378174, 0.9567944407463074
26,850682565,0.6850298,0.33604264,-0.5053414,0.403038,9.504265785217285,0.5124615430831909,2.6208672523498535,-0.46903255581855774,1.2250617742538452, 0.9235234260559082
27,850699232,0.6857674,0.33497548,-0.5059174,0.40194803,9.479077339172363,0.5128859281539917,2.5920796394348145,-0.7840816378593445,0.9102626442909241, 0.9130927920341492
28,850715899,0.68565214,0.33498436,-0.5058227,0.40225625,9.513495445251465,0.5420796275138855,2.63834810256958,-0.9070097804069519,0.5922616720199585, 0.7775952219963074
29,850732566,0.68500096,0.33567646,-0.50533044,0.40340582,9.493147850036621,0.47618773579597473,2.6975326538085938,-1.0088841915130615,0.163966104388237, 0.6030189394950867
30,850749233,0.68523526,0.3352758,-0.5056325,0.4029623,9.491053581237793,0.45354175567626953,2.6969680786132812,-0.3014999330043793,-0.35551711916923523, 0.5346203446388245
31,850765900,0.68542886,0.33494976,-0.50597835,0.40246993,9.43530559539795,0.4852152466773987,2.6635730266571045,0.3320494294166565,-1.0435383319854736, 0.35699620842933655
32,850782567,0.6853714,0.33497947,-0.5061317,0.40235013,9.499359130859375,0.505969226360321,2.6185736656188965,0.8772797584533691,-1.3562564849853516, 0.15246599912643433
33,850799234,0.6853434,0.33496264,-0.5063449,0.40214372,9.501019477844238,0.4718194603919983,2.642957925796509,0.9377385377883911,-1.5572009086608887, 0.19055207073688507
34,850815901,0.68510014,0.3351976,-0.50642467,0.40226203,9.51168441772461,0.4857339560985565,2.646728277206421,0.9688579440116882,-1.8032491207122803, 0.26000088453292847
35,850832568,0.6853326,0.3348036,-0.506921,0.40156814,9.518637657165527,0.5826273560523987,2.601529121398926,0.3735547959804535,-1.8503509759902954, 0.29009580612182617
36,850849235,0.6853153,0.33470306,-0.50720173,0.40132713,9.524293899536133,0.5604456067085266,2.6105453968048096,-0.36235567927360535,-1.7228511571884155, 0.3102530539035797
37,850865902,0.68566054,0.3341417,-0.50779754,0.4004508,9.502870559692383,0.4715389311313629,2.586822271347046,0.02873103693127632,-1.7826820611953735, 0.42949289083480835
38,850882569,0.68426377,0.33580464,-0.5069458,0.40252268,9.53184986114502,0.4539816081523895,2.5890891551971436,0.901611864566803,-1.872800588607788, 0.47258633375167847
39,850899236,0.68393296,0.33616126,-0.506954,0.40277663,9.51663875579834,0.446932315826416,2.5597293376922607,1.3863579034805298,-1.8267490863800049, 0.30979201197624207
40,850915903,0.6830013,0.33732823,-0.5064119,0.4040618,9.519482612609863,0.4229501187801361,2.5720770359039307,2.1571972370147705,-1.6898746490478516, 0.13921141624450684
41,850932570,0.68243325,0.33807382,-0.5061233,0.40475944,9.525765419006348,0.45689037442207336,2.580897569656372,2.1518189907073975,-1.5033628940582275, -0.09531766921281815
42,850949237,0.6822176,0.33841264,-0.5060703,0.4049059,9.534112930297852,0.458452433347702,2.5799453258514404,1.8311737775802612,-1.2628726959228516, -0.3676318824291229
43,850965904,0.6825023,0.33814916,-0.50638247,0.40425575,9.555889129638672,0.4706849753856659,2.57775616645813,1.4457664489746094,-1.0109204053878784, -0.5782451033592224
44,850982571,0.68310684,0.3374879,-0.5069849,0.4030302,9.519735336303711,0.45309045910835266,2.582000970840454,1.1617088317871094,-1.207421064376831, -0.7391824722290039
45,850999238,0.6844197,0.3359268,-0.50822675,0.40053523,9.529780387878418,0.459012895822525,2.6187353134155273,1.4244951009750366,-1.5197936296463013, -0.7611453533172607
46,851015905,0.68278253,0.33808985,-0.50702137,0.40302932,9.524669647216797,0.5680317282676697,2.591423749923706,1.6306005716323853,-1.6941391229629517, -0.7357631921768188
47,851032572,0.6818252,0.3393899,-0.5063909,0.4043477,9.531137466430664,0.5790762901306152,2.547109365463257,1.7280184030532837,-1.7475031614303589, -0.7184233069419861
48,851049239,0.68247557,0.33868968,-0.5071428,0.40289328,9.491951942443848,0.5022199153900146,2.512692451477051,2.457019805908203,-2.0228400230407715, -0.6977795958518982
49,851065906,0.68232983,0.3389883,-0.5072837,0.4027113,9.535659790039062,0.4669487476348877,2.5620012283325195,3.123142719268799,-2.390728235244751, -0.6189309358596802
50,851082573,0.6853617,0.33523604,-0.5101027,0.39710397,9.519979476928711,0.4995081126689911,2.520217180252075,3.3079888820648193,-2.3274002075195312, -0.5192974805831909
51,851099240,0.6844826,0.33646134,-0.50963616,0.39818123,9.523345947265625,0.5642997622489929,2.5425755977630615,2.7569189071655273,-2.416916608810425, -0.6619601845741272
52,851115907,0.6848268,0.33613846,-0.5101716,0.3971754,9.524802207946777,0.5166444182395935,2.4950473308563232,2.5218582153320312,-2.29710054397583, -0.8170578479766846
53,851132574,0.6812766,0.34080514,-0.5073456,0.40288296,9.546945571899414,0.46710577607154846,2.538755178451538,2.673229455947876,-1.9586799144744873, -0.9069840312004089
54,851149241,0.680829,0.34151492,-0.50711435,0.4033294,9.51557731628418,0.4794672429561615,2.4616687297821045,2.3242950439453125,-1.7391408681869507, -0.8998510837554932
55,851165908,0.68079364,0.34172863,-0.50719875,0.40310213,9.547584533691406,0.5281910300254822,2.5226709842681885,2.423428773880005,-1.5936479568481445, -1.005452275276184
56,851182575,0.6796881,0.34327227,-0.50634056,0.4047315,9.560943603515625,0.5167585015296936,2.5336320400238037,2.08035945892334,-1.300817847251892, -0.9367077350616455
57,851199242,0.6799751,0.34297904,-0.50676864,0.40396172,9.534501075744629,0.31160587072372437,2.438783884048462,3.42594838142395,-1.542204737663269, -0.04597480222582817
58,851215909,0.67923474,0.34401715,-0.5062707,0.40494746,9.521873474121094,0.628117561340332,2.5655887126922607,3.9625470638275146,-1.331770658493042, -0.21048516035079956
59,851232576,0.6793658,0.34399754,-0.50637776,0.4046101,9.667896270751953,0.7039493322372437,2.5318305492401123,2.583188056945801,-0.6132321357727051, -0.5938432812690735
60,851249243,0.67840934,0.34532765,-0.50550634,0.40616873,9.546969413757324,0.6225188374519348,2.5485615730285645,1.9314086437225342,-0.22452090680599213, -0.5860313773155212
61,851265910,0.6783168,0.3455409,-0.5053724,0.4063087,9.512451171875,0.5984375476837158,2.5339596271514893,1.8119640350341797,-0.07367492467164993, -0.307544469833374
62,851282577,0.67724043,0.34691313,-0.5044337,0.40809733,9.557516098022461,0.6311753988265991,2.528637170791626,1.1356991529464722,-0.0520193949341774, -0.04940690100193024
63,851299244,0.67754465,0.34655833,-0.5046855,0.40758207,9.519420623779297,0.6069360375404358,2.522996425628662,0.8067424297332764,-0.11529555916786194, -0.02215498499572277
64,851315911,0.6783774,0.34554923,-0.50538516,0.40618443,9.561140060424805,0.6065022945404053,2.532538890838623,1.417669415473938,-0.08331811428070068, 0.12445852160453796
65,851332578,0.6786472,0.34523094,-0.50562495,0.40570566,9.543404579162598,0.5802004933357239,2.516155481338501,1.4806766510009766,-0.1841168850660324, 0.16963931918144226
66,851349245,0.67877567,0.34507117,-0.5057566,0.40546283,9.57701301574707,0.5580573081970215,2.5316667556762695,1.5817314386367798,-0.18037743866443634, 0.3167586624622345
67,851365912,0.6788938,0.34491682,-0.5058726,0.4052512,9.5377779006958,0.5414889454841614,2.520364999771118,1.3211861848831177,-0.1148473396897316, 0.31413334608078003
68,851382579,0.6788521,0.3449493,-0.50586617,0.40530142,9.529692649841309,0.551793098449707,2.50813627243042,0.888843834400177,-0.17802107334136963, 0.2790695130825043
69,851399246,0.6785314,0.34529606,-0.5056496,0.40581316,9.5294828414917,0.583797812461853,2.5085415840148926,0.06311609596014023,-0.2596871554851532, 0.285165399312973
70,851415913,0.67898357,0.34469536,-0.5060518,0.4050655,9.564437866210938,0.528173565864563,2.5260508060455322,-0.3236164450645447,-0.08573850989341736, 0.11950244754552841
71,851432580,0.67931455,0.34420028,-0.50637954,0.4045216,9.541449546813965,0.5326582789421082,2.541170835494995,-0.27615609765052795,-0.07281690090894699, 0.43318116664886475
72,851449247,0.6787823,0.3447754,-0.5059569,0.40545312,9.548002243041992,0.5969119668006897,2.5054733753204346,-0.2712000608444214,0.0827738344669342, 0.5268596410751343
73,851465914,0.67821014,0.34535825,-0.505481,0.40650687,9.565947532653809,0.630698561668396,2.4862544536590576,-0.46047791838645935,0.40961748361587524, 0.8287436962127686
74,851482581,0.67840123,0.3449941,-0.5055964,0.40635362,9.566232681274414,0.5891662240028381,2.509930372238159,-0.28646525740623474,0.8184219002723694, 0.945652961730957
75,851499248,0.6783837,0.3449066,-0.5054929,0.40658563,9.52977466583252,0.5153455138206482,2.48830246925354,0.35361528396606445,1.0713216066360474, 1.0454014539718628
76,851515915,0.67821336,0.3450309,-0.5052487,0.40706792,9.490418434143066,0.4966045022010803,2.4923737049102783,0.8030158281326294,1.0727815628051758, 1.002922773361206
77,851532582,0.6771558,0.34629136,-0.5042468,0.408996,9.507819175720215,0.48808741569519043,2.5038764476776123,1.2371639013290405,0.9491234421730042, 0.8035536408424377
78,851549249,0.67717427,0.34624153,-0.5041886,0.4090792,9.52961254119873,0.5194854140281677,2.522381067276001,1.1644622087478638,0.6109589338302612, 0.5649970173835754
79,851565916,0.6772017,0.346214,-0.5041469,0.4091085,9.534110069274902,0.4901376962661743,2.5648460388183594,0.9919349551200867,0.37150582671165466, 0.24271231889724731
80,851582583,0.6771661,0.34627673,-0.5040984,0.40917405,9.485363960266113,0.4941209852695465,2.5655925273895264,0.7597430944442749,-0.04304214194417, 0.007843888364732265
81,851599250,0.6772517,0.3462048,-0.50417864,0.40899447,9.527799606323242,0.5365351438522339,2.5845932960510254,0.6594052910804749,-0.3140372931957245, -0.17831562459468842
82,851615917,0.67699456,0.34655553,-0.5040056,0.4093361,9.513313293457031,0.5266883373260498,2.519136428833008,0.6473802328109741,-0.588848888874054, -0.24065694212913513
83,851632584,0.676713,0.3469335,-0.5038503,0.40967274,9.52706241607666,0.5618259310722351,2.545793056488037,0.7986871600151062,-0.8430548310279846, -0.24011904001235962
84,851649251,0.67700547,0.34662724,-0.504186,0.4090352,9.505403518676758,0.5721234679222107,2.546409845352173,1.023310661315918,-0.9780465960502625, -0.3643406629562378
85,851665918,0.6766188,0.34716064,-0.50396794,0.40949112,9.5397367477417,0.518221914768219,2.5147244930267334,1.5920275449752808,-1.1205170154571533, -0.2734283208847046
86,851682585,0.67652524,0.34731758,-0.5040329,0.40943256,9.52276611328125,0.5324550271034241,2.525825262069702,2.1095454692840576,-1.2626804113388062, -0.07263761758804321
87,851699252,0.67619944,0.34773755,-0.5038941,0.40978506,9.553799629211426,0.6092445850372314,2.4870200157165527,1.6433172225952148,-1.1314793825149536, -0.006966653745621443
88,851715919,0.676366,0.34754732,-0.50414574,0.4093618,9.525107383728027,0.5568656325340271,2.4971704483032227,1.1360447406768799,-0.9419069886207581, -0.058102406561374664
89,851732586,0.67651653,0.34736112,-0.5043951,0.40896377,9.51999568939209,0.5106732845306396,2.4901022911071777,1.2982245683670044,-0.9368100762367249, 0.08669258654117584
90,851749253,0.67607,0.34790227,-0.50413436,0.40956324,9.562079429626465,0.5995684862136841,2.5328989028930664,0.8715552091598511,-0.8991080522537231, 0.04180632904171944
91,851765920,0.6759178,0.3480459,-0.50411475,0.40971622,9.531331062316895,0.5534536242485046,2.4949872493743896,0.17938494682312012,-0.7083063721656799, 0.15352891385555267
92,851782587,0.67586684,0.34804899,-0.5042035,0.40968865,9.49400806427002,0.5765389204025269,2.5012171268463135,0.7020504474639893,-0.7580462098121643, 0.38098251819610596
93,851799254,0.67552155,0.34837118,-0.5040936,0.41011938,9.546433448791504,0.647007167339325,2.5377862453460693,0.3310377299785614,-0.9379370808601379, 0.5478620529174805
94,851815921,0.67513907,0.34874234,-0.50396085,0.4105965,9.55555534362793,0.5604760646820068,2.5627145767211914,0.4026508629322052,-1.019359827041626, 0.5319821834564209
95,851832588,0.6750119,0.34887713,-0.5040578,0.41057208,9.495325088500977,0.40942856669425964,2.5147008895874023,1.7411960363388062,-1.421607255935669, 0.2522915005683899
96,851849255,0.6748071,0.34913003,-0.5042415,0.4104683,9.562067031860352,0.3028755486011505,2.608663320541382,3.191476583480835,-2.5470166206359863, 0.2059965431690216
97,851865922,0.6740498,0.35005867,-0.50420856,0.4109617,9.503634452819824,0.33143314719200134,2.740050792694092,3.106468677520752,-4.369309425354004, -0.19788376986980438
98,851882589,0.6722332,0.3522654,-0.503472,0.41295007,9.548223495483398,0.10884354263544083,2.5150883197784424,4.03704309463501,-5.6937432289123535, -0.14701694250106812
99,851899256,0.6694509,0.35568392,-0.50184005,0.41651097,9.568028450012207,0.5780482888221741,2.3275206089019775,8.782694816589355,-5.212775230407715, 0.6791146397590637
100,851915923,0.6719206,0.35282472,-0.50434774,0.4119114,9.70253849029541,1.0625032186508179,2.419503688812256,3.0890390872955322,-3.5387792587280273, -1.019359827041626
101,851932590,0.67250055,0.352229,-0.50510836,0.41054055,9.564234733581543,0.6762827038764954,2.416107654571533,-0.5253036618232727,-2.688795804977417, -1.5338807106018066
102,851949257,0.6726454,0.35214475,-0.50537646,0.41004506,9.592521667480469,0.42850738763809204,2.4212968349456787,0.7737147212028503,-1.6422348022460938, -0.8575001955032349
103,851965924,0.67126715,0.35387856,-0.50433487,0.4120883,9.611176490783691,0.6890979409217834,2.4067063331604004,2.345258951187134,-1.266484022140503, -0.05666809901595116
104,851982591,0.671093,0.35404825,-0.5040899,0.41252586,9.704960823059082,0.8782557249069214,2.429142475128174,-0.12542538344860077,0.7072882652282715, 0.35055461525917053
105,851999258,0.6707439,0.35451826,-0.50302446,0.4139876,9.831463813781738,0.78236323595047,2.35160493850708,1.404350996017456,5.153205394744873, 1.0173301696777344
106,852015925,0.67045254,0.35473877,-0.50210977,0.41537887,9.471088409423828,0.6966058611869812,2.357884645462036,-0.28536391258239746,5.226905822753906, 1.826499581336975
107,852032592,0.67117524,0.35372496,-0.50212413,0.41505888,9.248332977294922,0.5186309814453125,2.2581846714019775,2.172194004058838,4.959906101226807, 2.417153835296631
108,852049259,0.6709564,0.35389525,-0.50152713,0.4159885,9.417582511901855,0.5458635091781616,2.4165139198303223,2.3077492713928223,3.3765928745269775, 1.827920913696289
109,852065926,0.6701093,0.3547223,-0.50047,0.41791824,9.544105529785156,0.40476834774017334,2.42419695854187,1.3717201948165894,3.2817747592926025, 2.230424404144287
110,852082593,0.67037165,0.3542397,-0.5005599,0.41779888,9.551103591918945,0.4008944630622864,2.6008636951446533,-0.2051321268081665,1.618665099143982, 1.3668409585952759
111,852099260,0.6707597,0.35365158,-0.5007191,0.41748363,9.545245170593262,0.3048558533191681,2.608672857284546,-1.0629525184631348,1.5954854488372803, 0.8314713835716248
112,852115927,0.6706985,0.35368526,-0.5005607,0.4177431,9.521042823791504,0.44651225209236145,2.5606918334960938,-0.8906176686286926,0.7262929081916809, 0.12454816699028015
113,852132594,0.66989595,0.3547682,-0.4997013,0.41913927,9.545754432678223,0.3074701726436615,2.564157009124756,-0.8492530584335327,0.4222189784049988, -1.0519392490386963
114,852149261,0.6715636,0.35311574,-0.5008575,0.41647735,9.504220008850098,0.15017472207546234,2.477175235748291,1.8101969957351685,0.005154556129127741, -2.0010435581207275
115,852165928,0.6721372,0.35298297,-0.5009903,0.41550395,9.531943321228027,0.2716418504714966,2.4316651821136475,4.740738391876221,-0.18918825685977936, -2.807741403579712
116,852182595,0.6721775,0.35364515,-0.5004696,0.41550317,9.606234550476074,0.4741957485675812,2.4466285705566406,5.416414737701416,0.5209559798240662, -3.58247447013855
117,852199262,0.6727105,0.3537568,-0.5001523,0.41492715,9.65343952178955,0.7196451425552368,2.512387990951538,3.655886650085449,1.7382508516311646, -4.094676494598389
118,852215929,0.6730992,0.3540291,-0.49954617,0.41479465,9.582300186157227,0.5897536873817444,2.5515389442443848,0.9137011766433716,2.8125503063201904, -4.47200345993042
119,852232596,0.6729982,0.3548778,-0.49839503,0.41561702,9.620124816894531,0.5016560554504395,2.5675384998321533,1.5734843015670776,3.8067197799682617, -4.049496173858643
120,852249263,0.6736481,0.35478264,-0.49780625,0.4153511,9.555377006530762,0.783224880695343,2.55552339553833,1.5022425651550293,4.564509868621826, -3.6514363288879395
121,852265930,0.6733363,0.35581174,-0.4961511,0.41695374,9.470990180969238,0.8777118921279907,2.496220827102661,0.4166097939014435,6.343107223510742, -3.4325759410858154
122,852282597,0.673657,0.35596988,-0.49513048,0.41751364,9.417277336120605,0.8332419991493225,2.5263755321502686,0.17323791980743408,6.226095676422119, -2.7256011962890625
123,852299264,0.67544967,0.35426626,-0.49558172,0.41552627,9.441834449768066,0.7218237519264221,2.6397640705108643,0.24295566976070404,5.261866569519043, -2.0843100547790527
124,852315931,0.67617595,0.35370013,-0.4953351,0.41512123,9.584538459777832,0.6873716711997986,2.778855800628662,0.6096911430358887,4.443822860717773, -1.2243767976760864
125,852332598,0.67491883,0.3555065,-0.4933413,0.4179882,9.582637786865234,0.8740342259407043,2.9018032550811768,2.310220956802368,4.873501777648926, -0.8374841213226318
126,852349265,0.6769116,0.3539529,-0.49291137,0.41658908,9.91639518737793,0.8611688017845154,3.078225612640381,9.204270362854004,11.315820693969727, -1.3542084693908691
127,852365932,0.67798465,0.35348484,-0.49129003,0.41715667,9.514511108398438,0.6418986320495605,2.695563554763794,12.69680118560791,14.430066108703613, 0.13104113936424255
128,852382599,0.67719144,0.35451907,-0.48922187,0.4199882,9.456754684448242,0.8946341276168823,2.8288490772247314,6.386279582977295,9.473187446594238, 2.42364764213562
129,852399266,0.67683923,0.35511947,-0.48690805,0.42272857,9.88408374786377,0.9836913347244263,2.9973678588867188,6.5744194984436035,13.33029842376709, 2.363509178161621
130,852415933,0.67770386,0.35374674,-0.4856056,0.42399055,9.71881103515625,1.0878254175186157,2.8296456336975098,-3.889483690261841,15.503873825073242, 3.7390027046203613
131,852432600,0.67820585,0.34794033,-0.4887035,0.4244329,9.604907989501953,0.8746035695075989,3.0384950637817383,-72.02180480957031,2.608889579772949, 16.940637588500977
132,852449267,0.6803825,0.34056908,-0.49402654,0.42074996,8.944709777832031,0.7541812062263489,2.187941789627075,-58.70315933227539,-4.620424747467041, 16.528226852416992
133,852465934,0.68112075,0.33671215,-0.4969475,0.41921672,8.935067176818848,0.7045758962631226,2.8331167697906494,-29.4655704498291,-3.666445255279541, 11.788101196289062
134,852482601,0.6811518,0.33473852,-0.49854532,0.41884956,9.342423439025879,0.4293440580368042,2.9317872524261475,-15.283151626586914,-2.817988872528076, 8.620237350463867
135,852499268,0.6812618,0.33327556,-0.4998696,0.41825876,9.214795112609863,0.058202218264341354,2.7474920749664307,-5.887630939483643,-2.9861342906951904, 7.0459465980529785
136,852515935,0.6806715,0.3332119,-0.50024474,0.41882142,9.291032791137695,0.026440849527716637,2.5838677883148193,1.2387776374816895,-2.628119468688965, 5.21548318862915
137,852532602,0.6803701,0.33339387,-0.50040907,0.4189699,9.41193675994873,0.023586243391036987,2.505187749862671,6.232563018798828,-2.1030077934265137, 2.6315197944641113
138,852549269,0.6792619,0.33554894,-0.49900767,0.42071533,9.618050575256348,-0.1653534322977066,2.5329811573028564,19.001094818115234,0.1368936449289322, -0.3706802725791931
139,852565936,0.67803776,0.33857659,-0.496927,0.42272258,9.629610061645508,-0.01372976042330265,2.837100028991699,29.461349487304688,1.1255983114242554, -2.469212770462036
140,852582603,0.67664677,0.342056,-0.49428847,0.42523637,9.532930374145508,0.2971886694431305,2.8374640941619873,30.234081268310547,2.8023011684417725, -3.9540507793426514
141,852599270,0.6759061,0.3444406,-0.49232674,0.42676225,9.480766296386719,0.3833968937397003,2.5724925994873047,23.668212890625,2.9658219814300537, -3.5872581005096436
142,852615937,0.67528075,0.34652185,-0.49059772,0.42805675,9.37513256072998,0.0858825296163559,2.491434097290039,20.737323760986328,2.6398603916168213, -3.3619155883789062
143,852632604,0.6735085,0.34969792,-0.48816836,0.4310331,9.220952033996582,-0.1068221926689148,2.587635040283203,20.451997756958008,2.0129501819610596, -2.162868022918701
144,852649271,0.672353,0.35179868,-0.48662412,0.43286955,9.27678108215332,0.16143235564231873,2.7671749591827393,16.95315933227539,0.9048528075218201, -0.835038959980011
145,852665938,0.6718794,0.35292065,-0.48584154,0.43357056,9.449260711669922,0.5207379460334778,2.8510310649871826,12.91502571105957,0.26739034056663513, -0.6326852440834045
146,852682605,0.6713446,0.35410094,-0.48491427,0.43447345,9.761112213134766,0.29592618346214294,3.0129594802856445,10.289630889892578,0.8130818605422974, -1.268392562866211
147,852699272,0.67100525,0.3551102,-0.484124,0.43505505,9.663924217224121,0.09852375090122223,2.9750070571899414,11.323793411254883,0.7640334963798523, -1.3465754985809326
148,852715939,0.6704495,0.3563307,-0.4831576,0.4359872,9.456501960754395,0.3257167637348175,3.050152063369751,11.879962921142578,0.9193106889724731, -1.012239933013916
149,852732606,0.6702514,0.35735092,-0.4819344,0.43680963,9.482336044311523,0.7577260136604309,2.946925401687622,10.806560516357422,3.6227707862854004, -2.47457218170166
150,852749273,0.6702173,0.35814062,-0.48081252,0.43745115,9.304522514343262,0.6422156691551208,2.5449233055114746,9.163362503051758,3.9808106422424316, -2.561065912246704
151,852765940,0.6701416,0.35906604,-0.47977665,0.4379457,9.321202278137207,0.468906432390213,2.524552345275879,10.992020606994629,2.805558443069458, -2.800839424133301
152,852782607,0.6700923,0.35988873,-0.47909334,0.43809372,9.359590530395508,0.06429589539766312,2.7299389839172363,9.11025333404541,0.7952296733856201, -3.0181498527526855
153,852799274,0.6698254,0.360512,-0.47868222,0.43843886,9.508758544921875,-0.4369280934333801,2.845003128051758,5.324400424957275,-0.2941747009754181, -1.1106308698654175
154,852815941,0.66983896,0.36039633,-0.47876686,0.43842056,9.58292007446289,-0.32686847448349,2.947129487991333,-0.9992538094520569,-0.2984391748905182, 0.10039537400007248
155,852832608,0.670683,0.35826957,-0.48038197,0.43710473,9.441930770874023,0.1290772706270218,2.8316972255706787,-18.61992835998535,-1.6047272682189941, 2.732372283935547
156,852849275,0.67241776,0.3542683,-0.4833557,0.4344142,9.307212829589844,0.8084335327148438,3.193641185760498,-39.22262191772461,-2.7569916248321533, 2.888929843902588
157,852865942,0.67603,0.34534752,-0.48990747,0.42861333,9.25504207611084,0.5823864936828613,2.538445472717285,-89.892578125,-6.096011161804199, 7.296699047088623
158,852882609,0.67793286,0.34078434,-0.4931915,0.4254826,8.852398872375488,0.2966603934764862,2.2295706272125244,-59.01964569091797,-3.7018871307373047, -1.226338267326355
159,852899276,0.679586,0.3385906,-0.49468973,0.42284918,8.998638153076172,0.18150420486927032,2.5025031566619873,-29.39726448059082,-1.4417434930801392, -7.148232936859131
160,852915943,0.6807285,0.33843538,-0.49476016,0.4210496,9.258974075317383,0.3182700574398041,2.7757973670959473,-10.263810157775879,-0.41908812522888184, -11.615253448486328
161,852932610,0.6827261,0.3378001,-0.4953927,0.4175675,9.434988975524902,0.31762662529945374,3.0966405868530273,-5.6812591552734375,-1.895622730255127, -14.286466598510742
162,852949277,0.6828946,0.34007326,-0.49425176,0.4167976,9.358236312866211,-0.11970609426498413,3.299805164337158,5.267237663269043,-2.911001205444336, -16.572160720825195
163,852965944,0.68317205,0.34257585,-0.49337128,0.4153345,9.201009750366211,-0.25199615955352783,3.363875150680542,14.581472396850586,-5.437829494476318, -16.96145248413086
164,852982611,0.6842208,0.34383798,-0.49362564,0.41225153,9.336823463439941,0.19324488937854767,2.9523701667785645,12.013481140136719,-7.55334997177124, -15.958014488220215
165,852999278,0.6844416,0.3453776,-0.4935193,0.4107222,9.521696090698242,1.0392744541168213,2.627026319503784,-3.873425006866455,-7.434900760650635, -15.462030410766602
166,853015945,0.68548304,0.3462965,-0.4937726,0.40789756,9.262544631958008,1.4255722761154175,2.4545273780822754,-4.1677937507629395,-6.957495212554932, -18.02863883972168
167,853032612,0.6860174,0.34784046,-0.49372205,0.40574104,9.211870193481445,1.7835687398910522,2.6281445026397705,-0.38321763277053833,-7.644631385803223, -17.24725341796875
168,853049279,0.6865737,0.34946442,-0.49384996,0.40324134,9.963798522949219,2.3631386756896973,3.2210919857025146,-2.7591068744659424,-9.535918235778809, -18.993806838989258
169,853065946,0.6867702,0.3510923,-0.49512228,0.39991874,9.02697467803955,0.7429582476615906,3.3199892044067383,-7.693498611450195,-18.15741539001465, -19.003456115722656
170,853082613,0.68602425,0.35369805,-0.49644664,0.3972523,8.37536334991455,0.7210167646408081,3.5171878337860107,1.4300825595855713,-22.749835968017578, -16.480880737304688
171,853099280,0.68509173,0.35680905,-0.4972591,0.39505693,10.308332443237305,1.3260583877563477,3.416172504425049,7.307343006134033,-21.273839950561523, -16.712871551513672
172,853115947,0.68318456,0.36234388,-0.49699497,0.3936521,10.845219612121582,-0.49145573377609253,2.8084304332733154,26.773731231689453,-24.21282196044922, -21.239513397216797
173,853132614,0.6792689,0.37187368,-0.49490553,0.39417315,9.957137107849121,-1.7304041385650635,2.126100778579712,62.06524658203125,-28.519351959228516, -25.048959732055664
174,853149281,0.67451143,0.38360128,-0.49137202,0.39552262,11.520716667175293,-0.8771183490753174,2.479708671569824,81.2667007446289,-28.4592342376709, -30.22102928161621
175,853165948,0.6695453,0.39744622,-0.48565876,0.39734304,15.646209716796875,-0.7039949297904968,4.2869415283203125,99.18217468261719,-23.56513023376465, -40.49512481689453
176,853182615,0.66910875,0.40556225,-0.48314354,0.3929188,22.737640380859375,-5.008897304534912,6.722518444061279,30.88165855407715,-24.6231689453125, -53.90386199951172
177,853199282,0.67099833,0.40951186,-0.48087874,0.38835174,24.06553077697754,-13.061123847961426,8.490510940551758,4.192685127258301,-7.288254261016846, -46.79075622558594
178,853215949,0.6770032,0.40894154,-0.47392222,0.38708085,15.664902687072754,-9.017348289489746,8.425561904907227,-4.5585761070251465,49.14156723022461, -41.79990768432617
179,853232616,0.68828094,0.387922,-0.48899123,0.36969414,3.287757396697998,-5.389117240905762,3.6391782760620117,-225.53863525390625,-27.266660690307617, -2.9661319255828857
180,853249283,0.6960237,0.36982515,-0.5019938,0.35606557,2.62363338470459,-4.753765106201172,-8.08759880065918,-184.2956085205078,-26.74350929260254, 8.104548454284668
181,853265950,0.6879873,0.3636529,-0.51171273,0.36411574,6.511444091796875,-23.095090866088867,-1.9908596277236938,-4.2814154624938965,-38.985836029052734, 100.70977020263672
182,853282617,0.67331713,0.36199322,-0.51622,0.38616306,2.822707414627075,-8.381133079528809,4.550825595855713,96.17518615722656,-13.872527122497559, 153.3214111328125
183,853299284,0.66268075,0.34904227,-0.520496,0.41000947,3.794816493988037,-3.8400495052337646,8.776052474975586,40.967613220214844,35.60393142700195, 190.02191162109375
184,853315951,0.6551329,0.32918465,-0.52115744,0.43684477,3.6891486644744873,4.634918689727783,10.263442039489746,23.07965087890625,89.22358703613281, 210.8439483642578
185,853332618,0.651489,0.30488607,-0.5169189,0.46411374,5.096876621246338,9.57986068725586,8.95297908782959,10.510514259338379,139.0104522705078, 206.2581329345703
186,853349285,0.65335023,0.2751861,-0.5099127,0.48723242,6.780186653137207,11.078479766845703,8.343442916870117,-31.241262435913086,179.07244873046875, 184.13294982910156
187,853365952,0.6581333,0.23817264,-0.5094727,0.5005719,11.136812210083008,6.9022135734558105,3.083057165145874,-126.15699768066406,165.54400634765625, 169.1394805908203
188,853382619,0.65853333,0.21907072,-0.49818832,0.5197599,16.232845306396484,8.035444259643555,-2.703080415725708,19.781566619873047,147.26519775390625, 130.66712951660156
189,853399286,0.6577244,0.21243525,-0.48134306,0.53905356,14.989982604980469,8.041518211364746,-4.526740074157715,98.17432403564453,124.3607406616211, 85.07077026367188
190,853415953,0.6567262,0.2082833,-0.46822476,0.553258,13.429054260253906,8.701017379760742,-4.610722064971924,78.90116882324219,90.782470703125, 60.64012908935547
191,853432620,0.65670675,0.20107408,-0.46411544,0.55937696,12.415343284606934,7.302035808563232,-3.8902242183685303,3.234778881072998,53.86100769042969, 43.782325744628906
192,853449287,0.65695107,0.197079,-0.46208295,0.56218714,11.903443336486816,5.041518211364746,-4.378307819366455,-1.31045401096344,28.906782150268555, 20.971254348754883
193,853465954,0.6559431,0.19781767,-0.46202895,0.5631485,11.328936576843262,3.578246831893921,-5.223300933837891,8.167093276977539,-4.285877227783203, 5.513513565063477
194,853482621,0.6533856,0.2018625,-0.46628693,0.5611734,10.66629409790039,3.038067102432251,-2.5391950607299805,-0.8670473694801331,-44.90732955932617, -6.0390825271606445
195,853499288,0.649212,0.20939137,-0.4744303,0.5564125,10.492815971374512,1.8811224699020386,-2.1244351863861084,-6.937741279602051,-84.46417236328125, -17.802959442138672
196,853515955,0.64297056,0.22271344,-0.4824131,0.5516025,11.24450397491455,0.6109610199928284,-1.6947782039642334,22.34065818786621,-112.3741683959961, -29.014162063598633
197,853532622,0.63429326,0.24054632,-0.4903327,0.5471594,11.939839363098145,-0.37825366854667664,-0.7690089344978333,47.486106872558594,-136.37820434570312, -33.06148147583008
198,853549289,0.6247911,0.25750747,-0.50238264,0.5393866,11.870038032531738,1.2546632289886475,-2.3725388050079346,18.325281143188477,-159.10980224609375, -34.60472106933594
199,853565956,0.61503285,0.27440232,-0.5148544,0.5304369,12.017155647277832,0.9517717957496643,-0.754817008972168,12.88019847869873,-163.30369567871094, -37.55766677856445
200,853582623,0.60387146,0.29236224,-0.5242787,0.52440023,11.47048568725586,0.6027687191963196,-3.7235000133514404,41.49528503417969,-153.5367431640625, -29.487903594970703
201,853599290,0.59256333,0.31180808,-0.52886385,0.52148575,11.104393005371094,2.2224607467651367,1.887974739074707,76.6987075805664,-132.6865692138672, -31.002784729003906
202,853615957,0.5804979,0.32544228,-0.53964275,0.5156502,13.723809242248535,-5.533334732055664,1.2811644077301025,21.803800582885742,-146.0552978515625, -5.616694927215576
203,853632624,0.56871825,0.338937,-0.54792506,0.5113309,11.241227149963379,-1.7903220653533936,8.345295906066895,35.188594818115234,-131.06878662109375, -5.848437309265137
204,853649291,0.5568302,0.3507989,-0.5569603,0.5066316,18.807113647460938,-2.2764830589294434,7.952978610992432,24.976655960083008,-129.91253662109375, 0.9152302145957947
205,853665958,0.5455211,0.3620937,-0.5673922,0.4993609,14.07777214050293,2.8199708461761475,3.2583577632904053,6.66743803024292,-137.5570831298828, -5.392551422119141
206,853682625,0.53850174,0.36524293,-0.5820318,0.48770145,8.671539306640625,1.7684382200241089,1.766471266746521,-66.09375,-119.7049560546875, 5.944478988647461
207,853699292,0.5365854,0.36129043,-0.59863514,0.4724209,10.331762313842773,0.5446882843971252,-0.48930200934410095,-126.27647399902344,-91.97526550292969, 8.98389720916748
208,853715959,0.53514,0.36125556,-0.6083182,0.4615939,9.828895568847656,-2.2432162761688232,-3.277705669403076,-72.12772369384766,-66.20870208740234, -9.269641876220703
209,853732626,0.5335021,0.36365446,-0.61352044,0.4546687,9.576390266418457,-2.855473756790161,-3.5242133140563965,-32.12557601928711,-48.440486907958984, -15.626072883605957
210,853749293,0.5326786,0.36482468,-0.61882496,0.4474507,10.506516456604004,-4.7038493156433105,-0.47204840183258057,-40.203346252441406,-42.142337799072266, -13.866631507873535
211,853765960,0.53083605,0.36728793,-0.6233374,0.4413201,11.887613296508789,-3.641169786453247,-0.5755085945129395,-25.842390060424805,-44.86257553100586, -14.389975547790527
212,853782627,0.52807075,0.37157914,-0.62649333,0.43655065,11.346681594848633,-1.1114672422409058,-1.3931336402893066,-6.899942398071289,-46.00407409667969, -17.982282638549805
213,853799294,0.5264729,0.3733231,-0.6317324,0.42938372,10.94665241241455,-2.721039056777954,-1.489804983139038,-35.70896911621094,-47.01759338378906, -13.871594429016113
214,853815961,0.52660936,0.37272674,-0.63858825,0.41947892,10.15857982635498,-1.5266461372375488,-1.2590129375457764,-65.29035186767578,-45.4710807800293, -14.630364418029785
215,853832628,0.52733403,0.3723426,-0.64564925,0.40794232,9.110610008239746,-1.9842181205749512,-2.118333339691162,-73.79097747802734,-48.465328216552734, -22.62017059326172
216,853849295,0.52661914,0.3743908,-0.650573,0.39907244,8.201457023620605,-0.4119258522987366,-2.4240901470184326,-43.458717346191406,-47.094444274902344, -25.20358657836914
217,853865962,0.52485,0.37853378,-0.6535588,0.3925628,8.989086151123047,0.05442427843809128,-2.510066270828247,-17.27994728088379,-44.43332290649414, -28.09510040283203
218,853882629,0.5224164,0.38378626,-0.65593755,0.38669747,9.185495376586914,-1.3115445375442505,-1.7758435010910034,-7.012975215911865,-46.513545989990234, -30.5026798248291
219,853899296,0.5188449,0.38980013,-0.6583429,0.38136667,9.395617485046387,-2.358459234237671,-1.6001430749893188,1.0606671571731567,-52.361915588378906, -28.960695266723633
220,853915963,0.5136444,0.39747477,-0.66036946,0.3769557,10.28675651550293,-0.9399305582046509,-1.6082013845443726,16.487642288208008,-60.290653228759766, -30.041671752929688
221,853932630,0.5075297,0.40643412,-0.66229045,0.37228534,10.573731422424316,-0.07786939293146133,-1.4847289323806763,22.610660552978516,-68.1368179321289, -34.74801254272461
222,853949297,0.49990588,0.41730788,-0.66369283,0.36804903,11.212489128112793,0.6134347319602966,-1.285791039466858,36.81798553466797,-76.92980194091797, -39.54554748535156
223,853965964,0.49164417,0.4287878,-0.6652854,0.3630737,10.952136039733887,0.7216683626174927,-0.8194198608398438,36.884037017822266,-84.21501922607422, -42.673274993896484
224,853982631,0.48250479,0.44066945,-0.6672052,0.35754284,11.663238525390625,0.8327009677886963,-0.7666776180267334,37.48719024658203,-92.07332611083984, -43.217613220214844
225,853999298,0.47313672,0.45210874,-0.6700827,0.3503265,11.651214599609375,1.3022716045379639,-0.9877988696098328,26.641197204589844,-100.44056701660156, -43.29519271850586
226,854015965,0.46423832,0.46242428,-0.67454904,0.34004456,12.31949234008789,1.05050790309906,-1.1626352071762085,3.6088368892669678,-110.40043640136719, -44.24113082885742
227,854032632,0.45592538,0.4713855,-0.68084717,0.32615176,13.142936706542969,0.5051156878471375,-0.7319805026054382,-23.567808151245117,-122.00695037841797, -44.99775695800781
228,854049299,0.44859636,0.47855058,-0.68935984,0.30746356,13.450776100158691,-0.266817569732666,0.26571640372276306,-59.77040481567383,-136.08395385742188, -46.64190673828125
229,854065966,0.44390598,0.48368764,-0.6987993,0.28403065,14.040382385253906,0.055019963532686234,2.0983994007110596,-99.13285827636719,-138.06871032714844, -54.22814178466797
230,854082633,0.4429563,0.48737633,-0.7076893,0.25579277,16.122228622436523,-2.192506790161133,4.650010585784912,-137.97903442382812,-131.99957275390625, -71.11174011230469
231,854099300,0.44199708,0.4905543,-0.7168236,0.22396238,16.422483444213867,-6.390450477600098,4.818378925323486,-157.41061401367188,-144.5278778076172, -78.92326354980469
232,854115967,0.4348462,0.49775362,-0.72470057,0.19483176,17.118223190307617,-7.062173843383789,1.4848514795303345,-109.13632202148438,-168.90145874023438, -85.6477279663086
233,854132634,0.42433026,0.50534403,-0.73305726,0.16492009,22.090450286865234,-11.84145450592041,6.8301496505737305,-101.09917449951172,-190.771728515625, -84.24644470214844
234,854149301,0.41962096,0.5081905,-0.7409486,0.12905736,23.134443283081055,-10.305482864379883,12.27739429473877,-164.81504821777344,-176.24710083007812, -86.62849426269531
235,854165968,0.43486148,0.49607664,-0.7475515,0.07726797,19.66753578186035,-9.798843383789062,3.773024320602417,-357.9551086425781,-114.26083374023438, -79.41398620605469
236,854182635,0.4410365,0.49180144,-0.749605,0.04135944,13.499614715576172,-15.996528625488281,-7.8687334060668945,-219.60617065429688,-97.69783782958984, -83.76091003417969
237,854199302,0.44251138,0.4897467,-0.7507538,0.026474364,16.07949447631836,-9.59308910369873,8.688634872436523,-88.86425018310547,-48.65690612792969, -34.003623962402344
238,854215969,0.45571938,0.483094,-0.7475132,0.012818033,5.135394096374512,-4.236136436462402,10.780707359313965,-135.29647827148438,29.655311584472656, -24.11339569091797
239,854232636,0.47358444,0.4703232,-0.744629,0.0064427583,8.141913414001465,-4.1113362312316895,5.4889912605285645,-132.39820861816406,76.89920806884766, 30.584545135498047
240,854249303,0.48435295,0.46177965,-0.7427908,0.02058472,6.478310585021973,-7.288768291473389,3.8104639053344727,9.37353515625,103.05255889892578, 79.13433074951172
241,854265970,0.4911692,0.45480147,-0.74114686,0.05108909,5.852584362030029,-10.141035079956055,4.0482330322265625,110.61600494384766,133.65899658203125, 126.5912094116211
242,854282637,0.49564826,0.44918922,-0.73692936,0.09745247,8.035776138305664,-8.20531177520752,1.4434499740600586,204.1808319091797,179.17916870117188, 165.8136749267578
243,854299304,0.50303197,0.43971804,-0.72872365,0.15022935,8.660811424255371,-4.438145637512207,2.0142431259155273,217.13787841796875,229.49717712402344, 192.92575073242188
244,854315971,0.5165159,0.42262104,-0.71665686,0.20249912,10.672340393066406,-0.9414336681365967,2.410309076309204,173.7251739501953,279.3833312988281, 211.4889678955078
245,854332638,0.53350365,0.39937985,-0.7010141,0.2538682,12.891961097717285,0.6484756469726562,0.7295223474502563,142.2782745361328,314.93914794921875, 223.46543884277344
246,854349305,0.5517795,0.37193716,-0.6812196,0.3051918,14.932726860046387,5.232568264007568,0.5141323208808899,130.38282775878906,343.35498046875, 230.1189727783203
247,854365972,0.5723163,0.33909723,-0.65842956,0.35204807,16.890838623046875,5.884880542755127,-0.1722082495689392,89.47339630126953,365.0493469238281, 226.4298553466797
248,854382639,0.5906363,0.30979306,-0.6270167,0.4025259,19.545297622680664,1.3831897974014282,-1.9503713846206665,145.89076232910156,388.7901306152344, 210.4069366455078
249,854399306,0.60524637,0.28715545,-0.5868395,0.4547944,23.409610748291016,-0.48378586769104004,-6.487865924835205,212.8734130859375,393.80767822265625, 180.9575653076172
250,854415973,0.617509,0.26527488,-0.5464878,0.49966288,26.356462478637695,3.3957748413085938,-11.193394660949707,191.40420532226562,368.3363342285156, 154.52145385742188
251,854432640,0.6272395,0.24218829,-0.512265,0.53432196,23.57741355895996,2.6008176803588867,-13.662522315979004,131.36312866210938,318.9603271484375, 136.0806884765625
252,854449307,0.6317288,0.23020977,-0.475394,0.56738245,19.05731773376465,5.8183088302612305,-14.280136108398438,192.18309020996094,269.2970275878906, 105.37828063964844
253,854465974,0.6347431,0.22307387,-0.4461842,0.59013474,16.577768325805664,9.548262596130371,-18.28719139099121,151.96847534179688,196.82199096679688, 63.18029022216797
254,854482641,0.63692325,0.21572043,-0.43225673,0.6007891,11.661187171936035,4.693524360656738,-21.697675704956055,53.15804672241211,110.89523315429688, 38.426605224609375
255,854499308,0.6363544,0.21689618,-0.42796755,0.6040308,10.706929206848145,2.8497862815856934,-20.435087203979492,32.87003707885742,15.333568572998047, 6.553750038146973
256,854515975,0.6323321,0.2298575,-0.42901385,0.6027179,11.70922565460205,0.4120362401008606,-15.682916641235352,54.19658660888672,-72.95128631591797, -25.53595542907715
257,854532642,0.6251484,0.25006083,-0.43388164,0.59867,12.003974914550781,-3.3579280376434326,-10.053609848022461,66.94967651367188,-132.4231719970703, -39.51973342895508
258,854549309,0.61439764,0.27294797,-0.44213805,0.5937415,12.249083518981934,-4.5227274894714355,-8.073040962219238,68.22679138183594,-169.58921813964844, -30.825416564941406
259,854565976,0.6034968,0.29122627,-0.45973387,0.58277255,16.061344146728516,-2.5277597904205322,-4.115012168884277,-7.285170555114746,-201.50436401367188, -24.265605926513672
260,854582643,0.5867389,0.3220107,-0.4661275,0.5785947,25.974321365356445,6.827372074127197,6.512362480163574,122.78630065917969,-209.6331787109375, -34.59872055053711
261,854599310,0.5751832,0.3447989,-0.4821255,0.563767,13.095786094665527,10.138348579406738,-1.9042690992355347,6.541944980621338,-223.3207550048828, -50.976627349853516
262,854615977,0.5632795,0.36353913,-0.49530125,0.5524782,11.243890762329102,-1.452272653579712,-2.9566235542297363,13.939702033996582,-188.993896484375, -28.45778465270996
263,854632644,0.5504285,0.37980053,-0.5036535,0.54691255,7.879585266113281,-4.467928886413574,-2.761885404586792,44.61253356933594,-149.5899658203125, -6.3263936042785645
264,854649311,0.53831595,0.3925089,-0.5086886,0.5453335,12.849108695983887,-2.3655362129211426,-0.21612314879894257,55.607364654541016,-110.5400390625, 9.446788787841797
265,854665978,0.5298108,0.40096474,-0.51417947,0.54235375,13.091934204101562,0.1504056304693222,3.155846357345581,23.586824417114258,-87.36320495605469, 6.776515483856201
266,854682645,0.52238977,0.40835217,-0.518636,0.5397909,11.647692680358887,-1.0453108549118042,1.76982843875885,22.034503936767578,-74.69915771484375, 5.222918510437012
267,854699312,0.5155367,0.41488,-0.52149177,0.53864914,10.475724220275879,0.45824524760246277,1.3592684268951416,28.3976993560791,-59.782196044921875, 6.78453254699707
268,854715979,0.50930965,0.4203506,-0.5234288,0.53845286,11.199681282043457,-1.0304096937179565,0.39333367347717285,29.65245819091797,-47.699745178222656, 9.027201652526855
269,854732646,0.5062654,0.4226322,-0.52732456,0.53572947,10.417832374572754,-0.4652822017669678,0.3037647604942322,-7.046592712402344,-38.60297393798828, 5.535454273223877
270,854749313,0.50566685,0.42162648,-0.5334419,0.5310102,10.918065071105957,-1.1337928771972656,-0.28816574811935425,-40.99024200439453,-31.178895950317383, 8.002001762390137
271,854765980,0.50607646,0.42032754,-0.53954464,0.525455,10.119375228881836,-1.8746342658996582,-1.0002423524856567,-47.934669494628906,-28.784624099731445, 2.487257480621338
272,854782647,0.5063522,0.4202648,-0.5441418,0.5204756,9.393390655517578,-2.571037530899048,-1.295611023902893,-35.64882278442383,-26.825714111328125, -3.955012559890747
273,854799314,0.5063461,0.4208145,-0.5479319,0.51604205,9.24905014038086,-2.4517648220062256,-0.8590603470802307,-27.760108947753906,-25.653940200805664, -5.6998796463012695
274,854815981,0.5062979,0.42181852,-0.55137813,0.51157993,9.433490753173828,-1.5472468137741089,-0.378801554441452,-24.932777404785156,-26.2993106842041, -8.386701583862305
275,854832648,0.50599873,0.42313087,-0.55505824,0.50678986,9.764642715454102,-1.6900885105133057,-0.25453704595565796,-25.196107864379883,-30.110458374023438, -9.135370254516602
276,854849315,0.50369614,0.42674753,-0.5569822,0.5039322,9.721633911132812,-2.1277623176574707,-0.2675560712814331,2.139469861984253,-34.068031311035156, -9.348034858703613
277,854865982,0.5011417,0.4308542,-0.5588251,0.50093544,9.949115753173828,-1.3201216459274292,0.08357705175876617,4.3352861404418945,-36.871788024902344, -11.113409042358398
278,854882649,0.49982223,0.43335822,-0.56289613,0.49550638,9.782868385314941,-1.8220149278640747,-0.052288539707660675,-21.877431869506836,-41.52241897583008, -10.993892669677734
279,854899316,0.49949786,0.43397036,-0.5695036,0.48768556,9.313041687011719,-2.8392586708068848,0.11094112694263458,-49.23405075073242,-47.106895446777344, -7.731845855712891
280,854915983,0.50009316,0.43402794,-0.57726437,0.4777996,9.266301155090332,-1.0888687372207642,0.09553386270999908,-65.8440933227539,-51.8216552734375, -12.32986831665039
281,854932650,0.49949086,0.43561986,-0.5848512,0.46764675,9.1129732131958,-2.1105878353118896,-0.07505597174167633,-57.480220794677734,-61.87297058105469, -15.893848419189453
282,854949317,0.49697113,0.43951812,-0.5917911,0.45785034,10.254582405090332,-0.05313701927661896,0.19694212079048157,-40.3177375793457,-73.76158142089844, -19.738008499145508
283,854965984,0.4933636,0.4448472,-0.598783,0.44739524,11.089512825012207,0.1812281310558319,0.6822174191474915,-34.984798431396484,-84.93306732177734, -24.184768676757812
284,854982651,0.48868623,0.45103076,-0.6064804,0.43581948,11.805776596069336,0.3922120928764343,0.8400091528892517,-35.587581634521484,-97.88922882080078, -26.00971794128418
285,854999318,0.48277032,0.458308,-0.61450833,0.42339823,11.210468292236328,0.6556644439697266,-1.3672524690628052,-32.581512451171875,-110.18480682373047, -28.62790870666504
286,855015985,0.47439247,0.4684837,-0.6209745,0.41214758,11.71788215637207,0.9152846336364746,-0.4298957586288452,-5.689227104187012,-120.19581604003906, -34.70197296142578
287,855032652,0.4645584,0.48029447,-0.62746763,0.399734,12.7261323928833,0.0731816440820694,-0.6166008710861206,-0.6995831727981567,-134.97140502929688, -41.22605895996094
288,855049319,0.45505452,0.49178004,-0.63548887,0.38370812,13.022384643554688,0.23417164385318756,-0.7105464935302734,-22.58951759338379,-149.5723114013672, -47.22373962402344
289,855065986,0.4477624,0.5014427,-0.6460357,0.36152765,14.141480445861816,0.19788415729999542,0.7073026895523071,-69.31015014648438,-163.94808959960938, -55.800567626953125
290,855082653,0.44446263,0.50744706,-0.65988356,0.33091438,16.868133544921875,-0.7060264348983765,2.468413829803467,-140.01304626464844,-176.59786987304688, -64.0390625
291,855099320,0.4448778,0.5098111,-0.6748245,0.2945987,21.786348342895508,-4.374130725860596,6.814184665679932,-192.4763641357422,-175.06130981445312, -69.61528015136719
292,855115987,0.4471947,0.5097191,-0.6894028,0.25480834,22.96291732788086,-6.478936672210693,9.909564971923828,-222.13296508789062,-172.92832946777344, -74.15772247314453
293,855132654,0.44822156,0.5098671,-0.7021101,0.21488294,20.24735450744629,-6.182387351989746,6.070843696594238,-214.32916259765625,-174.8896484375, -80.33000946044922
294,855149321,0.4451397,0.51324445,-0.7120376,0.17729476,22.812849044799805,-14.555270195007324,5.627464294433594,-174.67942810058594,-183.26773071289062, -92.72703552246094
295,855165988,0.45719373,0.50282556,-0.7221537,0.12897493,21.35395622253418,-12.632852554321289,10.942235946655273,-323.4601745605469,-131.3534393310547, -76.47982025146484
296,855182655,0.4604163,0.5015028,-0.72674495,0.09139862,10.820135116577148,-15.714264869689941,-2.93666934967041,-206.19786071777344,-129.35873413085938, -99.79335021972656
297,855199322,0.456317,0.5048378,-0.7285365,0.07841254,12.873709678649902,-11.439895629882812,4.601012229919434,-41.91628646850586,-75.26472473144531, -50.78981399536133
298,855215989,0.4642257,0.49892756,-0.7291618,0.062360853,7.387902736663818,-6.686001777648926,10.533781051635742,-127.54449462890625,-17.434968948364258, -25.067670822143555
299,855232656,0.47493118,0.49105728,-0.72785854,0.059375085,4.83957052230835,-5.134973049163818,8.067458152770996,-77.0814208984375,48.06877517700195, 18.34824562072754
300,855249323,0.48487294,0.4823743,-0.7260981,0.07067602,4.368875503540039,-5.178717136383057,5.161641597747803,-5.466496467590332,94.0733871459961, 67.63243865966797
301,855265990,0.49309063,0.47426987,-0.72287,0.09689611,4.0818963050842285,-4.961246013641357,5.453300952911377,77.34912109375,139.37071228027344, 110.32831573486328
302,855282657,0.5032486,0.46278936,-0.71817183,0.12960027,4.926649570465088,-4.865453720092773,3.548710584640503,92.76106262207031,177.1782989501953, 142.9324188232422
303,855299324,0.5152713,0.4482982,-0.710746,0.16841784,6.6185455322265625,-4.4018988609313965,0.8230382800102234,108.9926528930664,217.79359436035156, 168.5479736328125
304,855315991,0.5294539,0.430075,-0.6995353,0.21298966,7.687806129455566,-3.474327802658081,1.0865435600280762,121.58198547363281,263.7221374511719, 192.956787109375
305,855332658,0.5448178,0.40817767,-0.6846224,0.26049343,9.931931495666504,-0.10527615994215012,0.8224458694458008,124.22337341308594,296.8292541503906, 208.5973358154297
306,855349325,0.5606261,0.38312587,-0.6658646,0.30909172,12.611902236938477,2.5877153873443604,-0.10886961221694946,123.23710632324219,321.946533203125, 216.0244903564453
307,855365992,0.5750023,0.35964727,-0.63973933,0.36160722,16.321704864501953,5.123396873474121,-0.6827871799468994,166.77186584472656,350.7103576660156, 207.746337890625
308,855382659,0.58920616,0.33659917,-0.60830647,0.41170412,19.350675582885742,5.455357074737549,-3.225250720977783,171.55035400390625,363.82025146484375, 183.89512634277344
309,855399326,0.6024356,0.31145996,-0.57694787,0.45518705,19.86007308959961,1.6382696628570557,-6.406318187713623,137.4740753173828,350.10015869140625, 169.1035614013672
310,855415993,0.613915,0.28543258,-0.54596823,0.49351335,22.337820053100586,0.6877078413963318,-7.741554260253906,115.91264343261719,333.5714111328125, 157.76280212402344
311,855432660,0.6237427,0.25812098,-0.51973283,0.52363783,23.171049118041992,0.8858672380447388,-8.193777084350586,66.92284393310547,295.9530029296875, 143.0683135986328
312,855449327,0.6281727,0.23770402,-0.4931628,0.5528891,18.945404052734375,-0.4018821716308594,-10.493200302124023,104.22464752197266,252.18350219726562, 133.7466278076172
313,855465994,0.6283449,0.2288339,-0.4617412,0.582763,18.74959373474121,5.663386821746826,-11.04188060760498,181.77615356445312,216.3290252685547, 105.77680969238281
314,855482661,0.6280701,0.22110496,-0.43932703,0.6030194,15.100936889648438,5.091639041900635,-13.81161117553711,120.84552764892578,156.81082153320312, 76.98371887207031
315,855499328,0.626508,0.2159357,-0.4273793,0.614985,11.583677291870117,3.8469622135162354,-17.287405014038086,65.5009994506836,85.1160888671875, 55.03472137451172
316,855515995,0.6245756,0.21454884,-0.42773923,0.6171818,10.195192337036133,3.783398151397705,-15.683345794677734,1.7338546514511108,1.1622934341430664, 21.937917709350586
317,855532662,0.62051433,0.22128536,-0.43409106,0.61445904,11.040549278259277,0.3321208655834198,-11.653543472290039,-0.01562403328716755,-72.00756072998047, -4.977087497711182
318,855549329,0.6133797,0.23721145,-0.44093814,0.61079437,12.033552169799805,-0.6847925186157227,-7.574940204620361,39.089874267578125,-123.12612915039062, -22.565975189208984
319,855565996,0.6035477,0.25866035,-0.44925675,0.6058,12.60328197479248,-1.3506625890731812,-4.8199005126953125,56.667999267578125,-162.5727996826172, -31.122072219848633
320,855582663,0.59095037,0.284862,-0.45759636,0.60019743,16.326990127563477,-1.5057469606399536,-2.138021469116211,79.40974426269531,-191.87606811523438, -36.75582504272461
321,855599330,0.5732136,0.31912574,-0.45801866,0.5998366,20.609922409057617,3.964414596557617,3.4788904190063477,171.46304321289062,-198.73849487304688, -35.12821578979492
322,855615997,0.56203806,0.34276164,-0.46582234,0.59130144,13.594317436218262,12.933158874511719,-0.9481922388076782,58.941864013671875,-181.21632385253906, -44.606666564941406
323,855632664,0.5521338,0.3532884,-0.48692337,0.5772706,16.687870025634766,-3.7099058628082275,-4.386531352996826,-66.43898010253906,-188.1737823486328, 2.620758295059204
324,855649331,0.54355836,0.36612526,-0.49972966,0.5663629,8.370183944702148,0.7553662061691284,1.1350212097167969,-17.426591873168945,-153.72396850585938, -18.737537384033203
325,855665998,0.53498477,0.37478545,-0.50847846,0.5610498,10.845599174499512,-2.778921127319336,1.9172437191009521,1.9710111618041992,-108.30530548095703, 6.279975891113281
326,855682665,0.5301099,0.37890577,-0.51698077,0.5551081,10.902100563049316,-1.1741787195205688,1.4493852853775024,-25.51093864440918,-78.68409729003906, 4.857840538024902
327,855699332,0.52630466,0.3811736,-0.52458256,0.55002123,11.636382102966309,-3.0273637771606445,2.520672559738159,-28.571985244750977,-62.40606689453125, 8.098455429077148
328,855715999,0.5215229,0.38537097,-0.5288245,0.5475837,10.280800819396973,-2.4096691608428955,1.050254464149475,3.2063658237457275,-54.2345085144043, 5.545111179351807
329,855732666,0.51681536,0.39079592,-0.53003526,0.54703104,9.494108200073242,-3.266319751739502,-0.13517576456069946,25.67628288269043,-42.80412673950195, -0.5258077383041382
330,855749333,0.5107044,0.39897898,-0.5270811,0.5497114,10.154474258422852,-2.549159288406372,0.8498223423957825,66.65912628173828,-34.85446548461914, -5.078895092010498
331,855766000,0.50506204,0.40735552,-0.52372915,0.55197984,9.916345596313477,-2.305493116378784,-0.4004106819629669,66.05319213867188,-33.684818267822266, -10.142891883850098
332,855782667,0.5009268,0.41403103,-0.5218073,0.55260104,9.893832206726074,-1.6100794076919556,0.6099752187728882,44.54951858520508,-31.42186164855957, -11.495656967163086
333,855799334,0.49710807,0.41950387,-0.5209089,0.55276936,10.716819763183594,-1.530208945274353,0.6156530380249023,33.97596740722656,-30.58482551574707, -7.056440830230713
334,855816001,0.49419445,0.4240375,-0.521665,0.5512074,9.945310592651367,0.05365055799484253,0.8170109391212463,15.65893840789795,-34.46870422363281, -8.292719841003418
335,855832668,0.49138206,0.4278586,-0.5234662,0.54905725,9.484782218933105,-1.171040654182434,0.30964258313179016,6.855126857757568,-36.7216911315918, -5.068548202514648
336,855849335,0.48883373,0.4315028,-0.5261632,0.5458933,9.710525512695312,-0.3193713128566742,0.7131293416023254,-1.5620129108428955,-41.15216827392578, -6.231045246124268
337,855866002,0.48733497,0.43414438,-0.530459,0.5409591,9.775174140930176,-1.020673155784607,0.5155095458030701,-20.459125518798828,-44.26082992553711, -7.748344421386719
338,855882669,0.48635766,0.4361414,-0.53615683,0.5345774,9.621504783630371,-1.3563096523284912,0.4269132912158966,-34.67744064331055,-49.018585205078125, -8.00829792022705
339,855899336,0.48510206,0.43855792,-0.54222447,0.5275753,9.258822441101074,-2.0554862022399902,0.4805320203304291,-36.09720993041992,-54.71739959716797, -9.507285118103027
340,855916003,0.48383987,0.44084165,-0.54939395,0.5193497,9.18348217010498,-2.2898786067962646,0.22798803448677063,-45.090972900390625,-61.65729904174805, -9.76413631439209
341,855932670,0.48222482,0.4433793,-0.5576399,0.50981545,9.097030639648438,-1.557879090309143,0.19864444434642792,-51.97064971923828,-71.47329711914062, -10.571332931518555
342,855949337,0.48036206,0.44597906,-0.56703347,0.49882695,9.10792064666748,-2.2208292484283447,0.517099142074585,-60.620635986328125,-80.90625762939453, -11.27354621887207
343,855966004,0.47710708,0.44971848,-0.57668966,0.48739251,10.220212936401367,-2.2499639987945557,0.16749583184719086,-55.23710632324219,-92.5073471069336, -11.625240325927734
344,855982671,0.4732445,0.4544341,-0.5871783,0.47407934,10.504331588745117,-1.3994545936584473,0.1035529226064682,-60.41324234008789,-106.7540283203125, -17.061527252197266
345,855999338,0.467276,0.46112913,-0.59765124,0.4602458,11.139488220214844,-0.6036989688873291,-0.6497625708580017,-49.42874526977539,-123.3119125366211, -19.93785858154297
346,856016005,0.46013492,0.46901694,-0.6080421,0.44562748,10.96696949005127,0.5802839398384094,-0.9881069660186768,-44.876502990722656,-134.1481475830078, -23.90573501586914
347,856032672,0.451638,0.47810838,-0.618301,0.43027872,11.460866928100586,1.1290050745010376,-1.0175942182540894,-39.31937789916992,-145.46514892578125, -27.51526641845703
348,856049339,0.44232452,0.48850942,-0.6275575,0.4145834,13.438532829284668,-0.6408078670501709,-1.597285509109497,-31.082719802856445,-150.85935974121094, -35.025230407714844
349,856066006,0.43257272,0.4995413,-0.6357248,0.39899036,14.452630996704102,-0.8807056546211243,-1.064106822013855,-24.144229888916016,-150.91542053222656, -39.85038375854492
350,856082673,0.42575678,0.50904065,-0.6443774,0.37998238,14.598546981811523,-0.7637844085693359,-0.32659614086151123,-55.062252044677734,-147.08367919921875, -49.69915008544922
351,856099340,0.42292193,0.51618004,-0.65438163,0.35564077,16.730146408081055,-1.5094982385635376,1.167603611946106,-103.07878112792969,-145.9487762451172, -60.5352783203125
352,856116007,0.42472056,0.51973623,-0.6664483,0.3245515,20.009567260742188,-3.0618574619293213,4.42982816696167,-165.38772583007812,-146.3553466796875, -68.0589599609375
353,856132674,0.43171746,0.5173294,-0.6818616,0.28470224,22.600902557373047,-4.495517253875732,9.692832946777344,-249.06353759765625,-150.4214630126953, -65.99172973632812
354,856149341,0.4402201,0.5120921,-0.69733435,0.24019396,21.020994186401367,-5.753419876098633,8.836506843566895,-284.85882568359375,-154.72341918945312, -69.34258270263672
355,856166008,0.44033313,0.5149684,-0.7080924,0.19879511,19.932767868041992,-9.50196647644043,1.139236569404602,-208.0886993408203,-183.2489013671875, -101.6332015991211
356,856182675,0.44079927,0.51799244,-0.71520674,0.16080895,24.796754837036133,-13.651385307312012,14.357120513916016,-187.330078125,-158.6644744873047, -105.48564910888672
357,856199342,0.45570153,0.5080757,-0.7217751,0.11504807,14.840744018554688,-13.539543151855469,4.7537689208984375,-315.7763366699219,-99.57840728759766, -83.43236541748047
358,856216009,0.45227626,0.5130625,-0.72331464,0.09502192,9.29062557220459,-14.259719848632812,-3.7286181449890137,-73.3293685913086,-96.69117736816406, -79.89540100097656
359,856232676,0.45332405,0.51274556,-0.7239579,0.08645452,14.648832321166992,-7.203823089599609,11.400218963623047,-48.11130905151367,-27.76513671875, -24.02610969543457
360,856249343,0.46233296,0.5083306,-0.72199047,0.081106685,3.0540196895599365,-6.429046154022217,10.028024673461914,-71.40579986572266,33.680572509765625, -7.5650200843811035
361,856266010,0.47483996,0.4995513,-0.71932834,0.08684703,3.843358039855957,-4.73146390914917,6.679421424865723,-42.07099533081055,94.41860961914062, 44.936981201171875
362,856282677,0.48722604,0.4899745,-0.7150664,0.10590521,4.226479530334473,-4.502804756164551,4.570934772491455,22.55677604675293,145.25765991210938, 86.92996978759766
363,856299344,0.5004609,0.47854984,-0.7087556,0.13488677,4.42825984954834,-4.354520320892334,5.889255046844482,63.78897476196289,191.08799743652344, 121.7386703491211
364,856316011,0.5155313,0.4626965,-0.70106614,0.16925044,5.457982540130615,-4.47730016708374,2.488525629043579,70.01643371582031,226.6084747314453, 155.60646057128906
365,856332678,0.5310819,0.4434358,-0.69090676,0.20967743,7.114843845367432,-3.830144166946411,0.32670751214027405,88.5070571899414,260.9775390625, 185.11427307128906
366,856349345,0.5469275,0.4205123,-0.6771869,0.25584692,8.695682525634766,-2.2909176349639893,0.7737646102905273,106.65579223632812,298.242431640625, 212.2144317626953
367,856366012,0.5634623,0.39194772,-0.6603632,0.3046434,12.110664367675781,0.38861167430877686,0.14272120594978333,101.15094757080078,330.7157287597656, 238.19140625
368,856382679,0.5784532,0.36165288,-0.63847226,0.35630366,15.66317081451416,2.8697426319122314,-0.16024696826934814,122.27864837646484,354.75079345703125, 246.7432861328125
369,856399346,0.5908082,0.33296478,-0.610597,0.4089641,19.39867401123047,4.207062244415283,-2.0308871269226074,154.3596954345703,365.5774230957031, 235.27223205566406
370,856416013,0.59916943,0.31012636,-0.57496256,0.4628562,23.00026512145996,3.4508566856384277,-5.758821487426758,214.34471130371094,366.7527770996094, 209.23104858398438
371,856432680,0.60594743,0.2890837,-0.5360384,0.51178235,25.02777671813965,3.12457275390625,-7.943765163421631,215.9872283935547,357.7826232910156, 179.73666381835938
372,856449347,0.61309934,0.26466516,-0.5034893,0.5482337,25.638877868652344,2.313659429550171,-10.023431777954102,132.68113708496094,319.6990966796875, 151.56271362304688
373,856466014,0.6163009,0.24475305,-0.47515032,0.57836103,21.85396957397461,-0.06479746103286743,-13.523529052734375,121.17623138427734,259.83709716796875, 131.9182586669922
374,856482681,0.6146611,0.23877023,-0.44149756,0.60849035,18.084508895874023,4.318863868713379,-16.06570053100586,209.5955810546875,211.27310180664062, 96.7954330444336
375,856499348,0.61314654,0.23494418,-0.41908395,0.6270736,13.858770370483398,6.909407138824463,-19.118745803833008,136.4805450439453,136.26683044433594, 59.47537612915039
376,856516015,0.61273944,0.23075773,-0.41385925,0.6324729,10.197813987731934,6.208848476409912,-19.744585037231445,21.12721824645996,47.38560104370117, 28.031667709350586
377,856532682,0.6123125,0.23127723,-0.42165753,0.62752664,10.12231159210205,2.3428843021392822,-16.641956329345703,-45.012245178222656,-44.278202056884766, -8.090154647827148
378,856549349,0.60833967,0.24315092,-0.43101108,0.6205079,11.559813499450684,-0.8363754153251648,-11.837011337280273,-4.226403713226318,-113.27621459960938, -31.89566993713379
379,856566016,0.60133356,0.26258317,-0.44121364,0.61219186,12.925390243530273,-1.1178563833236694,-7.5797271728515625,25.052597045898438,-160.14291381835938, -45.334930419921875
380,856582683,0.59400403,0.28042874,-0.4576782,0.59920764,16.5202693939209,-6.386814117431641,5.617972373962402,-21.400876998901367,-188.6951446533203, -47.140132904052734
381,856599350,0.5815612,0.31042063,-0.46125677,0.5938583,19.03661346435547,6.569427490234375,3.0593409538269043,115.20767211914062,-187.4746856689453, -58.004058837890625
382,856616017,0.5717975,0.3318376,-0.47142535,0.5836863,15.35970687866211,9.5518798828125,-6.642823219299316,33.01174545288086,-180.57144165039062, -46.902347564697266
383,856632684,0.5608467,0.3460002,-0.48726612,0.5729805,18.898414611816406,1.9195737838745117,-0.6016284823417664,-17.245494842529297,-178.75274658203125, -7.692511081695557
384,856649351,0.5559978,0.35398054,-0.5063411,0.5560424,8.111281394958496,-1.4666410684585571,1.2176975011825562,-89.1834716796875,-161.2283935546875, -27.32560157775879
385,856666018,0.54555124,0.36567026,-0.51318395,0.552541,10.594513893127441,-1.9187089204788208,1.668060064315796,32.18510818481445,-115.43085479736328, 2.7418951988220215
386,856682685,0.53877187,0.372697,-0.52011216,0.5480013,10.799134254455566,-1.7697771787643433,0.7010766863822937,1.4971860647201538,-87.71276092529297, 1.5622440576553345
387,856699352,0.53337204,0.37745598,-0.5260975,0.5443003,11.157293319702148,-2.374497175216675,2.5423195362091064,-3.8964991569519043,-68.59302520751953, 5.146963596343994
388,856716019,0.53066605,0.37992993,-0.5331058,0.5383728,10.202953338623047,-2.6840877532958984,0.3044229745864868,-31.117481231689453,-59.851253509521484, -2.186770439147949
389,856732686,0.52883476,0.38159433,-0.53934485,0.532754,8.779366493225098,-3.9508609771728516,0.5279484987258911,-32.39958953857422,-50.03691482543945, -3.3575081825256348
390,856749353,0.52533233,0.3865094,-0.5414544,0.5305316,10.099043846130371,-3.9181854724884033,0.1032438725233078,11.52163314819336,-44.22136306762695, -7.802122592926025
391,856766020,0.5199954,0.39473838,-0.53989476,0.53131956,10.341341018676758,-3.060987949371338,-0.03582383319735527,52.9412956237793,-41.88360595703125, -12.356552124023438
392,856782687,0.51595175,0.4015986,-0.539641,0.5303773,10.02793025970459,-1.1762330532073975,0.5239503383636475,33.348854064941406,-41.445316314697266, -14.665464401245117
393,856799354,0.5121472,0.4071811,-0.54046804,0.5289644,9.65891170501709,-1.9255858659744263,-0.0751391053199768,22.46308708190918,-41.03535842895508, -9.490822792053223
394,856816021,0.50825447,0.41288322,-0.5411581,0.52759147,9.682397842407227,-1.1506913900375366,0.3431471586227417,23.77255630493164,-41.203224182128906, -9.871792793273926
395,856832688,0.50461215,0.4179779,-0.5429344,0.52524596,9.612390518188477,-1.2454100847244263,-0.30068784952163696,13.387073516845703,-44.62915802001953, -8.840381622314453
396,856849355,0.501137,0.42313054,-0.54507023,0.52222687,9.81143569946289,-0.9323052167892456,0.28693661093711853,9.293129920959473,-47.397186279296875, -10.97196102142334
397,856866022,0.49793664,0.42783204,-0.54791385,0.5184682,9.730273246765137,-1.027619481086731,0.12484503537416458,1.6255056858062744,-49.343711853027344, -10.760403633117676
398,856882689,0.4948821,0.43229204,-0.55136615,0.51401454,9.912712097167969,-1.6042184829711914,0.37378862500190735,-4.425073623657227,-52.06475067138672, -10.963279724121094
399,856899356,0.4919294,0.43694168,-0.5553224,0.50863004,10.016944885253906,-0.7444301843643188,-0.3061937689781189,-9.388962745666504,-56.83980178833008, -13.719457626342773
400,856916023,0.48970738,0.44098613,-0.5603798,0.5016896,9.37018871307373,-1.9889168739318848,0.0686199963092804,-23.423847198486328,-60.33525466918945, -15.918350219726562
401,856932690,0.48754624,0.44499916,-0.565982,0.4939018,9.877595901489258,-1.6971579790115356,-0.20811474323272705,-28.872709274291992,-64.40309143066406, -17.218994140625
402,856949357,0.48587433,0.44789073,-0.5730251,0.48472938,10.362593650817871,-1.756352186203003,0.22244590520858765,-44.40907669067383,-67.76542663574219, -14.75522518157959
403,856966024,0.48458064,0.45011106,-0.58109516,0.47424698,10.91671085357666,-0.09118623286485672,-0.4468798041343689,-56.408260345458984,-71.51534271240234, -14.590417861938477
404,856982691,0.48362866,0.45223948,-0.590135,0.46186978,10.89628791809082,0.7057886719703674,-0.446205735206604,-68.50286102294922,-78.95596313476562, -18.63954734802246
405,856999358,0.48105758,0.45618114,-0.5998173,0.44799763,10.660265922546387,1.0045971870422363,0.015247419476509094,-65.53992462158203,-98.08113861083984, -23.815404891967773
406,857016025,0.47591195,0.4626296,-0.61000276,0.43287233,10.484916687011719,0.07557538896799088,-0.4436114728450775,-55.88246536254883,-122.0346908569336, -28.778711318969727
407,857032692,0.46799874,0.47117,-0.62123483,0.4159848,11.530980110168457,-0.16600637137889862,-1.1565842628479004,-50.743473052978516,-148.9174041748047, -31.753942489624023
408,857049359,0.45909485,0.48077902,-0.6332493,0.39633182,14.240652084350586,-0.7829888463020325,-0.5511833429336548,-58.140621185302734,-167.69979858398438, -39.85696029663086
409,857066026,0.4520601,0.48960984,-0.6450262,0.37398565,15.91008186340332,-1.2334104776382446,-0.12786173820495605,-77.87504577636719,-165.62425231933594, -50.856781005859375
410,857082693,0.44765705,0.49668166,-0.65703595,0.34815854,16.309526443481445,-1.372829794883728,1.514509677886963,-108.25672912597656,-161.9169921875, -59.871437072753906
411,857099360,0.44739416,0.5006101,-0.66989076,0.31697723,18.12805938720703,-0.7002543807029724,3.2933566570281982,-158.33474731445312,-156.64833068847656, -69.18519592285156
412,857116027,0.45237273,0.49939275,-0.68468624,0.27779597,22.083213806152344,-4.22703742980957,8.102456092834473,-233.35830688476562,-154.91209411621094, -74.84652709960938
413,857132694,0.4599862,0.49465084,-0.69958615,0.23305048,23.536409378051758,-7.514070510864258,12.133371353149414,-279.87518310546875,-155.3878173828125, -80.28123474121094
414,857149361,0.46321487,0.4935965,-0.7114122,0.18891107,18.599422454833984,-11.063282012939453,3.822122573852539,-245.5667266845703,-170.82603454589844, -99.60139465332031
415,857166028,0.45445442,0.50143605,-0.71994734,0.15397719,20.764999389648438,-16.704235076904297,2.4886674880981445,-127.34842681884766,-199.4282989501953, -109.46126556396484
416,857182695,0.4628571,0.49944612,-0.7228729,0.11735197,22.25526237487793,-11.43096923828125,16.300872802734375,-219.87896728515625,-92.50456237792969, -103.73091888427734
417,857199362,0.47370273,0.48915738,-0.7285011,0.07494706,6.972036838531494,-17.593008041381836,-3.6743927001953125,-285.7760925292969,-102.40631103515625, -73.69606018066406
418,857216029,0.46967468,0.49037588,-0.731306,0.064257406,11.257479667663574,-12.697629928588867,-3.1058478355407715,-38.06562423706055,-66.98139953613281, -29.973787307739258
419,857232696,0.47118592,0.4861778,-0.7333216,0.062086258,8.967717170715332,-6.328928470611572,11.648205757141113,-31.249557495117188,-5.555037975311279, 19.591297149658203
420,857249363,0.47975218,0.48056006,-0.73112994,0.06594888,2.2933149337768555,-1.2040566205978394,9.594335556030273,-27.25338363647461,64.27845001220703, 29.145950317382812
421,857266030,0.49357948,0.46614283,-0.73041874,0.07469175,4.983125686645508,-3.8237862586975098,3.985015630722046,-49.79888153076172,105.89559936523438, 91.94853973388672
422,857282697,0.50180024,0.45572013,-0.7279248,0.10315647,5.729276657104492,-7.386847496032715,3.0780251026153564,81.64412689208984,144.9169921875, 135.939697265625
423,857299364,0.5096069,0.44694415,-0.72116834,0.14303148,5.383157730102539,-4.167719841003418,4.893738269805908,148.68447875976562,192.1098175048828, 153.96343994140625
424,857316031,0.5233681,0.4288901,-0.7136821,0.18109982,6.426253795623779,-4.801339626312256,1.328281044960022,89.56880950927734,227.7312774658203, 185.4976043701172
425,857332698,0.53779054,0.408537,-0.70185006,0.22646284,8.900876998901367,-3.748969554901123,0.20359203219413757,120.50635528564453,271.02557373046875, 209.33985900878906
426,857349365,0.552677,0.38616922,-0.6846896,0.27680624,11.028458595275879,0.9253934621810913,1.1128461360931396,144.06089782714844,310.1466979980469, 221.73081970214844
427,857366032,0.5696788,0.35787302,-0.6646771,0.3249578,13.528017044067383,3.02427077293396,-0.09538924694061279,111.02926635742188,336.43463134765625, 229.6658477783203
428,857382699,0.5855399,0.3294308,-0.6393442,0.37397525,16.97286605834961,4.5655927658081055,-1.3593285083770752,129.19375610351562,354.5614013671875, 223.1528778076172
429,857399366,0.5999094,0.30129144,-0.610384,0.4204326,19.436031341552734,4.396414756774902,-4.68498420715332,131.94406127929688,356.0523681640625, 207.1262664794922
430,857416033,0.6128785,0.27115417,-0.58045316,0.46252513,20.743654251098633,0.8849145770072937,-6.824219226837158,111.27576446533203,350.9516296386719, 199.58717346191406
431,857432700,0.6238485,0.24163972,-0.55015796,0.49974975,25.166126251220703,1.174652099609375,-6.859827041625977,99.2142562866211,333.5777282714844, 182.2012481689453
432,857449367,0.6314746,0.21332903,-0.5238668,0.5303719,24.33717918395996,-0.27091503143310547,-8.861114501953125,71.39967346191406,288.7060241699219, 167.5404052734375
433,857466034,0.6317209,0.20088999,-0.4901696,0.56595576,21.032209396362305,0.3061816990375519,-12.660584449768066,196.19992065429688,243.82630920410156, 148.06146240234375
434,857482701,0.6275591,0.2021846,-0.4529759,0.60008657,18.265596389770508,6.2970290184021,-15.076467514038086,270.8327941894531,188.8645477294922, 107.9249496459961
435,857499368,0.62242514,0.20378867,-0.43049866,0.62107015,12.852144241333008,6.725096225738525,-18.995203018188477,171.94949340820312,102.91303253173828, 74.92696380615234
436,857516035,0.61744595,0.20658727,-0.42387664,0.6296117,10.1618070602417,7.573357105255127,-18.809755325317383,72.43902587890625,13.194125175476074, 39.91181182861328
437,857532702,0.6119926,0.2157319,-0.4281982,0.62894464,10.482948303222656,4.760087490081787,-14.702353477478027,25.9780330657959,-74.9893798828125, 0.13260629773139954
438,857549369,0.6039372,0.23513672,-0.43365785,0.62602854,12.482568740844727,1.5481456518173218,-9.588339805603027,61.583335876464844,-134.97488403320312, -26.449277877807617
439,857566036,0.5932524,0.26115945,-0.4393378,0.6219563,13.149303436279297,1.2660243511199951,-6.336334705352783,89.0276870727539,-173.95211791992188, -39.22022247314453
440,857582703,0.5832253,0.2834644,-0.4521446,0.6124226,15.899578094482422,-4.440670967102051,4.314667701721191,25.774505615234375,-194.82992553710938, -40.22477722167969
441,857599370,0.57242304,0.30978563,-0.4599303,0.6040107,18.817096710205078,8.25336742401123,2.5522780418395996,68.05097961425781,-191.80935668945312, -54.76624298095703
442,857616037,0.5653997,0.32687995,-0.47628686,0.5887475,16.39476203918457,6.7505879402160645,-5.304205894470215,-33.53174591064453,-189.82858276367188, -49.85507583618164
443,857632704,0.55554193,0.3395776,-0.49546096,0.5749599,18.52332878112793,-1.688924789428711,-1.113642692565918,-50.73137664794922,-188.87109375, -11.796820640563965
444,857649371,0.5510016,0.34848493,-0.51550895,0.55606294,7.470887184143066,-1.3357110023498535,0.832733690738678,-98.45014190673828,-171.00856018066406, -37.385986328125
445,857666038,0.54304665,0.3578955,-0.526221,0.5478163,10.023499488830566,-2.592003107070923,1.2215518951416016,-14.91201400756836,-124.15878295898438, -8.166357040405273
446,857682705,0.53684926,0.36528662,-0.5341209,0.5413625,10.481454849243164,-2.5215487480163574,1.056617021560669,-9.68626880645752,-95.30641174316406, -7.743943214416504
447,857699372,0.5312991,0.37198436,-0.53951126,0.5369138,11.272110939025879,-1.9476053714752197,1.192500114440918,2.80190110206604,-76.0690689086914, -6.5526442527771
448,857716039,0.5266494,0.37815103,-0.54367113,0.5329765,10.55350112915039,-2.737793207168579,0.33979880809783936,5.013782024383545,-64.99411010742188, -9.207738876342773
449,857732706,0.5214116,0.38565075,-0.5445588,0.5318452,9.921697616577148,-2.3154349327087402,-0.38750159740448,33.804561614990234,-52.94595718383789, -10.425747871398926
450,857749373,0.5166569,0.3929737,-0.5434825,0.5322257,10.19724178314209,-2.006014108657837,-1.1427640914916992,44.713436126708984,-39.450679779052734, -11.351734161376953
451,857766040,0.5107201,0.402395,-0.5392689,0.5351938,11.55433464050293,-1.6707600355148315,-0.11072870343923569,76.51481628417969,-33.414939880371094, -14.179317474365234
452,857782707,0.50530493,0.4108406,-0.5366003,0.5365978,9.878907203674316,-0.6364419460296631,0.048483218997716904,60.13809585571289,-37.651302337646484, -13.725074768066406
453,857799374,0.50120914,0.41688374,-0.5360507,0.53632754,9.759082794189453,-0.9883257746696472,0.49451977014541626,34.06058883666992,-36.027809143066406, -9.573227882385254
454,857816041,0.49893922,0.42075804,-0.5376974,0.5337642,9.896319389343262,-0.836143970489502,-0.6551358103752136,4.783418655395508,-35.46416473388672, -9.933137893676758
455,857832708,0.49754998,0.42366824,-0.54076654,0.52964216,9.735567092895508,-0.8147040605545044,-0.253612756729126,-12.06635570526123,-38.07095718383789, -10.839166641235352
456,857849375,0.4965511,0.426311,-0.5444221,0.52469105,9.247232437133789,-1.6046385765075684,0.08198553323745728,-19.34324073791504,-40.0842170715332, -12.400469779968262
457,857866042,0.49454,0.43006063,-0.54745215,0.52035993,9.4231538772583,-1.8357691764831543,0.06744665652513504,-8.0311279296875,-43.93442153930664, -12.6224946975708
458,857882709,0.49232984,0.43391776,-0.55100816,0.5154773,9.508439064025879,-2.1499087810516357,0.24227143824100494,-11.06396770477295,-48.50590133666992, -12.653070449829102
459,857899376,0.49006063,0.43815908,-0.55521977,0.50949806,9.794722557067871,-1.7301583290100098,0.03746487945318222,-16.074249267578125,-55.602901458740234, -15.673264503479004
460,857916043,0.4881226,0.44234985,-0.56050414,0.50189465,9.570146560668945,-2.2694809436798096,0.7217344045639038,-27.231689453125,-62.687129974365234, -18.895771026611328
461,857932710,0.48582277,0.44659427,-0.5672239,0.49273401,9.39887809753418,-1.5311124324798584,0.116185761988163,-36.92160415649414,-73.84676361083984, -18.73289680480957
462,857949377,0.48337752,0.4504647,-0.5754796,0.48192418,9.938027381896973,-0.6751345992088318,0.25131291151046753,-49.389915466308594,-83.36146545410156, -17.585128784179688
463,857966044,0.4807521,0.4539059,-0.58543986,0.46915573,11.308181762695312,0.009279385209083557,0.15885330736637115,-63.65534210205078,-94.4088134765625, -16.523420333862305
464,857982711,0.47774208,0.4580597,-0.59669673,0.45375863,11.619776725769043,1.079398274421692,-0.15197449922561646,-74.87487030029297,-110.77288055419922, -22.79073715209961
465,857999378,0.47251993,0.46386206,-0.60938096,0.43613285,11.155303001403809,0.1450759619474411,-0.5589170455932617,-76.0859375,-136.72909545898438, -25.47100830078125
466,858016045,0.46371135,0.4724108,-0.6223324,0.41773486,11.609498023986816,0.14749404788017273,-1.1493616104125977,-59.776851654052734,-163.3500213623047, -27.882946014404297
467,858032712,0.45375824,0.48279408,-0.6337787,0.39917177,13.616280555725098,-1.0239442586898804,-1.433590054512024,-46.58318328857422,-169.2765350341797, -37.87057113647461
468,858049379,0.44471055,0.49345312,-0.64344496,0.38041472,15.736242294311523,-1.2755416631698608,-0.7289750576019287,-44.72520446777344,-161.20181274414062, -48.081817626953125
469,858066046,0.4391349,0.50183725,-0.6538444,0.35750198,16.171344757080078,-1.4676281213760376,-0.22153876721858978,-83.79786682128906,-156.27418518066406, -57.330867767333984
470,858082713,0.43677303,0.507645,-0.6655523,0.32949382,17.251859664916992,-1.2907688617706299,1.5770840644836426,-128.8192138671875,-157.0808563232422, -64.53617858886719
471,858099380,0.43944407,0.509375,-0.67874664,0.29449797,19.140836715698242,-0.6467201113700867,5.377348899841309,-194.04580688476562,-153.74745178222656, -73.08844757080078
472,858116047,0.44984996,0.50360686,-0.69417715,0.24926591,23.490163803100586,-4.190077304840088,11.429113388061523,-296.20684814453125,-145.20541381835938, -76.87844848632812
473,858132714,0.45800185,0.49964812,-0.70716333,0.20126215,21.610898971557617,-9.79744815826416,8.022268295288086,-291.9447021484375,-161.2822265625, -98.73662567138672
474,858149381,0.45179552,0.50813454,-0.7148136,0.16346806,21.721233367919922,-15.684042930603027,1.9972821474075317,-146.43397521972656,-196.56260681152344, -125.6208267211914
475,858166048,0.45124942,0.513616,-0.71856403,0.12742946,24.283241271972656,-13.866183280944824,16.778947830200195,-162.67617797851562,-147.2150115966797, -125.47090148925781
476,858182715,0.46619615,0.5041661,-0.72177136,0.086741745,12.6016263961792,-16.636756896972656,1.474463939666748,-286.3985900878906,-72.53755950927734, -81.70846557617188
477,858199382,0.46116146,0.5101852,-0.7222083,0.07386801,8.620290756225586,-14.584619522094727,-7.101864814758301,-27.922866821289062,-75.67540740966797, -67.06562805175781
478,858216049,0.46076077,0.5102868,-0.7227038,0.070754655,14.881948471069336,-6.016962051391602,10.680164337158203,-14.62633991241455,-15.609637260437012, -8.922649383544922
479,858232716,0.4689612,0.50768816,-0.7192229,0.07104055,2.2950024604797363,-3.412496328353882,8.197772026062012,-34.570106506347656,52.850337982177734, -2.8996031284332275
480,858249383,0.48297784,0.49726954,-0.71639013,0.07899868,4.269206523895264,-3.5934641361236572,4.351352691650391,-42.43827438354492,110.12037658691406, 59.905662536621094
481,858266050,0.4942646,0.48807478,-0.7120943,0.10201617,4.079362392425537,-5.360805988311768,3.1918463706970215,45.93011474609375,152.3709716796875, 100.3500747680664
482,858282717,0.50549847,0.47782588,-0.705773,0.13430688,4.1349263191223145,-4.499904155731201,3.994643211364746,89.33146667480469,190.88087463378906, 130.258544921875
483,858299384,0.5196588,0.461556,-0.6985159,0.1702837,5.6438140869140625,-4.947805404663086,2.1064324378967285,77.53501892089844,226.0419921875, 166.50347900390625
484,858316051,0.5348511,0.44196895,-0.6879107,0.21301827,6.99170446395874,-3.7844765186309814,0.924382746219635,98.77700805664062,268.35736083984375, 194.73851013183594
485,858332718,0.5517871,0.41756347,-0.6735121,0.25991073,9.848306655883789,-0.7653591632843018,1.59200918674469,100.98202514648438,310.3360900878906, 218.7308349609375
486,858349385,0.57015175,0.3865758,-0.65710205,0.30610988,13.123000144958496,1.4770140647888184,0.5657743215560913,72.30262756347656,334.42706298828125, 238.24111938476562
487,858366052,0.58518827,0.35507995,-0.63674504,0.35500538,15.703422546386719,2.9128198623657227,-0.7196076512336731,99.73323822021484,343.1679382324219, 247.6174774169922
488,858382719,0.5964014,0.32603803,-0.61052054,0.4065334,18.91484260559082,4.017945289611816,-2.4057271480560303,144.86915588378906,350.5437316894531, 242.49102783203125
489,858399386,0.60419756,0.29989263,-0.57878846,0.45827273,21.45663070678711,1.7660118341445923,-5.293739318847656,180.7842254638672,351.224609375, 228.4394989013672
490,858416053,0.6090101,0.277896,-0.54136807,0.50872505,24.921316146850586,2.2101166248321533,-7.246901988983154,217.14552307128906,347.3168640136719, 204.31053161621094
491,858432720,0.6160265,0.2506403,-0.5107862,0.54478294,26.183250427246094,4.528099536895752,-8.785699844360352,113.41046905517578,317.7772521972656, 168.98977661132812
492,858449387,0.61976916,0.22709231,-0.48448104,0.5741024,21.540678024291992,0.7378783226013184,-13.26028060913086,94.97731018066406,262.7639465332031, 147.0548553466797
493,858466054,0.6184215,0.2183271,-0.45117518,0.6052514,17.811681747436523,3.3353636264801025,-13.594379425048828,199.89105224609375,220.2423858642578, 114.91567993164062
494,858482721,0.61622274,0.21453139,-0.42474815,0.6275627,15.101142883300781,6.077419757843018,-16.110004425048828,166.32164001464844,154.4866485595703, 75.8868637084961
495,858499388,0.6141199,0.2105148,-0.41451567,0.6377438,11.694962501525879,6.833677291870117,-18.965700149536133,60.00655746459961,69.31932067871094, 48.73549270629883
496,858516055,0.61218554,0.21043468,-0.4184677,0.63704884,10.64973258972168,4.489574909210205,-16.88416290283203,-16.71129035949707,-22.968252182006836, 11.525132179260254
497,858532722,0.60643053,0.2227717,-0.42457357,0.63431233,11.334431648254395,0.47050541639328003,-12.007402420043945,25.856555938720703,-100.2587890625, -12.845183372497559
498,858549389,0.59708464,0.24433322,-0.43052533,0.6312205,13.014814376831055,-0.7128473520278931,-7.047839641571045,69.5274887084961,-150.78997802734375, -25.789710998535156
499,858566056,0.5854015,0.26973018,-0.437023,0.62734497,13.520282745361328,-1.7011430263519287,-4.213951587677002,84.5733642578125,-177.84889221191406, -29.284299850463867
500,858582723,0.57198083,0.295804,-0.44494182,0.6223865,12.774117469787598,-0.8219354152679443,0.044765204191207886,81.17786407470703,-193.664794921875, -25.558229446411133
501,858599390,0.5588609,0.31850967,-0.4558835,0.61513954,16.039566040039062,0.3373633921146393,1.993977427482605,47.404144287109375,-194.84896850585938, -19.407100677490234
502,858616057,0.5452527,0.34677747,-0.4559654,0.61199725,17.903305053710938,13.64695930480957,0.7089478969573975,128.69171142578125,-169.17149353027344, -42.78909683227539
503,858632724,0.53654194,0.35892126,-0.47368798,0.59909767,17.074691772460938,-0.9628669619560242,-4.097723484039307,-48.24956512451172,-175.33885192871094, -7.268016338348389
504,858649391,0.5273323,0.37281224,-0.48734313,0.5877317,13.767963409423828,-0.22931337356567383,4.054123878479004,-18.758703231811523,-165.33460998535156, -15.279043197631836
505,858666058,0.51919526,0.38351348,-0.49796084,0.57912767,8.592153549194336,0.7578272223472595,2.307077646255493,-11.511123657226562,-130.78285217285156, -6.7040581703186035
506,858682725,0.5133988,0.3892004,-0.50792557,0.57180125,10.318746566772461,-2.915651798248291,1.3205841779708862,-28.64407730102539,-97.12545013427734, 3.961653232574463
507,858699392,0.5078416,0.39385006,-0.514425,0.5677554,10.981322288513184,-2.2580349445343018,1.1541270017623901,-7.887627124786377,-71.21924591064453, 8.916169166564941
508,858716059,0.50429124,0.3962924,-0.5210696,0.56314236,10.835061073303223,-2.587222099304199,0.7818189859390259,-23.584548950195312,-57.57072448730469, 7.287981986999512
509,858732726,0.50187707,0.3979794,-0.5267921,0.5587684,10.265437126159668,-2.9320664405822754,0.17196565866470337,-24.89808464050293,-46.743038177490234, 3.8892698287963867
510,858749393,0.50068337,0.3978937,-0.5330039,0.55398905,9.856284141540527,-2.681945562362671,-0.5437222719192505,-37.71055221557617,-38.325599670410156, 5.543407440185547
511,858766060,0.50123864,0.39533186,-0.54124415,0.547291,9.784418106079102,-2.741671562194824,0.2396826297044754,-65.78168487548828,-34.72919845581055, 6.8883185386657715
512,858782727,0.50140476,0.39403912,-0.54796,0.5413561,10.026597023010254,-2.410291910171509,-0.706253707408905,-51.801292419433594,-33.6409912109375, 2.1020562648773193
513,858799394,0.50080144,0.3953548,-0.5517558,0.5370832,10.395527839660645,-2.206984281539917,-0.4776780307292938,-23.591184616088867,-31.689199447631836, -7.050447463989258
514,858816061,0.50040644,0.3966095,-0.5557139,0.5324251,10.090757369995117,-1.6521289348602295,0.17361894249916077,-26.43466567993164,-32.28854751586914, -8.482288360595703
515,858832728,0.50290406,0.39198726,-0.56621736,0.5223329,9.961292266845703,-1.6104865074157715,0.840293288230896,-99.28973388671875,-37.07687759399414, 2.5315635204315186
516,858849395,0.5059454,0.38621897,-0.57768387,0.5110143,9.669132232666016,-1.316812515258789,0.11201120913028717,-112.95681762695312,-37.505149841308594, 3.398597002029419
517,858866062,0.50874555,0.38137984,-0.58845085,0.49945295,9.699748992919922,-1.2840039730072021,-0.5833643674850464,-107.61042022705078,-39.95612716674805, -2.1446638107299805
518,858882729,0.51021415,0.3802524,-0.5959473,0.48983315,8.99330997467041,-2.0515522956848145,-0.6406992673873901,-72.03662872314453,-41.57312774658203, -14.370287895202637
519,858899396,0.5104289,0.38245454,-0.600825,0.48187175,8.995954513549805,-2.8849868774414062,-0.7350957989692688,-41.47710418701172,-44.409812927246094, -24.82798194885254
520,858916063,0.509223,0.38749817,-0.603496,0.47574133,8.412461280822754,-3.6350350379943848,-0.37098026275634766,-12.920632362365723,-47.13786315917969, -31.25435447692871
521,858932730,0.5075916,0.39292538,-0.6061904,0.46956757,9.028084754943848,-2.944979429244995,-0.12542012333869934,-10.713815689086914,-50.36428451538086, -31.568017959594727
522,858949397,0.504834,0.39872837,-0.6100975,0.46253592,9.736120223999023,-2.1504764556884766,-0.7132654190063477,-13.864208221435547,-62.831687927246094, -29.235849380493164
523,858966064,0.50158644,0.40522408,-0.6150494,0.453783,10.393468856811523,-0.7197374105453491,-0.2114574909210205,-20.68161964416504,-75.44141387939453, -33.707496643066406
524,858982731,0.4969981,0.4134171,-0.6203537,0.4441179,10.748575210571289,-0.11861491203308105,-0.5127948522567749,-16.054790496826172,-90.17705535888672, -38.87105941772461
525,858999398,0.49038708,0.42490906,-0.62467355,0.43446064,11.230619430541992,0.5162324905395508,0.02733384072780609,3.996483325958252,-105.50365447998047, -49.540409088134766
526,859016065,0.48123932,0.43903863,-0.6293414,0.42377245,10.942358016967773,0.07337689399719238,-0.4468368887901306,14.853286743164062,-128.48387145996094, -55.75586700439453
527,859032732,0.46984798,0.45526075,-0.6346255,0.4113772,12.322548866271973,-0.11201205849647522,-0.8077989220619202,19.346248626708984,-151.4980926513672, -62.07167434692383
528,859049399,0.45568752,0.473431,-0.6416709,0.39556354,13.614221572875977,-0.2875952124595642,-0.7259554862976074,14.424205780029297,-185.50711059570312, -68.28873443603516
529,859066066,0.44164947,0.49034026,-0.65163624,0.37400877,15.810969352722168,0.398569256067276,0.0003890693187713623,-23.230417251586914,-209.40603637695312, -71.55400848388672
530,859082733,0.43294454,0.50181717,-0.6635165,0.3471089,18.396249771118164,-0.4019761383533478,2.0596275329589844,-86.59898376464844,-195.41441345214844, -70.71258544921875
531,859099400,0.43219823,0.5065992,-0.67604035,0.31548595,21.48351287841797,-0.11300396919250488,5.339926242828369,-157.12017822265625,-161.404541015625, -71.00801849365234
532,859116067,0.44057915,0.50444555,-0.68987936,0.27475643,23.89154624938965,-2.946218252182007,10.140557289123535,-254.7986297607422,-139.68218994140625, -81.06275939941406
533,859132734,0.4485924,0.50183266,-0.7025733,0.23091048,22.03694725036621,-9.909759521484375,9.942853927612305,-267.6238098144531,-148.0569305419922, -91.63277435302734
534,859149401,0.44366455,0.5101738,-0.71078867,0.19407193,18.490497589111328,-13.944833755493164,-1.0163578987121582,-148.3074951171875,-190.11572265625, -117.89057922363281
535,859166068,0.44107524,0.5139459,-0.71889037,0.15655339,25.65184783935547,-14.643766403198242,14.605843544006348,-173.76480102539062,-174.70339965820312, -101.21887969970703
536,859182735,0.45423427,0.5034925,-0.72707975,0.10733958,13.073576927185059,-14.128719329833984,2.890745162963867,-330.720947265625,-123.36882019042969, -83.11389923095703
537,859199402,0.4568165,0.5026959,-0.729487,0.08040026,8.86899185180664,-16.49721336364746,-7.477007865905762,-148.3213653564453,-88.23580932617188, -74.08678436279297
538,859216069,0.457949,0.500553,-0.73111355,0.072128646,14.425127983093262,-9.488941192626953,8.577617645263672,-53.621437072753906,-27.79863929748535, -10.646842002868652
539,859232736,0.46941966,0.49492294,-0.72844714,0.06372967,2.4333508014678955,-3.805511236190796,9.629960060119629,-98.76900482177734,38.86512756347656, -13.47302532196045
540,859249403,0.4887473,0.48285723,-0.7240028,0.061604276,3.554912567138672,-1.7865750789642334,6.2972025871276855,-114.07502746582031,108.09711456298828, 29.476850509643555
541,859266070,0.50737417,0.46740505,-0.7203374,0.07223492,4.711027145385742,-5.651605129241943,2.8107073307037354,-59.93791580200195,145.78021240234375, 92.04280853271484
542,859282737,0.51908517,0.45673957,-0.7151797,0.10226284,4.369796276092529,-6.589797496795654,3.610133171081543,75.77565002441406,176.70774841308594, 134.61412048339844
543,859299404,0.53088343,0.44344825,-0.7086724,0.13892426,5.386655807495117,-5.846719264984131,1.7774345874786377,99.67628479003906,204.65151977539062, 166.88133239746094
544,859316071,0.5427863,0.42733297,-0.6994796,0.18302493,6.671841144561768,-6.102960109710693,-0.06972390413284302,127.8443832397461,240.3902587890625, 199.50013732910156
545,859332738,0.5548232,0.40869197,-0.685639,0.23460898,8.530580520629883,-3.2841804027557373,1.014136552810669,159.85885620117188,283.6282958984375, 225.7454071044922
546,859349405,0.56924605,0.38482586,-0.66710883,0.28780878,12.395922660827637,1.5398132801055908,1.055643081665039,148.40403747558594,325.8122253417969, 239.50067138671875
547,859366072,0.58478504,0.3565999,-0.6442886,0.34022856,14.95296859741211,4.071869850158691,0.31492528319358826,133.35560607910156,354.35400390625, 242.87794494628906
548,859382739,0.5989371,0.32686085,-0.6189191,0.3890701,18.38739013671875,5.543708324432373,-1.3558809757232666,120.85992431640625,353.2487487792969, 232.1774139404297
549,859399406,0.61076236,0.2963025,-0.59229887,0.4340003,19.879749298095703,4.771082878112793,-3.988044261932373,109.51087951660156,341.9205322265625, 222.9927520751953
550,859416073,0.61990154,0.26554152,-0.56508386,0.47527906,21.705951690673828,-0.5964740514755249,-6.466175079345703,101.13272094726562,326.6867370605469, 215.3325958251953
551,859432740,0.62408227,0.23938821,-0.53597873,0.51569504,25.697551727294922,-2.634770154953003,-9.353257179260254,132.5745391845703,298.9419860839844, 206.4662322998047
552,859449407,0.62536365,0.22068284,-0.50603527,0.5514959,23.596172332763672,4.742049694061279,-11.1261625289917,155.4798126220703,257.8948669433594, 168.18206787109375
553,859466074,0.6225834,0.21088515,-0.47622415,0.5840616,18.775001525878906,3.566211223602295,-14.182583808898926,188.24014282226562,204.6082763671875, 138.9647216796875
554,859482741,0.616475,0.216025,-0.4403313,0.6159548,15.903801918029785,8.238005638122559,-15.774539947509766,279.4195861816406,158.89393615722656, 91.8675308227539
555,859499408,0.6111639,0.21822473,-0.42253497,0.63270915,12.185901641845703,5.988938808441162,-18.131017684936523,143.3385467529297,74.64405822753906, 60.25977325439453
556,859516075,0.6070658,0.21896517,-0.4221125,0.6366683,10.82063102722168,5.376938343048096,-17.79123306274414,22.718347549438477,-7.553521633148193, 31.650711059570312
557,859532742,0.6018907,0.2275933,-0.42820814,0.6344815,11.363333702087402,3.3288354873657227,-13.26707649230957,11.000988006591797,-81.54006958007812, -2.234607696533203
558,859549409,0.5939689,0.24639852,-0.43543553,0.62998784,11.331014633178711,2.5487515926361084,-9.256380081176758,45.77247619628906,-142.2151336669922, -27.91026496887207
559,859566076,0.5848851,0.2680786,-0.44898468,0.62004524,13.809480667114258,-3.163207530975342,0.04012003540992737,15.880241394042969,-193.12771606445312, -42.959293365478516
560,859582743,0.5695088,0.2992117,-0.4568503,0.6143453,21.1218204498291,-3.1413118839263916,-0.6083112955093384,102.8578109741211,-222.1484375, -38.765647888183594
561,859599410,0.5527974,0.33531553,-0.45161355,0.6148364,17.889198303222656,13.791221618652344,0.5373331308364868,199.967529296875,-183.22726440429688, -51.46261215209961
562,859616077,0.54078066,0.3506921,-0.47148168,0.601894,17.93520736694336,0.48723268508911133,-6.791876792907715,-37.486610412597656,-207.35374450683594, -0.012616228312253952
563,859632744,0.5324834,0.36494514,-0.49057832,0.58532876,12.338000297546387,2.908924102783203,5.383496284484863,-59.06689453125,-196.44546508789062, -27.05949592590332
564,859649411,0.52461135,0.37445083,-0.50533205,0.57376736,5.6811299324035645,-4.546839237213135,-1.5300356149673462,-43.188560485839844,-147.46444702148438, -5.338425636291504
565,859666078,0.51802176,0.3814868,-0.5149049,0.5665636,11.169047355651855,-1.7906560897827148,1.8307723999023438,-19.78476333618164,-103.35514068603516, 0.5179409980773926
566,859682745,0.5136471,0.3848024,-0.5244127,0.5595401,11.908904075622559,-2.329702377319336,0.9107818007469177,-37.94025421142578,-80.33505249023438, 5.516662120819092
567,859699412,0.50884056,0.3890004,-0.53029424,0.55547124,11.260355949401855,-2.273322105407715,0.9231405258178711,-9.082233428955078,-64.67313385009766, 4.818723678588867
568,859716079,0.50430554,0.39379847,-0.5338554,0.5528085,10.390300750732422,-3.149947166442871,0.3913082778453827,6.283814430236816,-54.1075553894043, 0.2889590859413147
569,859732746,0.49923038,0.4000678,-0.53418744,0.55259275,9.836217880249023,-2.0298681259155273,-0.8738778233528137,34.09962844848633,-43.866127014160156, -3.344773054122925
570,859749413,0.4944508,0.4063709,-0.53292763,0.5535063,10.365106582641602,-1.442165493965149,-0.38157224655151367,43.58758544921875,-34.3316535949707, -5.116653919219971
571,859766080,0.49080595,0.41136777,-0.5327239,0.5532553,10.38532543182373,-1.1074825525283813,-0.2795690894126892,27.699832916259766,-32.04648208618164, -5.667422294616699
572,859782747,0.4881428,0.415883,-0.53317016,0.55180377,9.893074989318848,-1.7677947282791138,-0.7086843848228455,16.417905807495117,-32.2081298828125, -9.859735488891602
573,859799414,0.4862831,0.41941637,-0.5346877,0.5492977,10.671990394592285,-1.3786919116973877,-0.0451340451836586,2.901719570159912,-32.14727020263672, -9.794322967529297
574,859816081,0.4849702,0.42257378,-0.5374049,0.5453726,9.798192024230957,-1.1723017692565918,0.2123434841632843,-9.696688652038574,-36.82281494140625, -11.769919395446777
575,859832748,0.48273596,0.42610052,-0.5405994,0.54143953,9.674945831298828,-1.374016284942627,0.2063390016555786,-7.604976177215576,-43.23667907714844, -8.324006080627441
576,859849415,0.48062208,0.42932034,-0.54540133,0.5359327,9.583952903747559,-1.0142197608947754,0.381804883480072,-20.82000160217285,-51.601627349853516, -8.154444694519043
577,859866082,0.478342,0.43209037,-0.5521451,0.5287938,9.442377090454102,-1.8236290216445923,-0.2422761172056198,-35.07712936401367,-61.817161560058594, -5.5188798904418945
578,859882749,0.47533736,0.43585345,-0.55941665,0.5207104,9.67033576965332,-1.5646711587905884,-0.4279617667198181,-35.18159866333008,-72.72761535644531, -8.206742286682129
579,859899416,0.4722264,0.440348,-0.5675377,0.5108785,9.175217628479004,-1.821942687034607,0.28847798705101013,-42.2421760559082,-83.78089904785156, -13.818002700805664
580,859916083,0.46852958,0.4455148,-0.57609814,0.5001076,8.687198638916016,-2.708127021789551,-0.30398014187812805,-43.50597381591797,-92.71315002441406, -16.117900848388672
581,859932750,0.46397823,0.4514294,-0.5844086,0.48928767,9.627806663513184,-2.288174629211426,0.07085530459880829,-37.82658004760742,-98.02584075927734, -17.089527130126953
582,859949417,0.46030545,0.4567098,-0.59266454,0.47779074,10.533867835998535,-1.6863116025924683,-0.4741155803203583,-45.143455505371094,-94.30441284179688, -19.844871520996094
583,859966084,0.45659307,0.4623027,-0.60039234,0.46618462,11.108989715576172,-0.59781414270401,-0.18090929090976715,-42.75058364868164,-94.17794036865234, -23.004573822021484
584,859982751,0.45299736,0.46836612,-0.60836303,0.45312387,11.347148895263672,-0.35802754759788513,-1.5255494117736816,-48.41938400268555,-100.61145782470703, -29.120262145996094
585,859999418,0.44756496,0.47684193,-0.6149337,0.4406404,11.387736320495605,0.13970741629600525,-0.7060100436210632,-28.221311569213867,-109.59899139404297, -36.20273971557617
586,860016085,0.44122052,0.48657238,-0.6212082,0.42740175,11.719560623168945,0.351263165473938,-1.177772045135498,-23.685657501220703,-118.83795928955078, -42.04233169555664
587,860032752,0.43450108,0.49741715,-0.6273406,0.41258806,13.169869422912598,-0.409877747297287,-0.8955190181732178,-25.351951599121094,-128.5704803466797, -50.96023941040039
588,860049419,0.42853755,0.5077595,-0.6346901,0.39459422,15.676872253417969,-1.7452287673950195,-0.6065991520881653,-46.62561798095703,-138.42391967773438, -56.28717041015625
589,860066086,0.4239771,0.5164239,-0.64417034,0.37228262,16.118797302246094,-1.7340879440307617,0.05122748017311096,-81.13420104980469,-149.14588928222656, -58.07121276855469
590,860082753,0.42298567,0.5221377,-0.65614426,0.34340954,17.4685001373291,-0.20475070178508759,2.9959957599639893,-137.91189575195312,-156.4181671142578, -64.42667388916016
591,860099420,0.42980272,0.52111006,-0.6718849,0.30378395,21.422761917114258,-1.9366669654846191,8.31135368347168,-243.04562377929688,-154.9476776123047, -70.20750427246094
592,860116087,0.4407391,0.5144203,-0.6887729,0.25828815,23.75615692138672,-6.0759172439575195,10.81009578704834,-304.2156066894531,-148.70506286621094, -65.8973617553711
593,860132754,0.44426006,0.51499134,-0.70103025,0.2144148,19.98282241821289,-8.848127365112305,2.4914846420288086,-240.1729278564453,-177.16209411621094, -98.63235473632812
594,860149421,0.43702567,0.52280486,-0.71015704,0.17708969,24.332117080688477,-16.15521240234375,8.06220817565918,-143.8995819091797,-207.06495666503906, -108.83003997802734
595,860166088,0.4494776,0.51418036,-0.7193914,0.12674683,21.651153564453125,-13.319904327392578,18.440776824951172,-328.12982177734375,-138.3056640625, -91.3828353881836
596,860182755,0.46208414,0.5074535,-0.7215274,0.09147533,9.173850059509277,-13.766642570495605,-5.41381311416626,-242.17025756835938,-64.23454284667969, -79.53242492675781
597,860199422,0.46025482,0.5086636,-0.72319055,0.08014009,11.00511646270752,-13.996006965637207,-2.1205239295959473,-47.69413375854492,-55.86852264404297, -35.4983024597168
598,860216089,0.46705487,0.50394726,-0.7228581,0.07330099,11.1317720413208,-3.4772114753723145,13.590902328491211,-73.38103485107422,12.244921684265137, -3.6164302825927734
599,860232756,0.4838649,0.4945775,-0.718737,0.06844636,-0.04308003932237625,-2.6842522621154785,7.325087547302246,-111.26000213623047,83.2234115600586, 7.631702423095703
600,860249423,0.5040329,0.47814104,-0.71554524,0.07298617,4.937709331512451,-4.920863628387451,3.2001142501831055,-100.21024322509766,131.9803009033203, 75.32354736328125
601,860266090,0.51558185,0.46865338,-0.71030056,0.100062735,5.26949405670166,-6.202535629272461,2.301650285720825,64.06168365478516,167.27139282226562, 116.74737548828125
602,860282757,0.52547985,0.45863587,-0.70331573,0.13737245,5.618056774139404,-5.451104640960693,3.122877359390259,118.60874938964844,198.70603942871094, 151.0966339111328
603,860299424,0.5365813,0.4439454,-0.69489723,0.17919484,6.075623512268066,-6.1469011306762695,1.0397586822509766,121.03794860839844,228.3456268310547, 184.29815673828125
604,860316091,0.54795724,0.42579675,-0.68325347,0.22716704,7.730607986450195,-5.395254135131836,-0.008959054946899414,140.7239990234375,264.6297912597656, 213.27638244628906
605,860332758,0.5601216,0.40369472,-0.6668305,0.28041354,11.219350814819336,-0.87533038854599,1.050985336303711,155.71060180664062,308.035400390625, 236.44003295898438
606,860349425,0.5740142,0.3756649,-0.6466791,0.33345145,14.238471984863281,1.9295978546142578,0.2069418728351593,134.3407440185547,341.2359924316406, 249.07569885253906
607,860366092,0.5865016,0.34691557,-0.62185687,0.385953,17.28276824951172,3.51298451423645,-0.9117092490196228,143.49571228027344,353.7395935058594, 241.26345825195312
608,860382759,0.59650797,0.31862795,-0.5930559,0.43696618,19.97713279724121,3.7958486080169678,-4.692567348480225,155.581787109375,354.44476318359375, 230.3636016845703
609,860399426,0.6037957,0.29014847,-0.5617748,0.4854419,21.94532012939453,1.160184383392334,-7.410688400268555,157.99542236328125,348.6242370605469, 223.5045928955078
610,860416093,0.60909235,0.26479366,-0.5268802,0.53036606,25.112653732299805,2.410388231277466,-7.051095485687256,173.3309783935547,338.53814697265625, 196.11517333984375
611,860432760,0.61415803,0.23662196,-0.4993496,0.56344485,24.2509708404541,1.611112356185913,-9.311807632446289,92.2817611694336,295.6285400390625, 171.01185607910156
612,860449427,0.61413753,0.21798499,-0.47056213,0.59488565,20.187835693359375,0.8030824065208435,-13.72172737121582,140.2702178955078,243.99932861328125, 149.14976501464844
613,860466094,0.6100781,0.21464053,-0.435165,0.6263911,16.006698608398438,5.779473304748535,-15.936225891113281,238.37220764160156,196.5669403076172, 106.72017669677734
614,860482761,0.606166,0.2118009,-0.41500452,0.6445731,12.425665855407715,6.485414981842041,-18.467649459838867,134.91026306152344,111.39530181884766, 71.3952407836914
615,860499428,0.603637,0.20946026,-0.41221932,0.6494799,10.481208801269531,6.339663982391357,-18.260576248168945,20.260475158691406,21.58531379699707, 34.06047821044922
616,860516095,0.60039586,0.21363835,-0.42014444,0.64603585,10.953654289245605,2.5666940212249756,-14.180763244628906,-22.99028778076172,-65.81805419921875, -0.23697274923324585
617,860532762,0.5938716,0.22952737,-0.42847875,0.6411239,12.226265907287598,-0.01575021632015705,-9.172778129577637,24.262847900390625,-130.99705505371094, -24.78704071044922
618,860549429,0.58395696,0.252749,-0.4360053,0.63640535,12.704699516296387,-1.3354417085647583,-4.835167407989502,63.815155029296875,-169.56951904296875, -31.839841842651367
619,860566096,0.57137436,0.28072846,-0.44435963,0.6302916,13.178796768188477,-0.4744928479194641,-0.9555482864379883,79.86221313476562,-204.0361328125, -38.55443572998047
620,860582763,0.552428,0.3146389,-0.44899392,0.6278776,21.525327682495117,-1.2683242559432983,-2.767381191253662,142.94984436035156,-227.36502075195312, -21.74428367614746
621,860599430,0.5359992,0.35085556,-0.44807234,0.6235677,20.802383422851562,20.057619094848633,5.177408695220947,164.50379943847656,-212.40699768066406, -58.95274353027344
622,860616097,0.52693045,0.36606455,-0.4716456,0.6048898,14.664287567138672,-4.901038646697998,-5.761342525482178,-79.85096740722656,-224.56787109375, -19.342958450317383
623,860632764,0.5158377,0.38554576,-0.48371938,0.59269005,7.826900959014893,0.26380839943885803,1.5643024444580078,9.63011646270752,-190.8188018798828, -30.32301139831543
624,860649431,0.5069569,0.39617133,-0.4955034,0.58354056,9.789177894592285,-2.9727015495300293,-0.6493940353393555,-16.295167922973633,-138.2666473388672, 0.1363777220249176
625,860666098,0.49996144,0.40419784,-0.5043266,0.57646984,12.944103240966797,-0.9439824819564819,2.800353527069092,-11.507652282714844,-105.42802429199219, 0.5540182590484619
626,860682765,0.49376586,0.41013128,-0.5113201,0.5714364,11.889679908752441,-2.1312084197998047,1.7111200094223022,-6.610158443450928,-82.44219207763672, 6.5394721031188965
627,860699432,0.48881546,0.41436487,-0.51728743,0.56725216,11.092652320861816,-2.0576858520507812,1.0376121997833252,-8.886335372924805,-65.53736114501953, 7.579075336456299
628,860716099,0.48440585,0.41791165,-0.52122736,0.5648213,10.864740371704102,-2.3291049003601074,0.37179845571517944,1.3986896276474,-49.15155029296875, 8.001008987426758
629,860732766,0.48012447,0.42221013,-0.52244097,0.56415826,10.114750862121582,-2.0434510707855225,-1.4032807350158691,20.443798065185547,-37.469825744628906, 2.8332247734069824
630,860749433,0.47666413,0.42712906,-0.52187943,0.56390965,10.04194164276123,-1.8949021100997925,-0.9295817613601685,28.476613998413086,-29.860549926757812, -6.391561508178711
631,860766100,0.47465113,0.4312209,-0.5220997,0.5622873,10.383522033691406,-2.3690760135650635,-1.1859186887741089,13.539252281188965,-28.058589935302734, -11.2649564743042
632,860782767,0.47312415,0.43504766,-0.5223061,0.56043166,10.276545524597168,-2.0399115085601807,-0.5169258117675781,10.440176010131836,-25.935457229614258, -13.018800735473633
633,860799434,0.47155312,0.43877167,-0.5225195,0.55865055,9.539023399353027,-2.0368497371673584,-0.6722230315208435,10.459611892700195,-25.50609016418457, -12.237735748291016
634,860816101,0.47073293,0.44152093,-0.5236962,0.55606854,9.824810028076172,-1.3926383256912231,-0.5951842665672302,-1.5494314432144165,-24.614030838012695, -11.330023765563965
635,860832768,0.47035173,0.44342712,-0.5261574,0.55253977,10.435052871704102,-0.3469714820384979,0.21358099579811096,-13.955693244934082,-26.85256576538086, -9.148581504821777
636,860849435,0.4702115,0.44480744,-0.5294724,0.5483672,10.23285961151123,-0.29567158222198486,-0.14535346627235413,-21.976978302001953,-28.72926139831543, -7.63615608215332
637,860866102,0.46966958,0.44664174,-0.5326728,0.5442256,9.355753898620605,-0.7405194044113159,-0.6565262675285339,-18.732776641845703,-31.458328247070312, -8.01956844329834
638,860882769,0.46896622,0.4487124,-0.53603673,0.5398079,9.362306594848633,-1.6821070909500122,-0.5544917583465576,-19.122011184692383,-34.32299041748047, -8.675518035888672
639,860899436,0.46828496,0.45111632,-0.5402038,0.5342125,9.192684173583984,-1.8784441947937012,0.08531959354877472,-25.45149803161621,-41.716270446777344, -11.320169448852539
640,860916103,0.46772468,0.45343888,-0.5460951,0.52669436,8.757506370544434,-2.2867000102996826,-0.005705475807189941,-39.58818817138672,-52.507591247558594, -12.32346248626709
641,860932770,0.4665971,0.45586562,-0.55310994,0.5182115,8.650493621826172,-2.086700916290283,0.23056480288505554,-45.197410583496094,-61.66008758544922, -10.282625198364258
642,860949437,0.4650381,0.45879394,-0.56136596,0.50805116,9.837355613708496,-1.229149580001831,0.5040061473846436,-53.08278274536133,-74.35466003417969, -12.166767120361328
643,860966104,0.4634723,0.46219972,-0.5715087,0.49491695,10.333773612976074,-0.9741325378417969,0.6724011898040771,-69.61571502685547,-91.49666595458984, -17.553768157958984
644,860982771,0.46005824,0.4674076,-0.58272684,0.47990218,10.953537940979004,-1.0083951950073242,-0.33267641067504883,-69.06720733642578,-114.33394622802734, -20.9316349029541
645,860999438,0.45418268,0.4751468,-0.5938364,0.4640174,11.101954460144043,0.18829379975795746,-0.21088507771492004,-56.307289123535156,-135.02871704101562, -26.066431045532227
646,861016105,0.44523954,0.4856208,-0.6042178,0.44816846,11.421161651611328,0.6478753685951233,-0.3178427517414093,-35.28232955932617,-153.92002868652344, -29.721691131591797
647,861032772,0.435447,0.49735558,-0.61350155,0.4320178,12.615073204040527,-0.21566499769687653,-1.095993161201477,-26.459239959716797,-159.01351928710938, -36.94087600708008
648,861049439,0.4256243,0.5099873,-0.61990476,0.4177021,15.297718048095703,-1.136675238609314,-1.220946192741394,-7.383373260498047,-146.9320831298828, -45.00978088378906
649,861066106,0.41860542,0.52158916,-0.6251614,0.40235257,15.888035774230957,-0.7652063369750977,-0.514845609664917,-21.38350486755371,-132.3316650390625, -55.73759078979492
650,861082773,0.41785076,0.5302117,-0.62900233,0.38552874,17.80954933166504,0.09295226633548737,1.618744969367981,-54.89424133300781,-98.42892456054688, -69.58868408203125
651,861099440,0.42409384,0.53380847,-0.6374906,0.3588853,18.417600631713867,1.1545674800872803,5.231588840484619,-149.7018585205078,-104.09385681152344, -77.67041015625
652,861116107,0.4370943,0.5292124,-0.65497625,0.316052,19.71570587158203,-3.038539409637451,9.403450012207031,-291.7245178222656,-140.10205078125, -72.61679077148438
653,861132774,0.44680992,0.5232412,-0.6758064,0.2643205,20.179134368896484,-6.603686332702637,11.708995819091797,-331.42669677734375,-194.5941619873047, -73.9084243774414
654,861149441,0.4456501,0.52589744,-0.6906257,0.21877865,20.54087257385254,-10.398866653442383,0.3408956527709961,-226.18714904785156,-220.29685974121094, -96.9175796508789
655,861166108,0.43668774,0.5341209,-0.70063394,0.18201892,23.977909088134766,-15.624305725097656,10.545625686645508,-132.15904235839844,-219.3531951904297, -102.17181396484375
656,861182775,0.44775185,0.52375025,-0.7130688,0.12937161,17.574941635131836,-13.63876724243164,7.35503625869751,-341.5362243652344,-165.57481384277344, -76.58922576904297
657,861199442,0.45100778,0.5221896,-0.7168946,0.09986128,10.187385559082031,-16.06146812438965,-5.846001625061035,-165.27557373046875,-102.0197525024414, -72.71294403076172
658,861216109,0.4481681,0.5242553,-0.7179429,0.09412679,13.241479873657227,-8.221013069152832,6.897591590881348,-13.317546844482422,-40.6475830078125, -22.706573486328125
659,861232776,0.46013406,0.5177357,-0.7166077,0.08185249,5.0030341148376465,-3.493778705596924,9.46932315826416,-123.98876953125,21.600339889526367, -18.734350204467773
660,861249443,0.47439203,0.5096318,-0.7131421,0.081584655,2.761672019958496,-3.9151194095611572,5.3913445472717285,-76.82049560546875,83.17138671875, 18.119348526000977
661,861266110,0.4880886,0.4986089,-0.7102089,0.09360558,4.380685806274414,-5.5364298820495605,2.5825581550598145,-24.440248489379883,123.35738372802734, 74.6303939819336
662,861282777,0.4973372,0.49035618,-0.70521146,0.12199705,4.63129997253418,-5.365955829620361,3.2847726345062256,81.31245422363281,162.903076171875, 111.77507019042969
663,861299444,0.5078529,0.4782962,-0.69918483,0.15639356,5.320998191833496,-5.808902740478516,2.9304349422454834,93.93223571777344,196.00588989257812, 146.19851684570312
664,861316111,0.51954544,0.46184328,-0.6916088,0.19608894,6.3618316650390625,-5.69883394241333,1.1300580501556396,101.78589630126953,229.24549865722656, 179.4066925048828
665,861332778,0.53242975,0.44130084,-0.6808593,0.24125236,8.093907356262207,-3.561835765838623,1.1578577756881714,113.60212707519531,269.193359375, 206.63873291015625
666,861349445,0.5471079,0.4155668,-0.6667613,0.2888022,11.028992652893066,-0.6064674854278564,1.5368297100067139,105.850830078125,305.7886047363281, 226.46829223632812
667,861366112,0.561558,0.38577947,-0.6490629,0.33844382,13.592846870422363,1.6204662322998047,0.5509520173072815,108.01943969726562,332.4014587402344, 243.02316284179688
668,861382779,0.57429457,0.3555293,-0.62611085,0.3895767,16.208953857421875,4.788154602050781,0.1629663109779358,129.74041748046875,350.16021728515625, 240.85227966308594
669,861399446,0.58485717,0.32603687,-0.5982519,0.4401554,19.747074127197266,4.907995223999023,-2.9225151538848877,148.95147705078125,356.86016845703125, 229.2368621826172
670,861416113,0.592361,0.3009238,-0.563735,0.4906691,22.046354293823242,4.457844257354736,-5.649251461029053,193.54376220703125,357.73638916015625, 205.35830688476562
671,861432780,0.6001291,0.27665216,-0.5279417,0.53346634,24.720739364624023,4.340574264526367,-7.892770767211914,170.80101013183594,345.24993896484375, 167.1473388671875
672,861449447,0.6082686,0.24798524,-0.5012663,0.5632448,24.804410934448242,1.6463119983673096,-10.683947563171387,71.44943237304688,300.4017639160156, 145.49560546875
673,861466114,0.6104806,0.22784448,-0.47543147,0.59107137,19.4705753326416,-0.5519413948059082,-14.497391700744629,107.3756103515625,240.2923126220703, 132.44053649902344
674,861482781,0.60682803,0.22546437,-0.442329,0.62070185,17.739669799804688,5.0940680503845215,-17.229759216308594,226.8594512939453,182.466064453125, 94.60289001464844
675,861499448,0.6018224,0.22887836,-0.41907713,0.6401553,14.30920696258545,7.350569725036621,-20.61989402770996,180.30165100097656,96.94554138183594, 55.801841735839844
676,861516115,0.59672964,0.23352133,-0.41250312,0.6474741,11.434325218200684,5.991421699523926,-20.470441818237305,77.36225128173828,3.4255571365356445, 28.974252700805664
677,861532782,0.5910429,0.24357592,-0.4180478,0.6454265,11.727873802185059,2.7870051860809326,-16.57205581665039,20.207035064697266,-86.86294555664062, -2.45820951461792
678,861549449,0.581652,0.26496035,-0.42563865,0.64055365,13.030631065368652,0.717276930809021,-12.956600189208984,55.44116973876953,-160.62750244140625, -26.48015785217285
679,861566116,0.5708766,0.2892258,-0.4372599,0.63186413,17.714942932128906,-4.1583452224731445,2.9854118824005127,40.726463317871094,-200.24745178222656, -36.65081024169922
680,861582783,0.5586945,0.31594402,-0.44823468,0.6221941,17.728784561157227,-0.4779205620288849,3.1074252128601074,53.09188461303711,-214.48277282714844, -43.07419204711914
681,861599450,0.54710793,0.34385428,-0.4506998,0.6158789,13.28550910949707,11.827062606811523,-0.22446703910827637,103.20780181884766,-177.69955444335938, -54.88154220581055
682,861616117,0.5349568,0.36159724,-0.4634783,0.6068415,15.630966186523438,0.7781887054443359,-9.259092330932617,14.262211799621582,-181.55372619628906, -6.681431770324707
683,861632784,0.5269305,0.37568122,-0.47707814,0.59464645,13.090362548828125,4.379804611206055,3.8361620903015137,-22.732799530029297,-163.85708618164062, -21.741437911987305
684,861649451,0.51791954,0.38586658,-0.48870763,0.5865417,9.24024486541748,-4.116231918334961,-2.3120079040527344,-12.810647010803223,-133.45680236816406, 4.840998649597168
685,861666118,0.5083917,0.39684594,-0.49397984,0.5831256,12.528620719909668,2.357921600341797,4.52654504776001,32.809837341308594,-103.2751693725586, 4.005703926086426
686,861682785,0.50340897,0.40079892,-0.50358427,0.5764917,11.151224136352539,-2.1798908710479736,1.641783356666565,-32.396705627441406,-83.63663482666016, 10.248749732971191
687,861699452,0.4983801,0.40463445,-0.51014376,0.57240003,10.698012351989746,-2.1518452167510986,2.641336441040039,-11.822463035583496,-65.80364990234375, 11.207740783691406
688,861716119,0.49519786,0.40680736,-0.51743954,0.56704783,9.4127197265625,-5.1935648918151855,-0.1962897628545761,-29.94500160217285,-58.852516174316406, 7.480798244476318
689,861732786,0.49227402,0.41033837,-0.5215181,0.5633007,9.122401237487793,-4.067583084106445,-0.9154268503189087,-7.84598970413208,-47.7801399230957, -1.9697221517562866
690,861749453,0.48737648,0.41857672,-0.5201929,0.56272286,10.243912696838379,-3.4539027214050293,-0.7368752360343933,45.955265045166016,-45.84213638305664, -15.780231475830078
691,861766120,0.48268408,0.42692956,-0.5183913,0.5621546,10.052257537841797,-2.091352939605713,-0.11610822379589081,47.61650466918945,-43.90394592285156, -18.378433227539062
692,861782787,0.47901338,0.4331212,-0.5177223,0.56117386,10.325488090515137,-0.5984362959861755,0.6553463339805603,31.597368240356445,-36.868553161621094, -12.702603340148926
693,861799454,0.4762625,0.43749696,-0.5185832,0.55932283,11.087130546569824,-0.9417673945426941,0.5069969296455383,13.871989250183105,-34.22252655029297, -8.10715103149414
694,861816121,0.47398496,0.44183952,-0.5198861,0.5566282,10.07371711730957,-0.8239328265190125,0.31563296914100647,7.636718273162842,-36.3969612121582, -11.247467994689941
695,861832788,0.4718233,0.4459996,-0.52189815,0.5532539,9.80034351348877,-1.7722604274749756,0.3093542158603668,1.5420153141021729,-39.66484069824219, -11.106782913208008
696,861849455,0.46929985,0.450474,-0.5242356,0.54955244,9.411921501159668,-1.30409574508667,0.4789535403251648,1.2470849752426147,-44.223514556884766, -10.944398880004883
697,861866122,0.4667239,0.45514137,-0.52721846,0.5450285,9.644261360168457,-1.3740638494491577,0.0037337839603424072,-3.38040828704834,-49.78277587890625, -12.113075256347656
