PacketCounter,SampleTimeFine,Quat_W,Quat_X,Quat_Y,Quat_Z,Acc_X,Acc_Y,Acc_Z,Gyr_X,Gyr_Y,Gyr_Z 
1,1755594865,0.42028484,0.5247955,-0.25581574,0.6946284,-0.07137890160083771,-0.061095237731933594,-0.05103475973010063,-0.13822318613529205,0.4928557872772217, 0.05126335099339485
2,1755611532,0.41883534,0.525415,-0.2568392,0.6946582,16.756702423095703,1.1386898756027222,5.366544246673584,1.9675226211547852,1.4790374040603638, 2.0487020015716553
3,1755628199,0.41683134,0.52547145,-0.26078773,0.69434947,17.02281379699707,1.3550434112548828,5.466082572937012,1.354213833808899,1.4946097135543823, 1.9897416830062866
4,1755644866,0.41509473,0.52615595,-0.26242256,0.6942555,16.889976501464844,1.3581547737121582,5.525407314300537,1.0541739463806152,1.8291887044906616, 1.8212230205535889
5,1755661533,0.41461587,0.5262575,-0.26289433,0.69428617,16.4773006439209,1.1734752655029297,5.2765655517578125,0.10610700398683548,2.240489959716797, 1.3020790815353394
6,1755678200,0.41434,0.5262408,-0.26340827,0.69426876,16.880935668945312,1.246339201927185,5.492791652679443,0.16308245062828064,1.9213684797286987, 0.7578477263450623
7,1755694867,0.41406736,0.5261615,-0.26345792,0.69447255,16.793441772460938,1.2521065473556519,5.504445552825928,1.8484622240066528,2.023102283477783, 0.8352493047714233
8,1755711534,0.41387182,0.5260999,-0.26328075,0.69470304,16.999094009399414,1.3055320978164673,5.513431072235107,0.884208083152771,1.2237043380737305, 0.010046581737697124
9,1755728201,0.41429558,0.5259072,-0.26334485,0.694572,16.94802474975586,1.339590072631836,5.500819683074951,2.4197404384613037,1.407180905342102, -0.04066016152501106
10,1755744868,0.41477808,0.52570343,-0.26341873,0.6944104,16.894367218017578,1.0221433639526367,5.396353244781494,0.6310008764266968,1.3408184051513672, -0.12141700834035873
11,1755761535,0.4148858,0.52553344,-0.2634825,0.6944504,16.667871475219727,1.5205013751983643,5.466723442077637,-0.005865308456122875,1.5977009534835815, -0.4213673174381256
12,1755778202,0.41490164,0.5255984,-0.2630608,0.6945516,16.806859970092773,1.4040555953979492,5.319912910461426,2.254128932952881,1.4780513048171997, -0.5472025275230408
13,1755794869,0.41538745,0.52551603,-0.26314527,0.6942916,16.99175262451172,1.1850051879882812,5.387084484100342,-0.40550029277801514,1.0527268648147583, -0.45557308197021484
14,1755811536,0.41559094,0.52554566,-0.2629494,0.6942217,17.06709098815918,1.6486128568649292,5.603466033935547,3.139918088912964,1.834182858467102, -0.2865292429924011
15,1755828203,0.41622576,0.5253878,-0.2631069,0.69390094,16.610837936401367,1.208460807800293,5.139570236206055,-0.7925849556922913,1.2611117362976074, -0.3582576513290405
16,1755844870,0.41632453,0.5253948,-0.26288748,0.6939197,16.759090423583984,1.4165258407592773,5.529908180236816,2.0137791633605957,2.190084218978882, 0.33525100350379944
17,1755861537,0.4166463,0.5251743,-0.26288405,0.6938945,16.728914260864258,1.4905508756637573,5.185668468475342,0.29834312200546265,2.570420265197754, 0.6868749856948853
18,1755878204,0.41661322,0.52508706,-0.26269433,0.6940524,16.855117797851562,1.4120333194732666,5.415211200714111,0.19308772683143616,2.634016513824463, 1.2115511894226074
19,1755894871,0.41667888,0.524871,-0.26264632,0.6941946,16.6445255279541,1.3240488767623901,5.292611598968506,0.1887463629245758,3.0135068893432617, 1.8510489463806152
20,1755911538,0.4167425,0.5246998,-0.2625932,0.6943059,17.16609001159668,1.4861747026443481,5.47518253326416,0.9361761808395386,2.7817630767822266, 1.713739037513733
21,1755928205,0.41682652,0.5245172,-0.26251912,0.6944216,17.27783966064453,1.6372793912887573,5.619645118713379,0.8215210437774658,2.9542267322540283, 1.5829482078552246
22,1755944872,0.41736802,0.5240401,-0.2627993,0.69435036,16.214208602905273,1.1093263626098633,5.137378692626953,-1.2125307321548462,3.5691871643066406, 1.7051845788955688
23,1755961539,0.41746998,0.52384,-0.26254657,0.69453573,16.59649658203125,1.2982306480407715,5.069246292114258,1.755180835723877,3.7692480087280273, 0.9383403658866882
24,1755978206,0.41753587,0.5235966,-0.26243654,0.6947212,17.125999450683594,1.2584502696990967,5.575436115264893,-0.2662440538406372,3.6383163928985596, 1.135891318321228
25,1755994873,0.4178705,0.5232133,-0.2624477,0.69480467,16.460765838623047,1.4081498384475708,5.491159915924072,-1.1778512001037598,4.054816722869873, 0.4639548063278198
26,1756011540,0.4181641,0.52303797,-0.2623487,0.6947976,16.552085876464844,0.9338677525520325,5.158531665802002,0.9482141733169556,2.862520217895508, -0.0014343111542984843
27,1756028207,0.41834745,0.5229148,-0.2621749,0.6948453,16.6579532623291,1.5725802183151245,5.582234859466553,1.8975619077682495,2.9398069381713867, -0.07922008633613586
28,1756044874,0.4186692,0.5227885,-0.26213053,0.69476306,16.777442932128906,1.3689552545547485,5.448422908782959,1.0936174392700195,2.2406437397003174, -0.28431376814842224
29,1756061541,0.41897142,0.52264446,-0.2621714,0.6946741,16.61193084716797,1.1675773859024048,5.317937850952148,0.11361151188611984,1.950195550918579, -0.08256252855062485
30,1756078208,0.41918924,0.5225185,-0.262106,0.694662,16.61878776550293,1.464558720588684,5.304969310760498,0.84416264295578,2.2935469150543213, -0.10704828053712845
31,1756094875,0.41951403,0.5222728,-0.26206183,0.69466734,16.807130813598633,1.579573631286621,5.325809478759766,0.12467620521783829,2.6960761547088623, -0.36346980929374695
32,1756111542,0.41996735,0.52184397,-0.26206902,0.69471323,16.596345901489258,1.5629854202270508,5.427836894989014,-0.7047205567359924,3.427612781524658, -0.3823847472667694
33,1756128209,0.42014536,0.52151823,-0.2618036,0.6949499,16.595029830932617,1.1403629779815674,5.146815776824951,1.3901231288909912,3.678208351135254, -0.03505098447203636
34,1756144876,0.42032212,0.52117926,-0.26151463,0.6952062,16.907175064086914,1.493199348449707,5.470437049865723,2.3053159713745117,3.908158779144287, 0.18601864576339722
35,1756161543,0.420813,0.5207003,-0.26161852,0.6952291,16.681194305419922,1.6890486478805542,5.5316033363342285,-1.2461473941802979,3.1718318462371826, -0.23393358290195465
36,1756178210,0.4209974,0.5203806,-0.2614067,0.6954365,16.327484130859375,1.2064732313156128,5.250208854675293,1.2713440656661987,3.352273464202881, 0.05540667474269867
37,1756194877,0.42117202,0.520115,-0.26120916,0.6956036,16.420146942138672,1.4179052114486694,5.298344612121582,0.9451789855957031,2.8604068756103516, -0.19730743765830994
38,1756211544,0.42146248,0.5197871,-0.26114127,0.69569826,16.44308853149414,1.458321452140808,5.440672397613525,0.5152186155319214,2.8049426078796387, -0.07062701880931854
39,1756228211,0.4217435,0.51951677,-0.261087,0.69575024,16.7708797454834,1.2464958429336548,5.31363582611084,0.9078229665756226,2.344977378845215, -0.08727528154850006
40,1756244878,0.42201298,0.5192455,-0.2609422,0.69584364,16.652788162231445,1.605705738067627,5.432390213012695,0.2301493138074875,2.645273447036743, -0.6571066379547119
41,1756261545,0.42225468,0.51904076,-0.26062065,0.69597036,16.604148864746094,1.3944933414459229,5.325522422790527,1.550458312034607,2.9190728664398193, -1.1294304132461548
42,1756278212,0.42267388,0.51870114,-0.26051286,0.69600964,16.368255615234375,1.3219062089920044,5.341265678405762,-0.4286156892776489,2.9702086448669434, -1.149971842765808
43,1756294879,0.42293802,0.5184584,-0.26024708,0.6961293,16.819732666015625,1.5588465929031372,5.398805618286133,1.2220009565353394,2.967928647994995, -0.9414074420928955
44,1756311546,0.42328212,0.5180516,-0.2601955,0.69624215,16.150115966796875,1.3717246055603027,5.245749473571777,-0.2993355989456177,3.273667812347412, -0.18588416278362274
45,1756328213,0.42359266,0.51772046,-0.26001158,0.6963683,16.789308547973633,1.6835556030273438,5.335669040679932,1.03016197681427,3.311805486679077, -0.4767676591873169
46,1756344880,0.42392173,0.51725876,-0.25998265,0.6965219,16.617284774780273,1.5076892375946045,5.497551441192627,-0.3670940399169922,3.5985655784606934, 0.21597270667552948
47,1756361547,0.4242456,0.5167921,-0.259934,0.69668937,16.285053253173828,1.5320414304733276,5.155880451202393,-0.7663191556930542,3.675966501235962, 0.038284581154584885
48,1756378214,0.4243553,0.51645714,-0.25959975,0.69699556,16.573272705078125,1.6284540891647339,5.466906547546387,2.101093292236328,4.000518798828125, 0.2582080662250519
49,1756394881,0.42465746,0.51594347,-0.25964695,0.6971742,16.253108978271484,1.2573697566986084,5.235144138336182,-1.2932751178741455,3.622974395751953, 0.5939138531684875
50,1756411548,0.42481065,0.51556695,-0.25950167,0.6974135,16.661483764648438,1.2694588899612427,5.429752826690674,0.7651090621948242,3.4859848022460938, 0.5879331827163696
51,1756428215,0.42506412,0.5151806,-0.2593236,0.697611,16.552921295166016,1.7813656330108643,5.453671932220459,1.0731273889541626,3.710480213165283, 0.10161200165748596
52,1756444882,0.42550206,0.51470125,-0.25936124,0.69768375,16.14630126953125,1.3306341171264648,5.296348571777344,-1.3346648216247559,3.3949053287506104, -0.28910335898399353
53,1756461549,0.4258082,0.51436114,-0.25915423,0.6978246,16.394729614257812,1.4295179843902588,5.319962024688721,0.5328915119171143,3.4253337383270264, -0.6807984113693237
54,1756478216,0.4261169,0.5140165,-0.25909492,0.69791204,16.548233032226562,1.2855173349380493,5.452156066894531,-0.20732201635837555,2.840045213699341, -0.28688788414001465
55,1756494883,0.4263027,0.5138088,-0.25877175,0.69807154,16.614395141601562,1.7227027416229248,5.486722946166992,1.9918931722640991,2.9904940128326416, -0.6752916574478149
56,1756511550,0.42663068,0.5135265,-0.25870225,0.69810444,16.50383949279785,1.3701789379119873,5.27695369720459,-0.0379452146589756,2.4228780269622803, -0.6444411873817444
57,1756528217,0.4267737,0.5133007,-0.2583691,0.6983067,16.23571014404297,1.7666417360305786,5.449334144592285,0.9455247521400452,3.0834553241729736, -0.8011907935142517
58,1756544884,0.42699006,0.51302916,-0.25813153,0.69846195,16.23910903930664,1.5673909187316895,5.106381893157959,0.005756455007940531,2.985525608062744, -0.8679121136665344
59,1756561551,0.42702165,0.51282847,-0.25788417,0.6986812,16.622100830078125,1.4073907136917114,5.439642429351807,1.0242966413497925,2.5773487091064453, 0.04753077030181885
60,1756578218,0.42700905,0.5126234,-0.25766793,0.6989191,16.439571380615234,1.7341883182525635,5.401640892028809,1.052649974822998,2.4955928325653076, 0.4291600286960602
61,1756594885,0.4270199,0.5123959,-0.25750914,0.6991377,16.175796508789062,1.3461971282958984,5.035467147827148,0.5926330089569092,2.4075489044189453, 0.5054474472999573
62,1756611552,0.4270529,0.5121519,-0.25726715,0.6993856,16.586959838867188,1.760561466217041,5.37312650680542,0.9192334413528442,2.8764665126800537, 0.21688194572925568
63,1756628219,0.42717728,0.511743,-0.2571642,0.6996466,15.945138931274414,1.594680666923523,5.185598850250244,-0.5330899357795715,3.466224193572998, 0.5997533798217773
64,1756644886,0.42725503,0.5114579,-0.25694817,0.69988704,16.103734970092773,1.4850172996520996,5.101664066314697,0.5027453303337097,3.0461504459381104, 0.14702332019805908
65,1756661553,0.42721072,0.51126003,-0.25663036,0.70017505,16.29494857788086,1.4703953266143799,5.3710551261901855,1.7628772258758545,2.877938985824585, 0.360620379447937
66,1756678220,0.42722198,0.51114136,-0.25632346,0.7003671,16.8669490814209,1.7427995204925537,5.433735370635986,1.5782482624053955,2.224315643310547, -0.29148533940315247
67,1756694887,0.42742792,0.5108336,-0.2562829,0.7004809,16.099498748779297,1.456925392150879,5.33696985244751,-1.0824054479599,2.421687126159668, -0.18695992231369019
68,1756711554,0.4275185,0.510649,-0.25593203,0.7006884,16.185914993286133,1.6107631921768188,5.06139612197876,1.3451212644577026,2.8655552864074707, -0.6642909049987793
69,1756728221,0.42778772,0.5102659,-0.25595137,0.70079637,16.052284240722656,1.5293775796890259,5.295965671539307,-1.8247512578964233,2.7030811309814453, -0.16764792799949646
70,1756744888,0.42767945,0.5101027,-0.25566956,0.70108414,16.430301666259766,1.3314794301986694,5.209117889404297,1.914453387260437,2.4945170879364014, 0.7366660833358765
71,1756761555,0.42767486,0.50988686,-0.25537255,0.70135194,16.096893310546875,1.9447221755981445,5.38416862487793,1.434970736503601,2.9080207347869873, 0.21360349655151367
72,1756778222,0.4277092,0.5096804,-0.25526264,0.70152104,15.986773490905762,1.195085048675537,4.8487548828125,0.2475915551185608,2.033949136734009, 0.3821350634098053
73,1756794889,0.4276776,0.5095207,-0.2549742,0.70176125,16.305282592773438,1.7420061826705933,5.507723331451416,1.6035149097442627,2.473552942276001, 0.1955849528312683
74,1756811556,0.4277685,0.50927025,-0.25485253,0.7019318,15.904837608337402,1.4738553762435913,5.08304500579834,-0.02119450829923153,2.389850616455078, 0.14726662635803223
75,1756828223,0.42784655,0.5091429,-0.25464523,0.702052,15.8731050491333,1.582659125328064,5.111269950866699,0.711424708366394,1.8517791032791138, -0.45495837926864624
76,1756844890,0.42783946,0.50912595,-0.25430155,0.70219296,16.28482437133789,1.5911812782287598,5.180418014526367,2.028442621231079,1.6454429626464844, -0.6529189944267273
77,1756861557,0.42799982,0.50896317,-0.25414354,0.70227045,16.125085830688477,1.760464072227478,5.412290573120117,0.005436295177787542,1.8774683475494385, -0.7426785826683044
78,1756878224,0.4281961,0.5087823,-0.2539526,0.70235085,15.709003448486328,1.4948605298995972,4.927653789520264,-0.010373144410550594,2.1330320835113525, -0.9880483746528625
79,1756894891,0.42817304,0.50876397,-0.25363767,0.70249194,16.203327178955078,1.5774976015090942,5.097343444824219,1.939758539199829,1.5473463535308838, -0.4684946835041046
80,1756911558,0.42821464,0.5085408,-0.2534904,0.70268124,15.647846221923828,1.8238109350204468,5.251295566558838,0.3845042586326599,2.3293404579162598, 0.30477192997932434
81,1756928225,0.42811552,0.5085211,-0.25318477,0.7028662,16.177125930786133,1.6244444847106934,4.823981285095215,2.2319741249084473,1.549920678138733, 0.06795690208673477
82,1756944892,0.42809045,0.5083026,-0.25302234,0.70309794,15.977828979492188,1.8871155977249146,5.368974685668945,0.7765321731567383,2.3897862434387207, 0.6937391757965088
83,1756961559,0.42819783,0.5080139,-0.25298926,0.7032531,15.491499900817871,1.608328938484192,4.793637752532959,-0.6528676748275757,2.3103487491607666, 0.407107412815094
84,1756978226,0.42807695,0.5079454,-0.2527212,0.7034725,15.861380577087402,1.4367543458938599,4.980489253997803,2.039776086807251,1.7699847221374512, 0.49643170833587646
85,1756994893,0.4280218,0.5078286,-0.2525455,0.7036535,15.932645797729492,1.9277830123901367,5.293485641479492,1.1554081439971924,1.7162750959396362, 0.4688725471496582
86,1757011560,0.4280226,0.50771713,-0.2524446,0.7037697,15.693536758422852,1.4965978860855103,4.8855814933776855,0.4994156062602997,1.340139627456665, 0.26436787843704224
87,1757028227,0.42797253,0.50765175,-0.2522182,0.7039284,15.689064025878906,1.6654466390609741,4.948461055755615,1.4944050312042236,1.5516623258590698, 0.11560933291912079
88,1757044894,0.42801866,0.5075377,-0.2520721,0.70403486,15.663477897644043,1.8740732669830322,5.053155422210693,0.5356575846672058,1.539252758026123, -0.13784754276275635
89,1757061561,0.4280881,0.50736344,-0.25202897,0.7041338,15.316680908203125,1.5799894332885742,4.823941707611084,-0.23730163276195526,1.544106364250183, 0.19521360099315643
90,1757078228,0.42784217,0.5074145,-0.2516743,0.7043733,15.908710479736328,1.5716363191604614,5.047011852264404,3.2775228023529053,1.31797194480896, 0.658086359500885
91,1757094895,0.42776304,0.5073301,-0.25154757,0.70452744,15.588505744934082,1.782365322113037,4.9216628074646,1.0468486547470093,1.2954585552215576, 0.6271973848342896
92,1757111562,0.4277337,0.50726175,-0.25140867,0.70464414,15.774062156677246,1.684685468673706,4.977212905883789,0.9135088920593262,1.2083238363265991, 0.20705947279930115
93,1757128229,0.42767912,0.5071405,-0.25124916,0.70482135,15.615106582641602,1.7457165718078613,4.918790340423584,1.0512155294418335,1.6907902956008911, 0.5258350968360901
94,1757144896,0.42772922,0.5069181,-0.25117743,0.7049765,15.163809776306152,1.6340837478637695,4.7230353355407715,-0.07514766603708267,2.0252537727355957, 0.4346795082092285
95,1757161563,0.42770866,0.5067872,-0.25103033,0.70513535,15.71427059173584,1.664204478263855,4.87503719329834,0.8129406571388245,1.6931978464126587, 0.3667162358760834
96,1757178230,0.42757788,0.50669044,-0.2507883,0.70537025,15.61749267578125,1.7464910745620728,5.011643409729004,1.8895193338394165,1.8822966814041138, 0.734245777130127
97,1757194897,0.42754504,0.50658256,-0.2506472,0.7055178,15.42788314819336,1.620970606803894,4.706873893737793,0.8749234676361084,1.5028315782546997, 0.3737981617450714
98,1757211564,0.427549,0.50645405,-0.25049743,0.70566094,15.317543983459473,1.8341959714889526,4.814539909362793,0.720798909664154,1.6788419485092163, 0.18697908520698547
99,1757228231,0.42753962,0.50632805,-0.25038058,0.7057985,15.1974515914917,1.7185982465744019,4.8004865646362305,0.604081928730011,1.5280345678329468, 0.34845438599586487
100,1757244898,0.4274915,0.5062556,-0.25024813,0.7059266,15.097851753234863,1.5508428812026978,4.530913829803467,0.9556034803390503,1.2146247625350952, 0.36260542273521423
101,1757261565,0.42743334,0.5062173,-0.2500589,0.70605624,15.214600563049316,1.906860113143921,4.914814472198486,1.3691586256027222,1.2086055278778076, 0.1578318327665329
102,1757278232,0.42734247,0.5062118,-0.2498964,0.7061727,15.227657318115234,1.625484585762024,4.614843368530273,1.4256477355957031,0.8677520155906677, 0.31874367594718933
103,1757294899,0.4273457,0.50618345,-0.2497702,0.7062358,15.198759078979492,1.8943190574645996,4.844014644622803,0.762803852558136,0.8533063530921936, -0.12951062619686127
104,1757311566,0.4272003,0.50622404,-0.24955419,0.706371,15.182438850402832,1.7101088762283325,4.697989463806152,2.0407111644744873,0.7780946493148804, 0.37606489658355713
105,1757328233,0.42716914,0.5061601,-0.24954133,0.7064401,14.875062942504883,1.5860044956207275,4.533965110778809,0.23598898947238922,0.658150315284729, 0.5136434435844421
106,1757344900,0.42695293,0.50624424,-0.24932116,0.70658827,15.131880760192871,1.8604025840759277,4.658210277557373,2.457659959793091,0.5091484785079956, 0.6683313250541687
107,1757361567,0.42681217,0.50623554,-0.24925709,0.7067022,14.91540241241455,1.8413736820220947,4.71776819229126,1.103811264038086,0.5157309174537659, 0.9071698188781738
108,1757378234,0.426696,0.50623477,-0.24922024,0.7067859,14.692267417907715,1.6579089164733887,4.400599479675293,0.8561750054359436,0.3365444839000702, 0.7833452820777893
109,1757394901,0.42645466,0.5063508,-0.24904528,0.70690995,15.041670799255371,1.7403650283813477,4.609931945800781,2.3742527961730957,0.1041988730430603, 0.8286798000335693
110,1757411568,0.42635742,0.506302,-0.2490055,0.7070178,14.769938468933105,1.8605709075927734,4.706872463226318,0.7038434147834778,0.7034592032432556, 0.8350828886032104
111,1757428235,0.42613277,0.50641745,-0.24880701,0.7071402,15.127490997314453,1.6146998405456543,4.495556831359863,2.424299478530884,0.20270530879497528, 0.6664745211601257
112,1757444902,0.42607346,0.50640094,-0.2487251,0.70721656,14.806836128234863,1.9797718524932861,4.616618633270264,0.8159373998641968,0.6323583126068115, 0.35794389247894287
113,1757461569,0.42599982,0.5064312,-0.24857849,0.7072909,14.649205207824707,1.659962773323059,4.33154821395874,1.3123499155044556,0.5649457573890686, 0.12225580960512161
114,1757478236,0.4259121,0.50643957,-0.24841096,0.7073966,14.717495918273926,1.8110651969909668,4.566857814788818,1.4501206874847412,0.8252092003822327, 0.24673354625701904
115,1757494903,0.42583844,0.506459,-0.2483717,0.70744073,14.60405158996582,1.582338571548462,4.233513832092285,0.70499587059021,0.20684173703193665, 0.4284428060054779
116,1757511570,0.42567992,0.506518,-0.24823974,0.7075403,14.46872615814209,1.7663809061050415,4.5233588218688965,1.6617839336395264,0.34230732917785645, 0.612303614616394
117,1757528237,0.4255016,0.5066307,-0.24812551,0.7076069,14.446269035339355,1.6577832698822021,4.180157661437988,1.7447304725646973,-0.11785682290792465, 0.5847185850143433
118,1757544904,0.4253901,0.50673836,-0.24809115,0.70760894,14.437893867492676,1.8078656196594238,4.450597286224365,0.9977362155914307,-0.43056225776672363, 0.3582511842250824
119,1757561571,0.42517006,0.5068721,-0.2479636,0.7076902,14.341110229492188,1.7325173616409302,4.32088565826416,2.0383546352386475,-0.1909554898738861, 0.752046525478363
120,1757578238,0.4249301,0.50702,-0.247895,0.70775235,14.295178413391113,1.8082948923110962,4.227814197540283,1.8278696537017822,-0.5277881026268005, 0.976247251033783
121,1757594905,0.42464635,0.507175,-0.2478941,0.7078118,14.519991874694824,1.7760798931121826,4.3890700340271,1.6662023067474365,-0.8413516283035278, 1.4073731899261475
122,1757611572,0.42432332,0.50727427,-0.24795191,0.7079141,14.479544639587402,1.7217891216278076,4.309970378875732,1.4297713041305542,-0.658937931060791, 2.0249338150024414
123,1757628239,0.42400077,0.50737303,-0.24800478,0.7080181,14.35070514678955,1.7229056358337402,4.1870245933532715,1.454935908317566,-0.6370774507522583, 2.00998854637146
124,1757644906,0.42354873,0.50751656,-0.24798328,0.70819324,14.449304580688477,1.6928467750549316,4.187908172607422,2.519540786743164,-0.6114776730537415, 2.510486602783203
125,1757661573,0.42325565,0.50746673,-0.24824989,0.7083109,14.03452205657959,1.5674227476119995,4.1670145988464355,-0.09743069857358932,-0.43864306807518005, 2.9032700061798096
126,1757678240,0.42273054,0.5076413,-0.24825005,0.7084993,14.503764152526855,1.7060819864273071,4.087006568908691,2.7824037075042725,-0.9083799719810486, 2.9225692749023438
127,1757694907,0.42236447,0.5076307,-0.24838178,0.7086791,14.086195945739746,1.7413185834884644,4.277171611785889,1.0340807437896729,-0.14462211728096008, 2.898416519165039
128,1757711574,0.4220629,0.5076975,-0.24856037,0.7087481,13.942533493041992,1.3877317905426025,3.7824547290802,0.6178871989250183,-0.9373865127563477, 2.295992851257324
129,1757728241,0.42160973,0.5079267,-0.2484886,0.7088788,14.112956047058105,1.6716816425323486,4.19597053527832,2.943110704421997,-1.0414636135101318, 2.0575129985809326
130,1757744908,0.42140022,0.5080105,-0.24868825,0.70887315,13.65732479095459,1.468001365661621,4.028695106506348,0.1155068650841713,-1.180079460144043, 1.6729509830474854
131,1757761575,0.4209955,0.50840163,-0.24862236,0.70885664,14.08574104309082,1.3950616121292114,3.837712049484253,2.9637551307678223,-2.281003475189209, 1.1385422945022583
132,1757778242,0.4206604,0.50872356,-0.2486228,0.7088245,14.274313926696777,1.698317050933838,4.297186851501465,2.1687231063842773,-2.0656003952026367, 1.1007890701293945
133,1757794909,0.4204423,0.5089862,-0.24873357,0.70872635,13.455265998840332,1.6176363229751587,3.8440608978271484,0.9382764101028442,-2.127749443054199, 0.830049991607666
134,1757811576,0.42007327,0.5094783,-0.24866325,0.7086162,13.983067512512207,1.543346643447876,3.759828567504883,2.989635705947876,-3.020108699798584, 0.5068560838699341
135,1757828243,0.41978654,0.50978184,-0.24873663,0.70854205,13.809520721435547,1.7153037786483765,4.074280261993408,1.5211445093154907,-2.242583990097046, 1.0374232530593872
136,1757844910,0.419352,0.5101899,-0.24875568,0.70849895,13.77597713470459,1.418676495552063,3.746951103210449,2.655825614929199,-2.7387659549713135, 1.4806125164031982
137,1757861577,0.41891712,0.5106052,-0.2487519,0.7084583,13.657371520996094,1.8587744235992432,3.834597587585449,2.7919955253601074,-2.695378065109253, 1.3942720890045166
138,1757878244,0.41827622,0.5110758,-0.24878865,0.7084849,13.555627822875977,1.7477439641952515,3.681227445602417,3.5871798992156982,-3.1942622661590576, 2.645209312438965
139,1757894911,0.41750118,0.51133364,-0.24901523,0.7086764,13.423819541931152,1.8565356731414795,3.7990520000457764,2.806518316268921,-2.3480958938598633, 4.8092145919799805
140,1757911578,0.41639975,0.51138884,-0.24941501,0.70914394,13.844161987304688,1.5699644088745117,3.8434808254241943,2.999843120574951,-1.4438905715942383, 8.154553413391113
141,1757928245,0.41484764,0.5112723,-0.24947542,0.7101156,13.639416694641113,1.5036953687667847,3.88883900642395,6.6085734367370605,1.3685065507888794, 10.895039558410645
142,1757944912,0.41356707,0.51141775,-0.24983582,0.710631,13.554171562194824,1.8750464916229248,4.015744686126709,4.155130863189697,-1.9014235734939575, 8.87411880493164
143,1757961579,0.4124432,0.5114435,-0.25039664,0.7110681,13.645737648010254,1.0886398553848267,3.9374983310699463,2.1465303897857666,-1.8927791118621826, 8.803336143493652
144,1757978246,0.41136217,0.5115214,-0.2510234,0.7114172,13.195425033569336,1.1533803939819336,3.368051528930664,1.6712868213653564,-2.568493604660034, 8.479772567749023
145,1757994913,0.41036788,0.5117702,-0.25168714,0.7115779,13.325772285461426,1.3067246675491333,3.575800657272339,1.346376657485962,-4.011563777923584, 7.355718612670898
146,1758011580,0.40963423,0.51215374,-0.25237858,0.7114799,13.360523223876953,1.3707165718078613,3.686899423599243,0.22550061345100403,-5.2016448974609375, 5.215597629547119
147,1758028247,0.4089091,0.51293916,-0.25283277,0.7111699,13.19455623626709,0.578174889087677,3.391092538833618,2.1197268962860107,-7.227597713470459, 3.046189308166504
148,1758044914,0.4078429,0.5142176,-0.2526286,0.71093136,12.878389358520508,0.3710949420928955,3.5906999111175537,8.055807113647461,-8.119729995727539, 1.7242798805236816
149,1758061581,0.40655765,0.51586616,-0.2515543,0.71085423,13.645586013793945,1.3445874452590942,3.565078020095825,14.406638145446777,-7.29718017578125, -0.4856428802013397
150,1758078248,0.40602833,0.51701087,-0.25082907,0.71058106,13.561324119567871,2.063209056854248,3.1201508045196533,8.269556045532227,-5.191094398498535, -2.6144940853118896
151,1758094915,0.40718302,0.5171644,-0.25154877,0.70955354,13.121411323547363,1.3111897706985474,2.501321315765381,0.49421626329421997,-3.5020246505737305, -2.6402852535247803
152,1758111582,0.40754026,0.517238,-0.25174487,0.70922524,12.99280834197998,1.430037498474121,2.801297426223755,-2.4155466556549072,-1.1629574298858643, -1.9354877471923828
153,1758128249,0.40816686,0.5171647,-0.25210014,0.70879203,12.797589302062988,1.3642909526824951,2.9114856719970703,-4.7458672523498535,-0.7936223745346069, -2.7199409008026123
154,1758144916,0.409583,0.51706815,-0.2527482,0.70781416,12.933228492736816,0.7889113426208496,3.1293294429779053,-0.18894490599632263,-1.3781298398971558, -3.418053388595581
155,1758161583,0.4095979,0.5176084,-0.25221792,0.7075995,13.174154281616211,1.162837028503418,3.341735363006592,3.9144723415374756,-1.5699434280395508, -3.3262321949005127
156,1758178250,0.40949264,0.51819265,-0.25180444,0.70738024,13.225646018981934,1.3785815238952637,3.1541125774383545,3.8889107704162598,-2.3430628776550293, -2.419196605682373
157,1758194917,0.40920871,0.5187351,-0.251583,0.7072258,13.237194061279297,1.056813359260559,3.1554932594299316,3.5849268436431885,-2.759896993637085, -0.6106708645820618
158,1758211584,0.4082437,0.51947886,-0.25113618,0.7073964,12.951695442199707,0.7405984997749329,3.4212043285369873,8.247745513916016,-3.122854709625244, 2.4614388942718506
159,1758228251,0.40792078,0.5201792,-0.25094938,0.7071343,13.067123413085938,1.3544260263442993,3.1763367652893066,14.415140151977539,-3.296229124069214, 2.9479663372039795
160,1758244918,0.40633672,0.52158827,-0.24966477,0.7074629,13.019073486328125,0.9841326475143433,3.2393977642059326,16.735912322998047,-4.510336875915527, 1.7808337211608887
161,1758261585,0.4059361,0.5228455,-0.24844092,0.70719576,13.411603927612305,1.4877198934555054,3.143645763397217,20.815582275390625,-3.270503282546997, -1.5625947713851929
162,1758278252,0.40648553,0.52348244,-0.24782519,0.7066246,13.542263984680176,2.01763653755188,2.8349411487579346,12.272428512573242,-1.3879146575927734, -3.7634685039520264
163,1758294919,0.40666914,0.5238171,-0.24725343,0.7064714,13.176084518432617,1.4485925436019897,2.76632022857666,3.2143490314483643,0.04993836209177971, -3.7063117027282715
164,1758311586,0.40725806,0.52362007,-0.2472682,0.706273,13.077418327331543,1.5304150581359863,2.9544856548309326,-2.656485080718994,1.5273171663284302, -2.782947540283203
165,1758328253,0.4079008,0.52330613,-0.24770463,0.7059818,12.877644538879395,1.5215017795562744,2.9746079444885254,-5.3844685554504395,0.6753237247467041, -1.5843888521194458
166,1758344920,0.40814874,0.52314264,-0.247743,0.7059459,13.36498737335205,1.3594930171966553,2.963493585586548,-1.176621675491333,1.310223937034607, -0.637384831905365
167,1758361587,0.4083798,0.52268124,-0.24784029,0.70612,13.18624496459961,1.5108516216278076,2.9999887943267822,-1.881765365600586,3.3235621452331543, 0.7515984177589417
168,1758378254,0.40878657,0.52180123,-0.24821074,0.70640534,12.793292045593262,1.2074048519134521,2.8825976848602295,-4.825536251068115,5.293320178985596, 1.9086780548095703
169,1758394921,0.40902993,0.5211682,-0.24843156,0.7066541,12.53635025024414,1.6966363191604614,2.523080348968506,-2.8774075508117676,4.109935760498047, 1.6396547555923462
170,1758411588,0.40923044,0.5207129,-0.24900539,0.7066717,12.997419357299805,1.0209230184555054,2.9115874767303467,-4.340610027313232,1.3627941608428955, 2.165893077850342
171,1758428255,0.40911505,0.52050984,-0.24953072,0.7067028,13.061680793762207,0.5133118033409119,3.3801159858703613,-2.2354509830474854,-0.21148407459259033, 3.1286487579345703
172,1758444922,0.408386,0.5208412,-0.24922298,0.7069889,13.325687408447266,0.9359830021858215,3.7621772289276123,5.948620796203613,-0.60753333568573, 2.911748170852661
173,1758461589,0.40721613,0.5217753,-0.24835159,0.70728153,13.31947135925293,0.6567822694778442,3.5821218490600586,11.975729942321777,-2.6920628547668457, 2.016674518585205
174,1758478256,0.40595052,0.5228451,-0.2468602,0.707741,12.847603797912598,1.678735375404358,2.431492567062378,16.014751434326172,-1.1818221807479858, 0.4862191379070282
175,1758494923,0.40524447,0.5235845,-0.2461966,0.70783013,13.105429649353027,1.3268780708312988,2.8760287761688232,8.418851852416992,-2.2477073669433594, 0.27653399109840393
176,1758511590,0.40460324,0.52422273,-0.24596238,0.7078061,12.896693229675293,1.2232321500778198,3.196310043334961,5.609009265899658,-3.239917278289795, 1.3609246015548706
177,1758528257,0.40401107,0.524736,-0.24621928,0.7076746,12.898520469665527,1.382961392402649,3.066047430038452,2.504211664199829,-4.300642013549805, 2.802330493927002
178,1758544924,0.40336564,0.52524525,-0.2467551,0.7074782,12.785146713256836,0.9731839895248413,2.8605897426605225,1.2250362634658813,-5.374953269958496, 3.901217460632324
179,1758561591,0.4036627,0.52558225,-0.24784185,0.7066783,12.617243766784668,0.4922221302986145,2.7353343963623047,5.024899482727051,-5.732021331787109, 3.915715456008911
180,1758578258,0.40281302,0.5264716,-0.24756594,0.70659786,12.75741958618164,1.2908942699432373,2.1994879245758057,7.23156213760376,-4.8781962394714355, 1.634596586227417
181,1758594925,0.40412265,0.5264869,-0.2489306,0.70535815,12.804630279541016,1.3250555992126465,2.6444625854492188,-1.6939598321914673,-4.7804951667785645, -0.7287325263023376
182,1758611592,0.40614134,0.5256328,-0.2504793,0.7042866,12.899168968200684,0.8233427405357361,2.8621606826782227,-6.9022908210754395,0.7855096459388733, -1.4152042865753174
183,1758628259,0.40841767,0.52461946,-0.25205714,0.703162,12.853826522827148,0.6611800193786621,2.6305627822875977,-8.473913192749023,1.7346270084381104, -2.418262243270874
184,1758644926,0.41058928,0.524115,-0.253458,0.7017685,12.442853927612305,0.9342950582504272,3.5319063663482666,-6.733773231506348,-1.4010663032531738, -4.351816177368164
185,1758661593,0.41190127,0.52465427,-0.25398847,0.7004036,12.572694778442383,0.1565215289592743,3.0189459323883057,3.2144904136657715,-5.400899887084961, -5.212402820587158
186,1758678260,0.41313955,0.52590215,-0.25420177,0.69865906,12.745094299316406,0.6089651584625244,2.797987461090088,6.2096428871154785,-9.396153450012207, -8.411215782165527
187,1758694927,0.412983,0.52820975,-0.25331277,0.69733214,12.61637020111084,-0.4418720304965973,3.132972478866577,9.903488159179688,-13.135540008544922, -9.928569793701172
188,1758711594,0.41371438,0.5306783,-0.2527819,0.69521385,12.434037208557129,-0.3356606960296631,3.1464426517486572,13.820621490478516,-15.367753028869629, -12.19070816040039
189,1758728261,0.41439798,0.5334815,-0.2518139,0.6930092,12.90143871307373,0.25046998262405396,3.415072202682495,15.963072776794434,-16.162538528442383, -14.773455619812012
190,1758744928,0.41514707,0.5364078,-0.25015223,0.6909006,13.63694953918457,0.889923095703125,3.5329554080963135,18.12940788269043,-14.40408706665039, -18.09041976928711
191,1758761595,0.41670886,0.5385588,-0.24909164,0.68866664,14.122307777404785,-0.12713605165481567,3.3683464527130127,8.45532512664795,-11.60840129852295, -19.239513397216797
192,1758778262,0.41954106,0.5389395,-0.24946792,0.68650967,14.603141784667969,-0.9029350876808167,3.4149587154388428,-8.764074325561523,-4.9365715980529785, -16.975156784057617
193,1758794929,0.42642593,0.532322,-0.25653145,0.6848256,15.413673400878906,-0.7540307641029358,3.987872838973999,-78.79670715332031,17.04281997680664, 0.7194964289665222
194,1758811596,0.43599576,0.52244383,-0.26995075,0.68123907,11.547441482543945,0.27660781145095825,-0.044138357043266296,-134.59036254882812,11.213946342468262, 10.461191177368164
195,1758828263,0.44542474,0.513169,-0.289115,0.67429006,8.256147384643555,-2.028935194015503,-2.9779324531555176,-166.61668395996094,-21.14853858947754, 20.175472259521484
196,1758844930,0.45112044,0.50585186,-0.3077784,0.6677401,7.664821624755859,-1.5861256122589111,-2.0861239433288574,-146.63409423828125,-34.640750885009766, 32.29551315307617
197,1758861597,0.4525935,0.5026302,-0.3225036,0.6622036,7.960288047790527,2.3045825958251953,-5.141599655151367,-99.47651672363281,-46.446533203125, 32.36621856689453
198,1758878264,0.44669414,0.5066313,-0.33069435,0.6591133,8.579801559448242,-2.11557674407959,-7.955256938934326,-16.219619750976562,-66.63138580322266, 35.17974853515625
199,1758894931,0.43297794,0.5189094,-0.32877535,0.65967417,7.511854648590088,0.911133348941803,-4.706748962402344,96.48114776611328,-77.77938842773438, 29.42348289489746
200,1758911598,0.41786098,0.5335423,-0.32438245,0.6599249,6.847372531890869,1.487432599067688,-1.410218358039856,119.0031509399414,-85.255859375, 20.70326042175293
201,1758928265,0.4008746,0.54854167,-0.31849352,0.66103244,7.1118245124816895,-3.619472026824951,-0.5483207106590271,135.6040496826172,-83.63823699951172, 25.351232528686523
202,1758944932,0.38381115,0.56494117,-0.3038793,0.66421986,11.34841251373291,9.57762622833252,5.749599456787109,183.99131774902344,-58.300437927246094, -4.685601234436035
203,1758961599,0.37234744,0.57820356,-0.29151127,0.6648753,14.107874870300293,4.435246467590332,3.0427024364471436,138.34490966796875,-48.202945709228516, -21.416610717773438
204,1758978266,0.36057895,0.5955784,-0.27606145,0.66261566,21.378427505493164,7.8319597244262695,-11.89245319366455,158.30918884277344,-71.3859634399414, -47.89690017700195
205,1758994933,0.34584445,0.6162673,-0.26050305,0.65783316,14.918724060058594,2.494842529296875,-3.4616379737854004,174.3173370361328,-101.7757568359375, -47.23371505737305
206,1759011600,0.3360725,0.6314454,-0.25325948,0.6513,8.321821212768555,1.941424012184143,1.0755366086959839,99.40115356445312,-95.04798126220703, -28.7479248046875
207,1759028267,0.33135003,0.6412355,-0.2542224,0.64373565,9.554140090942383,0.3205766975879669,-1.1032695770263672,26.480079650878906,-85.64191436767578, -8.716571807861328
208,1759044934,0.32842606,0.6483855,-0.25870258,0.6362432,8.190996170043945,1.3446612358093262,-4.026576042175293,-2.9020848274230957,-78.52064514160156, 3.5860424041748047
209,1759061601,0.32670632,0.65421206,-0.26872674,0.62694144,8.634008407592773,0.5006580948829651,-10.158496856689453,-38.732112884521484,-91.10157775878906, 21.327524185180664
210,1759078268,0.32374153,0.66095203,-0.27940938,0.61665577,6.642505168914795,3.5181212425231934,-7.218921184539795,-35.74909973144531,-102.98365783691406, 25.766714096069336
211,1759094935,0.32085496,0.66701746,-0.28880143,0.60723436,4.465742111206055,2.9916865825653076,-0.7970744967460632,-30.469017028808594,-93.01946258544922, 22.901073455810547
212,1759111602,0.3127969,0.6737233,-0.2930096,0.60199696,6.376631736755371,3.4842677116394043,-3.708763837814331,24.63773536682129,-75.39643859863281, 28.758214950561523
213,1759128269,0.30128875,0.6816131,-0.29417178,0.59840775,9.94127082824707,5.613548755645752,-1.7263774871826172,59.11603927612305,-73.0251693725586, 30.157072067260742
214,1759144936,0.29124162,0.68805945,-0.29647958,0.59485507,17.4146785736084,3.3408114910125732,0.8725005388259888,44.67662048339844,-66.37327575683594, 32.6369514465332
215,1759161603,0.28474578,0.69120437,-0.30348396,0.590808,15.996964454650879,-3.1175448894500732,0.259492963552475,1.0871199369430542,-57.53864288330078, 46.12141418457031
216,1759178270,0.28363225,0.6905392,-0.31701794,0.58498555,8.958893775939941,-1.3504738807678223,-1.1572664976119995,-62.16709899902344,-52.19891357421875, 59.62495040893555
217,1759194937,0.28385004,0.689757,-0.32971755,0.57874936,5.93231201171875,0.15398038923740387,-5.098775863647461,-66.24723052978516,-49.230201721191406, 49.708961486816406
218,1759211604,0.2814487,0.6918071,-0.33548015,0.57414526,5.520724773406982,-0.969534695148468,-5.97167444229126,-16.981094360351562,-45.06986618041992, 24.001344680786133
219,1759228271,0.27609506,0.6964963,-0.33585286,0.5708479,6.392618179321289,-3.104389190673828,-5.354602336883545,26.457841873168945,-45.52849578857422, 6.409378528594971
220,1759244938,0.26964515,0.7026918,-0.3344574,0.5671456,6.613565444946289,-3.2584362030029297,-4.601925849914551,40.551979064941406,-52.461875915527344, -2.1377201080322266
221,1759261605,0.26277232,0.7104349,-0.33172125,0.5623113,7.88043737411499,-1.8405230045318604,-4.395328044891357,48.06218719482422,-62.3936767578125, -12.764272689819336
222,1759278272,0.25517446,0.71961164,-0.32696676,0.55690026,8.371821403503418,-0.7691308856010437,-5.243545055389404,60.658077239990234,-68.7246322631836, -24.2220458984375
223,1759294939,0.24735586,0.72898287,-0.32159346,0.55134106,7.848767280578613,0.9779834747314453,-6.007772922515869,64.10566711425781,-69.5575180053711, -27.189123153686523
224,1759311606,0.23874007,0.73819244,-0.31736892,0.5453,8.246066093444824,1.6459749937057495,-5.193112850189209,62.39960479736328,-74.99320983886719, -18.860349655151367
225,1759328273,0.22718877,0.7482242,-0.31206533,0.53959346,8.015206336975098,2.3386776447296143,-4.72485876083374,83.42928314208984,-80.97137451171875, -14.547553062438965
226,1759344940,0.21465681,0.757978,-0.30641752,0.5343222,8.451943397521973,3.464475154876709,-5.998864650726318,90.26653289794922,-79.24685668945312, -11.357343673706055
227,1759361607,0.20588371,0.7654129,-0.30448973,0.5282435,9.10959529876709,2.850446939468384,-4.598680019378662,51.91954040527344,-72.4476089477539, -1.9895988702774048
228,1759378274,0.20016281,0.7717483,-0.30538037,0.5206559,11.566049575805664,-0.14786384999752045,-3.095517873764038,20.94066619873047,-74.00586700439453, 2.0123612880706787
229,1759394941,0.19681938,0.77769053,-0.30952102,0.51054513,15.16576862335205,-1.3392130136489868,0.20163939893245697,-9.146509170532227,-85.57894134521484, 8.091795921325684
230,1759411608,0.19585072,0.7822901,-0.31761393,0.4987847,18.100658416748047,-2.6642017364501953,2.266472339630127,-41.05766296386719,-90.28213500976562, 21.474899291992188
231,1759428275,0.19900724,0.7873862,-0.3337674,0.4785589,31.147754669189453,0.7860192060470581,8.986050605773926,-108.74625396728516,-139.8085174560547, 38.125667572021484
232,1759444942,0.20422368,0.7899298,-0.3568496,0.45493108,43.884544372558594,0.45407113432884216,21.11717414855957,-153.9881134033203,-155.53903198242188, 70.09980010986328
233,1759461609,0.21278599,0.79433614,-0.3831495,0.42065302,37.11907958984375,3.8796494007110596,23.343040466308594,-205.7843017578125,-217.24159240722656, 57.50916290283203
234,1759478276,0.21269716,0.8016123,-0.39715165,0.3929995,23.408721923828125,2.027752637863159,4.163720607757568,-101.2063217163086,-195.77542114257812, 17.44581413269043
235,1759494943,0.21613275,0.80582607,-0.4112705,0.3671344,11.697027206420898,-2.170189142227173,-4.2322916984558105,-120.50927734375,-168.83297729492188, 19.45198631286621
236,1759511610,0.20833881,0.8060824,-0.41609862,0.36563438,13.160160064697266,-14.028844833374023,34.562904357910156,28.085689544677734,-41.844966888427734, 43.571834564208984
237,1759528277,0.2023042,0.80136687,-0.41548127,0.37981534,9.710275650024414,-3.5372304916381836,27.510770797729492,69.41127014160156,68.9349365234375, 45.213966369628906
238,1759544944,0.2058276,0.79024774,-0.41038775,0.40586373,12.856093406677246,-2.4636929035186768,24.518098831176758,53.35159683227539,183.47824096679688, 30.36704444885254
239,1759561611,0.22434285,0.77057976,-0.40601653,0.43706727,10.662601470947266,-2.7448618412017822,22.83080291748047,-27.722183227539062,275.578857421875, 23.786800384521484
240,1759578278,0.24677537,0.74224967,-0.39585137,0.4811125,8.060272216796875,-3.1845545768737793,23.98105812072754,-8.575736999511719,388.6802978515625, 25.12500762939453
241,1759594945,0.27167434,0.70140034,-0.37891597,0.5391228,6.087081432342529,-0.08200721442699432,23.545360565185547,18.052474975585938,518.9689331054688, 40.05487060546875
242,1759611612,0.3039198,0.6418281,-0.36098656,0.60446525,11.077392578125,1.9237971305847168,8.47928524017334,-29.570232391357422,644.5377807617188, 70.53433227539062
243,1759628279,0.33151802,0.56896555,-0.33467466,0.6740676,24.554168701171875,7.810717582702637,-16.17293357849121,8.666504859924316,725.124267578125, 94.8860092163086
244,1759644946,0.36002114,0.49825075,-0.31128696,0.7247286,40.98114013671875,8.558939933776855,-42.679229736328125,-47.202980041503906,637.496337890625, 54.27022171020508
245,1759661613,0.3845113,0.4483712,-0.29955566,0.74925375,14.485360145568848,-2.9209861755371094,-62.87373352050781,-95.83654022216797,408.9053039550781, 5.217689037322998
246,1759678280,0.39244863,0.42853144,-0.2976508,0.757462,-4.538593769073486,6.080528259277344,-66.4456787109375,-49.21110916137695,146.74176025390625, 15.716378211975098
247,1759694947,0.3830479,0.4422575,-0.2920533,0.75656295,-8.779946327209473,-3.536288022994995,-57.25499725341797,93.2094497680664,-77.83531951904297, 2.1039559841156006
248,1759711614,0.3625173,0.47361058,-0.2762389,0.7536355,-2.8480279445648193,-2.123340606689453,-30.743803024291992,222.87457275390625,-169.32545471191406, -12.055596351623535
249,1759728281,0.3491965,0.4969284,-0.2771181,0.74453324,21.24039077758789,4.592212677001953,14.199094772338867,81.14712524414062,-174.88108825683594, 4.625575542449951
250,1759744948,0.3384721,0.5239744,-0.29695654,0.72298294,43.09276580810547,20.70880126953125,-7.422776699066162,-39.74673080444336,-277.6263732910156, 19.360559463500977
251,1759761615,0.31874362,0.55583054,-0.3056063,0.7043152,21.10102081298828,17.542203903198242,7.280353546142578,65.16030883789062,-282.9912414550781, 21.516693115234375
252,1759778282,0.300522,0.5779247,-0.3120641,0.6915965,-2.638927936553955,0.5013617277145386,-11.06721019744873,60.99385070800781,-205.3289031982422, 39.94984817504883
253,1759794949,0.29166397,0.588408,-0.3197155,0.68300104,-6.739358901977539,-13.905098915100098,-11.811332702636719,3.0514938831329346,-115.96754455566406, 33.48341751098633
254,1759811616,0.286807,0.59335464,-0.32035705,0.68047297,6.787872314453125,-10.777060508728027,-5.741823673248291,22.148529052734375,-42.45568084716797, 10.10287857055664
255,1759828283,0.2838745,0.5976898,-0.31495,0.680433,14.392754554748535,1.4832284450531006,-0.9042617082595825,46.915489196777344,-13.338119506835938, -17.701580047607422
256,1759844950,0.28061253,0.60271466,-0.30699044,0.68099093,6.65172004699707,2.5021212100982666,-2.1597273349761963,62.80305099487305,-10.03194522857666, -26.915739059448242
257,1759861617,0.27888995,0.60559857,-0.30192822,0.6814031,4.644678592681885,2.1646735668182373,-2.8114326000213623,38.376590728759766,-3.106020450592041, -17.813913345336914
258,1759878284,0.27903798,0.6063916,-0.30195498,0.680625,3.8272128105163574,4.364878177642822,-2.691800355911255,0.23887044191360474,-4.260404109954834, -3.2653377056121826
259,1759894951,0.28177512,0.60516065,-0.30701745,0.6783243,4.082275390625,2.2714219093322754,-4.660590171813965,-41.19075012207031,-5.536783218383789, 7.0408148765563965
260,1759911618,0.2844561,0.60389423,-0.3107287,0.6766419,4.268056392669678,-1.8690540790557861,-4.626558303833008,-33.42747497558594,-0.33834514021873474, 3.0340352058410645
261,1759928285,0.28592908,0.6034719,-0.31174433,0.6759305,3.529279947280884,-1.0456632375717163,-0.007885081693530083,-12.13952922821045,2.427950620651245, -2.498059034347534
262,1759944952,0.28656834,0.60383797,-0.31303608,0.67473453,3.942937135696411,0.014912543818354607,1.1539721488952637,-9.45750617980957,-5.743317127227783, -0.15601980686187744
263,1759961619,0.28912205,0.6051044,-0.32035556,0.66905123,3.2772514820098877,1.294072151184082,2.1318671703338623,-53.261558532714844,-36.49053955078125, 5.2173004150390625
264,1759978286,0.28820172,0.6100423,-0.3266599,0.66187733,2.2284598350524902,-2.4418540000915527,3.088273763656616,-30.13307762145996,-65.41278076171875, 5.970590591430664
265,1759994953,0.28417262,0.6169754,-0.33022657,0.6553913,1.3580502271652222,-0.3868582248687744,-3.6061625480651855,0.8644066452980042,-73.37162780761719, 5.438320159912109
266,1760011620,0.2816951,0.6230587,-0.33649537,0.6474695,1.7763006687164307,-0.9908525943756104,-0.9646463394165039,-22.80558967590332,-77.38013458251953, 9.015654563903809
267,1760028287,0.27914992,0.62991524,-0.34268394,0.6386314,3.9443840980529785,-1.984710693359375,0.9106745719909668,-22.778606414794922,-84.81782531738281, 5.3811116218566895
268,1760044954,0.27685046,0.6380196,-0.34879684,0.6281923,4.63789701461792,-0.31710436940193176,2.630161762237549,-24.891294479370117,-96.62541961669922, -2.0877389907836914
269,1760061621,0.2743804,0.6472868,-0.35359892,0.6170114,4.986587047576904,-1.1971112489700317,0.5129930377006531,-18.05783462524414,-102.97775268554688, -11.29980182647705
270,1760078288,0.2705799,0.65762115,-0.35509357,0.6068191,6.806330680847168,-3.4535043239593506,1.4691303968429565,6.302705764770508,-100.19119262695312, -21.132230758666992
271,1760094955,0.26820564,0.66791904,-0.35678142,0.59553105,8.005451202392578,-4.450562477111816,3.660600423812866,-3.7117340564727783,-101.99443817138672, -28.245405197143555
272,1760111622,0.2681349,0.6767418,-0.363978,0.58107173,8.949687957763672,-4.498322486877441,4.826762676239014,-47.372535705566406,-115.21653747558594, -14.710111618041992
273,1760128289,0.26755494,0.68710864,-0.37428543,0.56232244,12.107062339782715,1.1707831621170044,10.012120246887207,-65.35072326660156,-148.5812225341797, -10.066753387451172
274,1760144956,0.25974244,0.7015148,-0.37836385,0.5452082,13.038492202758789,5.473568916320801,4.865819931030273,4.5353240966796875,-164.00704956054688, -18.849899291992188
275,1760161623,0.25186697,0.71610576,-0.38395566,0.5256747,16.755136489868164,9.075945854187012,8.876195907592773,-6.773233890533447,-179.46469116210938, -15.936419486999512
276,1760178290,0.2445452,0.7311065,-0.38950244,0.50395334,21.04052734375,3.1305348873138428,14.810548782348633,-14.334738731384277,-190.54493713378906, -22.77814483642578
277,1760194957,0.24093187,0.7442697,-0.39571,0.48106977,21.255449295043945,1.1626427173614502,13.842787742614746,-41.42671203613281,-181.7484893798828, -29.278079986572266
278,1760211624,0.24130228,0.756713,-0.40300855,0.4546901,12.542332649230957,-2.2371699810028076,5.06337308883667,-76.09832763671875,-188.73434448242188, -40.72415542602539
279,1760228291,0.24188718,0.7650878,-0.41347903,0.4303096,6.192981719970703,-9.995342254638672,2.5344159603118896,-88.34378814697266,-170.4259490966797, -10.428621292114258
280,1760244958,0.23470628,0.7672549,-0.4196605,0.42440337,1.8766850233078003,-10.098384857177734,22.23703956604004,7.272614002227783,-69.79866790771484, 38.08249282836914
281,1760261625,0.2318141,0.76228714,-0.4241167,0.43047154,-4.494208812713623,-4.937488555908203,25.432695388793945,12.587013244628906,28.941457748413086, 56.147830963134766
282,1760278292,0.24178706,0.7491103,-0.4266177,0.4453877,-7.539355278015137,3.5715041160583496,28.552898406982422,-36.40599822998047,139.89866638183594, 45.75912857055664
283,1760294959,0.26785058,0.7262962,-0.429688,0.46488518,-5.754360198974609,2.3123886585235596,24.635419845581055,-123.5936508178711,238.9408416748047, 35.34165954589844
284,1760311626,0.29633224,0.6972414,-0.42701846,0.4936568,-0.9328611493110657,-1.9293001890182495,14.701720237731934,-101.39421081542969,322.68927001953125, 34.43803787231445
285,1760328293,0.32154816,0.6636025,-0.41646564,0.53178465,4.459892272949219,-5.744898319244385,7.451643943786621,-40.8207893371582,389.5450439453125, 40.162906646728516
286,1760344960,0.34209707,0.6265291,-0.40014732,0.57472867,10.054965019226074,-7.174059867858887,1.4918577671051025,7.7966108322143555,423.5357666015625, 51.279720306396484
287,1760361627,0.3577328,0.5850041,-0.38411188,0.6182683,13.607558250427246,-8.542118072509766,-5.449252128601074,19.054607391357422,429.6773681640625, 85.4588851928711
288,1760378294,0.3635938,0.5434926,-0.36369342,0.6634325,11.636478424072266,-1.8363986015319824,-12.451822280883789,81.41973876953125,421.4631652832031, 113.2550048828125
289,1760394961,0.37501225,0.49909082,-0.35367018,0.6965569,11.851037979125977,7.213052272796631,-14.612688064575195,-24.10796356201172,378.03118896484375, 103.91730499267578
290,1760411628,0.3993369,0.45253733,-0.3643218,0.7092319,7.199063777923584,11.608166694641113,-19.622623443603516,-222.78643798828125,296.81402587890625, 65.74576568603516
291,1760428295,0.42050427,0.41733035,-0.37832344,0.71125466,3.95381498336792,-4.959720134735107,-25.098894119262695,-224.8271942138672,191.84866333007812, 34.1581916809082
292,1760444962,0.42486447,0.40523976,-0.36946905,0.7202527,2.5472891330718994,2.3649280071258545,-21.59444236755371,20.40053939819336,121.87261199951172, 10.728992462158203
293,1760461629,0.41892204,0.40587747,-0.35747573,0.729369,1.7563166618347168,7.815235137939453,-19.49971580505371,102.21211242675781,42.7379035949707, 21.110082626342773
294,1760478296,0.4034109,0.4189672,-0.34292012,0.7376531,2.318233013153076,2.798302173614502,-19.098176956176758,175.58560180664062,-37.69420623779297, 29.112722396850586
295,1760494963,0.3774408,0.44735262,-0.3125413,0.74815243,1.1723432540893555,4.620650291442871,-20.11503791809082,333.76953125,-89.2519302368164, 6.632940769195557
296,1760511630,0.35446325,0.47790724,-0.2861189,0.75106364,2.314114570617676,13.064093589782715,-15.741033554077148,293.4944152832031,-127.16165161132812, -21.010292053222656
297,1760528297,0.35207224,0.4942024,-0.29017007,0.7400073,6.051433563232422,10.69189739227295,6.105398654937744,6.00318717956543,-132.82296752929688, -32.949790954589844
298,1760544964,0.35924208,0.5015521,-0.31367877,0.72180074,9.339799880981445,-0.3017035126686096,-2.144761323928833,-161.5724639892578,-139.87525939941406, -14.628726959228516
299,1760561631,0.3524236,0.51799285,-0.32245687,0.7095793,11.888265609741211,-5.634373664855957,-9.338090896606445,-4.831198692321777,-158.10060119628906, -0.7871860265731812
300,1760578298,0.33927,0.539325,-0.31792498,0.7021028,9.254194259643555,15.857516288757324,-2.185588836669922,105.12261199951172,-146.61448669433594, -16.801864624023438
301,1760594965,0.33183345,0.5539816,-0.32694194,0.69000006,5.867562294006348,6.281165599822998,-1.0496164560317993,-7.293240070343018,-150.63929748535156, 10.030670166015625
302,1760611632,0.32638338,0.56392074,-0.33803254,0.67911816,0.6645936965942383,0.8167555928230286,-3.199158191680908,-32.722965240478516,-123.94450378417969, 22.050012588500977
303,1760628299,0.32236382,0.5704238,-0.34694758,0.6710633,1.6281667947769165,-3.215564012527466,-4.322510719299316,-29.214635848999023,-88.77515411376953, 21.258758544921875
304,1760644966,0.3197708,0.5741628,-0.3545861,0.6650959,2.408479928970337,-0.27723878622055054,-0.41532236337661743,-30.015655517578125,-61.61138916015625, 20.777467727661133
305,1760661633,0.3162881,0.577826,-0.3594063,0.66098887,2.8739166259765625,-1.5598721504211426,-1.2361100912094116,-9.230002403259277,-50.01494598388672, 17.96241569519043
306,1760678300,0.31237572,0.5818437,-0.36179766,0.6580138,2.5424816608428955,0.3818954527378082,-0.013567483052611351,7.10080623626709,-42.99576950073242, 11.779037475585938
307,1760694967,0.31030536,0.5848889,-0.36642662,0.65371805,1.3652949333190918,1.9786092042922974,0.4020000696182251,-15.762557029724121,-44.22311019897461, 11.963156700134277
308,1760711634,0.3105232,0.586731,-0.37464204,0.6472755,0.7489446401596069,0.14071792364120483,0.26070350408554077,-49.06293869018555,-49.46586990356445, 14.587890625
309,1760728301,0.3115297,0.5887012,-0.38360977,0.639706,-0.003018520073965192,-2.0908362865448,-0.5114117860794067,-58.21714401245117,-54.27796173095703, 11.367846488952637
310,1760744968,0.3138166,0.59061104,-0.39375046,0.6306017,-0.31618523597717285,-1.9040273427963257,0.06398196518421173,-72.72618103027344,-59.450870513916016, 7.2883148193359375
311,1760761635,0.31816766,0.5916959,-0.4065991,0.61914676,-0.23295344412326813,-1.6314069032669067,-0.06314070522785187,-100.98912811279297,-65.77648162841797, 6.443262577056885
312,1760778302,0.32103607,0.59424305,-0.41748017,0.60788286,0.07202056795358658,-1.6809399127960205,0.09680864214897156,-82.84486389160156,-71.15320587158203, 1.036685585975647
313,1760794969,0.32045,0.5996163,-0.42377275,0.59848887,1.1463632583618164,-1.2437448501586914,1.2137854099273682,-37.94670867919922,-75.1938247680664, -7.309446334838867
314,1760811636,0.31921765,0.6062905,-0.42902708,0.5885984,1.5441803932189941,-0.22458533942699432,1.489241361618042,-29.59837532043457,-82.2963638305664, -13.856888771057129
315,1760828303,0.3179984,0.61375093,-0.43472934,0.5772325,2.0424396991729736,-0.694438636302948,2.620811939239502,-34.10218811035156,-92.68058013916016, -17.612661361694336
316,1760844970,0.3161883,0.62285995,-0.44091165,0.56362003,4.243566513061523,-1.368432641029358,3.6148970127105713,-36.638038635253906,-111.6552963256836, -23.104835510253906
317,1760861637,0.31451038,0.63339937,-0.44854698,0.54652935,4.686701774597168,-0.18472668528556824,4.698507308959961,-50.28440475463867,-135.0191650390625, -29.32712173461914
318,1760878304,0.31250033,0.64571726,-0.45797193,0.525028,5.264168739318848,0.48745036125183105,6.581756114959717,-65.33447265625,-166.0022430419922, -35.31073760986328
319,1760894971,0.30846107,0.6605111,-0.46650258,0.5009514,6.942487716674805,2.3538765907287598,7.064342498779297,-55.89330291748047,-191.08782958984375, -45.2757568359375
320,1760911638,0.303481,0.6760966,-0.47518292,0.47433528,8.441617012023926,3.093885898590088,8.307496070861816,-58.59055709838867,-208.94686889648438, -49.22568130493164
321,1760928305,0.2919848,0.6938334,-0.4781801,0.45242006,7.710694313049316,3.2147302627563477,5.023469924926758,10.122791290283203,-203.8308868408203, -51.54193878173828
322,1760944972,0.27732927,0.71224564,-0.47761476,0.43321922,8.087897300720215,2.5972917079925537,8.77729606628418,46.61332702636719,-196.4010467529297, -55.41411590576172
323,1760961639,0.26495406,0.72882724,-0.47976297,0.41041207,10.212078094482422,-1.2508615255355835,14.129046440124512,12.074775695800781,-206.58163452148438, -49.7329216003418
324,1760978306,0.25472632,0.7443743,-0.4833106,0.38396937,14.139917373657227,-3.8657312393188477,14.239143371582031,-16.498050689697266,-217.79833984375, -52.057918548583984
325,1760994973,0.24401766,0.7608312,-0.4825408,0.358812,13.873510360717773,-4.333094596862793,14.080931663513184,3.2210497856140137,-208.14834594726562, -73.78861236572266
326,1761011640,0.2361053,0.7765651,-0.47936967,0.33377543,12.809679985046387,-6.157532691955566,3.964653730392456,-6.291538238525391,-192.88841247558594, -90.78433990478516
327,1761028307,0.22684745,0.7869774,-0.4802086,0.31401718,14.682341575622559,-14.081722259521484,4.307767391204834,0.3971710801124573,-163.62632751464844, -40.338417053222656
328,1761044974,0.2118279,0.79359716,-0.47663432,0.31329298,2.824317693710327,-5.536514759063721,23.056819915771484,97.814453125,-64.83525085449219, -9.855493545532227
329,1761061641,0.2142081,0.7913403,-0.47703943,0.31674758,-3.226015090942383,-3.289670467376709,21.751874923706055,-4.987396717071533,27.908994674682617, 9.489067077636719
330,1761078308,0.22976463,0.78235805,-0.47765192,0.32706723,-2.415707588195801,-3.7765469551086426,18.835201263427734,-64.54336547851562,122.60760498046875, 14.00790786743164
331,1761094975,0.25327918,0.7689612,-0.47537062,0.34434175,1.9476439952850342,-4.474023342132568,13.346818923950195,-84.99507141113281,200.51473999023438, 5.89283561706543
332,1761111642,0.276533,0.75331074,-0.4676017,0.37067685,5.618729591369629,-3.7882556915283203,8.222346305847168,-44.917362213134766,262.36285400390625, 0.4893055856227875
333,1761128309,0.29638895,0.73565596,-0.45477465,0.4051468,6.99772310256958,-1.067403793334961,4.342320442199707,7.976374626159668,308.2564392089844, 4.778427600860596
334,1761144976,0.31510136,0.7144642,-0.44027588,0.443181,5.81963586807251,-1.0458494424819946,0.6697417497634888,22.43134117126465,335.9995422363281, 17.868364334106445
335,1761161643,0.33097562,0.68967634,-0.42674208,0.4823827,3.152100086212158,-3.8296966552734375,-3.342893600463867,29.232738494873047,342.1475830078125, 44.722251892089844
336,1761178310,0.3409858,0.6626891,-0.41188136,0.52433366,0.903827428817749,-0.8994913697242737,-5.407788276672363,64.51998138427734,348.5816955566406, 70.59233856201172
337,1761194977,0.35066047,0.6340912,-0.39711857,0.56326073,-0.20629426836967468,3.701632022857666,-6.858236312866211,53.356361389160156,339.7631530761719, 69.79965209960938
338,1761211644,0.36571246,0.60142314,-0.38708436,0.5955757,1.1573084592819214,8.014230728149414,-8.845993041992188,-16.290925979614258,330.3534851074219, 64.92529296875
339,1761228311,0.38603252,0.5654245,-0.38256857,0.62041557,0.19367218017578125,5.155113220214844,-15.499357223510742,-88.98451232910156,313.64715576171875, 56.462745666503906
340,1761244978,0.4029095,0.53184795,-0.37586078,0.64306355,2.173429489135742,0.3643611669540405,-15.662607192993164,-65.59298706054688,292.1344909667969, 50.562740325927734
341,1761261645,0.41502765,0.50224596,-0.36662063,0.66414654,3.007291316986084,-1.0209888219833374,-16.07514762878418,-29.997453689575195,264.1009826660156, 47.747825622558594
342,1761278312,0.42198277,0.47824547,-0.35561514,0.683191,3.503756046295166,0.053118009120225906,-18.58259391784668,6.790480136871338,224.0260772705078, 45.28047180175781
343,1761294979,0.4271348,0.4585592,-0.3482827,0.69712156,2.923710346221924,4.227296352386475,-16.118244171142578,-4.47536563873291,172.44459533691406, 40.46614074707031
344,1761311646,0.43248782,0.44243607,-0.3475207,0.7045809,2.837465524673462,1.4923096895217896,-17.02862548828125,-22.92169952392578,114.32881164550781, 33.97440719604492
345,1761328313,0.43047705,0.43898308,-0.34075618,0.7112444,1.107596516609192,0.6413248181343079,-21.275409698486328,61.24106979370117,51.49345397949219, 18.995576858520508
346,1761344980,0.42013407,0.4499745,-0.32891127,0.71612,2.4785308837890625,3.891468048095703,-22.754486083984375,134.36428833007812,-26.46714973449707, 3.8784611225128174
347,1761361647,0.40716583,0.470366,-0.3247756,0.71238536,7.872308731079102,4.879303932189941,-17.868854522705078,112.2119369506836,-127.04509735107422, -5.4608354568481445
348,1761378314,0.39432478,0.48890623,-0.3195483,0.70948416,7.444248676300049,4.6089324951171875,12.237180709838867,113.78984069824219,-111.48080444335938, -3.1072137355804443
349,1761394981,0.38842905,0.5036829,-0.32194147,0.70127034,5.517005920410156,11.843491554260254,-4.1724348068237305,31.297494888305664,-116.7997055053711, -17.4255313873291
350,1761411648,0.3823601,0.5172485,-0.3290653,0.6913545,6.350569248199463,0.9401835203170776,-8.916849136352539,1.963887333869934,-129.8284149169922, -1.7820838689804077
351,1761428315,0.37260568,0.5307203,-0.33121023,0.68542016,2.812873363494873,-1.7789746522903442,-4.637205123901367,47.52033233642578,-110.28487396240234, 8.70217227935791
352,1761444982,0.3636274,0.54237014,-0.33172578,0.68085825,1.1156789064407349,-1.6486945152282715,-2.147552490234375,50.861610412597656,-90.72238159179688, 6.664251327514648
353,1761461649,0.35474348,0.5532184,-0.33072072,0.67729634,0.3908853232860565,-1.1436562538146973,-2.2243893146514893,57.928977966308594,-79.28465270996094, 4.783776760101318
354,1761478316,0.34646693,0.56280863,-0.32817188,0.67491525,0.25552862882614136,-2.0435261726379395,-3.451836109161377,62.43840789794922,-63.84530258178711, 1.7426283359527588
355,1761494983,0.3368732,0.57267034,-0.32205132,0.67442447,0.5963082313537598,-0.21084445714950562,-0.9457007646560669,89.03788757324219,-52.27254867553711, -2.189314842224121
356,1761511650,0.3306739,0.58082896,-0.3191894,0.67187124,1.4886670112609863,0.47163254022598267,-0.44676703214645386,52.044944763183594,-52.614715576171875, -6.154697418212891
357,1761528317,0.327583,0.58786756,-0.31907788,0.66730106,1.0253078937530518,-0.11966218054294586,-0.3811682462692261,19.940231323242188,-55.021446228027344, -11.6620454788208
358,1761544984,0.32533875,0.594646,-0.32007292,0.66189456,0.10799071192741394,-0.2908630073070526,-0.7458004951477051,9.010847091674805,-57.93395233154297, -12.39367961883545
359,1761561651,0.32366726,0.60139817,-0.3218086,0.65574336,-0.13427220284938812,-0.5810413360595703,0.5938088297843933,1.592958927154541,-61.33271408081055, -13.587685585021973
360,1761578318,0.32155755,0.6084268,-0.32340285,0.6494831,-0.009252159856259823,0.2552652359008789,0.4857141077518463,4.408902168273926,-63.79762268066406, -13.064184188842773
361,1761594985,0.31850028,0.6154863,-0.32459685,0.64371675,0.11642935872077942,2.5591650009155273,0.6339322328567505,11.318285942077637,-63.197227478027344, -9.47463607788086
362,1761611652,0.3146602,0.6225747,-0.32624173,0.63793105,0.3686566650867462,1.852733850479126,0.23160025477409363,12.642383575439453,-66.25176239013672, -4.135928630828857
363,1761628319,0.3095668,0.6306847,-0.3274108,0.6318287,0.30657899379730225,-0.15620429813861847,1.659049391746521,21.586162567138672,-73.96456909179688, -3.6046533584594727
364,1761644986,0.3041043,0.63969874,-0.32865846,0.62473184,0.07701769471168518,-0.9101163744926453,1.1910442113876343,22.532297134399414,-83.33966064453125, -5.8258771896362305
365,1761661653,0.2998563,0.64855057,-0.33121893,0.6162489,0.08596020936965942,-1.3578717708587646,1.5894999504089355,8.080683708190918,-88.85401153564453, -7.8308563232421875
366,1761678320,0.29583624,0.65780365,-0.33329698,0.6071972,0.4886106252670288,-1.0835120677947998,0.5444956421852112,8.639695167541504,-91.69856262207031, -13.07419490814209
367,1761694987,0.29181585,0.66719604,-0.33496168,0.5979078,0.9249320030212402,-1.010520339012146,0.9503164887428284,10.102688789367676,-92.59889221191406, -15.775228500366211
368,1761711654,0.28789783,0.6766807,-0.33668834,0.58809793,1.8396414518356323,-0.9433081746101379,1.0945347547531128,8.358835220336914,-95.3475570678711, -17.193571090698242
369,1761728321,0.28435853,0.68620986,-0.33943132,0.5770987,2.2994191646575928,-0.3036765456199646,2.3312222957611084,-0.1832658052444458,-102.29328155517578, -16.473892211914062
370,1761744988,0.2805017,0.69640726,-0.34344193,0.56425476,2.136420726776123,-0.621189534664154,3.498204231262207,-6.714314937591553,-117.0008544921875, -14.39897632598877
371,1761761655,0.2752956,0.7078188,-0.3499504,0.54839736,2.7868587970733643,-1.617453932762146,4.540727138519287,-14.720736503601074,-144.3083038330078, -5.888514995574951
372,1761778322,0.26825443,0.7209705,-0.35869592,0.52875185,5.208434104919434,-0.8022608160972595,6.482644557952881,-20.050418853759766,-178.14999389648438, 0.5259843468666077
373,1761794989,0.25954288,0.7357129,-0.3693581,0.5049146,9.863862991333008,2.17571759223938,7.829371452331543,-26.142881393432617,-212.63671875, 4.434422492980957
374,1761811656,0.24719007,0.7521969,-0.3791716,0.47888005,15.876994132995605,2.4830377101898193,10.867111206054688,-7.222621917724609,-237.87828063964844, 4.507781028747559
375,1761828323,0.23476653,0.76829034,-0.38935727,0.4505728,21.181255340576172,3.0759482383728027,14.998254776000977,-14.633766174316406,-249.6592559814453, 3.888256788253784
376,1761844990,0.23185539,0.77899826,-0.40531638,0.41847748,19.820852279663086,1.2665319442749023,18.56814193725586,-101.55631256103516,-237.51573181152344, 13.266070365905762
377,1761861657,0.23783001,0.78571826,-0.42311618,0.38347945,10.843377113342285,0.0694616436958313,10.937468528747559,-168.8666534423828,-220.49916076660156, 3.966379165649414
378,1761878324,0.24646895,0.79105645,-0.43637562,0.35079807,3.1332836151123047,-2.0444507598876953,2.9614171981811523,-166.78396606445312,-189.4972686767578, -19.919692993164062
379,1761894991,0.25256047,0.7949596,-0.44338244,0.32812282,-0.005688220262527466,-5.566091537475586,9.585248947143555,-110.26100158691406,-128.61903381347656, -26.666584014892578
380,1761911658,0.25191838,0.7965484,-0.44516882,0.32229257,0.05724719911813736,-12.768702507019043,12.207908630371094,-14.399462699890137,-42.862918853759766, -3.8647284507751465
381,1761928325,0.2438706,0.79777557,-0.43814552,0.33482862,0.6393720507621765,-4.460025310516357,18.294219970703125,101.11198425292969,50.9620475769043, -3.025099277496338
382,1761944992,0.24108638,0.7948024,-0.43082866,0.35292092,-0.9635273218154907,-0.8641744256019592,14.70753288269043,82.62806701660156,107.13997650146484, 5.224040985107422
383,1761961659,0.24711603,0.7867174,-0.42565486,0.37259588,-0.7058894634246826,0.943259596824646,11.144842147827148,25.530515670776367,150.5640411376953, 13.377398490905762
384,1761978326,0.26064485,0.773683,-0.42297024,0.3931604,-0.06931698322296143,1.3283889293670654,8.797195434570312,-27.161632537841797,185.68023681640625, 23.68515968322754
385,1761994993,0.2765612,0.75722855,-0.42117384,0.41561005,0.06084011495113373,-0.11486868560314178,6.673343658447266,-42.86952209472656,210.25672912597656, 35.318878173828125
386,1762011660,0.29083708,0.7389041,-0.41704813,0.44216007,-0.12449529021978378,1.0284053087234497,4.868141174316406,-19.335796356201172,236.62501525878906, 41.09072494506836
387,1762028327,0.30529782,0.7181499,-0.41163668,0.470754,0.05161699652671814,1.4462412595748901,3.343592405319214,-15.344499588012695,257.53631591796875, 45.09616470336914
388,1762044994,0.32067102,0.6943976,-0.4055685,0.50049603,0.24554632604122162,2.3465733528137207,2.2589237689971924,-20.7720947265625,276.94171142578125, 49.862648010253906
389,1762061661,0.33623886,0.66756165,-0.39896122,0.53116363,0.5151739716529846,2.3479721546173096,0.16380110383033752,-24.05988311767578,293.7974853515625, 57.33466339111328
390,1762078328,0.3500611,0.63846725,-0.39016336,0.56355095,1.3059873580932617,3.9982964992523193,-2.0759780406951904,-8.567510604858398,310.3646545410156, 63.91082000732422
391,1762094995,0.3632219,0.60744923,-0.3796844,0.5957475,1.9304876327514648,5.222650051116943,-4.780772686004639,-4.320609092712402,319.4578552246094, 63.924949645996094
392,1762111662,0.3771316,0.57535154,-0.36735302,0.6259348,3.1596531867980957,4.902163028717041,-7.577785491943359,-7.8628129959106445,322.3580017089844, 51.079322814941406
393,1762128329,0.39179495,0.54400194,-0.3536314,0.65230644,5.0125837326049805,3.423387289047241,-11.31382942199707,-12.612042427062988,309.91265869140625, 30.677955627441406
394,1762144996,0.40360546,0.51737064,-0.3374103,0.6749701,5.533353328704834,1.0744327306747437,-15.124319076538086,12.931766510009766,275.1404724121094, 12.744281768798828
395,1762161663,0.41160578,0.49750698,-0.32105893,0.6928122,5.096975326538086,2.206399440765381,-17.675676345825195,34.67308044433594,218.67388916015625, 0.9043421149253845
396,1762178330,0.41581297,0.4849955,-0.30979604,0.70420545,2.423068046569824,1.7123425006866455,-21.809499740600586,29.955564498901367,139.44703674316406, 1.945520043373108
397,1762194997,0.41705692,0.4810156,-0.30606204,0.70782316,-0.6622135639190674,-0.785102903842926,-25.164655685424805,33.97222900390625,43.330039978027344, 2.06463623046875
398,1762211664,0.4118563,0.4899522,-0.30318335,0.7059754,0.23254111409187317,-2.3746166229248047,-23.87662124633789,74.88911437988281,-52.71047592163086, -6.71848726272583
399,1762228331,0.40132692,0.5064401,-0.30939728,0.6976594,4.452359676361084,-7.379444122314453,-17.502954483032227,56.161720275878906,-147.3203582763672, 15.044862747192383
400,1762244998,0.38251337,0.52739197,-0.3023483,0.69579226,5.166322231292725,0.5946905612945557,9.786280632019043,175.0731964111328,-126.94436645507812, 15.88232135772705
401,1762261665,0.3702466,0.5459543,-0.29670742,0.69051886,5.823951721191406,14.281708717346191,3.754633665084839,110.68624877929688,-116.66856384277344, -14.034589767456055
402,1762278332,0.36240578,0.55961853,-0.30984598,0.6778531,7.250939846038818,-6.480213165283203,-24.681673049926758,-22.77388572692871,-160.1175537109375, 27.004037857055664
403,1762294999,0.34609777,0.5789416,-0.31346795,0.6684167,9.954110145568848,6.291280746459961,2.2619924545288086,75.21858215332031,-167.66079711914062, 25.621912002563477
404,1762311666,0.330584,0.59472084,-0.3138952,0.6621866,0.3984418511390686,-0.0018658898770809174,-1.5745903253555298,85.19246673583984,-129.4377899169922, 24.65277099609375
405,1762328333,0.319851,0.6058081,-0.31742477,0.65569335,1.066550850868225,-0.37862926721572876,-2.2252864837646484,40.30260467529297,-105.9452133178711, 25.05457878112793
406,1762345000,0.31691763,0.61151284,-0.3249058,0.6481137,-0.40187111496925354,-2.98612904548645,-2.7184436321258545,-24.190771102905273,-77.90982055664062, 15.689370155334473
407,1762361667,0.3165119,0.6151666,-0.3312854,0.641592,2.612020254135132,-1.9823973178863525,-0.1418861746788025,-31.99587059020996,-56.297794342041016, 6.609461784362793
408,1762378334,0.3188682,0.6166695,-0.338996,0.6349204,2.3155760765075684,0.9054720401763916,-0.2915935814380646,-54.563716888427734,-44.148826599121094, 4.6003828048706055
409,1762395001,0.3213809,0.6182185,-0.3459531,0.62836015,0.7960305213928223,1.1020740270614624,-0.7306437492370605,-51.58010482788086,-41.953857421875, 0.9193244576454163
410,1762411668,0.32321095,0.620342,-0.3525212,0.6216425,0.04128801450133324,-0.10981821268796921,-0.09557640552520752,-46.10573959350586,-45.94272232055664, 0.5578465461730957
411,1762428335,0.3243153,0.6237769,-0.35802692,0.61444193,-0.1850453019142151,-1.1733263731002808,-0.5967562794685364,-36.726654052734375,-53.093017578125, -5.108669281005859
412,1762445002,0.32446277,0.6284345,-0.36204004,0.60722417,-0.6745464205741882,-1.2143181562423706,-0.4161835014820099,-23.63515281677246,-57.42517852783203, -10.539759635925293
413,1762461669,0.3239874,0.6337036,-0.3659367,0.5996186,-1.0646631717681885,-0.8806815147399902,-0.8506953120231628,-20.06161880493164,-63.01057815551758, -10.859393119812012
414,1762478336,0.3232538,0.6394467,-0.36985222,0.5914596,-0.3549913167953491,-0.19299690425395966,-0.1709783971309662,-19.35624122619629,-68.11353302001953, -12.157672882080078
415,1762495003,0.32178265,0.64596814,-0.37331563,0.582938,0.6199425458908081,0.5499599575996399,0.9577375054359436,-13.472084045410156,-73.80855560302734, -13.930702209472656
416,1762511670,0.31874788,0.6537509,-0.37623268,0.57398486,0.8079175353050232,0.18275123834609985,1.85300874710083,-2.6596007347106934,-83.68812561035156, -14.263677597045898
417,1762528337,0.3138049,0.6630298,-0.37865743,0.5643904,0.9111391305923462,1.8523486852645874,1.89828622341156,9.476744651794434,-96.45862579345703, -14.218206405639648
418,1762545004,0.30727786,0.67341876,-0.38164738,0.5535641,1.306023120880127,2.774209499359131,2.75382924079895,13.695646286010742,-111.84879302978516, -10.99349308013916
419,1762561671,0.29892093,0.6851665,-0.38467476,0.54149675,2.152498245239258,1.4393689632415771,1.7150280475616455,21.65060806274414,-127.79458618164062, -9.968633651733398
420,1762578338,0.29020083,0.69758177,-0.3882139,0.5276868,2.6807847023010254,0.8991714119911194,3.5652034282684326,18.23166847229004,-140.6165771484375, -11.524473190307617
421,1762595005,0.28284246,0.71016127,-0.3940152,0.51031697,2.9575064182281494,-0.46045663952827454,4.6102681159973145,-5.672968864440918,-159.34329223632812, -13.13715648651123
422,1762611672,0.2769348,0.72289515,-0.40257007,0.4885359,4.397017002105713,-0.803917407989502,6.111809730529785,-34.05813980102539,-183.0638427734375, -13.804380416870117
423,1762628339,0.27175918,0.73613477,-0.4132373,0.46204725,5.991518497467041,-0.4129163920879364,8.336508750915527,-56.86195755004883,-210.4329376220703, -16.156402587890625
424,1762645006,0.26581788,0.7495194,-0.42447054,0.43288177,8.730755805969238,0.2896691560745239,10.455567359924316,-62.10506057739258,-228.02915954589844, -16.302978515625
425,1762661673,0.26010934,0.76231325,-0.43623057,0.40115425,12.642769813537598,0.45185327529907227,10.801403999328613,-73.40300750732422,-240.200927734375, -17.263216018676758
426,1762678340,0.25269303,0.7755184,-0.44496164,0.36976582,17.500917434692383,-2.3520030975341797,13.677990913391113,-54.3065071105957,-239.75511169433594, -29.092073440551758
427,1762695007,0.23979929,0.79086214,-0.44577897,0.34396857,17.048978805541992,-0.7230793833732605,11.920697212219238,15.873892784118652,-219.0201873779297, -54.31855010986328
428,1762711674,0.23939271,0.8018144,-0.44951722,0.31260097,12.531041145324707,-3.1383774280548096,7.566498279571533,-83.21270751953125,-206.0323944091797, -63.78033447265625
429,1762728341,0.23687184,0.8099154,-0.45370427,0.28649777,5.268276214599609,-9.437360763549805,0.6661384701728821,-60.94645309448242,-178.47601318359375, -39.4479866027832
430,1762745008,0.22821328,0.81399226,-0.45535886,0.27925563,3.051469564437866,-10.806777954101562,18.61074447631836,30.326372146606445,-80.5205078125, 1.5856914520263672
431,1762761675,0.22087114,0.81469196,-0.45401704,0.28523958,-2.455495595932007,-2.8902571201324463,17.04338836669922,64.67805480957031,8.451983451843262, 13.424152374267578
432,1762778342,0.22262527,0.81034064,-0.45315218,0.29738745,0.23398491740226746,-5.21406888961792,15.358891487121582,24.365684509277344,80.3851089477539, 23.40253257751465
433,1762795009,0.2313312,0.8021561,-0.45166183,0.31469554,0.09575724601745605,-0.41984519362449646,13.33990478515625,-2.9175572395324707,139.40859985351562, 25.46744155883789
434,1762811676,0.24808025,0.7898366,-0.4512151,0.33319587,1.860055923461914,-0.398123562335968,9.560038566589355,-52.36477279663086,178.1241912841797, 28.55352210998535
435,1762828343,0.2669837,0.77437776,-0.4503317,0.35533148,2.569019079208374,-0.07505997270345688,7.485123634338379,-57.1021842956543,212.4138946533203, 37.151512145996094
436,1762845010,0.28779542,0.75581825,-0.44937724,0.3794374,3.060708999633789,2.0207085609436035,6.089819431304932,-66.64610290527344,236.47825622558594, 45.29548645019531
437,1762861677,0.31062618,0.73384625,-0.4487989,0.40442637,3.4042699337005615,1.1895873546600342,4.151414394378662,-82.090576171875,255.4495391845703, 54.28197479248047
438,1762878344,0.3333388,0.70879084,-0.4481509,0.43088487,2.227013349533081,1.3519327640533447,2.531614065170288,-83.33021545410156,271.2535095214844, 66.90280151367188
439,1762895011,0.35563532,0.6808273,-0.44791126,0.4575732,0.6644895672798157,1.6069761514663696,0.8328592777252197,-88.4582290649414,278.8623962402344, 79.60761260986328
440,1762911678,0.3758419,0.65055263,-0.44686437,0.4856298,0.9624089598655701,1.6308481693267822,-1.6406078338623047,-77.56884002685547,288.2331237792969, 92.88038635253906
441,1762928345,0.39307374,0.6180155,-0.4431943,0.5168451,1.643554449081421,2.137009859085083,-3.4527578353881836,-51.65779113769531,307.7830505371094, 106.23741149902344
442,1762945012,0.40583488,0.585294,-0.4342574,0.5514974,1.5560022592544556,3.585618734359741,-5.394602298736572,-3.971118927001953,323.9173583984375, 109.68054962158203
443,1762961679,0.41736618,0.55329806,-0.42015687,0.58577734,2.172727108001709,3.7752413749694824,-7.476741313934326,21.46702766418457,330.7063903808594, 90.50003814697266
444,1762978346,0.42706394,0.52413714,-0.39882436,0.6195449,5.690188407897949,1.7324331998825073,-10.755940437316895,64.23596954345703,333.1516418457031, 60.86848068237305
445,1762995013,0.43609285,0.49734494,-0.3757278,0.6490761,9.51298713684082,0.23560582101345062,-12.501748085021973,69.50769805908203,311.57293701171875, 38.52955627441406
446,1763011680,0.44391885,0.47241804,-0.3571327,0.6724683,9.167844772338867,-0.26167044043540955,-14.350707054138184,43.283103942871094,266.1399230957031, 36.12273406982422
447,1763028347,0.44978473,0.44996336,-0.34711698,0.6890115,5.296036243438721,3.4235033988952637,-18.038694381713867,0.7368672490119934,202.01083374023438, 46.108306884765625
448,1763045014,0.45579356,0.43182135,-0.3483045,0.6960364,1.7895087003707886,3.3864846229553223,-20.452186584472656,-45.69205856323242,117.22972106933594, 41.40237808227539
449,1763061681,0.45511013,0.42795396,-0.3476351,0.6991997,-0.3630733788013458,1.0160713195800781,-22.555654525756836,2.128277540206909,29.117895126342773, 20.812929153442383
450,1763078348,0.44759366,0.43744114,-0.3453036,0.6993359,-1.372206687927246,2.959879159927368,-20.584815979003906,64.83452606201172,-54.462677001953125, 7.401585102081299
451,1763095015,0.43742612,0.45418495,-0.34565648,0.69490725,1.5648913383483887,3.112867593765259,-17.916698455810547,95.36602020263672,-119.24701690673828, -1.698005199432373
452,1763111682,0.42541206,0.47584954,-0.3448616,0.68823147,3.1088404655456543,4.141595840454102,-7.019441604614258,112.85430145263672,-149.86865234375, -15.803231239318848
453,1763128349,0.41407904,0.49250892,-0.34288955,0.6843978,4.667141914367676,2.5660030841827393,12.606775283813477,103.1119155883789,-111.18212127685547, -3.2864654064178467
454,1763145016,0.4082755,0.5058694,-0.3465704,0.6762371,5.73679780960083,10.368776321411133,-3.4445784091949463,22.69232749938965,-112.51313018798828, -14.453184127807617
455,1763161683,0.40305042,0.5183552,-0.35579398,0.6650333,9.724543571472168,4.257512092590332,-4.881634712219238,-14.884751319885254,-133.14666748046875, -4.039096355438232
456,1763178350,0.3943277,0.53213763,-0.36196062,0.6559878,6.560019493103027,3.2035388946533203,-1.8058212995529175,20.427959442138672,-131.33421325683594, 3.980288505554199
457,1763195017,0.38295004,0.54715216,-0.364638,0.6488552,4.604677200317383,2.499441146850586,-0.6633086204528809,53.98923110961914,-127.0417251586914, 5.357555866241455
458,1763211684,0.37356505,0.5595624,-0.36934283,0.64103436,1.7789833545684814,-1.3393100500106812,-0.8474491238594055,28.87760353088379,-118.40859985351562, 8.834035873413086
459,1763228351,0.36671287,0.5687792,-0.37467724,0.6337421,-0.4098053276538849,-4.2946295738220215,-3.222209930419922,9.53199577331543,-97.55402374267578, 9.481229782104492
460,1763245018,0.36001584,0.5773019,-0.37584025,0.6291704,-0.0030003562569618225,-4.338059902191162,-5.839887619018555,32.39654541015625,-72.96910095214844, 0.9744890332221985
461,1763261685,0.3546356,0.58452535,-0.37588757,0.62551755,0.9785031080245972,-1.4577795267105103,-2.4793150424957275,31.180158615112305,-57.44615936279297, -3.686005115509033
462,1763278352,0.34686658,0.5930446,-0.37111726,0.624703,0.8738507628440857,-0.07185053825378418,-2.455502510070801,71.9981918334961,-46.06056213378906, -9.28841781616211
463,1763295019,0.33814326,0.60207963,-0.3645656,0.6247009,1.2831107378005981,1.642215609550476,-1.4906203746795654,86.83851623535156,-43.17134475708008, -11.892504692077637
464,1763311686,0.3315909,0.60967875,-0.36060986,0.62313724,0.4659833014011383,1.2612553834915161,-0.4236766993999481,59.43629455566406,-44.11288833618164, -10.50271987915039
465,1763328353,0.32684022,0.6163791,-0.3591469,0.61989194,0.331184983253479,-0.7543638348579407,0.47927194833755493,34.974700927734375,-48.612571716308594, -9.3740873336792
466,1763345020,0.32200047,0.6234817,-0.35783768,0.61606705,0.17119622230529785,-0.716940701007843,0.2824854850769043,34.163055419921875,-53.45986557006836, -10.682867050170898
467,1763361687,0.31756037,0.63039047,-0.3574103,0.61157286,0.10316720604896545,0.28856921195983887,0.8026118278503418,26.632198333740234,-56.57609939575195, -9.639616966247559
468,1763378354,0.31352335,0.637178,-0.3582514,0.6061052,0.6137533187866211,0.38476499915122986,0.3005601465702057,16.886899948120117,-62.17536926269531, -7.66604471206665
469,1763395021,0.3089324,0.6443107,-0.35868466,0.60064137,0.793893575668335,-0.10134496539831161,0.7684007883071899,21.76198959350586,-64.17158508300781, -7.983634948730469
470,1763411688,0.30414927,0.6514567,-0.35922158,0.5950273,0.5060297846794128,0.038177233189344406,0.45174288749694824,21.837852478027344,-65.68659973144531, -7.094492435455322
471,1763428355,0.29963008,0.65854204,-0.36090332,0.5884667,0.17024053633213043,0.1835833340883255,0.6772763133049011,13.503262519836426,-71.50454711914062, -4.881155014038086
472,1763445022,0.29568276,0.66569865,-0.36402354,0.5804344,0.5418606400489807,-0.16748003661632538,1.8225864171981812,1.5861856937408447,-80.08674621582031, -3.8873403072357178
473,1763461689,0.29152057,0.67357886,-0.36797076,0.570881,0.5700830221176147,-1.1150970458984375,2.686612129211426,-3.0696330070495605,-92.2770004272461, -4.1503801345825195
474,1763478356,0.2870481,0.6819641,-0.37264124,0.56005985,0.8257858753204346,-0.7983835935592651,1.999832272529602,-6.672906398773193,-102.50949096679688, -3.4303722381591797
475,1763495023,0.28279394,0.6904643,-0.3784106,0.5478068,1.4909635782241821,-0.2977949380874634,2.0320992469787598,-15.375348091125488,-111.39191436767578, -2.255491018295288
476,1763511690,0.27862015,0.6989234,-0.38519156,0.5343261,2.452660083770752,-0.029862845316529274,1.2890831232070923,-22.845415115356445,-118.9409408569336, -0.03505278751254082
477,1763528357,0.27488038,0.70762616,-0.39309013,0.51883173,3.54736590385437,0.6279486417770386,2.1883726119995117,-33.902984619140625,-130.602783203125, -0.7527286410331726
478,1763545024,0.2712695,0.7165719,-0.4017523,0.5015304,3.450747013092041,0.8063800930976868,2.6499197483062744,-41.67737579345703,-141.49371337890625, -1.5386345386505127
479,1763561691,0.26712778,0.7265022,-0.41119483,0.48141086,4.288907527923584,0.767838716506958,5.164392471313477,-47.692623138427734,-161.84678649902344, -3.8086957931518555
480,1763578358,0.26206833,0.7373999,-0.42106232,0.45855007,5.6792521476745605,1.5036647319793701,4.721949100494385,-50.47977828979492,-182.35816955566406, -6.392034530639648
481,1763595025,0.25674835,0.7483942,-0.43221924,0.43263513,7.50712251663208,1.623777985572815,7.734649181365967,-61.87140655517578,-201.468994140625, -4.7770562171936035
482,1763611692,0.24790202,0.76011914,-0.44081116,0.40798184,8.243066787719727,1.292069435119629,6.123220443725586,-31.02029800415039,-203.45120239257812, -7.4002180099487305
483,1763628359,0.2395297,0.7710852,-0.44790912,0.38396743,9.19345760345459,1.9327807426452637,8.05716609954834,-28.633386611938477,-194.30410766601562, -13.132322311401367
484,1763645026,0.23429489,0.7803741,-0.45466933,0.35971975,11.545415878295898,-1.2671968936920166,10.039111137390137,-47.8062744140625,-181.26405334472656, -18.410778045654297
485,1763661693,0.23440665,0.78658736,-0.4624893,0.33531722,13.044495582580566,-2.90506649017334,13.088990211486816,-84.55440521240234,-159.93922424316406, -16.668367385864258
486,1763678360,0.2367329,0.79145825,-0.47124255,0.30900183,8.52441120147705,-3.591470956802368,9.219433784484863,-106.95293426513672,-162.20556640625, -15.70019245147705
487,1763695027,0.2400734,0.79623055,-0.47795662,0.2827352,3.9929962158203125,-3.712480306625366,-0.5854403376579285,-108.18217468261719,-155.44503784179688, -28.734224319458008
488,1763711694,0.24266365,0.7992579,-0.48313603,0.2624516,3.8384032249450684,-6.374287128448486,2.8248815536499023,-84.3779525756836,-119.1845474243164, -20.212310791015625
489,1763728361,0.2440849,0.7998544,-0.48585117,0.25417396,1.0028798580169678,-5.162588596343994,15.819366455078125,-37.795249938964844,-48.62748718261719, -3.7106130123138428
490,1763745028,0.2497032,0.7974156,-0.4877131,0.25280985,-1.7591066360473633,-1.3109768629074097,16.40004539489746,-41.420433044433594,9.895395278930664, 5.88370418548584
491,1763761695,0.25968412,0.7917257,-0.48944387,0.25725427,-1.9644407033920288,-4.701622009277344,12.461804389953613,-51.16765213012695,62.064849853515625, 18.430173873901367
492,1763778362,0.2691893,0.78440964,-0.4896084,0.26929972,-0.9726155400276184,-4.538161277770996,10.619959831237793,-23.164413452148438,107.42789459228516, 29.69853401184082
493,1763795029,0.27873048,0.7756465,-0.48788112,0.28749603,-0.3990880250930786,-2.556504249572754,9.270075798034668,-1.8542779684066772,146.8280792236328, 35.612998962402344
494,1763811696,0.29037446,0.7646853,-0.48528418,0.30893147,-0.00025850534439086914,-1.5087250471115112,6.845734596252441,-4.685159206390381,177.10202026367188, 40.37774658203125
495,1763828363,0.304317,0.7511404,-0.48249754,0.33222806,0.5285027027130127,-0.6501732468605042,4.937623023986816,-15.294920921325684,200.4029083251953, 46.82658767700195
496,1763845030,0.31953356,0.73534393,-0.4793576,0.356909,1.2077562808990479,-0.1414952129125595,3.7872202396392822,-21.16106605529785,217.67233276367188, 52.4619026184082
497,1763861697,0.33425036,0.71829444,-0.47458386,0.38353613,2.0707547664642334,0.01704297959804535,2.2949166297912598,-10.93122673034668,232.54949951171875, 53.847694396972656
498,1763878364,0.348248,0.70011085,-0.46814135,0.41159666,3.0763895511627197,0.03976765275001526,0.6215797662734985,-0.8816555142402649,244.14755249023438, 54.52553176879883
499,1763895031,0.36117363,0.6810162,-0.4599831,0.44066587,3.607891082763672,-0.4378564953804016,-0.028996527194976807,10.224799156188965,252.30752563476562, 54.67811584472656
500,1763911698,0.37273797,0.661576,-0.44985047,0.47012597,4.004493713378906,-0.24841347336769104,-0.6430448293685913,22.978839874267578,255.85870361328125, 51.64904022216797
501,1763928365,0.38283107,0.6418935,-0.43795705,0.4996068,4.33523416519165,-0.38811513781547546,-1.5280117988586426,34.825233459472656,256.7880554199219, 49.24081802368164
502,1763945032,0.39064303,0.62166756,-0.42379278,0.53040296,4.502758979797363,0.5976518988609314,-1.9151611328125,55.2431640625,263.6928405761719, 52.20637130737305
503,1763961699,0.3971746,0.5993442,-0.40788403,0.5627339,4.493383884429932,2.937903642654419,-2.4398679733276367,65.9327621459961,279.0024719238281, 59.74576187133789
504,1763978366,0.40709454,0.5739589,-0.39325672,0.59177244,2.5431487560272217,6.118124961853027,-2.780489921569824,29.411924362182617,283.4453430175781, 51.652462005615234
505,1763995033,0.41997752,0.54551303,-0.38336095,0.6156858,3.322894334793091,3.607370376586914,-9.493792533874512,-23.999530792236328,270.6177062988281, 52.40003204345703
506,1764011700,0.43189842,0.5194859,-0.37071255,0.637315,4.647435188293457,4.428621768951416,-10.474401473999023,-7.7917399406433105,257.6221923828125, 33.2821159362793
507,1764028367,0.44001165,0.49853137,-0.35542905,0.6569067,3.2347402572631836,0.6040917634963989,-11.74063777923584,27.197128295898438,226.65675354003906, 21.71272850036621
508,1764045034,0.44262603,0.48414153,-0.33848006,0.67462623,1.0168910026550293,2.428799629211426,-15.96861743927002,68.86073303222656,182.62884521484375, 19.166038513183594
509,1764061701,0.44295692,0.47605523,-0.32787034,0.6853188,-1.7109131813049316,3.0431606769561768,-18.830686569213867,36.206016540527344,106.23748016357422, 15.334074974060059
510,1764078368,0.44399327,0.4729091,-0.32760975,0.686949,-2.622097969055176,1.1101672649383545,-19.83134651184082,-6.23917818069458,23.644420623779297, 6.765347003936768
511,1764095035,0.44257417,0.47804713,-0.33237556,0.68200135,-1.727448582649231,-0.527461588382721,-19.497594833374023,-11.873833656311035,-57.14934539794922, -4.002173900604248
512,1764111702,0.43655068,0.49199128,-0.33832785,0.6729804,0.4022429883480072,0.3459945619106293,-16.526309967041016,13.14975643157959,-125.35063934326172, -10.971357345581055
513,1764128369,0.42646602,0.50905496,-0.34641704,0.6625596,6.42402982711792,-4.514163017272949,0.35059112310409546,25.151338577270508,-159.96688842773438, 3.507861614227295
514,1764145036,0.4133551,0.52718276,-0.3471716,0.65626824,7.241333484649658,6.026853084564209,6.681305885314941,82.15664672851562,-136.09849548339844, 1.0400131940841675
515,1764161703,0.40283915,0.5448774,-0.35219267,0.64559263,10.462347984313965,7.870762348175049,-3.5140719413757324,41.74989700317383,-156.21075439453125, -6.490062713623047
516,1764178370,0.39017153,0.56178606,-0.3609681,0.6339282,7.280389308929443,-1.6617705821990967,-7.268649578094482,28.540206909179688,-171.9257354736328, 16.495920181274414
517,1764195037,0.3729104,0.5813596,-0.36347333,0.625177,5.887199878692627,3.9251086711883545,-4.579349994659424,88.03340911865234,-166.668212890625, 13.408699989318848
518,1764211704,0.36302593,0.5952984,-0.37032458,0.6137522,1.710183024406433,0.9148707389831543,-0.9395530819892883,18.73598289489746,-145.74505615234375, 6.370549201965332
519,1764228371,0.35543832,0.6054556,-0.37606728,0.604699,0.2859722971916199,-2.2680275440216064,-5.355713367462158,10.62507438659668,-111.51441192626953, 7.694301128387451
520,1764245038,0.3526282,0.61112845,-0.38297045,0.59624594,0.17386706173419952,-3.5517282485961914,-5.241160869598389,-23.47895622253418,-80.76288604736328, 5.6484527587890625
521,1764261705,0.34973246,0.6164522,-0.38580233,0.59061855,0.8223434090614319,-1.05184006690979,-3.650937080383301,0.1727660745382309,-57.72996139526367, -3.442310094833374
522,1764278372,0.34491628,0.6229246,-0.38451737,0.5874898,1.423350214958191,0.6271048188209534,-1.4804408550262451,34.417335510253906,-46.97311782836914, -10.178278923034668
523,1764295039,0.34129158,0.6291826,-0.38408807,0.583203,0.6988032460212708,1.2507661581039429,-1.0712040662765503,22.280080795288086,-49.993927001953125, -13.507765769958496
524,1764311706,0.33769596,0.63567823,-0.38388404,0.5783666,-0.22284512221813202,-0.3629579544067383,-0.7408386468887329,20.349685668945312,-53.83513259887695, -14.547384262084961
525,1764328373,0.33342355,0.64281976,-0.38219118,0.5740571,-0.6605300307273865,-0.4514773488044739,-0.27169468998908997,32.10833740234375,-52.492637634277344, -18.87355613708496
526,1764345040,0.32866082,0.6503282,-0.37980193,0.56991744,-0.823116660118103,-0.7571689486503601,-1.0340334177017212,38.299415588378906,-52.95759201049805, -20.62700653076172
527,1764361707,0.32511193,0.6567387,-0.3788369,0.5652249,-0.4474732279777527,0.7412769794464111,-0.8273826837539673,23.352746963500977,-51.220191955566406, -17.436887741088867
528,1764378374,0.32242832,0.6621214,-0.379032,0.5603305,0.8022948503494263,1.1686023473739624,-0.08506600558757782,12.109010696411133,-48.52666473388672, -13.323007583618164
529,1764395041,0.31966516,0.667201,-0.37915295,0.5557879,1.2179062366485596,1.1349446773529053,0.5059352517127991,12.99906063079834,-45.87849807739258, -11.756507873535156
530,1764411708,0.31702733,0.67230994,-0.379308,0.5510161,1.0687540769577026,0.4258292019367218,0.4871234893798828,11.759769439697266,-46.8858757019043, -12.633254051208496
531,1764428375,0.31547105,0.6770143,-0.38093665,0.5449926,0.7458146810531616,-0.3512635827064514,1.9902254343032837,-2.9699623584747314,-51.62015914916992, -11.583379745483398
532,1764445042,0.3143988,0.6820314,-0.3844334,0.5368405,0.4179915189743042,-0.9799443483352661,2.5278728008270264,-17.12328338623047,-65.61814880371094, -10.144410133361816
533,1764461709,0.31238776,0.6885442,-0.3885027,0.526675,0.5301216840744019,-0.8884514570236206,2.709282636642456,-16.927255630493164,-84.44095611572266, -12.321866989135742
534,1764478376,0.30894998,0.6967319,-0.39265496,0.51472014,1.5698224306106567,-0.1388053297996521,2.978774309158325,-11.66092586517334,-103.10982513427734, -15.099347114562988
535,1764495043,0.30426013,0.7060917,-0.39682317,0.50139,1.9432963132858276,0.35998693108558655,2.360084056854248,-6.943102836608887,-117.4153823852539, -16.67791175842285
536,1764511710,0.29895133,0.7162989,-0.4016004,0.48606718,2.356206178665161,0.48310235142707825,2.0801000595092773,-9.697831153869629,-133.10751342773438, -18.056995391845703
537,1764528377,0.2930652,0.72709125,-0.40693173,0.46888995,2.5815834999084473,-0.14231713116168976,3.9261281490325928,-12.617786407470703,-147.05609130859375, -18.81276512145996
538,1764545044,0.2853675,0.7390801,-0.4119821,0.45010766,2.8648641109466553,-0.4822399318218231,4.147980213165283,-4.731337547302246,-163.62399291992188, -20.96320152282715
539,1764561711,0.2757151,0.7520418,-0.41674346,0.42981327,3.7998244762420654,0.3306262493133545,4.258633613586426,3.7268149852752686,-179.47840881347656, -22.123781204223633
540,1764578378,0.2661283,0.7646634,-0.4228922,0.4069741,4.398195743560791,1.1528398990631104,5.335975646972656,-8.63503646850586,-194.27642822265625, -18.99049186706543
541,1764595045,0.2576013,0.77609557,-0.43132016,0.38115662,5.683469772338867,1.6225757598876953,7.730466365814209,-31.392786026000977,-207.9362335205078, -11.943903923034668
542,1764611712,0.2526315,0.7850013,-0.44331372,0.35131687,8.708327293395996,1.2852815389633179,10.791020393371582,-76.08140563964844,-218.8712921142578, -1.8533270359039307
543,1764628379,0.250516,0.7919204,-0.45590335,0.31977525,11.465764999389648,0.3963850140571594,12.27984619140625,-101.51775360107422,-216.04490661621094, -2.4509871006011963
544,1764645046,0.24813475,0.7985737,-0.46600792,0.28904366,12.235616683959961,-1.01249098777771,9.955076217651367,-92.47391510009766,-208.12216186523438, -13.24847412109375
545,1764661713,0.24554837,0.8053264,-0.4723372,0.26087034,10.706531524658203,-0.5474969744682312,7.725030899047852,-75.45326232910156,-188.94090270996094, -29.6488037109375
546,1764678380,0.24962997,0.8103743,-0.47766,0.22982495,8.697283744812012,-4.453640460968018,0.21295496821403503,-122.75469970703125,-178.78524780273438, -46.62116622924805
547,1764695047,0.24956398,0.814908,-0.48087916,0.20590867,7.7984795570373535,-7.521121978759766,2.9970996379852295,-73.86465454101562,-148.36752319335938, -38.054412841796875
548,1764711714,0.24762055,0.81756604,-0.48131454,0.19648518,2.832075357437134,-5.534017562866211,18.041872024536133,-14.84135913848877,-66.08663940429688, -20.124711990356445
549,1764728381,0.2507715,0.8167435,-0.48184308,0.1946052,-1.2165355682373047,-2.7253243923187256,15.80414867401123,-24.57019805908203,-2.5919082164764404, -2.230243444442749
550,1764745048,0.2572116,0.8128107,-0.48266506,0.20053786,-0.36736658215522766,-6.652276039123535,12.578900337219238,-22.87393569946289,55.68917465209961, 18.762786865234375
551,1764761715,0.2645431,0.80707186,-0.48235717,0.21443783,0.2514616847038269,-3.8956353664398193,11.30422306060791,-3.114091634750366,107.56022644042969, 31.208528518676758
552,1764778382,0.27384844,0.7995092,-0.48108822,0.2331225,0.8290910720825195,-3.6424949169158936,8.720008850097656,-0.10216432809829712,144.9970703125, 37.67805480957031
553,1764795049,0.28393075,0.79025686,-0.4785516,0.25664347,0.9002426862716675,-2.128709554672241,7.0656280517578125,10.467652320861816,179.1834259033203, 44.12784194946289
554,1764811716,0.29554302,0.77894604,-0.47537756,0.28268975,1.4956824779510498,0.3091265857219696,6.148886680603027,7.585143566131592,202.77540588378906, 49.667118072509766
555,1764828383,0.30920604,0.76508796,-0.47248125,0.30950564,2.0758306980133057,0.4863131046295166,3.8102874755859375,-6.5502119064331055,217.94821166992188, 57.09636688232422
556,1764845050,0.32228294,0.74985373,-0.46853447,0.3381253,1.98530113697052,0.44310885667800903,1.631015658378601,1.7333097457885742,230.69308471679688, 61.167362213134766
557,1764861717,0.33494863,0.7332569,-0.4633221,0.3680716,2.045410394668579,1.183240294456482,0.9891427755355835,8.067420959472656,242.2340545654297, 62.973777770996094
558,1764878384,0.3491945,0.71426284,-0.45805717,0.39758718,2.089815616607666,1.3729110956192017,0.06422390043735504,-6.643017292022705,251.35214233398438, 65.41446685791016
559,1764895051,0.36584172,0.6921999,-0.45341665,0.4259493,1.9139765501022339,1.1889570951461792,-0.6899732351303101,-31.144041061401367,260.2383728027344, 68.86756134033203
560,1764911718,0.38416457,0.66678137,-0.4497,0.4534208,1.5917763710021973,1.0216578245162964,-1.598250389099121,-53.04640579223633,268.8558349609375, 76.6043472290039
561,1764928385,0.40346405,0.6388104,-0.44616792,0.47965878,1.3733795881271362,1.864004135131836,-1.9083420038223267,-68.66905212402344,273.8503112792969, 79.05420684814453
562,1764945052,0.42178106,0.6095042,-0.44134098,0.5057902,1.8222193717956543,1.4207708835601807,-3.7167892456054688,-64.117919921875,278.5323791503906, 80.44168853759766
563,1764961719,0.43773893,0.580213,-0.4332374,0.5329569,3.2544851303100586,2.925114154815674,-5.031907558441162,-39.6510124206543,285.37921142578125, 77.90640258789062
564,1764978386,0.45410213,0.5493176,-0.4239505,0.5588449,5.155848026275635,4.883477687835693,-6.469846248626709,-45.577186584472656,291.17962646484375, 72.71566009521484
565,1764995053,0.4683095,0.5193456,-0.41156542,0.58444875,6.176907539367676,3.4656383991241455,-9.99621295928955,-23.4859619140625,290.2381591796875, 65.86184692382812
566,1765011720,0.47624642,0.4951555,-0.3932164,0.61105746,6.399542331695557,1.2856621742248535,-12.09609603881836,44.329811096191406,272.4443664550781, 56.761558532714844
567,1765028387,0.47653684,0.47953176,-0.36893213,0.6378489,4.987039089202881,1.577027440071106,-13.775663375854492,123.86146545410156,236.29026794433594, 46.198699951171875
568,1765045054,0.4723258,0.47037342,-0.34646302,0.66001564,2.378528594970703,5.735694408416748,-16.900474548339844,140.18685913085938,175.79913330078125, 40.44962692260742
569,1765061721,0.4669786,0.4664768,-0.33328897,0.6732377,-1.9891340732574463,5.20578145980835,-20.360248565673828,80.45491790771484,89.71493530273438, 35.53938293457031
570,1765078388,0.4594933,0.47142172,-0.32827517,0.6773943,-3.6613693237304688,2.652413845062256,-21.776119232177734,57.033714294433594,-10.596693992614746, 22.137413024902344
571,1765095055,0.44766098,0.48798448,-0.325306,0.67501634,-2.2735795974731445,3.0106449127197266,-20.893903732299805,89.20112609863281,-101.23091888427734, 1.9832607507705688
572,1765111722,0.43376908,0.51148576,-0.32481322,0.6668757,0.943429708480835,4.7011637687683105,-15.76200008392334,95.03881072998047,-164.33639526367188, -13.194158554077148
573,1765128389,0.42369252,0.5324417,-0.32824764,0.6551672,5.070833206176758,5.065840721130371,5.862792491912842,57.31489944458008,-167.6124267578125, -22.827795028686523
574,1765145056,0.42057803,0.5410723,-0.33528888,0.64648,4.007030963897705,2.4197168350219727,20.130126953125,-13.539834022521973,-96.0460205078125, -4.248814105987549
575,1765161723,0.42385992,0.5459666,-0.3521017,0.63110036,7.245079517364502,1.9785624742507935,-9.810029983520508,-106.99828338623047,-118.56575012207031, -6.988336086273193
576,1765178390,0.41737494,0.5576578,-0.36104342,0.62005144,9.239583969116211,-2.290465831756592,-2.5372612476348877,-5.878144264221191,-132.21022033691406, 2.0799753665924072
577,1765195057,0.40740064,0.57126004,-0.36787155,0.61021096,6.019052505493164,2.5223255157470703,-1.7101359367370605,25.03265380859375,-138.2677764892578, 7.487959384918213
578,1765211724,0.39496824,0.5865153,-0.37482223,0.59959024,5.522702217102051,2.532264471054077,-3.0829105377197266,36.84775924682617,-154.82223510742188, 11.954615592956543
579,1765228391,0.38363907,0.6006752,-0.38093364,0.5889821,2.328756093978882,2.0653910636901855,-2.414586067199707,32.937530517578125,-145.086181640625, 6.913363456726074
580,1765245058,0.37585264,0.6109385,-0.3875862,0.57902163,-0.5765179991722107,-0.30424964427948,-6.100804805755615,7.552608966827393,-118.76624298095703, 6.743528366088867
581,1765261725,0.37216178,0.61732894,-0.39363265,0.5704858,-0.6839876174926758,-2.3783042430877686,-6.4700026512146,-13.433159828186035,-84.75576782226562, 1.8687191009521484
582,1765278392,0.36909765,0.62205815,-0.39634153,0.5654414,-0.15208008885383606,-1.362007975578308,-5.304886341094971,2.203181028366089,-53.0515022277832, -1.405395269393921
583,1765295059,0.3658434,0.62603873,-0.39701462,0.56268436,0.7298901081085205,-0.17268197238445282,-2.252136707305908,15.265220642089844,-35.62100601196289, -1.5874453783035278
584,1765311726,0.36171368,0.63038963,-0.39599696,0.56121194,0.8088369965553284,0.2330184131860733,0.06315672397613525,30.013845443725586,-29.67483901977539, -3.2905352115631104
585,1765328393,0.3571788,0.6357004,-0.39409897,0.5594592,-0.18566036224365234,-0.4081861674785614,-0.07968159765005112,36.78966522216797,-33.59455871582031, -8.879298210144043
586,1765345060,0.351663,0.64269763,-0.390856,0.5572297,-0.7175774574279785,-0.9738380908966064,-0.09261105209589005,49.09446334838867,-41.59507369995117, -16.77102279663086
587,1765361727,0.3452962,0.6507412,-0.3868502,0.5546651,-0.6251146197319031,-0.5636417865753174,-0.20461396872997284,57.3978157043457,-47.596397399902344, -20.569683074951172
588,1765378394,0.33920532,0.6585152,-0.3837306,0.5514059,-0.021736662834882736,0.4307072162628174,0.13698779046535492,50.28717803955078,-51.10835647583008, -18.638914108276367
589,1765395061,0.3332483,0.6658587,-0.38152742,0.5477358,0.10022211074829102,1.4256640672683716,-1.011815071105957,44.11368942260742,-53.19563293457031, -14.836764335632324
590,1765411728,0.32774568,0.67279553,-0.3810327,0.54290265,0.26220396161079407,1.6098661422729492,0.09836292266845703,31.61646842956543,-59.74567413330078, -10.30794906616211
591,1765428395,0.32202888,0.67989963,-0.38178867,0.53690904,-0.13166077435016632,0.9152895212173462,1.9223426580429077,25.281930923461914,-69.1855697631836, -6.749959468841553
592,1765445062,0.31602395,0.6873291,-0.38388237,0.52947325,-0.14917977154254913,0.10146338492631912,2.697056531906128,18.632740020751953,-80.9691162109375, -3.4694268703460693
593,1765461729,0.30948684,0.69583434,-0.3866327,0.5201419,0.23193861544132233,-0.6783110499382019,3.3494815826416016,16.09878921508789,-96.81498718261719, -5.395229816436768
594,1765478396,0.30225784,0.70528716,-0.3895442,0.50937766,0.5504112243652344,-0.9043356776237488,2.0389745235443115,17.041730880737305,-109.39946746826172, -7.74608850479126
595,1765495063,0.29464382,0.71503127,-0.39178455,0.49841794,0.2472391426563263,0.12418953329324722,0.9255669116973877,21.337678909301758,-111.11595153808594, -10.872612953186035
596,1765511730,0.28798988,0.7239598,-0.39519116,0.48658836,0.09021120518445969,0.3563990890979767,-0.1424725353717804,8.629518508911133,-112.44527435302734, -7.998476982116699
597,1765528397,0.2828794,0.7316954,-0.40005234,0.47387677,0.9886792302131653,-0.13300278782844543,0.7666289806365967,-8.674521446228027,-111.5654067993164, -4.420870780944824
598,1765545064,0.27948338,0.7385755,-0.4063174,0.4596757,2.2216241359710693,-0.32231250405311584,1.570481300354004,-27.633892059326172,-114.35808563232422, -3.4880056381225586
599,1765561731,0.2769577,0.7449448,-0.41383645,0.44394934,2.5998423099517822,0.3269343376159668,1.4165459871292114,-41.257633209228516,-120.57767486572266, -1.3787592649459839
600,1765578398,0.27491593,0.7514833,-0.42286614,0.42529827,3.0921144485473633,0.6746475696563721,3.414133071899414,-56.33733367919922,-137.68545532226562, -1.1583222150802612
601,1765595065,0.27126154,0.75925815,-0.432372,0.40373147,4.560693264007568,0.4438438415527344,5.318234443664551,-55.5219841003418,-162.1322021484375, -3.0673868656158447
602,1765611732,0.26559004,0.76819307,-0.44274232,0.37857726,6.311504364013672,1.50507652759552,6.6974005699157715,-55.871681213378906,-191.9431915283203, -3.093719482421875
603,1765628399,0.25867802,0.77757126,-0.45324495,0.35076755,8.864733695983887,3.5262885093688965,6.975778579711914,-56.89683532714844,-211.45697021484375, -5.349732398986816
604,1765645066,0.25349197,0.7858009,-0.4647626,0.3197732,11.344273567199707,3.9607856273651123,8.911881446838379,-80.46482849121094,-222.50491333007812, -6.129623889923096
605,1765661733,0.24918579,0.7934463,-0.47529146,0.287137,14.26993179321289,-0.15097574889659882,14.03355598449707,-89.20919799804688,-226.00990295410156, -14.388799667358398
606,1765678400,0.24272892,0.8021216,-0.48003677,0.2593233,14.885947227478027,-2.4597699642181396,12.268350601196289,-48.46993637084961,-199.45550537109375, -36.9107666015625
607,1765695067,0.2417219,0.8093204,-0.48190394,0.2331088,12.402292251586914,-1.5466091632843018,15.901062965393066,-70.56712341308594,-165.76927185058594, -55.123233795166016
608,1765711734,0.24576668,0.81460094,-0.4840812,0.20418085,6.33547830581665,-6.96190071105957,4.729668140411377,-111.29932403564453,-162.12277221679688, -59.82197189331055
609,1765728401,0.24155827,0.8215597,-0.48352015,0.181377,3.959690809249878,-8.151886940002441,-4.84562873840332,-38.107479095458984,-153.15609741210938, -59.0318489074707
610,1765745068,0.23200707,0.82800066,-0.4809659,0.17105412,5.8354268074035645,-8.331122398376465,7.3451666831970215,34.9962158203125,-96.36561584472656, -41.32433319091797
611,1765761735,0.21952286,0.8335731,-0.475665,0.17523889,-1.225672721862793,-1.5501039028167725,19.690439224243164,101.39224243164062,-18.268171310424805, -27.595294952392578
612,1765778402,0.22044007,0.83400947,-0.47262967,0.18015572,-3.0037472248077393,0.11001291871070862,15.225600242614746,16.595420837402344,32.32609558105469, -12.792855262756348
613,1765795069,0.22754234,0.8313655,-0.4701616,0.18974794,-2.9584946632385254,-3.167445182800293,10.948514938354492,-8.951211929321289,82.13168334960938, -0.0543002225458622
614,1765811736,0.23906237,0.82612187,-0.46774897,0.20391858,-2.872307538986206,-1.7068039178848267,10.32516098022461,-23.545663833618164,125.90288543701172, 10.046801567077637
615,1765828403,0.25234452,0.81891656,-0.46499217,0.22244151,-2.2788631916046143,-2.914323091506958,8.173434257507324,-22.273155212402344,159.62110900878906, 19.085927963256836
616,1765845070,0.26637688,0.80973744,-0.4617255,0.24531265,-1.579902172088623,-2.0061473846435547,5.918922424316406,-15.250388145446777,190.43246459960938, 28.902366638183594
617,1765861737,0.28111312,0.79853356,-0.4581916,0.27088726,-0.9228827357292175,-0.8665697574615479,4.202676296234131,-13.848105430603027,211.66094970703125, 37.603668212890625
618,1765878404,0.29609534,0.7853047,-0.45444468,0.29850325,-0.12287545204162598,-0.9383772611618042,2.88834547996521,-12.27875804901123,227.87307739257812, 46.315887451171875
619,1765895071,0.3103719,0.770429,-0.44996327,0.3280876,0.7008790373802185,-0.6197672486305237,1.1810455322265625,-4.16837739944458,241.21835327148438, 52.9663200378418
620,1765911738,0.3245445,0.7538117,-0.44514567,0.3581679,1.5245877504348755,-0.4520633816719055,0.06496187299489975,-5.051175117492676,248.23191833496094, 57.878170013427734
621,1765928405,0.3388477,0.73533773,-0.43997887,0.388432,1.8305795192718506,-0.9702745079994202,-0.6921104192733765,-8.463608741760254,255.0091094970703, 61.850791931152344
622,1765945072,0.35295522,0.7152791,-0.4348394,0.41798717,1.590428113937378,-1.1523559093475342,-1.488666296005249,-13.407989501953125,255.08619689941406, 65.64712524414062
623,1765961739,0.3666936,0.6937412,-0.42936087,0.44711113,2.050847291946411,-0.6758037805557251,-1.8265570402145386,-15.521506309509277,257.0513000488281, 68.40081787109375
624,1765978406,0.38023564,0.6702089,-0.42302933,0.4767463,2.839456558227539,0.35704755783081055,-2.0332796573638916,-15.497899055480957,267.3178405761719, 72.1078109741211
625,1765995073,0.39360097,0.64440686,-0.4152247,0.5073528,2.7889511585235596,2.6358978748321533,-3.2939164638519287,-12.96623706817627,282.70318603515625, 75.06099700927734
626,1766011740,0.41130543,0.6146197,-0.41018596,0.5336835,2.444369316101074,4.091831207275391,-5.741934299468994,-64.84915924072266,282.7343444824219, 72.05801391601562
627,1766028407,0.42841375,0.5839663,-0.40361938,0.55904967,3.9451329708099365,4.553127765655518,-10.067849159240723,-61.90348815917969,284.73431396484375, 67.61014556884766
628,1766045074,0.44388574,0.55583,-0.39260334,0.58299345,6.576539516448975,4.265006065368652,-10.166714668273926,-34.76997756958008,278.2972412109375, 44.978515625
629,1766061741,0.4517303,0.5348916,-0.37548178,0.6073254,6.6452178955078125,-1.1437171697616577,-12.94929027557373,41.86271667480469,249.34564208984375, 34.10620880126953
630,1766078408,0.4498287,0.52392834,-0.35392854,0.6307836,2.980531692504883,5.216372489929199,-18.284196853637695,124.9566879272461,193.54409790039062, 30.03120231628418
631,1766095075,0.44781095,0.5179057,-0.34451765,0.642298,-1.8519870042800903,9.83141803741455,-22.455562591552734,58.864471435546875,91.86577606201172, 25.467327117919922
632,1766111742,0.44551173,0.52085286,-0.347063,0.64013994,-1.4386568069458008,4.724993705749512,-24.13383674621582,2.2048842906951904,-33.183101654052734, 6.216297626495361
633,1766128409,0.43664724,0.53656334,-0.3561338,0.6281782,1.641852855682373,-2.5468556880950928,-21.551326751708984,12.664361000061035,-159.37789916992188, -1.8729181289672852
634,1766145076,0.41970575,0.55827826,-0.35477316,0.6215373,8.940430641174316,-0.44645652174949646,11.851222038269043,118.61383056640625,-153.47987365722656, -4.312790870666504
635,1766161743,0.40298876,0.5802127,-0.35241282,0.6138064,7.3735504150390625,12.079828262329102,-0.2857432961463928,120.01632690429688,-155.59561157226562, -12.88256549835205
636,1766178410,0.39339525,0.59665996,-0.36345014,0.59761304,6.100861072540283,2.6890761852264404,-6.935117244720459,-0.7062922716140747,-186.07908630371094, 0.6550926566123962
637,1766195077,0.37786978,0.6146293,-0.37045524,0.58498585,4.9659647941589355,-3.3575236797332764,-6.995621681213379,53.25265121459961,-181.43809509277344, 14.375649452209473
638,1766211744,0.36196098,0.63272876,-0.37183467,0.574785,1.9485615491867065,2.5153684616088867,-1.8230435848236084,84.04862213134766,-157.8971710205078, -2.04429030418396
639,1766228411,0.3513257,0.6455909,-0.37644076,0.5639817,1.1282941102981567,-0.6811196208000183,-2.7439019680023193,33.791015625,-134.37466430664062, 3.06704044342041
640,1766245078,0.34377804,0.65528226,-0.38151652,0.55395585,-0.5876808166503906,-2.2382075786590576,-4.336833953857422,12.630244255065918,-111.75838470458984, 3.2154271602630615
641,1766261745,0.33498088,0.6646008,-0.38219562,0.5477412,0.19174590706825256,-1.1675291061401367,-3.407503843307495,44.12433624267578,-85.98188781738281, -1.9415959119796753
642,1766278412,0.3271562,0.673101,-0.38109457,0.542836,1.4483773708343506,1.1966278553009033,-2.06071400642395,47.93620300292969,-70.22943115234375, -8.643292427062988
643,1766295079,0.3220854,0.6796971,-0.38156417,0.53729105,1.149180293083191,2.840885877609253,-1.039368987083435,23.371746063232422,-62.4235725402832, -8.097698211669922
644,1766311746,0.318625,0.685104,-0.38368553,0.5309389,0.10933053493499756,0.9499683976173401,-1.3174487352371216,5.003360748291016,-61.29150390625, -4.928820610046387
645,1766328413,0.3135202,0.6913963,-0.3839203,0.52562505,-0.11716022342443466,0.18445813655853271,-1.0709997415542603,24.31854820251465,-59.8763427734375, -7.863767623901367
646,1766345080,0.30980042,0.6966721,-0.38556305,0.5196277,-0.6131099462509155,0.039745595306158066,0.17749573290348053,8.651534080505371,-58.87116241455078, -4.978198051452637
647,1766361747,0.30788046,0.70094585,-0.38895437,0.51244444,-0.866849958896637,-0.337401807308197,-0.9595478177070618,-11.492172241210938,-60.00325393676758, -2.9082067012786865
648,1766378414,0.30568573,0.7054013,-0.39213476,0.50516903,-0.7528640031814575,-0.5914570689201355,-0.43483027815818787,-9.285896301269531,-61.410369873046875, -3.648796796798706
649,1766395081,0.30261895,0.71042466,-0.39460823,0.49799928,-0.21309180557727814,-0.2568487823009491,0.40221157670021057,-1.1275386810302734,-63.78591537475586, -5.376901149749756
650,1766411748,0.30003038,0.7153021,-0.39716658,0.49049324,0.4746537506580353,0.26227807998657227,0.45752033591270447,-4.969154357910156,-63.88815689086914, -6.915735244750977
651,1766428415,0.2981367,0.71997935,-0.4001815,0.48228535,0.4953315854072571,0.2755683362483978,0.8392139077186584,-12.25376033782959,-65.79499816894531, -7.908931255340576
652,1766445082,0.296113,0.72479904,-0.4031831,0.4737374,0.8837176561355591,0.23697295784950256,0.8954694867134094,-12.205314636230469,-68.37654876708984, -8.62639045715332
653,1766461749,0.29413915,0.7298407,-0.4065723,0.46423465,1.412203311920166,0.32889777421951294,1.6237833499908447,-15.907713890075684,-74.60687255859375, -9.409714698791504
654,1766478416,0.29204765,0.73509824,-0.41083166,0.45338303,1.7486371994018555,0.3878391981124878,2.393756628036499,-21.42102813720703,-84.27806091308594, -7.9915690422058105
655,1766495083,0.28932148,0.74094445,-0.41559866,0.44110343,1.6630139350891113,0.5300988554954529,3.2142844200134277,-22.63566017150879,-96.29182434082031, -7.970013618469238
656,1766511750,0.28586453,0.7474193,-0.42108318,0.42700726,1.8028420209884644,0.24667556583881378,2.3383471965789795,-25.015687942504883,-111.13835144042969, -7.494863033294678
657,1766528417,0.28211343,0.7543773,-0.4275578,0.41051337,2.0388810634613037,0.8496503233909607,3.71903920173645,-32.39027404785156,-127.81591033935547, -7.654171943664551
658,1766545084,0.27716252,0.76216334,-0.43449926,0.3917889,2.3325321674346924,0.10738544911146164,3.8470890522003174,-32.410003662109375,-146.337158203125, -8.593077659606934
659,1766561751,0.271446,0.77039886,-0.4421429,0.37055707,3.390021562576294,0.5273801684379578,4.816394805908203,-36.907798767089844,-164.4989471435547, -8.977716445922852
660,1766578418,0.2649729,0.778871,-0.45060083,0.3465667,4.178813934326172,0.35220828652381897,6.257420539855957,-42.89033889770508,-183.76226806640625, -8.612123489379883
661,1766595085,0.25686345,0.7876342,-0.4589471,0.3209693,5.434985637664795,0.9902253150939941,6.742090225219727,-38.278682708740234,-198.20504760742188, -9.156757354736328
662,1766611752,0.2486673,0.79588366,-0.46745926,0.2936253,6.449946880340576,2.6792261600494385,7.085139751434326,-44.54863357543945,-207.40274047851562, -9.54564094543457
663,1766628419,0.24330775,0.8025338,-0.47683266,0.26338482,8.031447410583496,2.6799333095550537,8.55518913269043,-73.77631378173828,-212.7075653076172, -10.369492530822754
664,1766645086,0.24039681,0.8081769,-0.4850878,0.23183936,10.235370635986328,1.1070786714553833,11.187155723571777,-91.1357650756836,-208.57174682617188, -19.881277084350586
665,1766661753,0.23557447,0.8149546,-0.48811734,0.2051716,11.082432746887207,-1.3406803607940674,11.150495529174805,-53.954044342041016,-181.47857666015625, -41.68312072753906
666,1766678420,0.2307514,0.8224886,-0.48663306,0.18290597,9.348929405212402,-1.154374361038208,7.302252292633057,-31.540830612182617,-151.0312957763672, -62.52242660522461
667,1766695087,0.22750786,0.82964694,-0.48406452,0.16002446,7.689580917358398,-5.42130708694458,2.357579469680786,-41.73309326171875,-147.35565185546875, -70.4843521118164
668,1766711754,0.21662773,0.83754694,-0.48004025,0.14542748,5.703256607055664,-6.672805309295654,0.30024847388267517,32.0696907043457,-124.21862030029297, -60.05429458618164
669,1766728421,0.20495373,0.84356654,-0.47589487,0.14111644,6.289829254150391,-6.037439346313477,13.136421203613281,67.76136016845703,-65.62437438964844, -38.53889465332031
670,1766745088,0.19732594,0.84674066,-0.47276297,0.14348538,-0.47946983575820923,-0.9503774642944336,16.43091583251953,61.10069274902344,-12.610523223876953, -17.934127807617188
671,1766761755,0.20265844,0.8455711,-0.4721058,0.14510392,0.6862068772315979,-2.4220502376556396,10.648587226867676,-25.048601150512695,25.946996688842773, -3.184274673461914
672,1766778422,0.21461347,0.84130603,-0.4728974,0.15004502,1.2856590747833252,-4.122087478637695,8.655527114868164,-58.5305061340332,67.76697540283203, 13.257036209106445
673,1766795089,0.22993165,0.8349646,-0.4738709,0.15941224,0.810195803642273,-2.9255788326263428,8.29107666015625,-66.90464782714844,106.13317108154297, 24.022104263305664
674,1766811756,0.24704827,0.82694507,-0.47436807,0.173505,0.4858148396015167,-1.3209127187728882,7.308341979980469,-63.98894119262695,141.68704223632812, 32.17866134643555
675,1766828423,0.26707473,0.81635016,-0.4753568,0.1904721,0.5366694927215576,-0.7235805988311768,6.6532979011535645,-76.11180114746094,169.75225830078125, 44.73686981201172
676,1766845090,0.28851318,0.8033606,-0.47688183,0.20965661,0.5730154514312744,-0.555126428604126,5.457456111907959,-81.87495422363281,188.9614715576172, 57.75669479370117
677,1766861757,0.30925763,0.78863454,-0.4782992,0.23161474,0.732253909111023,-0.6557359099388123,3.1462552547454834,-72.2264175415039,204.73080444335938, 69.32318878173828
678,1766878424,0.32768312,0.7731,-0.47846717,0.25692353,0.0869649350643158,-0.5606433749198914,1.8883527517318726,-48.36915588378906,219.2584991455078, 76.00257873535156
679,1766895091,0.3438237,0.7568691,-0.47695825,0.2853867,-0.2877035140991211,-0.4630911648273468,1.3677161931991577,-24.465312957763672,233.59205627441406, 80.53082275390625
680,1766911758,0.35901815,0.7394033,-0.4738576,0.3159874,-0.3375847339630127,-0.36940261721611023,0.6541470289230347,-12.340706825256348,247.88616943359375, 83.23271179199219
681,1766928425,0.3735888,0.72043264,-0.46911362,0.34834024,-0.24273890256881714,-0.5006797313690186,-0.24086129665374756,-3.620762348175049,262.1864013671875, 85.50069427490234
682,1766945092,0.38698518,0.70013064,-0.46189332,0.38303298,0.4781573414802551,0.11032242327928543,-0.8398135304450989,12.243301391601562,279.6598815917969, 86.38419342041016
683,1766961759,0.3991486,0.677897,-0.452549,0.41992337,1.802316665649414,0.5883058309555054,-1.9534640312194824,25.60062599182129,297.1810607910156, 91.45405578613281
684,1766978426,0.4101757,0.6534942,-0.44125807,0.45824954,2.1528267860412598,3.206216335296631,-3.6224753856658936,35.022178649902344,312.0791320800781, 96.4235610961914
685,1766995093,0.42323875,0.6264002,-0.42957503,0.4939203,3.0701072216033936,3.8316965103149414,-6.500883102416992,11.4456205368042,316.0887451171875, 89.05445861816406
686,1767011760,0.43539283,0.5994113,-0.4145137,0.52850515,5.1571245193481445,4.5051422119140625,-9.697352409362793,23.912492752075195,318.474609375, 74.26216125488281
687,1767028427,0.44561875,0.5751954,-0.3959557,0.5601729,7.983519554138184,3.30776309967041,-11.496445655822754,44.53220748901367,301.709716796875, 50.37291717529297
688,1767045094,0.45014518,0.55770254,-0.3723242,0.5896712,8.357203483581543,0.7504215240478516,-14.681466102600098,101.28413391113281,267.6846923828125, 27.42804527282715
689,1767061761,0.4486049,0.546614,-0.34983587,0.6144769,5.222665786743164,3.1401655673980713,-18.438518524169922,127.69348907470703,205.18539428710938, 25.529207229614258
690,1767078428,0.44620717,0.5387518,-0.33933055,0.62888855,0.0013766586780548096,4.783724784851074,-21.625534057617188,65.17155456542969,114.11549377441406, 34.45634460449219
691,1767095095,0.44311887,0.53814656,-0.33855304,0.6320014,-1.8768503665924072,1.6214946508407593,-23.93655776977539,21.501934051513672,10.168529510498047, 22.016355514526367
692,1767111762,0.4353921,0.5485106,-0.3406046,0.62734234,-1.0282617807388306,0.14057017862796783,-22.679468154907227,41.67103576660156,-84.88964080810547, 3.4697914123535156
693,1767128429,0.42406797,0.5661313,-0.34573397,0.61654663,2.1070070266723633,1.7442461252212524,-15.538497924804688,49.303497314453125,-156.26507568359375, -4.789311408996582
694,1767145096,0.41152284,0.5805738,-0.3490728,0.6096979,6.060627460479736,-2.7743265628814697,19.904451370239258,61.74872970581055,-124.63927459716797, 12.488324165344238
