PacketCounter,SampleTimeFine,Quat_W,Quat_X,Quat_Y,Quat_Z,Acc_X,Acc_Y,Acc_Z,Gyr_X,Gyr_Y,Gyr_Z 
1,1759263880,0.7298449,0.32118922,-0.48323724,0.36144948,-0.09540382772684097,-0.06632937490940094,0.00979602336883545,-0.11619960516691208,0.4378242790699005, -0.19590792059898376
2,1759280547,0.72979945,0.32283604,-0.4828538,0.36058563,16.63008689880371,2.0983362197875977,5.68618106842041,-0.7006096839904785,3.0085508823394775, 2.9702210426330566
3,1759297214,0.729509,0.32306,-0.48317134,0.3605474,16.581512451171875,2.1399505138397217,5.727373123168945,-0.3541083335876465,3.3563966751098633, 2.3497536182403564
4,1759313881,0.7292575,0.32314253,-0.48298654,0.36122912,16.428232192993164,2.236008644104004,5.572957515716553,0.6039154529571533,3.8567795753479004, 1.9151577949523926
5,1759330548,0.7291548,0.323355,-0.4828026,0.36149257,16.425235748291016,1.9190839529037476,5.575838565826416,0.5370279550552368,4.142156600952148, 1.8545325994491577
6,1759347215,0.7289528,0.32309473,-0.48284075,0.36208117,16.648805618286133,2.3278520107269287,5.606076717376709,0.2034481018781662,4.439507484436035, 1.1854007244110107
7,1759363882,0.7288006,0.32325873,-0.48263603,0.36251336,16.757781982421875,2.1447536945343018,5.792339324951172,0.23392723500728607,4.584347248077393, 1.249637484550476
8,1759380549,0.72884625,0.32309818,-0.4824586,0.3628009,16.5856990814209,2.3140010833740234,5.77794885635376,-0.3069554269313812,4.368893623352051, 1.3622949123382568
9,1759397216,0.72887886,0.32315928,-0.48199877,0.3632918,16.529544830322266,2.4000837802886963,5.726347923278809,0.5790072083473206,4.410834312438965, 1.8120026588439941
10,1759413883,0.728679,0.32362378,-0.4812402,0.364284,16.350461959838867,2.091139554977417,5.5256524085998535,0.7394449710845947,4.358173847198486, 2.475473642349243
11,1759430550,0.72850305,0.32389802,-0.48075745,0.36502844,16.555089950561523,2.551016092300415,5.827029705047607,0.059325408190488815,3.727435350418091, 2.1184966564178467
12,1759447217,0.728573,0.3239542,-0.48040694,0.36530033,16.943159103393555,2.111250400543213,5.740179061889648,1.325245976448059,3.440650224685669, 3.134373426437378
13,1759463884,0.72855455,0.32393256,-0.4800675,0.36580223,16.410673141479492,2.229417562484741,5.796414375305176,1.5403542518615723,4.1285176277160645, 3.5701096057891846
14,1759480551,0.72848463,0.32394266,-0.47976184,0.36633328,16.407846450805664,2.2280497550964355,5.6813154220581055,1.563905119895935,3.2967069149017334, 3.566460132598877
15,1759497218,0.7284668,0.323961,-0.47933927,0.3669051,16.434236526489258,2.377199411392212,5.922759056091309,0.6761945486068726,3.975571393966675, 2.801959276199341
16,1759513885,0.72858626,0.3238015,-0.47903305,0.36720902,16.39327621459961,2.112438678741455,5.574810028076172,0.051680028438568115,3.45100998878479, 2.814201831817627
17,1759530552,0.7286341,0.32363942,-0.4788077,0.36755016,16.39611053466797,2.1359329223632812,5.771254539489746,0.13793079555034637,3.2178070545196533, 3.000969648361206
18,1759547219,0.7287736,0.3233735,-0.47868392,0.3676692,16.59937286376953,2.3024818897247314,5.648989677429199,-0.16385723650455475,2.865170955657959, 2.4811596870422363
19,1759563886,0.7289681,0.32311967,-0.47859222,0.3676258,17.101760864257812,2.1633410453796387,5.8722991943359375,-0.1521906554698944,2.82340931892395, 1.872320294380188
20,1759580553,0.72910804,0.32290152,-0.4784125,0.3677739,16.692310333251953,1.846620798110962,5.982820987701416,0.5876513123512268,3.4767253398895264, 2.2465476989746094
21,1759597220,0.729211,0.32266024,-0.47821343,0.36804023,15.899606704711914,2.057770013809204,5.205601215362549,1.772020936012268,3.633078098297119, 2.6749837398529053
22,1759613887,0.72940487,0.32241634,-0.47809935,0.36801824,16.371337890625,2.610186815261841,5.510513782501221,-0.2548591196537018,3.1729841232299805, 0.9410425424575806
23,1759630554,0.729551,0.32239744,-0.477753,0.36819482,16.72895050048828,1.9196134805679321,5.853860855102539,1.160543441772461,4.099267959594727, 0.9426562190055847
24,1759647221,0.729824,0.3221298,-0.47755945,0.36813885,16.326004028320312,2.026838779449463,5.744225978851318,0.25685054063796997,4.006882667541504, 0.8944530487060547
25,1759663888,0.72997516,0.32202658,-0.47739068,0.36814883,16.258663177490234,2.1341073513031006,5.658046245574951,0.8638972043991089,3.046983003616333, 0.6808303594589233
26,1759680555,0.7301814,0.32188854,-0.47735026,0.3679125,16.400068283081055,2.133112668991089,5.85776424407959,-0.2884502410888672,2.147272825241089, -0.2078726887702942
27,1759697222,0.73037857,0.32184133,-0.4772868,0.367645,16.502086639404297,2.1939990520477295,5.886912822723389,0.14024871587753296,1.8168303966522217, -0.7255436778068542
28,1759713889,0.730444,0.32194766,-0.47713184,0.36762282,16.52028465270996,2.138848066329956,5.562328815460205,0.883388340473175,1.7356125116348267, -0.3558628261089325
29,1759730556,0.73051906,0.32203493,-0.47690615,0.36769015,16.28922462463379,2.429932117462158,5.540257453918457,0.9118184447288513,2.4498610496520996, -0.17811070382595062
30,1759747223,0.7307759,0.32186323,-0.47677106,0.36750522,16.44883155822754,2.4906980991363525,5.493990898132324,0.08331172168254852,2.5381481647491455, -0.24922437965869904
31,1759763890,0.73103565,0.32159877,-0.47645527,0.36762977,16.307451248168945,2.1541812419891357,5.505934238433838,0.39699050784111023,3.8380699157714844, 0.7410587668418884
32,1759780557,0.7312388,0.3213112,-0.47608545,0.3679562,16.411922454833984,2.374677896499634,5.454653263092041,0.48783862590789795,4.148072719573975, 1.4558449983596802
33,1759797224,0.7314808,0.3209783,-0.47572595,0.36823094,16.645910263061523,2.543658971786499,5.723884582519531,0.4085545241832733,4.222452163696289, 1.4006240367889404
34,1759813891,0.7317771,0.32054228,-0.47534087,0.3685192,16.35631561279297,2.0064280033111572,5.7032470703125,0.6024299263954163,4.883490562438965, 1.8714497089385986
35,1759830558,0.7319549,0.3202345,-0.4749419,0.36894736,16.122892379760742,2.231731414794922,5.5336594581604,0.8818516135215759,4.393250465393066, 1.9974638223648071
36,1759847225,0.73213845,0.319902,-0.47460043,0.36931103,16.11839485168457,2.2435789108276367,5.600486755371094,0.5418559312820435,4.060797691345215, 1.9227519035339355
37,1759863892,0.73240715,0.31948864,-0.47432408,0.3694909,16.180606842041016,2.2792770862579346,5.591444969177246,0.16862761974334717,3.9337716102600098, 1.5558499097824097
38,1759880559,0.73258334,0.3192149,-0.47405845,0.36971924,16.60599708557129,2.319911241531372,5.677105903625488,0.2993164360523224,3.2154250144958496, 1.2689236402511597
39,1759897226,0.7327543,0.31894064,-0.4737089,0.37006482,16.35611915588379,2.1348764896392822,5.6105170249938965,0.035800158977508545,3.772437334060669, 1.3670331239700317
40,1759913893,0.7329981,0.3186637,-0.47335118,0.37027833,16.25295639038086,2.386308431625366,5.590795993804932,0.07606332004070282,3.8476107120513916, 0.7372936606407166
41,1759930560,0.7331945,0.31857064,-0.47284988,0.37061006,16.26215171813965,2.2499818801879883,5.516003608703613,1.669929027557373,4.185288429260254, 0.47440487146377563
42,1759947227,0.73346424,0.31829724,-0.47240692,0.3708763,16.140300750732422,1.9407111406326294,5.654644012451172,0.6156717538833618,4.495317459106445, 0.814285397529602
43,1759963894,0.73366594,0.31814986,-0.47197458,0.37115356,16.210908889770508,2.6145365238189697,5.625216007232666,1.6612589359283447,3.953416109085083, 0.748332679271698
44,1759980561,0.7339324,0.31778944,-0.47170097,0.37128347,16.417301177978516,2.328077554702759,5.759488582611084,-0.512100338935852,3.5764102935791016, 0.8606572151184082
45,1759997228,0.7340695,0.31759173,-0.47132903,0.37165365,16.2437686920166,2.3774986267089844,5.6916046142578125,0.549782931804657,3.6286728382110596, 1.252902865409851
46,1760013895,0.7341905,0.31734607,-0.47104862,0.37198007,16.244293212890625,2.2167327404022217,5.525105953216553,0.08609067648649216,3.1567459106445312, 1.4755027294158936
47,1760030562,0.73434496,0.31710437,-0.4707015,0.37232035,16.03006935119629,2.221548318862915,5.6478776931762695,0.5027197599411011,3.6576926708221436, 1.396372675895691
48,1760047229,0.7344527,0.3169277,-0.47033432,0.37272194,16.173858642578125,2.3382368087768555,5.501701354980469,1.4610573053359985,3.608848810195923, 1.679111123085022
49,1760063896,0.7345583,0.31669217,-0.47004104,0.37308422,16.33131217956543,2.362879514694214,5.606133937835693,1.0420207977294922,3.321218252182007, 1.9125325679779053
50,1760080563,0.7347333,0.31628436,-0.4697784,0.37341595,16.230579376220703,2.2858939170837402,5.709288597106934,-1.2013380527496338,3.6396994590759277, 1.8018214702606201
51,1760097230,0.73485523,0.3160248,-0.46940765,0.3738621,16.120498657226562,2.2637038230895996,5.459075450897217,0.843522310256958,3.9482297897338867, 2.0087080001831055
52,1760113897,0.7349866,0.31576914,-0.46899128,0.3743421,16.000864028930664,2.1736855506896973,5.48969841003418,0.4107188880443573,4.196314811706543, 1.788541316986084
53,1760130564,0.73511213,0.3155794,-0.4685921,0.37475505,16.303260803222656,2.167285680770874,5.561801433563232,1.2640315294265747,3.8713788986206055, 1.5874303579330444
54,1760147231,0.7353318,0.31529593,-0.46823317,0.37501162,16.454957962036133,2.400160074234009,5.92303466796875,-0.04101874306797981,3.873748779296875, 0.9350365996360779
55,1760163898,0.7355357,0.31500623,-0.46788526,0.3752893,16.355615615844727,2.123452663421631,5.552672386169434,0.033789560198783875,3.8311290740966797, 1.1430885791778564
56,1760180565,0.7357334,0.31479508,-0.4674469,0.37562487,15.880461692810059,2.3570470809936523,5.4713897705078125,0.409860759973526,4.140798568725586, 0.82209712266922
57,1760197232,0.7359286,0.31463727,-0.46705082,0.3758671,15.953618049621582,2.2881171703338623,5.442542552947998,0.015156314708292484,3.5498878955841064, 0.17757923901081085
58,1760213899,0.73609513,0.3144988,-0.46667713,0.37612104,16.39710807800293,2.1692159175872803,5.537700653076172,0.4882228374481201,3.3642725944519043, 0.43051743507385254
59,1760230566,0.7362173,0.31434885,-0.46628225,0.376497,16.162147521972656,2.136624574661255,5.623379707336426,0.9457811117172241,3.6241655349731445, 1.140783429145813
60,1760247233,0.73629266,0.3142138,-0.46598077,0.37683526,16.193212509155273,2.560391426086426,5.407663822174072,1.2081959247589111,2.9332494735717773, 1.4021480083465576
61,1760263900,0.73639524,0.31396085,-0.46570173,0.37719074,16.050636291503906,2.191765785217285,5.48369026184082,0.363284170627594,3.2279751300811768, 1.77623450756073
62,1760280567,0.736359,0.31392738,-0.46532428,0.3777543,15.708894729614258,2.346761465072632,5.2861175537109375,2.2831225395202637,3.1094775199890137, 2.1056134700775146
63,1760297234,0.7363899,0.31375763,-0.465045,0.37817895,15.760976791381836,2.3710081577301025,5.370932102203369,0.5651506185531616,2.858985424041748, 1.8030378818511963
64,1760313901,0.73642856,0.31367144,-0.46476516,0.37851894,16.297237396240234,2.5778298377990723,5.620174407958984,1.2284555435180664,2.5489821434020996, 1.298608660697937
65,1760330568,0.7365482,0.31344044,-0.46453533,0.37875998,16.50644302368164,2.245676279067993,5.852229595184326,-0.21458318829536438,2.7069101333618164, 1.1247625350952148
66,1760347235,0.7366387,0.31326258,-0.4642283,0.37910712,16.048912048339844,2.2759881019592285,5.594827651977539,0.7416221499443054,3.1031134128570557, 1.4331908226013184
67,1760363902,0.73675644,0.31312776,-0.4639076,0.3793824,15.908099174499512,2.3222756385803223,5.56657075881958,0.6294769644737244,2.9832329750061035, 0.7987129092216492
68,1760380569,0.7368869,0.3129667,-0.46352145,0.37973365,15.952978134155273,2.0344319343566895,5.365574836730957,1.0263842344284058,3.605058431625366, 1.1528853178024292
69,1760397236,0.73690444,0.3128917,-0.46318105,0.3801765,16.116470336914062,2.246046781539917,5.360023498535156,1.3611806631088257,2.9281656742095947, 1.5216186046600342
70,1760413903,0.7370625,0.3126259,-0.4628887,0.38044453,15.755956649780273,2.3828413486480713,5.528082847595215,-0.5977235436439514,3.258646011352539, 0.9764520525932312
71,1760430570,0.7371222,0.31248373,-0.46260706,0.38078818,15.930768966674805,2.1875247955322266,5.151975631713867,0.6843265891075134,2.7574570178985596, 1.3445580005645752
72,1760447237,0.73726624,0.3123364,-0.46226445,0.3810464,15.805867195129395,2.2268874645233154,5.461246967315674,0.21055559813976288,3.1535699367523193, 0.5120298266410828
73,1760463904,0.7373679,0.31229907,-0.4618561,0.38137493,15.703518867492676,2.148043155670166,5.152715682983398,1.4068862199783325,3.2333662509918213, 0.5517295002937317
74,1760480571,0.73755896,0.31220844,-0.46148828,0.38152537,15.863029479980469,2.3834381103515625,5.305181980133057,0.4281483292579651,3.0921382904052734, -0.2656036913394928
75,1760497238,0.7377356,0.3121718,-0.4610702,0.38171887,16.08449363708496,2.287761688232422,5.464241027832031,0.5792375802993774,3.2057044506073, -0.4599144160747528
76,1760513905,0.73791945,0.31215557,-0.46059936,0.38194546,15.653560638427734,2.3512256145477295,5.429161548614502,1.238867163658142,3.554511308670044, -0.3524819612503052
77,1760530572,0.7381454,0.31203026,-0.46022806,0.38205847,15.615311622619629,2.5424273014068604,5.203115940093994,0.06397411972284317,3.2367470264434814, -0.44009020924568176
78,1760547239,0.7382854,0.3119754,-0.4598417,0.3822981,15.880541801452637,2.1674699783325195,5.585439682006836,0.7677342295646667,3.0994760990142822, 0.06213000416755676
79,1760563906,0.7384101,0.31195673,-0.45942995,0.38256732,15.57667064666748,2.4107306003570557,5.220878601074219,1.4641306400299072,3.1860597133636475, 0.21441030502319336
80,1760580573,0.7385412,0.31181166,-0.4592118,0.38269433,15.9595365524292,2.4958901405334473,5.378795623779297,-0.2160431146621704,2.2478156089782715, 0.2658405900001526
81,1760597240,0.7386463,0.31174976,-0.4588829,0.38293672,15.562331199645996,2.3983559608459473,5.346405029296875,0.8998061418533325,2.759044885635376, 0.41576457023620605
82,1760613907,0.73876727,0.3116314,-0.45859677,0.38314208,15.29322338104248,2.390651226043701,4.925337791442871,0.5456849932670593,2.6862664222717285, 0.540985107421875
83,1760630574,0.73885417,0.31155995,-0.45836914,0.38330504,15.707414627075195,2.518892526626587,5.140712261199951,0.4956889748573303,2.0660934448242188, 0.3647440969944
84,1760647241,0.73897177,0.3114296,-0.45806488,0.38354826,15.692150115966797,2.2129945755004883,5.319550514221191,0.6792552471160889,2.896136999130249, 0.7563110589981079
85,1760663908,0.7390739,0.3112961,-0.4577928,0.38378415,15.54228687286377,2.5555925369262695,5.176107406616211,0.6196928024291992,2.6833207607269287, 0.8502711653709412
86,1760680575,0.7391625,0.31114575,-0.4575453,0.38403067,15.402968406677246,2.486203908920288,5.073492527008057,0.6023915410041809,2.59627628326416, 1.0806958675384521
87,1760697242,0.7392812,0.3109792,-0.45724866,0.38429072,15.232637405395508,2.3224480152130127,5.153189182281494,0.47907906770706177,2.999842405319214, 0.9563589096069336
88,1760713909,0.7393252,0.31086314,-0.45704114,0.38454592,15.357575416564941,2.384401559829712,5.029782772064209,0.7066992521286011,2.178251266479492, 1.1886022090911865
89,1760730576,0.73935944,0.31073034,-0.4568396,0.38482702,15.539180755615234,2.369868040084839,5.264047145843506,0.7060332894325256,2.222830057144165, 1.412316083908081
90,1760747243,0.7394202,0.3105954,-0.45666382,0.38502806,15.537576675415039,2.536637306213379,5.147765159606934,0.6319229602813721,2.0466275215148926, 1.1318058967590332
91,1760763910,0.7394998,0.31042814,-0.45647174,0.38523772,15.592724800109863,2.338120698928833,5.177078723907471,0.4042772352695465,2.280971050262451, 1.153499960899353
92,1760780577,0.7395346,0.31032252,-0.45618165,0.3855995,15.173789024353027,2.1451706886291504,5.0430402755737305,1.3573769330978394,2.7751550674438477, 1.5569382905960083
93,1760797244,0.7396166,0.3101987,-0.45589006,0.38588676,15.101404190063477,2.6318438053131104,4.843728542327881,0.7596535682678223,2.7963242530822754, 1.0257439613342285
94,1760813911,0.73972386,0.30998713,-0.45565584,0.38612744,15.525491714477539,2.261690378189087,5.091192245483398,0.18934831023216248,2.7444584369659424, 1.223422646522522
95,1760830578,0.73978245,0.30984712,-0.4553681,0.38646704,15.381571769714355,2.430669069290161,5.129295825958252,0.8588128685951233,2.8557965755462646, 1.4052470922470093
96,1760847245,0.7398724,0.30962694,-0.4551681,0.3867066,15.190783500671387,2.499776601791382,4.962620735168457,-0.029697922989726067,2.522408962249756, 1.3090842962265015
97,1760863912,0.73996156,0.3094344,-0.4549862,0.3869041,15.09628677368164,2.4137258529663086,4.892455577850342,0.2958330810070038,2.307825803756714, 1.2103087902069092
98,1760880579,0.7399978,0.30930758,-0.454746,0.38721913,14.845548629760742,2.2662999629974365,4.884281635284424,1.0441722869873047,2.4910595417022705, 1.5238726139068604
99,1760897246,0.7399885,0.3092392,-0.45458046,0.38748527,15.070263862609863,2.5547876358032227,4.834778308868408,0.9247530102729797,1.691712498664856, 1.3006833791732788
100,1760913913,0.73998433,0.30915362,-0.45437533,0.38780198,14.964557647705078,2.359910488128662,4.944616317749023,1.0517277717590332,2.062276840209961, 1.501704454421997
101,1760930580,0.7399764,0.30909234,-0.45421097,0.3880583,15.05424690246582,2.570100784301758,4.880873680114746,0.9007410407066345,1.6530758142471313, 1.222987174987793
102,1760947247,0.74001086,0.30892345,-0.45409733,0.38826004,15.0521879196167,2.3476476669311523,4.9113969802856445,-0.022423917427659035,1.705172061920166, 1.288581371307373
103,1760963914,0.73998064,0.30886686,-0.45389763,0.3885962,14.74614143371582,2.3205134868621826,4.785557270050049,1.5107587575912476,1.9500294923782349, 1.6901243925094604
104,1760980581,0.7399674,0.30879205,-0.4537046,0.38890597,14.732839584350586,2.4743540287017822,4.682590484619141,0.9170305728912354,1.9237761497497559, 1.420973300933838
105,1760997248,0.7399963,0.30868515,-0.4535366,0.38913187,14.892173767089844,2.372288703918457,4.874576091766357,0.350926011800766,1.8425970077514648, 1.0461314916610718
106,1761013915,0.7400019,0.3086362,-0.4533008,0.3894347,14.693906784057617,2.3328123092651367,4.778196334838867,1.0586175918579102,2.1201488971710205, 1.1507593393325806
107,1761030582,0.7400161,0.30857778,-0.45312414,0.38965958,14.652350425720215,2.530264139175415,4.684703826904297,0.6631832122802734,1.7178244590759277, 0.9195790886878967
108,1761047249,0.740043,0.3084973,-0.45295796,0.3898653,14.735404014587402,2.40791916847229,4.700337886810303,0.43969953060150146,1.728210210800171, 0.8860135674476624
109,1761063916,0.74010295,0.30836946,-0.45276457,0.39007723,14.754853248596191,2.452897310256958,4.608625411987305,0.2945396602153778,2.1240549087524414, 0.9544380307197571
110,1761080583,0.74007636,0.30833,-0.452562,0.39039385,14.781915664672852,2.527982473373413,4.815993309020996,0.9529141783714294,1.8574650287628174, 1.2826520204544067
111,1761097250,0.7400685,0.30808583,-0.4524887,0.39068645,14.577268600463867,2.411472797393799,4.635085582733154,-0.5298115611076355,1.7631076574325562, 2.034627914428711
112,1761113917,0.73999625,0.30787286,-0.45245707,0.3910276,14.496641159057617,2.6657183170318604,4.540663719177246,-0.07198449224233627,1.3896362781524658, 2.5041472911834717
113,1761130584,0.7398597,0.30764318,-0.45243198,0.3914954,14.26180648803711,2.4230246543884277,4.617273807525635,-0.02867341786623001,1.434112787246704, 3.223735809326172
114,1761147251,0.73964256,0.3074559,-0.4524511,0.39203057,14.451940536499023,2.3342983722686768,4.486529350280762,0.6494805812835693,1.0137828588485718, 3.838364362716675
115,1761163918,0.73934275,0.3073842,-0.4524018,0.3927088,14.220315933227539,2.344155788421631,4.594254970550537,1.8782625198364258,1.0858441591262817, 4.212950229644775
116,1761180585,0.7390312,0.3073187,-0.45244884,0.39329174,14.357646942138672,2.4247496128082275,4.5124335289001465,1.4039407968521118,0.349197119474411, 3.9588587284088135
117,1761197252,0.73874414,0.30722457,-0.45250583,0.39383855,14.259499549865723,2.1599910259246826,4.5158281326293945,1.1934300661087036,0.3970288336277008, 3.8801767826080322
118,1761213919,0.7384779,0.30716154,-0.45254824,0.39433798,14.125592231750488,2.1854512691497803,4.3852386474609375,1.0403943061828613,0.34202560782432556, 3.383802652359009
119,1761230586,0.7383064,0.30708385,-0.45261195,0.3946464,14.213930130004883,2.252288341522217,4.407887935638428,0.25865626335144043,0.18726085126399994, 2.3148181438446045
120,1761247253,0.7381821,0.30705202,-0.45256254,0.39496017,14.358275413513184,2.0575814247131348,4.42025089263916,0.6279144883155823,0.7914900183677673, 1.7937146425247192
121,1761263920,0.73811096,0.30705714,-0.45246303,0.39520296,14.264260292053223,2.187023401260376,4.428825855255127,0.947240948677063,0.996071457862854, 1.2121145725250244
122,1761280587,0.73806936,0.3070291,-0.4523682,0.39541107,14.210115432739258,2.1696507930755615,4.2722039222717285,0.2547374963760376,1.043800711631775, 0.9129197597503662
123,1761297254,0.7380515,0.30706823,-0.4521521,0.39566123,13.987988471984863,2.1386067867279053,4.30508279800415,0.8324959874153137,1.6210341453552246, 0.5160766839981079
124,1761313921,0.73800164,0.30717704,-0.45192182,0.39593238,14.149380683898926,2.2349843978881836,4.273714542388916,1.3926328420639038,1.4491857290267944, 0.47590315341949463
125,1761330588,0.7380446,0.30711883,-0.45174286,0.39610177,14.229722023010254,2.1621251106262207,4.384977340698242,-0.210126593708992,1.7061452865600586, 0.28712478280067444
126,1761347255,0.73804235,0.30713663,-0.4514951,0.3963746,13.827167510986328,2.3238039016723633,4.222884178161621,0.9342424869537354,1.941525936126709, 0.6220364570617676
127,1761363922,0.73802763,0.30709296,-0.4513875,0.39655843,13.857969284057617,2.3368260860443115,4.142824172973633,0.16413259506225586,1.1886662244796753, 0.772255003452301
128,1761380589,0.7379774,0.30709022,-0.45120028,0.3968671,13.614885330200195,2.1441335678100586,4.2611565589904785,0.950468122959137,1.6261568069458008, 1.1647439002990723
129,1761397256,0.73784477,0.30716535,-0.45107657,0.3971957,13.582682609558105,2.379060745239258,4.0717949867248535,1.3355164527893066,0.8693910241127014, 1.3495523929595947
130,1761413923,0.7376639,0.30720705,-0.45110083,0.39747196,14.025453567504883,2.3884873390197754,4.242466449737549,0.6414381265640259,-0.052762165665626526, 1.6089963912963867
131,1761430590,0.7373973,0.30727407,-0.4511042,0.39791086,13.796463012695312,2.0030298233032227,4.308618545532227,1.5263950824737549,0.0669580027461052, 2.5561411380767822
132,1761447257,0.73715097,0.30727634,-0.45120606,0.3982498,13.462449073791504,2.525134325027466,4.007594108581543,0.4696536958217621,-0.41315847635269165, 2.351790189743042
133,1761463924,0.73687375,0.30729645,-0.45132107,0.3986169,13.665298461914062,2.129044771194458,4.018906116485596,0.6589314937591553,-0.5614944100379944, 2.5522093772888184
134,1761480591,0.73663473,0.30729318,-0.4513756,0.39899898,13.632234573364258,2.023437023162842,4.031602382659912,0.8118136525154114,-0.02019561268389225, 2.5323851108551025
135,1761497258,0.7363162,0.307467,-0.45132908,0.3995056,13.6897554397583,2.2159321308135986,3.962941884994507,2.3178658485412598,0.006396771874278784, 2.5151352882385254
136,1761513925,0.73619443,0.3074961,-0.45117584,0.39988035,13.73513126373291,2.1007258892059326,3.839635133743286,1.1822630167007446,1.2962778806686401, 1.5928858518600464
137,1761530592,0.7362489,0.30786055,-0.45037642,0.40040043,13.867453575134277,1.8028796911239624,3.552443027496338,4.8204193115234375,4.516729354858398, -0.5226143598556519
138,1761547259,0.736174,0.30860806,-0.449597,0.40083855,13.04875659942627,1.9712854623794556,4.092395782470703,6.815918445587158,2.8103344440460205, -1.6879156827926636
139,1761563926,0.7361725,0.30870542,-0.44943714,0.40094557,13.899431228637695,2.163667917251587,4.352595806121826,0.833482027053833,1.0097614526748657, -0.1522931158542633
140,1761580593,0.73587316,0.3092064,-0.44910794,0.40147787,13.511775970458984,1.9330650568008423,3.930298328399658,4.999772548675537,0.7096319198608398, 1.0843840837478638
141,1761597260,0.7354582,0.30986255,-0.44874713,0.40213484,13.235800743103027,2.4422247409820557,3.7662618160247803,6.4537153244018555,0.3520529866218567, 1.4648993015289307
142,1761613927,0.7348899,0.31038487,-0.4487869,0.40272617,12.954903602600098,2.752774477005005,3.8059189319610596,4.617976188659668,-1.925396203994751, 2.753666400909424
143,1761630594,0.7344343,0.31024697,-0.4494972,0.40287155,12.591938972473145,2.9088611602783203,4.248171806335449,-2.0136196613311768,-4.065120220184326, 3.7554428577423096
144,1761647261,0.73413366,0.3094846,-0.4508,0.40255025,12.771230697631836,2.6292574405670166,4.034811973571777,-8.431077003479004,-5.831719875335693, 4.252933025360107
145,1761663928,0.7337293,0.30864638,-0.45237365,0.4021653,12.887187004089355,2.5996856689453125,3.72335147857666,-9.460681915283203,-7.435715198516846, 5.0800957679748535
146,1761680595,0.7332027,0.30788088,-0.45399594,0.40188444,12.790868759155273,2.935068368911743,3.780787229537964,-8.847528457641602,-8.050664901733398, 5.742249011993408
147,1761697262,0.73265904,0.30691,-0.45578656,0.4015917,13.007645606994629,3.2201650142669678,3.866260051727295,-10.432340621948242,-8.409934997558594, 6.711165904998779
148,1761713929,0.73205596,0.30562672,-0.4576992,0.40149477,13.26486873626709,2.784970283508301,3.778414249420166,-11.650242805480957,-7.930033206939697, 9.104255676269531
149,1761730596,0.73122954,0.3046035,-0.45901042,0.40228063,13.288119316101074,2.6578564643859863,3.249882459640503,-5.738131523132324,-4.481072425842285, 11.962668418884277
150,1761747263,0.7302324,0.30413526,-0.46001023,0.4033027,12.670336723327637,3.2397773265838623,2.51997971534729,-0.8484851717948914,-4.463937759399414, 11.28918170928955
151,1761763930,0.72907573,0.3043217,-0.46116272,0.40393797,12.126626014709473,4.233185768127441,1.842288851737976,1.088392972946167,-8.339961051940918, 8.044960021972656
152,1761780597,0.72781974,0.305039,-0.46290126,0.40367314,11.771929740905762,4.493303298950195,0.8707389831542969,-0.6694396734237671,-14.935941696166992, 3.331516981124878
153,1761797264,0.7262175,0.30713755,-0.46485946,0.40271652,12.138612747192383,4.070049285888672,0.526651918888092,4.259521484375,-22.38177490234375, -3.0151705741882324
154,1761813931,0.72407275,0.3098882,-0.46691844,0.4020885,13.185921669006348,0.8253062963485718,2.3170478343963623,9.482813835144043,-25.69321632385254, -1.6919410228729248
155,1761830598,0.7212016,0.31271598,-0.4688548,0.40280533,14.03426456451416,-0.42533209919929504,3.6930091381073,16.02718162536621,-24.764860153198242, 6.438817501068115
156,1761847265,0.718848,0.3131135,-0.47217065,0.40283057,13.402387619018555,0.5716013312339783,4.144897937774658,-3.2851321697235107,-24.717552185058594, 12.270942687988281
157,1761863932,0.71734965,0.31127444,-0.4767436,0.40153864,13.339390754699707,1.208859920501709,4.14074182510376,-23.89151382446289,-24.81901741027832, 13.34814167022705
158,1761880599,0.7169128,0.307368,-0.48222494,0.39877322,13.601399421691895,1.3964152336120605,4.515367031097412,-43.675533294677734,-23.285371780395508, 11.870972633361816
159,1761897266,0.7172037,0.30225414,-0.48798335,0.39513752,14.505105972290039,0.17780673503875732,4.171612739562988,-54.75253677368164,-20.788009643554688, 10.195765495300293
160,1761913933,0.7171746,0.29835364,-0.492908,0.39203,14.310291290283203,0.14255578815937042,2.743344783782959,-43.20371627807617,-19.921581268310547, 8.164172172546387
161,1761930600,0.7168525,0.29669628,-0.49641153,0.3894478,13.11482048034668,1.6764216423034668,1.8507399559020996,-25.926034927368164,-18.864255905151367, 1.005948781967163
162,1761947267,0.7163208,0.29801962,-0.49758574,0.38791427,11.880884170532227,2.3678853511810303,1.47736394405365,-0.9955665469169617,-13.922844886779785, -8.178154945373535
163,1761963934,0.7157388,0.30192247,-0.49665967,0.38715655,11.094862937927246,2.745128870010376,1.638885736465454,20.058183670043945,-9.025836944580078, -17.32940673828125
164,1761980601,0.7155455,0.3047286,-0.49691293,0.38498425,12.159524917602539,1.3611758947372437,1.6691862344741821,5.874213695526123,-13.513517379760742, -19.106369018554688
165,1761997268,0.71501905,0.30693918,-0.49804187,0.38274056,13.531386375427246,-2.0887045860290527,2.7080090045928955,1.0797373056411743,-17.52130889892578, -14.710000991821289
166,1762013935,0.7131733,0.31166065,-0.49624372,0.38469988,13.35207748413086,-2.262205123901367,3.878331184387207,38.32456970214844,-5.387340068817139, -5.421853542327881
167,1762030602,0.7119564,0.31340742,-0.49559405,0.38636848,13.82967472076416,0.577538788318634,3.5190131664276123,17.601791381835938,-1.6971122026443481, 3.765307903289795
168,1762047269,0.7115289,0.3120881,-0.49729452,0.38603908,13.869083404541016,2.4100701808929443,1.11630117893219,-11.376426696777344,-6.636857986450195, 7.65765905380249
169,1762063936,0.7114406,0.30936247,-0.50054467,0.3841905,14.770185470581055,2.720573902130127,1.2376395463943481,-28.30287742614746,-12.548039436340332, 7.490108489990234
170,1762080603,0.7112783,0.30693215,-0.5038506,0.38211283,14.635528564453125,2.3253769874572754,1.6556934118270874,-27.648828506469727,-14.306228637695312, 5.702975273132324
171,1762097270,0.7102653,0.30636385,-0.50735325,0.37981236,13.64079475402832,3.1314895153045654,-1.8110262155532837,-18.044713973999023,-23.553625106811523, 0.8386840224266052
172,1762113937,0.70831513,0.30887583,-0.5103852,0.37734905,13.66536808013916,3.0116727352142334,-1.4140186309814453,-0.38446101546287537,-32.82756423950195, -9.20456314086914
173,1762130604,0.7042622,0.3150016,-0.5117657,0.37800112,13.69544506072998,-2.9811267852783203,-0.20695757865905762,36.88319778442383,-34.854095458984375, -4.73575496673584
174,1762147271,0.69770086,0.32460713,-0.5113117,0.38262805,12.043065071105957,-1.8496108055114746,0.409580260515213,77.94525146484375,-35.19562530517578, 4.713274002075195
175,1762163938,0.69095314,0.3316927,-0.51298785,0.3865324,11.372485160827637,-2.121428966522217,-0.0391596220433712,58.14574432373047,-41.04316711425781, 15.282005310058594
176,1762180605,0.68430173,0.33561608,-0.5172005,0.38935444,11.572508811950684,-2.833982229232788,0.40181201696395874,32.36145782470703,-46.805816650390625, 26.7576904296875
177,1762197272,0.6784327,0.33566546,-0.5241129,0.39033777,11.470244407653809,-2.104004383087158,0.9420772790908813,-1.4158636331558228,-50.59616470336914, 35.94776916503906
178,1762213939,0.6735509,0.33201072,-0.5333043,0.38946757,11.300758361816406,-1.9808329343795776,0.9862764477729797,-33.75392532348633,-52.01763153076172, 43.21857833862305
179,1762230606,0.6687533,0.3282431,-0.54262286,0.3880541,14.653389930725098,4.679306507110596,5.3231282234191895,-36.78901290893555,-53.248199462890625, 41.15050506591797
180,1762247273,0.6712691,0.3226381,-0.5480014,0.38078463,17.507259368896484,12.140829086303711,14.323370933532715,-73.09821319580078,-16.256011962890625, -7.204355716705322
181,1762263940,0.6760012,0.3196668,-0.5489921,0.37342098,16.933765411376953,5.664554119110107,5.469038486480713,-54.774497985839844,4.958286762237549, -32.82200622558594
182,1762280607,0.6775933,0.32175282,-0.54689234,0.37182152,13.849159240722656,-3.2570855617523193,-2.5821590423583984,5.30335807800293,7.090551376342773, -23.745113372802734
183,1762297274,0.676565,0.3256594,-0.54451936,0.37377068,11.859325408935547,-2.4804277420043945,-1.88535475730896,33.63875961303711,1.821499228477478, -8.071081161499023
184,1762313941,0.6738426,0.33055398,-0.54206157,0.37794125,10.714871406555176,-0.6433456540107727,-0.1510748267173767,50.57511520385742,-1.6072497367858887, 2.64262056350708
185,1762330608,0.67209196,0.33288297,-0.54166645,0.37957728,9.728048324584961,3.0916152000427246,0.9242020845413208,21.679431915283203,-6.605220317840576, 2.590543746948242
186,1762347275,0.6722726,0.33189717,-0.54400146,0.37677088,10.559761047363281,4.483436107635498,0.21150191128253937,-21.739635467529297,-13.54512882232666, -4.324048042297363
187,1762363942,0.67375344,0.32998958,-0.54680973,0.37170208,11.891283988952637,3.426173686981201,-0.10911659896373749,-38.67344284057617,-13.62690258026123, -13.5295991897583
188,1762380609,0.6750292,0.33085492,-0.5468522,0.36854225,12.38298225402832,0.49498793482780457,-0.05050022900104523,-11.132338523864746,-4.30972957611084, -20.803815841674805
189,1762397276,0.6753426,0.3358963,-0.5432739,0.36870003,11.880914688110352,0.21989706158638,-0.3567902743816376,32.08549499511719,5.873137950897217, -26.92714500427246
190,1762413943,0.6754119,0.34142515,-0.53960884,0.36887687,12.25518798828125,1.4467779397964478,0.598281979560852,35.203311920166016,4.210879325866699, -28.271678924560547
191,1762430610,0.6761707,0.3448933,-0.5375241,0.3673005,12.426904678344727,1.9090080261230469,1.609696626663208,13.49735164642334,0.5542412996292114, -26.807022094726562
192,1762447277,0.67756194,0.34617564,-0.5369185,0.36440492,13.090089797973633,1.2461087703704834,-0.16777190566062927,-6.779784679412842,-1.6055736541748047, -22.940174102783203
193,1762463944,0.67817867,0.3470142,-0.5370379,0.36227816,13.46017074584961,0.834102213382721,-0.23165929317474365,-5.986331939697266,-4.862061977386475, -14.061894416809082
194,1762480611,0.67771447,0.3487463,-0.5367774,0.3618695,12.77263355255127,1.1495417356491089,0.48810893297195435,8.048903465270996,-5.166378498077393, -7.586472034454346
195,1762497278,0.67644763,0.35130346,-0.5363999,0.3623257,11.078775405883789,2.3215343952178955,1.4765712022781372,17.29947280883789,-7.546099662780762, -4.8965654373168945
196,1762513945,0.6757697,0.35305527,-0.5367445,0.36137637,10.28957748413086,3.138033390045166,0.7384184002876282,5.146472454071045,-10.138448715209961, -8.16346549987793
197,1762530612,0.6755718,0.35451922,-0.53733355,0.3594329,10.922226905822754,0.954071581363678,-0.08645185828208923,-1.6422752141952515,-11.201713562011719, -12.272722244262695
198,1762547279,0.6755789,0.35653454,-0.5374074,0.35730892,10.649599075317383,0.5851762890815735,0.10334490984678268,1.024029016494751,-9.830052375793457, -16.92683982849121
199,1762563946,0.6768452,0.3577025,-0.5370248,0.3543082,12.714052200317383,1.4554905891418457,-1.4475629329681396,-8.11632251739502,-3.108055830001831, -22.106250762939453
200,1762580613,0.6772685,0.3608073,-0.53510296,0.35325688,12.276143074035645,-0.0177871473133564,-0.05586209520697594,13.907007217407227,1.0877676010131836, -21.925559997558594
201,1762597280,0.6775745,0.36437133,-0.5327254,0.35260502,10.076419830322266,2.8701796531677246,0.8048145771026611,18.91494369506836,2.682023286819458, -22.654197692871094
202,1762613947,0.6787588,0.36627716,-0.5310167,0.35092628,10.1797456741333,3.123258590698242,-0.8554421067237854,3.5962917804718018,4.220154285430908, -21.779056549072266
203,1762630614,0.6796823,0.36805105,-0.52905405,0.35024634,10.471366882324219,3.5257439613342285,-0.13415612280368805,7.87980318069458,7.327873706817627, -16.6046199798584
204,1762647281,0.6805984,0.36870208,-0.5276092,0.34996223,10.48825454711914,3.3041529655456543,0.4961274564266205,2.828303575515747,8.608287811279297, -9.2924222946167
205,1762663948,0.68150854,0.3683303,-0.5264569,0.35031763,11.101515769958496,2.171773672103882,-0.5741284489631653,-0.33790847659111023,11.303983688354492, -1.7930049896240234
206,1762680615,0.68250334,0.36752546,-0.5251727,0.3511527,10.390713691711426,2.81575608253479,-0.4543006122112274,-0.5347422957420349,14.527949333190918, 1.4871833324432373
207,1762697282,0.6840888,0.3656045,-0.52395624,0.35188928,10.980703353881836,1.4922040700912476,-0.49071142077445984,-7.795095443725586,18.823678970336914, 3.8263957500457764
208,1762713949,0.6857234,0.3635676,-0.5223837,0.35315377,10.833135604858398,1.4917571544647217,-0.08493383973836899,-5.704189300537109,22.32355499267578, 5.696794033050537
209,1762730616,0.6871577,0.36157653,-0.52094716,0.3545294,9.356344223022461,2.493945360183716,1.2830910682678223,-4.920259475708008,21.157682418823242, 6.868717670440674
210,1762747283,0.6889804,0.3579979,-0.52092546,0.3546555,9.966550827026367,3.0640742778778076,1.357889175415039,-21.3126163482666,16.60790252685547, 9.248176574707031
211,1762763950,0.6900345,0.3543422,-0.52193385,0.35479444,9.062112808227539,3.520016670227051,1.778998851776123,-22.25811195373535,9.17808723449707, 14.0397367477417
212,1762780617,0.6899551,0.35104492,-0.52384865,0.3554049,9.390985488891602,2.4459519386291504,1.325051188468933,-18.32168197631836,1.052422046661377, 20.02748680114746
213,1762797284,0.6890937,0.3478017,-0.5265531,0.35626668,9.157660484313965,3.2046866416931152,1.5998921394348145,-17.20130157470703,-5.047062873840332, 24.86867332458496
214,1762813951,0.6884253,0.34320801,-0.5302475,0.3565346,9.729969024658203,1.7400528192520142,0.02423536404967308,-28.639793395996094,-7.172956466674805, 28.895700454711914
215,1762830618,0.6881288,0.3381082,-0.53378123,0.3567063,11.759208679199219,0.38836586475372314,-0.2546778917312622,-31.8684139251709,-4.007081508636475, 29.0033016204834
216,1762847285,0.6872385,0.33535525,-0.5352479,0.35881755,12.772014617919922,-2.0009284019470215,1.7297831773757935,-7.187005996704102,2.4061591625213623, 26.177711486816406
217,1762863952,0.6840419,0.33703107,-0.5352883,0.36326757,8.732650756835938,1.490408182144165,4.590836524963379,31.2152042388916,-4.871420860290527, 23.20395851135254
218,1762880619,0.681404,0.33642465,-0.5373707,0.36570495,11.3223295211792,2.9036121368408203,-0.5043152570724487,6.691754341125488,-11.508113861083984, 25.486331939697266
219,1762897286,0.67870104,0.33594024,-0.5383856,0.36966255,13.721226692199707,2.9752862453460693,1.6682456731796265,15.701563835144043,-3.4615702629089355, 29.909870147705078
220,1762913953,0.6728051,0.34360272,-0.5320867,0.38230228,13.713373184204102,4.334940433502197,3.5746710300445557,111.8158187866211,18.218786239624023, 31.535499572753906
221,1762930620,0.66525906,0.35500255,-0.52672714,0.3923806,8.487136840820312,10.018810272216797,4.593415260314941,121.14490509033203,-8.077413558959961, 12.658031463623047
222,1762947287,0.6591568,0.372081,-0.5196128,0.3963218,4.577162265777588,8.837644577026367,-0.6547673940658569,126.04302978515625,-25.225231170654297, -43.85057830810547
223,1762963954,0.647897,0.4051177,-0.5023728,0.40463725,2.7396349906921387,8.665826797485352,-6.864388465881348,252.61306762695312,-30.15167999267578, -92.98643493652344
224,1762980621,0.6488106,0.42252973,-0.4989527,0.38930723,-1.2957361936569214,14.424529075622559,-4.965867519378662,31.593645095825195,-71.50532531738281, -139.06024169921875
225,1762997288,0.65978616,0.4235854,-0.5076719,0.3571099,-2.82712984085083,-0.7130903601646423,-9.621381759643555,-161.7220916748047,-96.36102294921875, -149.41787719726562
226,1763013955,0.6575509,0.43817335,-0.5084218,0.34225538,-4.330187797546387,-10.47810173034668,-7.330195426940918,18.2192325592041,-88.76610565185547, -108.75424194335938
227,1763030622,0.6524543,0.44986182,-0.5087511,0.3363041,-10.0394926071167,-5.825274467468262,2.4555416107177734,45.84408950805664,-62.9914665222168, -53.321868896484375
228,1763047289,0.650925,0.4533152,-0.5145824,0.32558802,-11.115765571594238,4.507476329803467,-43.46527099609375,-31.453332901000977,-71.07281494140625, -37.287391662597656
229,1763063956,0.6356328,0.46051058,-0.53284186,0.31619772,25.042966842651367,-20.780534744262695,-29.608854293823242,4.648626804351807,-178.01609802246094, 25.254920959472656
230,1763080623,0.62625146,0.45903912,-0.55015725,0.307278,25.0300350189209,9.825353622436523,13.51357364654541,-48.35090255737305,-130.7429656982422, 42.17131805419922
231,1763097290,0.62304974,0.4463382,-0.5731521,0.2899799,39.2078857421875,-21.629623413085938,-4.275024890899658,-159.672119140625,-135.23683166503906, 53.71392822265625
232,1763113957,0.60740036,0.45702276,-0.5794642,0.29396734,3.7127747535705566,2.4322757720947266,-4.41103458404541,95.8710708618164,-94.07203674316406, 25.12735366821289
233,1763130624,0.6054846,0.45282578,-0.5892017,0.28491947,2.9071922302246094,-2.433310031890869,-4.311987400054932,-68.29640197753906,-64.45449829101562, 13.069147109985352
234,1763147291,0.5989156,0.46111944,-0.58830297,0.2873482,4.349113464355469,8.402331352233887,-2.1951286792755127,65.48798370361328,-27.68048858642578, -13.858354568481445
235,1763163958,0.59470135,0.46492964,-0.5884807,0.28958875,8.179194450378418,5.104206562042236,-3.5023467540740967,36.70037841796875,-14.35009479522705, 2.544757604598999
236,1763180625,0.5906625,0.4646082,-0.5915652,0.2920756,8.433727264404297,4.8835344314575195,-1.499584674835205,14.483861923217773,-16.48763656616211, 29.33686065673828
237,1763197292,0.5857295,0.46342054,-0.59639823,0.29406133,8.260347366333008,2.748072624206543,-1.1749078035354614,8.338120460510254,-27.14691162109375, 38.33686065673828
238,1763213959,0.58138,0.46020505,-0.60359234,0.29306248,7.59911584854126,1.0977939367294312,-2.554983615875244,-18.637496948242188,-39.742034912109375, 41.034088134765625
239,1763230626,0.5770021,0.4567641,-0.6114277,0.29084644,9.271605491638184,-0.3162109851837158,-1.7283328771591187,-25.751079559326172,-45.82494354248047, 39.20333480834961
240,1763247293,0.57192034,0.45659435,-0.6156566,0.29222628,9.689441680908203,0.794867753982544,-1.2467759847640991,11.803889274597168,-29.811843872070312, 29.71951675415039
241,1763263960,0.5649029,0.46041086,-0.61802137,0.29488426,9.116922378540039,1.6230181455612183,0.7574008107185364,42.75611877441406,-34.842926025390625, 15.850521087646484
242,1763280627,0.5529396,0.4693037,-0.6213859,0.29646587,11.988588333129883,1.7691508531570435,5.977567672729492,71.58822631835938,-73.73905944824219, 3.2620716094970703
243,1763297294,0.5359454,0.47948396,-0.63083816,0.29137805,14.640520095825195,3.6424529552459717,11.944722175598145,51.90552520751953,-143.09654235839844, 2.275330066680908
244,1763313961,0.5132653,0.49085927,-0.6456391,0.2806538,21.731348037719727,2.6920793056488037,18.543527603149414,40.03687286376953,-209.2942352294922, 5.404703140258789
245,1763330628,0.48706737,0.50458676,-0.6601166,0.26908007,26.54575538635254,-1.66257905960083,15.471742630004883,57.23408126831055,-232.3242950439453, -2.3623900413513184
246,1763347295,0.45088997,0.5245473,-0.67260224,0.2629736,26.305435180664062,-1.6474930047988892,19.625659942626953,141.32400512695312,-264.5549621582031, -0.9852616190910339
247,1763363962,0.41564822,0.54331553,-0.6848973,0.25092036,17.816089630126953,3.6808109283447266,18.925392150878906,107.14775085449219,-280.0293273925781, -16.407331466674805
248,1763380629,0.38440895,0.5625194,-0.68942404,0.24596095,9.742575645446777,-1.5160809755325317,3.851210594177246,140.40028381347656,-214.00717163085938, -33.95643615722656
249,1763397296,0.37329426,0.5744558,-0.6844654,0.2493184,12.494223594665527,20.522722244262695,41.4500732421875,98.78832244873047,-49.11063003540039, -48.21988296508789
250,1763413963,0.39301628,0.56813353,-0.6816691,0.24101894,6.7936553955078125,7.568378448486328,26.749393463134766,-127.84984588623047,74.48139953613281, -35.96015930175781
251,1763430630,0.42381942,0.55696076,-0.6706571,0.2457463,2.176564931869507,5.972413539886475,18.47185707092285,-109.38774871826172,207.03623962402344, -28.449047088623047
252,1763447297,0.4580059,0.5453489,-0.64966834,0.2660014,4.207587242126465,3.402189016342163,12.979279518127441,-35.06687927246094,311.8399353027344, -24.99904441833496
253,1763463964,0.493063,0.53108984,-0.62185645,0.29686275,4.667130947113037,8.008857727050781,-2.238780975341797,13.179816246032715,381.9114685058594, -6.828673362731934
254,1763480631,0.53242594,0.5094173,-0.5904084,0.3292948,4.134528160095215,8.749786376953125,-9.605217933654785,-13.681337356567383,434.058349609375, 8.408203125
255,1763497298,0.57817596,0.47482687,-0.56240684,0.35206667,6.582897186279297,9.2241792678833,-17.73253631591797,-130.6776885986328,443.45562744140625, 23.294639587402344
256,1763513965,0.62814754,0.42686114,-0.5422229,0.35946503,13.07382583618164,8.772214889526367,-22.57974624633789,-276.44232177734375,411.69287109375, 29.267473220825195
257,1763530632,0.6731325,0.37492052,-0.5270424,0.35854435,15.130112648010254,3.9806509017944336,-27.232999801635742,-322.6845397949219,357.6858825683594, 35.1378059387207
258,1763547299,0.7049758,0.33734766,-0.50858617,0.36131197,11.413021087646484,2.3317794799804688,-27.95540428161621,-200.95408630371094,300.1458740234375, 23.96684455871582
259,1763563966,0.72581995,0.31617048,-0.4875855,0.3680793,7.529965400695801,0.42882460355758667,-30.97568130493164,-75.77133178710938,243.44371032714844, 7.362514495849609
260,1763580633,0.73716676,0.3062995,-0.47147167,0.37480783,1.9679253101348877,-1.976163387298584,-27.130098342895508,-11.30865478515625,159.43988037109375, 3.828540802001953
261,1763597300,0.74189585,0.30028927,-0.46588424,0.37731862,-2.3916513919830322,0.22931557893753052,-24.17409324645996,-18.64331817626953,66.49708557128906, 9.026294708251953
262,1763613967,0.746112,0.2891295,-0.47082445,0.3715453,-1.6271867752075195,-1.761401891708374,-14.508031845092773,-97.73568725585938,7.902984142303467, 6.324560642242432
263,1763630634,0.74948865,0.2775797,-0.47841546,0.36377943,-1.685240387916565,-4.072523593902588,-11.02003288269043,-111.26053619384766,-11.19446086883545, 4.758697509765625
264,1763647301,0.7518487,0.2696721,-0.4837655,0.35773164,0.552371084690094,-1.4335964918136597,-6.241763591766357,-79.22409057617188,-8.742181777954102, -0.18488943576812744
265,1763663968,0.7530387,0.26839152,-0.48402604,0.35583454,1.7677887678146362,-0.4663833975791931,-5.193418025970459,-16.43600845336914,5.051451206207275, -7.3770294189453125
266,1763680635,0.7525288,0.2749566,-0.47952092,0.35799387,4.447370529174805,1.5321464538574219,-4.21061897277832,52.49550247192383,12.338167190551758, -17.188711166381836
267,1763697302,0.7480245,0.2895018,-0.47609472,0.3605306,5.327406883239746,4.3996992111206055,-11.871734619140625,99.91189575195312,-25.346548080444336, -29.73048210144043
268,1763713969,0.73739,0.30750883,-0.48113742,0.36083478,16.261693954467773,-3.5732598304748535,1.8597975969314575,101.55572509765625,-101.77850341796875, -20.486175537109375
269,1763730636,0.7310833,0.31400022,-0.49566787,0.34818837,13.337454795837402,-1.9886869192123413,9.281808853149414,-32.30038070678711,-134.43783569335938, -38.908119201660156
270,1763747303,0.7226729,0.32032794,-0.5126391,0.33516538,8.483545303344727,-8.136473655700684,-5.9435505867004395,-35.64433288574219,-154.6160125732422, -30.013046264648438
271,1763763970,0.7141286,0.32855284,-0.5269835,0.32305196,2.7205259799957275,3.46429443359375,-5.2424211502075195,-16.60855484008789,-144.3345489501953, -37.88444900512695
272,1763780637,0.7068083,0.33574843,-0.5379291,0.313573,-0.2256913185119629,5.999405860900879,-6.525140285491943,-7.380105495452881,-114.98615264892578, -31.505327224731445
273,1763797304,0.70103925,0.34108213,-0.54607844,0.30660453,0.31069695949554443,7.754822254180908,-2.5202231407165527,-4.748866558074951,-85.85054779052734, -22.044076919555664
274,1763813971,0.6970273,0.34383136,-0.5525468,0.30104113,6.059010982513428,0.08964888006448746,-5.195399761199951,-12.536808967590332,-62.52186584472656, -13.009857177734375
275,1763830638,0.6956481,0.34409747,-0.55776584,0.29422605,7.182919502258301,-4.334094524383545,-0.7384153604507446,-32.82155227661133,-44.36003112792969, -18.012664794921875
276,1763847305,0.69359666,0.3490705,-0.5592982,0.29027516,7.003478050231934,-7.1121320724487305,-1.8156027793884277,9.764647483825684,-32.17925262451172, -29.89204978942871
277,1763863972,0.6893571,0.36010763,-0.55728644,0.29076093,3.7233097553253174,-1.9617092609405518,0.723625898361206,68.10711669921875,-25.23998260498047, -36.447837829589844
278,1763880639,0.68426716,0.3717154,-0.55517316,0.29221523,1.830402135848999,3.095313549041748,0.5732128024101257,76.85301208496094,-26.928327560424805, -32.696014404296875
279,1763897306,0.6787114,0.38178506,-0.5542164,0.29399964,0.7371413111686707,5.848461627960205,-1.4799636602401733,69.74471282958984,-30.365726470947266, -21.3279972076416
280,1763913973,0.6740521,0.38811573,-0.55512834,0.29470924,1.8662993907928467,4.210487365722656,-0.4564472436904907,42.058780670166016,-31.01701545715332, -8.8683443069458
281,1763930640,0.66846865,0.39526308,-0.5558411,0.29657742,3.146543502807617,0.952160120010376,1.198426365852356,53.14148712158203,-32.28253936767578, -5.19518518447876
282,1763947307,0.6622419,0.4019106,-0.5583794,0.29684445,3.151364326477051,0.6125796437263489,3.4774982929229736,42.778045654296875,-46.59634780883789, -4.386044979095459
283,1763963974,0.65600735,0.40652856,-0.56384546,0.29405415,2.357623815536499,0.8961420059204102,2.162463903427124,15.885775566101074,-64.44515228271484, -2.42407488822937
284,1763980641,0.6485151,0.41232267,-0.5696313,0.291443,1.6932157278060913,0.8807551264762878,0.9523414373397827,24.782886505126953,-72.77515411376953, -2.7369019985198975
285,1763997308,0.64059836,0.41838172,-0.57569426,0.28838766,0.5283945798873901,2.1432526111602783,0.0524473562836647,24.893857955932617,-77.55521392822266, -4.113931655883789
286,1764013975,0.6332148,0.42374116,-0.5819608,0.28426185,0.9249827861785889,0.25139424204826355,-1.0628225803375244,15.65135669708252,-78.09526062011719, -6.486331462860107
287,1764030642,0.6252556,0.42996398,-0.58761203,0.2808903,3.1529366970062256,-1.044594168663025,0.087299644947052,25.31494140625,-77.23538208007812, -7.33439302444458
288,1764047309,0.616882,0.4359559,-0.5936303,0.27749398,4.059689044952393,0.0488562136888504,0.3663448095321655,24.751991271972656,-80.17285919189453, -4.677635669708252
289,1764063976,0.6074937,0.44217393,-0.6003755,0.2738315,4.66618537902832,0.012750064954161644,2.848245859146118,26.29263687133789,-88.69168853759766, -2.6421966552734375
290,1764080643,0.5978526,0.44773224,-0.60838646,0.268281,3.1213603019714355,0.08343212306499481,1.73398756980896,14.155384063720703,-99.65029907226562, -3.5103330612182617
291,1764097310,0.58791757,0.45292866,-0.6174241,0.26076192,3.0380239486694336,0.8278059363365173,1.3580360412597656,3.461764335632324,-110.58309173583984, -6.400482177734375
292,1764113977,0.5779925,0.4583583,-0.6262912,0.25217527,3.3675594329833984,2.091162919998169,0.3016909658908844,0.16385841369628906,-113.66920471191406, -12.249007225036621
293,1764130644,0.5686352,0.46243414,-0.63545704,0.24290684,3.4684879779815674,2.0013036727905273,-0.8771241903305054,-10.443742752075195,-112.25765228271484, -9.135897636413574
294,1764147311,0.55780905,0.46717104,-0.64437914,0.23532261,3.102022886276245,3.203533172607422,0.32555556297302246,4.58748722076416,-113.48722839355469, -3.7307612895965576
295,1764163978,0.5442157,0.4746078,-0.6523807,0.2301674,3.1740596294403076,4.282703399658203,2.1394848823547363,36.11038589477539,-118.82855987548828, -4.79796838760376
296,1764180645,0.52750295,0.48443034,-0.6602327,0.22618861,8.359553337097168,5.163663864135742,6.954566478729248,60.78147888183594,-132.29269409179688, -6.568752765655518
297,1764197312,0.5086146,0.49600452,-0.66750115,0.22301108,11.70433521270752,2.4709954261779785,6.073429584503174,79.01996612548828,-140.3693389892578, -10.108531951904297
298,1764213979,0.4860564,0.51209354,-0.67226577,0.22264075,14.29870891571045,0.5775989890098572,11.832588195800781,124.11979675292969,-146.07391357421875, -23.944284439086914
299,1764230646,0.4600936,0.53149945,-0.67490584,0.2243322,17.367389678955078,1.444831132888794,15.715193748474121,160.06735229492188,-152.9731903076172, -34.717140197753906
300,1764247313,0.43463683,0.54998684,-0.67649186,0.22575405,16.35801124572754,-0.06225624680519104,12.746718406677246,155.79925537109375,-147.41761779785156, -35.96596145629883
301,1764263980,0.4084978,0.56519586,-0.6796934,0.22737858,10.999190330505371,0.6846025586128235,12.140936851501465,147.07949829101562,-150.0140838623047, -12.977560997009277
302,1764280647,0.38321924,0.57697785,-0.6840358,0.22876918,3.8736205101013184,0.5890419483184814,1.9624015092849731,131.2790985107422,-145.08106994628906, 5.490906715393066
303,1764297314,0.36704898,0.58359945,-0.6871352,0.22920005,9.254231452941895,9.224051475524902,17.67844581604004,78.96531677246094,-94.60655212402344, 8.00644302368164
304,1764313981,0.37571546,0.5718146,-0.6983004,0.21034096,3.027506113052368,2.7766780853271484,21.55964469909668,-170.83901977539062,-46.44734573364258, 39.623111724853516
305,1764330648,0.38868514,0.55680317,-0.70654523,0.19922018,-0.11076657474040985,-1.431037425994873,22.11996841430664,-154.6706085205078,16.474754333496094, 57.28334045410156
306,1764347315,0.40640095,0.5394147,-0.71035856,0.19814451,1.706158995628357,-0.014546632766723633,22.026891708374023,-124.36508178710938,92.79434967041016, 72.0451889038086
307,1764363982,0.4274297,0.52050745,-0.7090836,0.20875144,1.6908509731292725,-3.2966644763946533,19.072072982788086,-76.93341064453125,168.29237365722656, 88.63695526123047
308,1764380649,0.4491938,0.5032661,-0.7003659,0.23331612,2.410900592803955,-0.8144534826278687,12.771875381469727,3.9774317741394043,241.1072998046875, 93.76522827148438
309,1764397316,0.47469643,0.4859556,-0.684815,0.26370373,3.7534024715423584,0.4755966067314148,9.59036922454834,29.7568302154541,300.4237365722656, 82.48365783691406
310,1764413983,0.5028111,0.46810952,-0.6638776,0.2955025,4.542135715484619,5.163557052612305,5.612783432006836,35.62751007080078,335.9900207519531, 66.958740234375
311,1764430650,0.53836584,0.4435563,-0.64278364,0.31662282,5.85426664352417,9.052239418029785,2.6952433586120605,-60.00735855102539,349.82965087890625, 45.17361831665039
312,1764447317,0.5785224,0.41419518,-0.6210052,0.32879674,7.77594518661499,8.236812591552734,0.1865188479423523,-129.95388793945312,356.0325012207031, 21.342742919921875
313,1764463984,0.6220791,0.3810531,-0.5978097,0.3323257,10.381769180297852,9.697741508483887,-3.5318033695220947,-188.46908569335938,360.32781982421875, -8.579262733459473
314,1764480651,0.66760665,0.34230813,-0.57490546,0.32651326,10.335834503173828,4.892983913421631,-10.656739234924316,-256.7748107910156,355.8267822265625, -29.219173431396484
315,1764497318,0.6983078,0.3241019,-0.54141545,0.3379262,7.062836170196533,0.08583208918571472,-19.756511688232422,-35.66270065307617,340.6496276855469, -22.962461471557617
316,1764513985,0.7193405,0.31975618,-0.5009695,0.35963255,6.4533891677856445,2.533308506011963,-20.6146297454834,106.89247131347656,329.5455322265625, -18.1724910736084
317,1764530652,0.73245776,0.32368743,-0.45932785,0.38438362,2.076146364212036,2.1826553344726562,-24.860897064208984,178.59275817871094,295.15496826171875, -14.599867820739746
318,1764547319,0.74417925,0.3218105,-0.42948076,0.39772135,1.502528190612793,0.9130234718322754,-26.812414169311523,85.0455093383789,221.99232482910156, -23.76609230041504
319,1764563986,0.7555832,0.3139394,-0.41605526,0.3967806,-1.8247920274734497,0.37752997875213623,-28.717693328857422,-32.135955810546875,122.53327941894531, -41.944007873535156
320,1764580653,0.7627577,0.3068965,-0.4168174,0.38765875,-2.7196357250213623,-1.822252869606018,-30.611608505249023,-80.94005584716797,17.479990005493164, -44.649574279785156
321,1764597320,0.76023656,0.30984256,-0.42753306,0.3784895,1.1736321449279785,-2.3667855262756348,-31.304393768310547,-34.85772705078125,-88.56769561767578, -26.699634552001953
322,1764613987,0.74659306,0.32483134,-0.4452207,0.37264314,11.16753101348877,-0.7765077948570251,-11.445669174194336,43.34368896484375,-181.27249145507812, -0.9921013116836548
323,1764630654,0.73286146,0.34195897,-0.460248,0.36626646,17.557783126831055,1.3815685510635376,13.639267921447754,59.71418762207031,-174.25262451171875, -16.069652557373047
324,1764647321,0.72023124,0.34963447,-0.48755947,0.34829494,14.821807861328125,-4.261872291564941,-5.869847774505615,-58.061500549316406,-236.48451232910156, -18.502004623413086
325,1764663988,0.70635056,0.35869437,-0.5121306,0.33185908,8.532819747924805,-8.671135902404785,-0.861486554145813,-36.45008850097656,-226.56275939941406, -19.249391555786133
326,1764680655,0.6923239,0.3708852,-0.5289849,0.32141495,0.7383095026016235,1.1452959775924683,-10.105081558227539,17.900310516357422,-182.00050354003906, -20.113351821899414
327,1764697322,0.682075,0.38003823,-0.5400162,0.31420994,-1.9541634321212769,5.927739143371582,-8.549339294433594,18.398500442504883,-125.3970718383789, -16.79914665222168
328,1764713989,0.67768574,0.38178176,-0.54745895,0.30866522,0.9733015298843384,4.034673690795898,-10.854575157165527,-17.802993774414062,-66.36225891113281, -3.346086263656616
329,1764730656,0.67838746,0.37619,-0.55332786,0.30348092,3.7535064220428467,1.383254051208496,-5.484253883361816,-60.692222595214844,-23.173009872436523, 11.151664733886719
330,1764747323,0.6799556,0.36966604,-0.55720776,0.3008781,4.74961519241333,-1.677099585533142,-2.1742706298828125,-53.300559997558594,-1.9594067335128784, 19.843172073364258
331,1764763990,0.68101174,0.36389878,-0.56064105,0.29913744,3.2856497764587402,-0.683169960975647,-0.6181129813194275,-44.18914031982422,-1.2918514013290405, 20.852746963500977
332,1764780657,0.680553,0.36073986,-0.5638393,0.29799384,0.2679477334022522,-0.5555673837661743,-0.37807828187942505,-25.35562515258789,-10.038203239440918, 16.09970474243164
333,1764797324,0.67864656,0.35904226,-0.5681273,0.29624236,-1.3460867404937744,0.46859660744667053,-0.7404378056526184,-19.476642608642578,-25.399948120117188, 13.245898246765137
334,1764813991,0.6757953,0.35905942,-0.5725117,0.29429287,-1.4009997844696045,-0.6649998426437378,-1.3183245658874512,-10.08348560333252,-33.65895462036133, 7.8043212890625
335,1764830658,0.67154545,0.3624273,-0.5757716,0.29353222,-1.507427453994751,-0.7393592596054077,-1.7285680770874023,15.919123649597168,-37.89771270751953, 0.16656678915023804
336,1764847325,0.6665051,0.36691928,-0.5794027,0.2922918,-1.2059109210968018,-1.1429741382598877,-1.0177539587020874,20.44883155822754,-46.298954010009766, -4.01322603225708
337,1764863992,0.6607063,0.37201032,-0.5838405,0.29018417,-0.33848580718040466,-0.339019775390625,0.13130271434783936,20.051353454589844,-56.517635345458984, -6.860499858856201
338,1764880659,0.6537176,0.37788284,-0.58932704,0.28731927,0.1522202044725418,0.5377398133277893,1.7583222389221191,21.532360076904297,-69.68962097167969, -8.403314590454102
339,1764897326,0.6455097,0.38382602,-0.596383,0.283413,0.9455123543739319,0.3546684980392456,2.6706366539001465,17.722301483154297,-84.70181274414062, -6.882058620452881
340,1764913993,0.63624126,0.39011818,-0.60463333,0.27825248,1.296739935874939,-0.690380334854126,1.839671015739441,14.628714561462402,-98.52965545654297, -8.664173126220703
341,1764930660,0.6259954,0.3969421,-0.6136575,0.27201495,0.763464629650116,-0.6057238578796387,1.3038687705993652,13.642247200012207,-110.03663635253906, -11.672460556030273
342,1764947327,0.6149998,0.4044472,-0.6229039,0.26493248,1.9090800285339355,-0.3108026385307312,2.665532350540161,14.656564712524414,-117.86271667480469, -16.198549270629883
343,1764963994,0.6036944,0.41202796,-0.632072,0.25743294,3.3173587322235107,-0.7070327997207642,0.9262785315513611,14.215600967407227,-120.31732177734375, -17.959653854370117
344,1764980661,0.5919757,0.42018473,-0.64055705,0.25039363,2.646071672439575,-1.393937587738037,-0.8446550369262695,20.995704650878906,-119.10047912597656, -19.79311752319336
345,1764997328,0.5796073,0.42872792,-0.6487931,0.24354906,2.562304973602295,0.0812847763299942,1.6869131326675415,25.72891616821289,-121.09783172607422, -20.35516929626465
346,1765013995,0.56476206,0.43884563,-0.6573751,0.23731215,5.489388465881348,1.9217019081115723,3.365741014480591,41.45021057128906,-134.49354553222656, -19.79997444152832
347,1765030662,0.5454535,0.45391193,-0.6648235,0.23335606,9.311370849609375,3.6174190044403076,8.065751075744629,86.32931518554688,-151.6462860107422, -29.428958892822266
348,1765047329,0.52197784,0.47224224,-0.6719058,0.23036896,13.316582679748535,1.8130123615264893,8.81577205657959,116.67362213134766,-171.88497924804688, -35.12943649291992
349,1765063996,0.49502873,0.49414676,-0.67685753,0.22941318,15.845799446105957,0.3655819296836853,10.712179183959961,153.6201934814453,-179.75291442871094, -45.79125213623047
350,1765080663,0.46825895,0.51372594,-0.68220055,0.22676547,15.746026992797852,-1.5504882335662842,11.34054946899414,136.6693878173828,-182.79872131347656, -39.73418426513672
351,1765097330,0.4440908,0.5258725,-0.69076765,0.22154596,13.894861221313477,-2.8785171508789062,13.801765441894531,86.49153900146484,-178.9424285888672, -5.905292510986328
352,1765113997,0.41991276,0.53407115,-0.700981,0.21695098,6.508888244628906,1.3627336025238037,9.592989921569824,74.94586944580078,-176.2559356689453, 20.616981506347656
353,1765130664,0.40199316,0.5361672,-0.7127517,0.20715225,0.6648508310317993,1.9828702211380005,3.2018699645996094,6.968972682952881,-160.85499572753906, 31.41796875
354,1765147331,0.4000082,0.5316992,-0.7199284,0.19746776,2.5266034603118896,3.0024313926696777,27.1307430267334,-62.799171447753906,-60.281986236572266, 24.30404281616211
355,1765163998,0.40337965,0.52557373,-0.72236276,0.19811668,-1.3964743614196777,-7.928614139556885,19.711748123168945,-29.21824073791504,18.68613624572754, 36.35153579711914
356,1765180665,0.4142606,0.5185109,-0.71865284,0.20754156,-3.423471450805664,2.4633193016052246,18.762937545776367,-7.077888011932373,105.68733215332031, 32.72900390625
357,1765197332,0.4333553,0.50890136,-0.7092861,0.22391254,-2.5485877990722656,-6.523512840270996,14.5372314453125,-1.1348817348480225,190.53134155273438, 33.3112678527832
358,1765213999,0.45625642,0.49971926,-0.6929576,0.24884021,-3.4150803089141846,-1.7264134883880615,12.217559814453125,39.220916748046875,258.97021484375, 26.398130416870117
359,1765230666,0.48492256,0.48670903,-0.67257124,0.27497864,-1.2651888132095337,-2.19280743598938,8.175298690795898,20.12830352783203,309.7920837402344, 24.665645599365234
360,1765247333,0.5175235,0.46951395,-0.64910764,0.3006426,1.9484728574752808,0.3882290720939636,2.950688362121582,-3.375432014465332,344.5580749511719, 24.694683074951172
361,1765264000,0.555437,0.4432453,-0.6275466,0.31813428,4.890135288238525,3.0258095264434814,-0.7519669532775879,-93.2504653930664,353.96600341796875, 31.278593063354492
362,1765280667,0.5957006,0.40800747,-0.6092572,0.32783696,7.8259196281433105,1.344133734703064,-4.0706939697265625,-175.4887237548828,347.6858215332031, 45.07033920288086
363,1765297334,0.63239604,0.37209034,-0.59032047,0.33637306,9.896751403808594,1.7046140432357788,-8.312442779541016,-171.70538330078125,333.9129943847656, 49.28436279296875
364,1765314001,0.6623843,0.3420524,-0.5691966,0.34678954,10.213312149047852,2.981755495071411,-12.834239959716797,-116.28278350830078,307.79254150390625, 43.478492736816406
365,1765330668,0.6853878,0.3206306,-0.5471701,0.35783422,5.758183002471924,4.197257041931152,-17.032787322998047,-56.01424026489258,266.0233459472656, 27.20769691467285
366,1765347335,0.7025663,0.30775565,-0.5252521,0.36850774,2.4521994590759277,2.1920042037963867,-19.229171752929688,-4.6020097732543945,222.3849334716797, 8.008357048034668
367,1765364002,0.7139534,0.3003021,-0.5077145,0.37724823,-0.8091990351676941,3.055830240249634,-20.435686111450195,15.716268539428711,163.13357543945312, 3.1169443130493164
368,1765380669,0.7207483,0.29435006,-0.49918047,0.38039452,-2.717510223388672,2.0897889137268066,-21.377653121948242,-10.378220558166504,88.08504486083984, 1.0159814357757568
369,1765397336,0.7230634,0.2904419,-0.49970883,0.3783053,-2.299050807952881,0.25406092405319214,-22.68060874938965,-32.91004180908203,12.457476615905762, -1.813502311706543
370,1765414003,0.7200947,0.29197392,-0.5068177,0.37329832,-2.2696101665496826,2.3318653106689453,-23.814523696899414,-22.48961639404297,-57.78707504272461, -8.09953784942627
371,1765430670,0.7110117,0.301649,-0.51794356,0.36770338,2.0159409046173096,7.899084091186523,-17.995332717895508,17.683988571166992,-120.46478271484375, -15.555441856384277
372,1765447337,0.7025054,0.3142109,-0.5274222,0.35997847,9.707846641540527,5.312192916870117,7.9031782150268555,27.07059669494629,-121.6314468383789, -40.920345306396484
373,1765464004,0.689765,0.33133385,-0.53803366,0.35350132,12.204120635986328,-1.3728760480880737,-5.044600009918213,59.94435119628906,-151.34898376464844, -38.41351318359375
374,1765480671,0.6757448,0.3450608,-0.5537825,0.34296954,7.560549736022949,-4.9600324630737305,-2.758944511413574,19.277408599853516,-181.316650390625, -30.364015579223633
375,1765497338,0.6644829,0.3540397,-0.5696672,0.32954323,1.3218638896942139,-1.9499149322509766,-3.4190046787261963,-20.644142150878906,-167.11480712890625, -32.078269958496094
376,1765514005,0.65613335,0.36063743,-0.58232194,0.31675214,-1.1361298561096191,0.8070929050445557,-3.006967782974243,-28.809335708618164,-134.01722717285156, -34.35176086425781
377,1765530672,0.6506945,0.3658527,-0.5902477,0.3071762,-0.3345084488391876,3.0521299839019775,-5.160706996917725,-19.105539321899414,-90.0743408203125, -32.33267593383789
378,1765547339,0.64542216,0.3726174,-0.5935734,0.30374026,0.960858941078186,3.9390416145324707,-3.268900156021118,22.01397132873535,-56.60149383544922, -22.98700714111328
379,1765564006,0.64307064,0.37449995,-0.5970488,0.2995727,2.7407593727111816,2.0213520526885986,-0.9615842700004578,-10.445316314697266,-37.038330078125, -11.927583694458008
380,1765580673,0.6417098,0.37365854,-0.60148484,0.2946266,2.8720598220825195,0.15254443883895874,-0.18614822626113892,-30.207134246826172,-33.69792556762695, -3.709744691848755
381,1765597340,0.64062357,0.37103173,-0.60682744,0.28930685,1.1570450067520142,-0.20879726111888885,-0.5842375159263611,-42.153968811035156,-34.010799407958984, 3.7942333221435547
382,1765614007,0.6392459,0.3684866,-0.6119318,0.28482065,0.5033591985702515,0.6601428389549255,-0.9540773630142212,-37.08049392700195,-32.29914855957031, 7.090137481689453
383,1765630674,0.6377255,0.367506,-0.615223,0.28239584,-0.0011886674910783768,0.11942388862371445,-2.6867334842681885,-17.604991912841797,-22.838542938232422, 5.267849922180176
384,1765647341,0.636032,0.36812088,-0.6168431,0.28187957,-0.14956316351890564,0.082790307700634,-2.383573055267334,1.1500558853149414,-14.524421691894531, 2.9909827709198
385,1765664008,0.63351613,0.3711674,-0.61689407,0.2834341,0.5390847325325012,-1.123407244682312,-0.8336455821990967,25.692007064819336,-10.630809783935547, -0.6660728454589844
386,1765680675,0.6294698,0.3756042,-0.6174552,0.285376,0.6435282826423645,-0.5070310235023499,0.43640851974487305,36.312381744384766,-21.123167037963867, -0.6587627530097961
387,1765697342,0.6239207,0.38062903,-0.6200233,0.2853363,-0.05801692605018616,-0.007387474179267883,3.4340546131134033,30.400165557861328,-42.55316925048828, -3.645132064819336
388,1765714009,0.6165778,0.38656467,-0.6247268,0.28304923,0.23597079515457153,0.13761255145072937,2.406148672103882,25.255834579467773,-67.21219635009766, -8.083900451660156
389,1765730676,0.6073475,0.39369404,-0.6306876,0.2799431,1.1134480237960815,0.19515381753444672,2.7729344367980957,29.386045455932617,-85.29191589355469, -9.683533668518066
390,1765747343,0.5973642,0.40037364,-0.6380413,0.27524748,1.6133532524108887,0.30697396397590637,2.4771728515625,19.99371910095215,-97.96217346191406, -9.165342330932617
391,1765764010,0.5867229,0.4069869,-0.6459208,0.2700098,2.4715569019317627,-0.5177724361419678,1.4102227687835693,18.17928123474121,-104.51518249511719, -8.41779613494873
392,1765780677,0.5749889,0.4141842,-0.65393656,0.2649667,1.967637300491333,0.04256131872534752,0.3340137302875519,24.218067169189453,-110.56459045410156, -7.854631423950195
393,1765797344,0.5623917,0.4215051,-0.6622497,0.25976032,1.402225375175476,0.6085793375968933,1.7440853118896484,25.89948272705078,-116.37950134277344, -6.654218673706055
394,1765814011,0.5486393,0.42946595,-0.6707613,0.25423267,1.2196403741836548,1.2732049226760864,1.536102294921875,29.921384811401367,-124.58850860595703, -8.170145034790039
395,1765830678,0.53339607,0.43835044,-0.67950463,0.24821788,2.3174469470977783,0.9870160818099976,1.6578325033187866,35.179073333740234,-135.4879913330078, -10.956131935119629
396,1765847345,0.51562166,0.4489926,-0.688521,0.24182624,3.8751609325408936,-0.38117122650146484,4.494760513305664,47.04973220825195,-152.55795288085938, -15.40217399597168
397,1765864012,0.49572372,0.46045622,-0.6982316,0.23390567,4.969203948974609,-2.2615227699279785,5.255802154541016,48.14875030517578,-171.3658447265625, -19.078697204589844
398,1765880679,0.47316036,0.47291335,-0.7084105,0.22500642,7.900955677032471,-3.972750425338745,4.323673248291016,54.525634765625,-190.69424438476562, -21.507478713989258
399,1765897346,0.44703737,0.4873962,-0.71788204,0.21736838,13.742374420166016,-1.5167487859725952,10.33625316619873,79.90435791015625,-205.01223754882812, -24.20563316345215
400,1765914013,0.41908333,0.50181603,-0.72722137,0.20904535,17.9542179107666,1.8158992528915405,15.003171920776367,82.68738555908203,-216.34756469726562, -23.782594680786133
401,1765930680,0.39315292,0.51534575,-0.7336651,0.20392668,19.621118545532227,1.1789697408676147,15.366185188293457,93.41144561767578,-186.2218475341797, -22.980199813842773
402,1765947347,0.36656404,0.5275635,-0.73883307,0.203554,16.03460121154785,3.225830554962158,16.831323623657227,118.00746154785156,-168.13519287109375, -7.1074934005737305
403,1765964014,0.3452439,0.5339296,-0.7464802,0.19619927,3.818236827850342,2.819047212600708,8.82947063446045,45.30274963378906,-165.3833465576172, 6.726995944976807
404,1765980681,0.32494548,0.5422054,-0.7487477,0.19950333,3.074075222015381,3.164760112762451,0.6719501614570618,108.111572265625,-110.96231842041016, 1.2071198225021362
405,1765997348,0.3235017,0.5438339,-0.7484885,0.19838703,1.7917490005493164,6.310418128967285,21.565053939819336,3.7264153957366943,-15.541446685791016, -9.629810333251953
406,1766014015,0.3310702,0.5434213,-0.7447969,0.20090899,-2.1321895122528076,-2.645321846008301,16.644550323486328,-10.947432518005371,54.473609924316406, -16.035110473632812
407,1766030682,0.34371036,0.54275405,-0.7364979,0.2117857,-4.062211036682129,3.3714609146118164,15.425398826599121,18.637453079223633,122.33893585205078, -19.98845100402832
408,1766047349,0.364827,0.53821915,-0.7264987,0.2223113,-1.7501754760742188,0.004004325717687607,13.063857078552246,-21.361339569091797,173.5105438232422, -19.828493118286133
409,1766064016,0.38824406,0.5329518,-0.7129907,0.23848292,-0.16473732888698578,-1.5922012329101562,10.733521461486816,1.859168291091919,215.72230529785156, -18.49988555908203
410,1766080683,0.41406548,0.52614605,-0.69627744,0.25868693,0.9871124029159546,-1.6398760080337524,6.92279577255249,13.940226554870605,253.2905731201172, -15.89536190032959
411,1766097350,0.440845,0.518223,-0.6764938,0.28188285,1.7497780323028564,-2.2528185844421387,3.9016149044036865,27.044445037841797,279.4233093261719, -14.840802192687988
412,1766114017,0.46852532,0.5084471,-0.6543665,0.3062208,2.413912296295166,-2.46567702293396,1.9449695348739624,28.025800704956055,298.43310546875, -12.871623992919922
413,1766130684,0.49666637,0.49698555,-0.62992305,0.33094704,1.8887385129928589,-2.0258471965789795,0.2644510865211487,27.5618839263916,312.969970703125, -13.130816459655762
414,1766147351,0.52527386,0.4839222,-0.6034723,0.35458317,1.2942286729812622,-1.8869510889053345,-1.584797739982605,20.30744743347168,321.91058349609375, -17.85928726196289
415,1766164018,0.55452764,0.46851966,-0.5760226,0.3757491,2.2316770553588867,-1.1417839527130127,-2.755052089691162,1.8553709983825684,325.88299560546875, -22.005615234375
416,1766180685,0.5860738,0.4481464,-0.54943514,0.392179,4.066156387329102,0.41924166679382324,-4.352077960968018,-45.507999420166016,329.4863586425781, -23.563121795654297
417,1766197352,0.6196346,0.4207844,-0.52604175,0.40283334,6.114075183868408,1.895609736442566,-7.430638790130615,-110.36127471923828,325.54229736328125, -16.064599990844727
418,1766214019,0.6519157,0.38896197,-0.50552344,0.4100753,8.148035049438477,3.171647071838379,-11.584911346435547,-146.03330993652344,311.5018310546875, -2.633981704711914
419,1766230686,0.67966425,0.35968062,-0.48630202,0.41496715,8.972539901733398,5.3076324462890625,-14.185251235961914,-134.4107208251953,276.9533386230469, -5.747976303100586
420,1766247353,0.702169,0.33710477,-0.47052416,0.41464105,4.53972864151001,3.7817788124084473,-21.906206130981445,-117.470703125,211.83702087402344, -28.994638442993164
421,1766264020,0.71550095,0.3268973,-0.45992303,0.4119083,-0.4974674880504608,1.3340924978256226,-29.09330177307129,-59.14407730102539,117.07801055908203, -42.401405334472656
422,1766280687,0.7179801,0.32686788,-0.46262017,0.4045314,-1.1408196687698364,3.5095176696777344,-33.55848693847656,-37.13850402832031,-21.02021598815918, -36.77409744262695
423,1766297354,0.70670843,0.336102,-0.48634842,0.38867068,4.683358192443848,0.9736006259918213,-43.5843391418457,-46.141212463378906,-212.45396423339844, -22.495542526245117
424,1766314021,0.6943555,0.34582144,-0.51154447,0.36959624,16.628313064575195,-8.388574600219727,13.298816680908203,-56.094932556152344,-230.61019897460938, -33.38337326049805
425,1766330688,0.67995757,0.35923052,-0.5316377,0.35492772,10.072811126708984,-7.970621109008789,-8.458796501159668,-4.997611045837402,-212.75303649902344, -32.53343200683594
426,1766347355,0.6661243,0.37190762,-0.55137664,0.33756208,8.950950622558594,0.4019736349582672,-7.542941093444824,-18.793874740600586,-213.69288635253906, -44.968505859375
427,1766364022,0.6539616,0.3843914,-0.56379867,0.32666415,2.102842092514038,-4.478912353515625,-6.2660136222839355,17.503347396850586,-156.69119262695312, -37.19282150268555
428,1766380689,0.6436918,0.39603803,-0.5710996,0.32040778,1.9130933284759521,4.772526264190674,-3.8691256046295166,38.208885192871094,-112.10932159423828, -31.009462356567383
429,1766397356,0.636603,0.40358308,-0.5760143,0.31633222,1.321033239364624,3.9621386528015137,-3.7732608318328857,25.17877197265625,-74.09906005859375, -18.627605438232422
430,1766414023,0.63307583,0.40535223,-0.58079916,0.3123747,2.391672372817993,1.7844562530517578,-4.525555610656738,-9.25080394744873,-46.55720138549805, -3.225471258163452
431,1766430690,0.6318564,0.40279704,-0.5859131,0.30857572,1.7370012998580933,0.8950309753417969,-2.529935359954834,-34.57725524902344,-29.040285110473633, 10.75582218170166
432,1766447357,0.6303521,0.401096,-0.5895302,0.30697507,2.54726243019104,-0.8313135504722595,-1.8062316179275513,-18.026824951171875,-19.467544555664062, 13.360464096069336
433,1766464024,0.62789464,0.40123948,-0.59200484,0.3070609,0.5872918367385864,0.04422546550631523,-0.7144566774368286,1.866842269897461,-17.699159622192383, 12.017440795898438
434,1766480691,0.6252453,0.40091497,-0.5960331,0.30509186,0.23146912455558777,-0.0812731459736824,-0.10745364427566528,-11.243070602416992,-29.976194381713867, 9.741104125976562
435,1766497358,0.6212701,0.40200347,-0.60089535,0.30222914,-0.853099524974823,-0.6573873162269592,0.1799740046262741,-6.901315212249756,-44.54368591308594, 5.1883697509765625
436,1766514025,0.6163839,0.40413928,-0.60651207,0.29813832,-1.4286702871322632,-0.25141772627830505,-0.3855096101760864,-6.529881000518799,-57.222660064697266, -0.41970744729042053
437,1766530692,0.6109427,0.40673292,-0.612647,0.2932271,-0.5417265892028809,-0.44596514105796814,-1.3627166748046875,-7.5175557136535645,-65.04684448242188, -3.2259297370910645
438,1766547359,0.605127,0.4099778,-0.6181446,0.28920227,-0.12696340680122375,0.8125393390655518,-1.2575284242630005,1.2918394804000854,-62.84038543701172, -3.282364845275879
439,1766564026,0.5991729,0.41352162,-0.6229396,0.2862499,-0.09225404262542725,1.2046226263046265,-1.4977705478668213,8.89082145690918,-58.13463592529297, -1.774828314781189
440,1766580693,0.5928831,0.41782287,-0.6268115,0.28464368,0.28837570548057556,0.5942627191543579,-0.7056110501289368,20.55691909790039,-53.47942352294922, -1.4102387428283691
441,1766597360,0.58584946,0.42311853,-0.63033026,0.28361234,1.508557915687561,-0.9091681838035583,0.8817806839942932,29.928403854370117,-55.60936737060547, -2.9117305278778076
442,1766614027,0.5778725,0.42886654,-0.6347592,0.2814579,1.725658893585205,-1.8032439947128296,2.2922823429107666,27.866241455078125,-67.63521575927734, -4.96126127243042
443,1766630694,0.5691372,0.43445227,-0.6408128,0.27693716,1.8153990507125854,-2.0857174396514893,2.2428317070007324,16.00102424621582,-84.22857666015625, -7.468410015106201
444,1766647361,0.55881804,0.4410719,-0.6478545,0.2710415,1.8202905654907227,-1.8189218044281006,2.9421164989471436,16.84638214111328,-101.30638122558594, -11.510499000549316
445,1766664028,0.5471515,0.44819295,-0.6559378,0.26361933,2.12587833404541,0.5864912271499634,2.395794153213501,14.126823425292969,-117.04780578613281, -14.00007152557373
446,1766680695,0.53399575,0.4561397,-0.66437876,0.2557091,2.342961072921753,0.7375690340995789,2.271315574645996,18.990262985229492,-128.262939453125, -15.745800971984863
447,1766697362,0.5198118,0.46439466,-0.6729014,0.24766548,2.3982772827148438,1.2586047649383545,0.2524638772010803,22.609615325927734,-134.36416625976562, -15.564382553100586
448,1766714029,0.50470525,0.47276324,-0.6814442,0.23958787,3.5121593475341797,0.4880141615867615,1.3688040971755981,25.785160064697266,-139.08326721191406, -14.547895431518555
449,1766730696,0.48769614,0.48326385,-0.68855643,0.23345162,4.568448543548584,1.2628637552261353,2.047510862350464,50.8361701965332,-140.3590545654297, -19.321407318115234
450,1766747363,0.46703315,0.49713457,-0.6943003,0.22953266,6.007214069366455,2.0036885738372803,6.263926982879639,87.00092315673828,-151.27442932128906, -26.515268325805664
451,1766764030,0.44290125,0.51305956,-0.69944817,0.22667564,7.3163042068481445,-0.6334818601608276,7.169994831085205,111.53020477294922,-165.84410095214844, -29.45343589782715
452,1766780697,0.4180194,0.5279266,-0.70479625,0.22319598,9.458364486694336,-1.864227294921875,7.262429714202881,107.67634582519531,-170.9534149169922, -24.435291290283203
453,1766797364,0.3946427,0.5404397,-0.71022326,0.21855433,10.989666938781738,-2.798771381378174,7.588118553161621,89.69950103759766,-164.86392211914062, -18.466768264770508
454,1766814031,0.3717472,0.55146503,-0.71478194,0.21628255,13.225512504577637,-0.958765983581543,10.81631851196289,96.73917388916016,-149.518310546875, -8.808348655700684
455,1766830698,0.3504169,0.5609436,-0.71776074,0.21764828,12.776299476623535,3.0426928997039795,14.368186950683594,107.10275268554688,-122.21743774414062, -0.24983671307563782
456,1766847365,0.3322658,0.566493,-0.722795,0.215067,4.5602498054504395,3.3619542121887207,10.220817565917969,62.91960144042969,-121.40545654296875, 12.890787124633789
457,1766864032,0.312077,0.5712422,-0.7283935,0.21385522,0.8894729018211365,2.4983069896698,-1.266634464263916,75.07876586914062,-126.57334899902344, 25.321313858032227
458,1766880699,0.29361236,0.5789202,-0.7281622,0.22005406,5.382775783538818,9.291443824768066,8.330582618713379,120.31050872802734,-80.51451873779297, 1.232183575630188
459,1766897366,0.2935839,0.57805157,-0.72961825,0.21753894,-0.14647343754768372,3.9824161529541016,19.757694244384766,-16.309066772460938,-13.595165252685547, 5.480633735656738
460,1766914033,0.29713747,0.5766384,-0.7282499,0.22102171,0.054057057946920395,-1.5654104948043823,12.445906639099121,2.7513468265533447,34.386375427246094, 3.8037517070770264
461,1766930700,0.30753484,0.57318664,-0.7245152,0.22794318,-0.6833047866821289,5.466594696044922,12.632712364196777,-7.781246185302734,90.06179809570312, 1.2052336931228638
462,1766947367,0.3292699,0.5644658,-0.72099614,0.23048906,0.4185156524181366,1.190658688545227,11.869967460632324,-85.65320587158203,136.9519805908203, 1.367555856704712
463,1766964034,0.35326144,0.5548914,-0.7141296,0.23941982,1.246307611465454,-1.7639683485031128,8.676555633544922,-59.389862060546875,181.69325256347656, 3.4517881870269775
464,1766980701,0.37882504,0.5450117,-0.70343345,0.25423676,1.2599918842315674,1.266273856163025,5.218564033508301,-30.980146408081055,221.5860137939453, 1.9714436531066895
465,1766997368,0.40685052,0.5341627,-0.6899153,0.2704826,1.760347843170166,0.18818454444408417,3.2594404220581055,-30.893840789794922,247.8896484375, -4.481159687042236
466,1767014035,0.43581483,0.5223903,-0.6736422,0.28875822,3.143950939178467,-1.4804755449295044,2.4430487155914307,-22.19928550720215,269.2583923339844, -6.2918171882629395
467,1767030702,0.46474832,0.5098116,-0.65500253,0.30834088,3.2998626232147217,-1.1456995010375977,0.616691529750824,-13.794360160827637,282.5361633300781, -7.127644062042236
468,1767047369,0.49458677,0.4949744,-0.635477,0.32642677,3.616137981414795,-1.532859444618225,-1.3889296054840088,-29.083297729492188,289.0677490234375, -6.805412292480469
469,1767064036,0.52512085,0.47722432,-0.6158202,0.34244916,4.337974548339844,-1.5854548215866089,-2.2682385444641113,-50.12362289428711,292.21112060546875, -3.1723086833953857
470,1767080703,0.55568516,0.4570178,-0.5961906,0.35623989,4.059715747833252,-1.349753975868225,-4.7367682456970215,-68.63996124267578,290.86883544921875, -0.8984817266464233
471,1767097370,0.58577055,0.43463248,-0.5768149,0.36776736,3.228625774383545,-0.8460484147071838,-8.60689640045166,-85.39447021484375,286.4111022949219, 1.2691311836242676
472,1767114037,0.6141691,0.41063282,-0.5580497,0.37783414,3.5057532787323,-0.20415885746479034,-10.705683708190918,-94.22663879394531,277.3581237792969, 7.809108257293701
473,1767130704,0.63976777,0.38723487,-0.5391948,0.38731962,4.013932704925537,0.20336908102035522,-11.389199256896973,-85.80885314941406,264.224853515625, 10.025934219360352
474,1767147371,0.6622198,0.36617088,-0.52033335,0.39577526,4.089634895324707,1.3339409828186035,-12.822460174560547,-70.99138641357422,244.0756072998047, 5.189950466156006
475,1767164038,0.6808074,0.34978488,-0.5020993,0.4025534,4.062752723693848,2.2592790126800537,-15.28676986694336,-47.708621978759766,210.91421508789062, -7.058783054351807
476,1767180705,0.6951842,0.33853412,-0.48615244,0.40714937,3.200695276260376,2.0634877681732178,-16.37581443786621,-27.4633846282959,166.75048828125, -17.782861709594727
477,1767197372,0.70458037,0.3327357,-0.4744724,0.40954918,1.364441156387329,1.3473905324935913,-18.427560806274414,-9.165735244750977,109.88439178466797, -22.57405662536621
478,1767214039,0.7076694,0.33367932,-0.46940508,0.40929458,-1.02764892578125,3.0148487091064453,-20.193981170654297,10.56864070892334,32.7984619140625, -24.504756927490234
479,1767230706,0.70537156,0.3394167,-0.47329518,0.40402973,-0.7277029156684875,4.4144487380981445,-19.205629348754883,4.765758037567139,-52.56707000732422, -28.561491012573242
480,1767247373,0.6989912,0.34685653,-0.48630247,0.39320838,0.8205093741416931,2.524445056915283,-17.684743881225586,-20.98130226135254,-127.23597717285156, -28.2963924407959
481,1767264040,0.69033515,0.35582882,-0.5020797,0.3804474,5.121698379516602,0.2607756555080414,0.404845267534256,-22.253856658935547,-156.44998168945312, -29.891197204589844
482,1767280707,0.68267554,0.3625264,-0.5146068,0.37109265,7.0669169425964355,-10.678547859191895,6.742672443389893,-15.211173057556152,-123.37649536132812, -16.419456481933594
483,1767297374,0.6700118,0.37657082,-0.5229548,0.36850747,7.082483291625977,-5.89933967590332,-6.9159836769104,66.49396514892578,-123.61668395996094, -8.648334503173828
484,1767314041,0.6584246,0.39128903,-0.5330461,0.35948986,6.5673675537109375,6.695034027099609,-5.668283462524414,39.2681884765625,-145.97215270996094, -39.143714904785156
485,1767330708,0.65158314,0.39572114,-0.54853463,0.3434463,5.160289287567139,-2.7426064014434814,1.0308526754379272,-59.24441146850586,-146.38375854492188, -30.25351333618164
486,1767347375,0.6408528,0.40605217,-0.55863625,0.33519512,2.810274124145508,-1.652261734008789,-3.392979145050049,19.888206481933594,-129.7720184326172, -23.13837242126465
487,1767364042,0.6307915,0.4155511,-0.56660265,0.3292142,0.9343023896217346,1.7652037143707275,-2.6489410400390625,27.981569290161133,-109.52803039550781, -17.50275993347168
488,1767380709,0.62158865,0.4243524,-0.5721062,0.3259577,0.8246044516563416,3.376492500305176,-3.4692885875701904,38.675777435302734,-86.15966033935547, -11.904471397399902
489,1767397376,0.6160623,0.42817125,-0.5780346,0.32095754,0.8804722428321838,1.2252798080444336,-3.314500570297241,-1.1697509288787842,-67.42899322509766, -6.656118869781494
490,1767414043,0.6122728,0.4308791,-0.582859,0.3158193,0.9030003547668457,-0.859086811542511,-2.4755866527557373,-9.107206344604492,-53.8040657043457, -9.864325523376465
491,1767430710,0.6093061,0.43258446,-0.5874564,0.31066513,0.6192342042922974,0.02846495807170868,-1.5416125059127808,-15.337777137756348,-47.449771881103516, -8.3897066116333
492,1767447377,0.6070044,0.4322896,-0.5935895,0.3038484,0.7549734115600586,0.2541661560535431,-1.05455482006073,-35.68380355834961,-51.92576217651367, -4.108782768249512
493,1767464044,0.6043473,0.43126616,-0.60083735,0.29625914,0.35798558592796326,-0.192608043551445,-0.5517213940620422,-43.13832092285156,-58.87412643432617, -0.26889997720718384
494,1767480711,0.6000043,0.43198547,-0.60778,0.28980726,0.008403556421399117,-0.20215341448783875,-0.4484059810638428,-25.562782287597656,-64.8282470703125, -0.19667048752307892
495,1767497378,0.5956377,0.4322144,-0.61534935,0.2824053,0.2709015905857086,0.12285184115171432,-0.32306382060050964,-32.7203254699707,-69.43782043457031, -0.14367741346359253
496,1767514045,0.5913722,0.43270957,-0.6223547,0.27516758,0.9162935018539429,-1.1501072645187378,-0.6994467973709106,-30.12444305419922,-66.80912780761719, -2.447749376296997
497,1767530712,0.58593243,0.43527672,-0.62765557,0.2706791,1.6190987825393677,-1.0465141534805298,-0.2854771614074707,-3.209927797317505,-60.710533142089844, -3.013604164123535
498,1767547379,0.57985437,0.43860152,-0.6324216,0.2672858,1.2619655132293701,0.16670776903629303,0.12923173606395721,7.4841694831848145,-59.523441314697266, -2.323267698287964
499,1767564046,0.5729862,0.4423014,-0.6374627,0.264005,1.671840786933899,0.06779111921787262,1.1409322023391724,11.360909461975098,-64.49298095703125, -1.227789044380188
500,1767580713,0.5646163,0.44697157,-0.64278644,0.26124996,1.4496244192123413,0.7131392359733582,1.716865062713623,21.561864852905273,-72.470703125, 0.16480183601379395
501,1767597380,0.5554883,0.45146388,-0.64908934,0.25748262,1.6337354183197021,0.7544457316398621,1.8169277906417847,16.99495506286621,-82.54474639892578, 1.401043176651001
502,1767614047,0.5451383,0.4567095,-0.65563047,0.25375286,2.0533230304718018,-0.32263708114624023,1.4799811840057373,23.438688278198242,-90.25688934326172, 1.0946882963180542
503,1767630714,0.5336026,0.4628537,-0.6622111,0.25002468,1.8405191898345947,0.5437755584716797,1.5437113046646118,30.486310958862305,-97.43111419677734, -0.7844433188438416
504,1767647381,0.5211054,0.4693896,-0.66924286,0.2454338,1.9494361877441406,0.4473738670349121,1.2340883016586304,30.300498962402344,-106.99761962890625, -2.642641544342041
505,1767664048,0.50735885,0.47664812,-0.67628187,0.24090974,1.9356809854507446,0.25041982531547546,1.5447731018066406,37.23640060424805,-113.87952423095703, -3.599792003631592
506,1767680715,0.4927493,0.48402765,-0.6835898,0.23584186,2.10966157913208,0.6554498076438904,1.386030912399292,37.5303840637207,-120.92223358154297, -3.757185935974121
507,1767697382,0.47687477,0.49205175,-0.6908599,0.23062813,2.6567203998565674,0.7127346992492676,1.7392224073410034,43.319950103759766,-128.37417602539062, -5.352004528045654
508,1767714049,0.45900592,0.501605,-0.69780785,0.22532503,3.0501492023468018,-0.5047866106033325,3.6641581058502197,55.1905632019043,-139.6399688720703, -10.83466625213623
509,1767730716,0.43888178,0.5124133,-0.7047535,0.2194061,3.7767107486724854,-2.8718104362487793,4.23524808883667,63.995731353759766,-154.70529174804688, -15.34892749786377
510,1767747383,0.4174431,0.5234163,-0.7117542,0.2125649,4.717819690704346,-4.624024868011475,3.9524168968200684,64.64337158203125,-164.9911346435547, -16.994951248168945
511,1767764050,0.3943297,0.53502977,-0.71798,0.20676798,6.648534774780273,-5.876672744750977,3.9769747257232666,78.61156463623047,-168.3096923828125, -17.46023178100586
512,1767780717,0.36850536,0.54770887,-0.7231791,0.20305707,9.711336135864258,-3.0541205406188965,8.762514114379883,103.14825439453125,-173.0032501220703, -17.142471313476562
513,1767797384,0.34256384,0.5590627,-0.7282495,0.19938119,13.877832412719727,1.1253823041915894,13.469844818115234,100.5621566772461,-171.71446228027344, -10.851237297058105
514,1767814051,0.31883252,0.5676917,-0.733272,0.19592106,16.897268295288086,3.6578831672668457,16.333133697509766,86.86370086669922,-156.59815979003906, 0.12973658740520477
515,1767830718,0.29992598,0.5727214,-0.738375,0.19193228,12.2929048538208,4.170587062835693,13.177660942077637,57.49104309082031,-130.40037536621094, 11.028166770935059
516,1767847385,0.27996963,0.57611144,-0.7441679,0.1895466,4.71451997756958,2.613318681716919,5.639323711395264,65.58528137207031,-129.20016479492188, 26.87944221496582
517,1767864052,0.26006424,0.58107036,-0.7470749,0.19132218,4.427338600158691,5.846944332122803,-2.838677167892456,93.5071029663086,-109.08294677734375, 15.477384567260742
518,1767880719,0.24874088,0.58594483,-0.7459243,0.19594544,3.919271945953369,9.270086288452148,13.481621742248535,79.15608215332031,-46.19575500488281, -6.317251682281494
519,1767897386,0.24818188,0.58610034,-0.7453867,0.19822183,-1.0553981065750122,-0.6409581303596497,12.749273300170898,15.079367637634277,4.597925186157227, 2.051854372024536
520,1767914053,0.24794811,0.58721584,-0.74133515,0.21005361,-0.9820701479911804,0.5475592613220215,8.786608695983887,69.13516235351562,49.35901641845703, -1.1555845737457275
521,1767930720,0.25473315,0.5864654,-0.7361042,0.22208354,-1.4122065305709839,5.255457878112793,8.590774536132812,40.32490539550781,90.62212371826172, -6.1592230796813965
522,1767947387,0.2703892,0.5826123,-0.7310552,0.23024358,-0.8797112703323364,2.8965039253234863,7.629581928253174,-20.655078887939453,124.32221984863281, -9.930130004882812
523,1767964054,0.2900934,0.5772384,-0.7244889,0.2403302,0.13895921409130096,-0.39671197533607483,6.987847328186035,-27.584903717041016,157.6033935546875, -11.152792930603027
524,1767980721,0.30998144,0.5727078,-0.714496,0.2557612,-0.5936741232872009,0.7158102989196777,6.209783554077148,5.614406585693359,185.14630126953125, -18.61891746520996
525,1767997388,0.3328438,0.5673727,-0.70299137,0.27038363,0.1800619661808014,1.881829023361206,4.938389778137207,-9.139840126037598,201.2138671875, -27.55660629272461
526,1768014055,0.35899583,0.5599331,-0.69085693,0.28339893,0.8931124210357666,-0.5739919543266296,3.107652425765991,-33.37853240966797,216.204345703125, -29.605005264282227
527,1768030722,0.38569263,0.5518929,-0.67656314,0.2981928,0.9072679281234741,-1.2989356517791748,2.1556599140167236,-24.333906173706055,232.17430114746094, -31.772598266601562
528,1768047389,0.41348985,0.54283035,-0.66042435,0.31337205,0.6218385100364685,-0.9542600512504578,1.492974042892456,-25.681169509887695,245.8019561767578, -35.30609130859375
529,1768064056,0.44225407,0.53203577,-0.64280206,0.32887048,0.6518738269805908,-2.1501078605651855,0.6114086508750916,-29.599233627319336,259.41082763671875, -34.195491790771484
530,1768080723,0.47169593,0.51936686,-0.62335676,0.34523684,0.834598183631897,-2.4272289276123047,-0.1718611866235733,-29.856061935424805,275.46405029296875, -31.551420211791992
531,1768097390,0.5018776,0.50466084,-0.6017344,0.3624266,1.086844801902771,-2.9859869480133057,-2.2212915420532227,-30.44118309020996,293.59576416015625, -29.76581382751465
532,1768114057,0.53291494,0.48715717,-0.5786104,0.37932894,1.6040630340576172,-2.7993454933166504,-4.69738245010376,-40.544612884521484,308.4761962890625, -26.62972640991211
533,1768130724,0.5646931,0.46613154,-0.554605,0.39529437,3.5551464557647705,-2.230987071990967,-6.846891403198242,-57.391109466552734,320.95745849609375, -21.040117263793945
534,1768147391,0.5965958,0.44131264,-0.53064346,0.4095548,6.170977592468262,0.2689323425292969,-8.661873817443848,-79.17322540283203,326.419921875, -13.490128517150879
535,1768164058,0.62851256,0.4119588,-0.50940835,0.41924492,8.37830924987793,2.946840286254883,-10.668853759765625,-122.21377563476562,314.5487365722656, -7.4957756996154785
536,1768180725,0.6581706,0.38170654,-0.49169487,0.42349616,8.699906349182129,1.96104097366333,-15.572115898132324,-148.95355224609375,279.0138244628906, -11.336762428283691
537,1768197392,0.68067,0.36029422,-0.47527486,0.42543054,5.571937561035156,0.3962734341621399,-21.211376190185547,-101.8022689819336,217.69113159179688, -27.45221710205078
538,1768214059,0.6930934,0.350872,-0.46347222,0.4262686,-1.0280094146728516,-0.5301439762115479,-26.663576126098633,-37.87784957885742,126.08384704589844, -30.851640701293945
539,1768230726,0.6936101,0.35325095,-0.46335983,0.42357728,-3.5678908824920654,-0.250675231218338,-29.387615203857422,1.482946515083313,-9.846131324768066, -22.188364028930664
540,1768247393,0.68267953,0.36530957,-0.47638902,0.4165959,1.5538592338562012,0.471496045589447,-23.986907958984375,23.399749755859375,-146.7550506591797, -8.233051300048828
541,1768264060,0.66994053,0.378443,-0.49256146,0.40662605,9.206001281738281,4.2370147705078125,11.107993125915527,14.094078063964844,-177.32005310058594, -12.700545310974121
542,1768280727,0.660668,0.3869349,-0.5089348,0.3934283,8.281332969665527,-2.705995559692383,1.9036682844161987,-27.791461944580078,-162.30712890625, -20.902374267578125
543,1768297394,0.6478414,0.39953408,-0.5239443,0.38230565,7.484848976135254,-1.4116992950439453,-7.631495475769043,11.298973083496094,-174.23326110839844, -19.953325271606445
544,1768314061,0.6359732,0.41245523,-0.5378059,0.36903194,6.1989569664001465,1.5318708419799805,-6.125601291656494,5.330989837646484,-172.22012329101562, -36.42520523071289
545,1768330728,0.6240519,0.42456523,-0.55013925,0.35728338,4.9913153648376465,-3.3703818321228027,-4.225419998168945,11.40514850616455,-159.21995544433594, -30.918983459472656
546,1768347395,0.6122482,0.436115,-0.5599481,0.3484469,3.8315999507904053,-0.44635018706321716,-3.7103517055511475,25.85456085205078,-138.01449584960938, -24.077880859375
547,1768364062,0.60171115,0.4464358,-0.56658405,0.34296128,1.488471508026123,0.7263797521591187,-5.649964809417725,37.35857391357422,-106.7676773071289, -17.820039749145508
548,1768380729,0.59448653,0.45317733,-0.57131684,0.33884266,0.20924949645996094,1.5164406299591064,-6.044764995574951,22.16656494140625,-73.27365112304688, -11.860902786254883
549,1768397396,0.5900027,0.45725653,-0.5744822,0.33583406,0.43209633231163025,2.142876386642456,-4.58437442779541,10.731622695922852,-46.34957504272461, -8.088146209716797
550,1768414063,0.58707523,0.45969257,-0.5766938,0.33384252,0.6588983535766602,1.263582468032837,-2.2621841430664062,5.382378578186035,-29.305234909057617, -3.998013734817505
551,1768430730,0.5841424,0.4611595,-0.57943535,0.3322127,0.6020787954330444,1.0355360507965088,-0.916915237903595,1.7129181623458862,-28.137561798095703, 3.0304133892059326
552,1768447397,0.58083767,0.46189815,-0.5834573,0.3299338,-0.051084939390420914,1.167881965637207,-0.37691742181777954,-5.523187160491943,-35.236812591552734, 8.269604682922363
553,1768464064,0.57794106,0.46165732,-0.5887083,0.3260068,-0.7772393822669983,-0.11976004391908646,-1.0431480407714844,-20.106416702270508,-41.612606048583984, 8.643359184265137
554,1768480731,0.5741186,0.4627905,-0.5935264,0.32239738,-0.7005206942558289,-1.2568817138671875,-1.983808994293213,-9.434395790100098,-45.774539947509766, 5.058451175689697
555,1768497398,0.5700866,0.46417055,-0.5984255,0.3184885,-0.4531428813934326,-0.20712526142597198,-0.6003203392028809,-9.191542625427246,-48.47821807861328, 3.5667083263397217
556,1768514065,0.5661491,0.46531147,-0.6036269,0.31400007,-0.01564745604991913,-0.3418631851673126,-0.6500514149665833,-13.461018562316895,-50.67367172241211, 3.0445470809936523
557,1768530732,0.56193227,0.4666141,-0.60857445,0.31006688,0.572166383266449,-0.3188120722770691,-0.1105421930551529,-9.069820404052734,-49.48636245727539, 4.325440883636475
558,1768547399,0.5571165,0.46879312,-0.6127841,0.30716598,1.1699155569076538,-0.5716501474380493,0.22020414471626282,2.141360282897949,-47.78556442260742, 3.550902843475342
559,1768564066,0.5517825,0.47120214,-0.6170002,0.30465773,1.1843502521514893,-0.09890315681695938,0.47136983275413513,6.350320816040039,-49.30974578857422, 5.179848670959473
560,1768580733,0.54619217,0.47318426,-0.62186617,0.3017519,0.9774426221847534,0.22203759849071503,0.6653070449829102,2.5294783115386963,-53.35710525512695, 8.118661880493164
561,1768597400,0.53935826,0.47603738,-0.62695915,0.29900584,0.4514709711074829,0.1816728562116623,1.2738786935806274,10.082545280456543,-60.91468811035156, 8.3155517578125
562,1768614067,0.5307896,0.48002568,-0.632617,0.29603127,0.27430403232574463,0.7742693424224854,2.3640494346618652,17.84540367126465,-73.68090057373047, 7.990499973297119
563,1768630734,0.52058774,0.4848682,-0.6393478,0.2917649,0.7613492012023926,0.7805906534194946,2.232975482940674,18.582778930664062,-90.84420013427734, 6.444204330444336
564,1768647401,0.5089167,0.4903277,-0.6469335,0.28646266,1.5959323644638062,0.3591617941856384,2.1256446838378906,19.448476791381836,-105.18862915039062, 5.837594509124756
565,1768664068,0.49551812,0.49659133,-0.65496707,0.28085276,1.9786639213562012,0.47916749119758606,2.0836377143859863,25.859968185424805,-117.1959228515625, 6.096229076385498
566,1768680735,0.4802329,0.50434536,-0.66281354,0.27512053,2.0858969688415527,0.4867917597293854,1.2815923690795898,37.214786529541016,-128.48365783691406, 1.9709895849227905
567,1768697402,0.46266842,0.51326054,-0.67100215,0.26880994,3.1017403602600098,-0.3186526596546173,3.1709213256835938,45.689353942871094,-144.3102264404297, 0.26450446248054504
568,1768714069,0.443515,0.5225304,-0.6798963,0.26076528,3.892500400543213,-0.2600337862968445,4.180060863494873,43.13806915283203,-160.8360595703125, -1.4901131391525269
569,1768730736,0.42340204,0.5314755,-0.6897348,0.25006315,4.469541072845459,-0.8584306836128235,4.632628917694092,31.49808692932129,-177.38180541992188, -2.986987352371216
570,1768747403,0.4016671,0.54145944,-0.69900763,0.23848405,4.940487384796143,-1.6849626302719116,4.201378345489502,37.27285385131836,-188.6491241455078, -9.783280372619629
571,1768764070,0.3774758,0.5537426,-0.70616716,0.22849528,6.491297245025635,-1.641096591949463,5.381433486938477,63.870201110839844,-192.6912841796875, -20.340017318725586
572,1768780737,0.34994107,0.56849396,-0.71046126,0.22271429,8.111551284790039,-2.589383125305176,6.790083408355713,107.93497467041016,-189.62924194335938, -27.11125946044922
573,1768797404,0.32195467,0.5839101,-0.7118294,0.22066769,8.259960174560547,0.05024275183677673,9.061683654785156,134.00466918945312,-171.5595703125, -32.18011474609375
574,1768814071,0.29603192,0.59643155,-0.7130958,0.21938553,10.224071502685547,-0.17219610512256622,8.14211368560791,123.2369384765625,-154.16049194335938, -19.83563804626465
575,1768830738,0.27071214,0.60580575,-0.71539325,0.2189249,9.016244888305664,3.472504138946533,9.661843299865723,116.85028839111328,-145.5843505859375, 0.6171945929527283
576,1768847405,0.24862874,0.61067444,-0.72057486,0.21455443,6.103697299957275,5.269822597503662,7.219912052154541,71.49605560302734,-144.92166137695312, 22.755504608154297
577,1768864072,0.229944,0.6122504,-0.72713596,0.20868574,2.8090171813964844,3.6115407943725586,3.07316255569458,42.250694274902344,-132.1180419921875, 37.41627883911133
578,1768880739,0.21674953,0.6130483,-0.72995085,0.21062824,4.255383014678955,7.897705078125,14.233433723449707,62.40073776245117,-64.80763244628906, 30.095821380615234
579,1768897406,0.21511282,0.6082579,-0.7336565,0.2133023,0.8631818294525146,-0.845000684261322,16.972719192504883,7.891866207122803,2.731698989868164, 46.40754699707031
580,1768914073,0.21511364,0.6039719,-0.73317343,0.22672017,-1.0590195655822754,2.5569114685058594,14.255630493164062,62.04826736450195,61.12668228149414, 39.83063507080078
581,1768930740,0.22781996,0.59637946,-0.7325923,0.23609167,-1.5146064758300781,8.424894332885742,12.402933120727539,-15.85507869720459,113.52661895751953, 30.356304168701172
582,1768947407,0.25222477,0.5847431,-0.73260075,0.24032359,0.005830049514770508,4.484222888946533,10.074942588806152,-96.89363861083984,156.9105987548828, 26.213300704956055
583,1768964074,0.2799482,0.572704,-0.7291715,0.24889569,0.5712777376174927,3.3487913608551025,8.324786186218262,-83.36962890625,197.59457397460938, 16.479585647583008
584,1768980741,0.31016573,0.56084776,-0.7217896,0.26128128,1.724962592124939,4.449154853820801,5.738361835479736,-66.95023345947266,232.32498168945312, 3.080427646636963
585,1768997408,0.34245327,0.5488951,-0.71082664,0.27598274,2.609583854675293,2.6439292430877686,3.0930066108703613,-57.18398666381836,259.281982421875, -8.974207878112793
586,1769014075,0.37434942,0.5381087,-0.69543624,0.2943996,3.1622366905212402,1.6987745761871338,1.6020195484161377,-26.39596939086914,279.5931091308594, -21.858203887939453
587,1769030742,0.40596476,0.5282122,-0.67634434,0.31423566,3.1746726036071777,1.4840672016143799,-0.14565511047840118,-8.801250457763672,291.2496032714844, -35.55119705200195
588,1769047409,0.4357717,0.5194178,-0.6544887,0.33459496,2.7279694080352783,-0.6210139393806458,-1.6420578956604004,9.235976219177246,290.1429443359375, -45.30134963989258
589,1769064076,0.46471792,0.50995106,-0.63174576,0.3533916,3.4428319931030273,-0.8990793824195862,-1.1637349128723145,5.2637763023376465,285.0157165527344, -48.15476989746094
590,1769080743,0.4940345,0.49668545,-0.6107047,0.3691536,3.768033742904663,-1.9402581453323364,-2.116910696029663,-25.538955688476562,279.87457275390625, -36.313785552978516
591,1769097410,0.52374846,0.47983682,-0.59119165,0.3820178,3.372788667678833,-1.2649847269058228,-4.290992736816406,-55.16870880126953,275.67767333984375, -26.992246627807617
592,1769114077,0.5531646,0.4607875,-0.57198477,0.39308867,3.368809223175049,-2.3498213291168213,-6.4249162673950195,-70.25516510009766,273.428466796875, -22.798303604125977
593,1769130744,0.5811151,0.44079635,-0.5522531,0.40375912,3.894613742828369,-3.306152582168579,-7.746006011962891,-69.39686584472656,271.20849609375, -18.438587188720703
594,1769147411,0.60753053,0.41876203,-0.5338873,0.41292897,4.406652927398682,-1.5465028285980225,-8.467126846313477,-82.43560028076172,261.3574523925781, -8.41934585571289
595,1769164078,0.63293236,0.3945098,-0.51836646,0.41839686,4.941136360168457,-0.35898804664611816,-9.918717384338379,-110.48328399658203,241.71974182128906, -4.766211986541748
596,1769180745,0.65538895,0.37241942,-0.50380236,0.42184538,4.5273613929748535,-2.208221912384033,-11.486677169799805,-103.06177520751953,215.72994995117188, -10.246225357055664
597,1769197412,0.67314535,0.35595208,-0.48988256,0.42448762,3.0462658405303955,-2.225282907485962,-15.160575866699219,-70.35741424560547,178.58111572265625, -18.16282081604004
598,1769214079,0.6839174,0.34659782,-0.48008546,0.42619935,0.40935268998146057,-0.854610025882721,-18.891847610473633,-35.52157211303711,113.44487762451172, -16.02140235900879
599,1769230746,0.6860756,0.3460119,-0.4774271,0.42619306,-1.6063076257705688,1.0312339067459106,-21.525741577148438,-0.39460289478302,22.245145797729492, -10.810169219970703
600,1769247413,0.6808333,0.352411,-0.48408172,0.42182758,-1.4998208284378052,3.6925032138824463,-21.254352569580078,8.489540100097656,-76.18521118164062, -10.42918586730957
601,1769264080,0.6714765,0.36145708,-0.4991484,0.411485,2.3290157318115234,4.739223480224609,-17.46815299987793,-13.54415512084961,-150.82330322265625, -14.793875694274902
602,1769280747,0.6606473,0.37125677,-0.5179855,0.3967439,3.9042835235595703,4.394288539886475,-8.074986457824707,-32.263065338134766,-185.85719299316406, -24.000722885131836
603,1769297414,0.6554942,0.37539467,-0.5344539,0.3791649,4.857909202575684,1.2786213159561157,11.354947090148926,-76.17021942138672,-146.48031616210938, -38.09393310546875
604,1769314081,0.64594585,0.38357925,-0.5457256,0.3712216,6.19080924987793,-11.711901664733887,-5.872580528259277,2.414855480194092,-125.31536865234375, -11.444099426269531
605,1769330748,0.6313091,0.40083623,-0.55153215,0.36958426,8.000816345214844,-1.299971103668213,-7.32972526550293,93.77884674072266,-126.52146911621094, -19.296655654907227
606,1769347415,0.62040246,0.41402534,-0.56165487,0.35809058,6.5734100341796875,6.6141791343688965,-4.980570316314697,17.456735610961914,-147.7613525390625, -44.32448196411133
607,1769364082,0.61269665,0.41923487,-0.57626116,0.3417149,5.766262531280518,-6.097130298614502,-0.012299671769142151,-55.635807037353516,-148.69859313964844, -29.248226165771484
608,1769380749,0.600111,0.43111077,-0.58487475,0.3345637,3.294853448867798,-1.2711646556854248,-2.796400308609009,37.14282989501953,-131.94589233398438, -22.79293441772461
609,1769397416,0.58889574,0.44124165,-0.59183663,0.32899532,0.028569739311933517,2.296708106994629,-3.2342348098754883,36.02998352050781,-110.91313934326172, -17.351444244384766
610,1769414083,0.5790441,0.449208,-0.5976025,0.32525748,0.9745520353317261,2.8934991359710693,-2.735114574432373,33.27218246459961,-90.05514526367188, -7.785182952880859
611,1769430750,0.57187706,0.45418242,-0.6027509,0.3215082,0.26583439111709595,0.15449383854866028,-4.398705959320068,14.405999183654785,-69.91262817382812, -3.3723056316375732
612,1769447417,0.56620044,0.45840043,-0.6062668,0.31894785,0.5215978622436523,-0.2422652542591095,-3.135213613510132,15.302740097045898,-51.87894058227539, -3.9549238681793213
613,1769464084,0.56149834,0.46168157,-0.6093919,0.3165631,0.11362488567829132,0.14691998064517975,-2.3175182342529297,10.16817855834961,-43.67819595336914, -2.7468533515930176
614,1769480751,0.5575976,0.46344995,-0.61370355,0.31251886,-0.5395888686180115,1.7743695974349976,-0.740912675857544,-7.750003337860107,-46.89092254638672, -0.7852915525436401
615,1769497418,0.5537012,0.46457648,-0.61900115,0.3072823,-0.8646405339241028,0.9189288020133972,-0.5407242774963379,-17.356369018554688,-53.1335563659668, 0.5515435338020325
616,1769514085,0.54834956,0.4669034,-0.624303,0.3025902,-0.9653872847557068,0.3085517883300781,-0.14134353399276733,-5.813133239746094,-60.202552795410156, 0.6439307928085327
617,1769530752,0.54225856,0.4698012,-0.6297862,0.2976793,-1.2062093019485474,0.051051169633865356,-0.5085347890853882,-2.5889973640441895,-66.02017211914062, -0.49329543113708496
618,1769547419,0.5360559,0.4725314,-0.63588184,0.291571,-0.40298154950141907,-0.938068687915802,-0.8967533707618713,-9.282100677490234,-72.3651123046875, -2.0136828422546387
619,1769564086,0.52946806,0.47604954,-0.6413376,0.28588015,0.4879409074783325,-1.4813421964645386,-0.39230403304100037,-2.0167300701141357,-71.95816040039062, -5.247408866882324
620,1769580753,0.5227469,0.47991857,-0.6464202,0.28027824,1.0656280517578125,-0.9089971780776978,0.41708433628082275,0.8189874291419983,-71.6504135131836, -7.472411632537842
621,1769597420,0.5154296,0.48452657,-0.6508582,0.27559173,1.2929457426071167,-0.7789781093597412,0.2979697585105896,10.756511688232422,-70.4801254272461, -8.47574234008789
622,1769614087,0.5067839,0.49003446,-0.65509427,0.27182505,1.2300269603729248,0.3477367162704468,0.9486827254295349,22.870912551879883,-74.4386978149414, -7.429957389831543
623,1769630754,0.4972459,0.49567437,-0.6596558,0.26815802,1.3672442436218262,0.3237242102622986,1.509249210357666,26.19307518005371,-79.60797119140625, -4.914648532867432
624,1769647421,0.4873222,0.50095606,-0.6648787,0.2636235,1.4270886182785034,0.9337942004203796,1.7705835103988647,21.149919509887695,-86.03507995605469, -3.29329514503479
625,1769664088,0.47683546,0.5059242,-0.6709175,0.2579526,1.4839824438095093,0.45565253496170044,1.2835884094238281,15.391816139221191,-94.81396484375, -1.818074107170105
626,1769680755,0.46483514,0.5117155,-0.67718166,0.25199497,1.852784514427185,0.17183665931224823,0.7890129089355469,21.65259552001953,-105.09947967529297, -3.0820372104644775
627,1769697422,0.45082963,0.51847047,-0.6836508,0.2460967,2.1992671489715576,-0.36258387565612793,2.1821277141571045,31.724071502685547,-116.64684295654297, -3.1928389072418213
628,1769714089,0.4350238,0.5260908,-0.6902236,0.23994854,2.396113872528076,0.1921679526567459,2.8637659549713135,39.486209869384766,-127.92545318603516, -4.643209934234619
629,1769730756,0.4172499,0.53455883,-0.69696677,0.23321216,3.1691718101501465,-0.11780983954668045,3.6057941913604736,46.09053421020508,-141.46218872070312, -6.572373390197754
630,1769747423,0.39711788,0.5443941,-0.7033667,0.2262934,3.6757314205169678,-0.6271116733551025,3.4418785572052,58.37663650512695,-154.83187866210938, -11.149686813354492
631,1769764090,0.3741093,0.5553169,-0.70976186,0.21887092,4.4419708251953125,-0.8370020985603333,5.874212741851807,69.69510650634766,-172.50411987304688, -13.360901832580566
632,1769780757,0.34846646,0.5671592,-0.7158938,0.21070985,6.545745372772217,-0.616206169128418,7.848726272583008,78.92261505126953,-189.15953063964844, -16.82387924194336
633,1769797424,0.32223576,0.57820517,-0.72190285,0.20174302,10.115999221801758,-0.4534856975078583,9.218465805053711,75.53852844238281,-194.10296630859375, -14.488103866577148
634,1769814091,0.2958709,0.5880767,-0.72743523,0.19355933,12.9728364944458,0.3733784854412079,8.785626411437988,78.04448699951172,-189.4279327392578, -8.653240203857422
635,1769830758,0.2697705,0.5978931,-0.73030573,0.19079433,13.9678316116333,2.1214406490325928,13.093741416931152,107.55120849609375,-161.20468139648438, -8.461932182312012
636,1769847425,0.2465985,0.60508895,-0.73266965,0.19040197,9.84620475769043,2.1770315170288086,13.730586051940918,103.31599426269531,-132.97096252441406, 3.2423219680786133
637,1769864092,0.2231061,0.60888594,-0.7370096,0.1905252,3.834588050842285,0.7115426063537598,6.803267955780029,98.96532440185547,-131.82525634765625, 29.968721389770508
638,1769880759,0.20129468,0.61277926,-0.7399842,0.19080539,0.28339922428131104,6.979237079620361,-1.5278996229171753,94.66425323486328,-120.83656311035156, 21.8714656829834
639,1769897426,0.19404933,0.6146048,-0.7410376,0.1883349,5.393990516662598,9.617919921875,15.950662612915039,19.122812271118164,-52.833885192871094, 1.529882550239563
640,1769914093,0.19945037,0.6114912,-0.7434214,0.1833679,-0.30506962537765503,-3.382951259613037,16.059213638305664,-55.121009826660156,5.304661273956299, 12.749883651733398
641,1769930760,0.20234649,0.6103776,-0.7416848,0.19078758,-0.9108643531799316,-0.31805750727653503,11.02424144744873,26.53505516052246,47.53217315673828, 5.265354156494141
642,1769947427,0.21208516,0.6082368,-0.7382844,0.20001256,-1.1270335912704468,4.658956527709961,10.792867660522461,7.744286060333252,93.60126495361328, -2.9434008598327637
643,1769964094,0.22879584,0.60420364,-0.734162,0.20880084,-0.16839401423931122,0.1601552963256836,8.880057334899902,-25.30781364440918,130.76022338867188, -6.50715970993042
644,1769980761,0.24597718,0.60003316,-0.72731334,0.22465912,-0.00819385051727295,-1.2501314878463745,7.851924896240234,12.09735107421875,166.94032287597656, -6.69352912902832
645,1769997428,0.26491618,0.5951452,-0.7183223,0.24420425,-0.08663808554410934,0.5272724032402039,6.641408443450928,25.32034683227539,195.63414001464844, -8.428377151489258
646,1770014095,0.28701055,0.5888399,-0.7081556,0.26345608,0.38597172498703003,0.31705334782600403,5.27432107925415,10.33687686920166,214.5163116455078, -12.043364524841309
647,1770030762,0.31210494,0.58074194,-0.69694257,0.2821374,1.051639199256897,-0.7596648931503296,4.085592269897461,-6.25338077545166,232.11329650878906, -14.09721565246582
648,1770047429,0.33910257,0.57128155,-0.68383825,0.3016838,0.8460808992385864,-0.5351930260658264,2.701087474822998,-9.005613327026367,251.386474609375, -16.975011825561523
649,1770064096,0.36830235,0.56014407,-0.6688169,0.3213672,0.7459292411804199,0.15196441113948822,1.4454344511032104,-16.974851608276367,270.26226806640625, -20.891399383544922
650,1770080763,0.39885578,0.5475327,-0.6512998,0.34195286,1.5701863765716553,-0.3227004408836365,0.2921668291091919,-16.274635314941406,289.6087341308594, -24.437585830688477
651,1770097430,0.43039867,0.53341806,-0.6313607,0.36277655,2.8317856788635254,0.7216125130653381,-0.8465083241462708,-17.379140853881836,305.19732666015625, -28.51802635192871
652,1770114097,0.4649238,0.51580906,-0.61090934,0.38023388,4.1984663009643555,1.043632984161377,-2.915729522705078,-52.01789474487305,316.12896728515625, -32.62957763671875
653,1770130764,0.50022894,0.4954442,-0.58978045,0.3955581,5.00485897064209,-0.5912473201751709,-6.03119421005249,-70.79280853271484,321.3591613769531, -32.32932662963867
654,1770147431,0.53401744,0.47348043,-0.56760013,0.41045433,6.857938289642334,0.38834238052368164,-8.330192565917969,-70.02176666259766,321.963623046875, -26.8408203125
655,1770164098,0.5664452,0.44919592,-0.5460057,0.42336938,8.541789054870605,0.625474214553833,-9.870232582092285,-83.54153442382812,314.9197998046875, -19.346607208251953
656,1770180765,0.59683025,0.42391887,-0.52730966,0.43131447,7.73329496383667,2.631455659866333,-13.947927474975586,-108.22628784179688,283.8646545410156, -20.11957359313965
657,1770197432,0.62345624,0.40014395,-0.5140973,0.43231022,5.053930282592773,0.29077327251434326,-19.59465980529785,-132.6137237548828,223.5194549560547, -26.928977966308594
658,1770214099,0.6405843,0.38572904,-0.50459516,0.4315665,0.18044283986091614,-3.9803545475006104,-25.936742782592773,-83.57398986816406,142.1162872314453, -29.054805755615234
659,1770230766,0.64504117,0.3836343,-0.503367,0.4282167,-4.555932998657227,-0.39043185114860535,-28.540491104125977,-29.3428897857666,19.12724494934082, -23.86176300048828
660,1770247433,0.6391647,0.38882774,-0.5152889,0.41804272,-2.9846723079681396,0.21306851506233215,-27.126110076904297,-32.18085861206055,-113.5028305053711, -14.24193286895752
661,1770264100,0.6261846,0.39908364,-0.5345044,0.40364727,3.7974095344543457,3.028625011444092,-15.105895042419434,-26.947587966918945,-195.7306671142578, -10.780989646911621
662,1770280767,0.61630213,0.40657744,-0.551779,0.38782397,8.519953727722168,1.0261595249176025,12.975881576538086,-47.2595329284668,-171.78671264648438, -20.578256607055664
663,1770297434,0.6036644,0.41646287,-0.56537974,0.3774849,8.203661918640137,-5.365623950958252,-4.154291152954102,1.2344942092895508,-158.23580932617188, -9.30099868774414
664,1770314101,0.5896315,0.428887,-0.57794267,0.36657068,8.159259796142578,2.290208339691162,-6.418223857879639,16.223722457885742,-167.51438903808594, -21.09966468811035
665,1770330768,0.57679987,0.43942606,-0.5923969,0.3511034,6.387399196624756,0.5416476130485535,-5.836585998535156,-17.852529525756836,-178.9570770263672, -29.455915451049805
666,1770347435,0.5631184,0.44920158,-0.6057599,0.33789283,4.952406406402588,-4.456230640411377,-1.9200032949447632,-6.507022380828857,-169.3306884765625, -18.62276268005371
667,1770364102,0.549157,0.45926768,-0.61619276,0.3283402,1.6104388236999512,0.3029542863368988,-4.149289131164551,17.507116317749023,-148.5709686279297, -14.217766761779785
668,1770380769,0.5388217,0.46585134,-0.62477136,0.31986806,-1.5190646648406982,3.6502323150634766,-7.436007022857666,1.6564319133758545,-114.89034271240234, -9.4142484664917
669,1770397436,0.53252155,0.46893713,-0.6313789,0.31285894,-0.031951356679201126,2.171461820602417,-6.795480251312256,-13.609031677246094,-77.70941925048828, -4.024561405181885
670,1770414103,0.52863884,0.47047088,-0.63571113,0.30833507,0.8793805837631226,0.3713083863258362,-4.44671106338501,-11.4042387008667,-47.407928466796875, -0.6454070210456848
671,1770430770,0.5250762,0.47146094,-0.63912505,0.30584267,1.7885454893112183,-0.7852615714073181,-2.113781213760376,-3.5894694328308105,-34.912994384765625, 5.4768195152282715
672,1770447437,0.52210563,0.4711531,-0.6434235,0.30236998,1.3095241785049438,-0.7210465669631958,-1.037287950515747,-16.356237411499023,-36.004127502441406, 9.23681926727295
673,1770464104,0.51896274,0.47079283,-0.6479488,0.29865572,0.4928675889968872,-0.3887842893600464,-1.2477458715438843,-17.515371322631836,-38.3361701965332, 9.678007125854492
674,1770480771,0.514875,0.47145614,-0.65182465,0.29624075,-0.9792072176933289,0.9478177428245544,-0.8977766036987305,-3.6699867248535156,-38.18782043457031, 9.583139419555664
675,1770497438,0.510583,0.47204888,-0.6558631,0.29380196,-1.378989577293396,1.504497766494751,-1.4351948499679565,-3.673126459121704,-39.67032241821289, 10.78979206085205
676,1770514105,0.5059466,0.47309306,-0.65967155,0.2916085,-0.7516264319419861,0.218509703874588,-1.065177083015442,0.6281105279922485,-40.565025329589844, 9.610360145568848
677,1770530772,0.50049114,0.4752747,-0.6627939,0.29039294,-0.046054162085056305,-0.3012332320213318,-0.35068991780281067,13.073983192443848,-41.04227066040039, 7.261179447174072
678,1770547439,0.49515486,0.47717008,-0.66631323,0.28837168,0.8059090375900269,-0.5901623368263245,0.24161061644554138,7.246531009674072,-44.004356384277344, 6.83135986328125
679,1770564106,0.48923826,0.47979236,-0.6696451,0.28639498,0.9310677647590637,-1.1254146099090576,0.028050318360328674,12.209376335144043,-47.422367095947266, 4.1565728187561035
680,1770580773,0.48250493,0.48299527,-0.67296237,0.28465286,0.9185591340065002,-0.38921964168548584,0.4124871492385864,17.96373748779297,-51.59666061401367, 3.784630060195923
681,1770597440,0.47516146,0.4863027,-0.67674744,0.28239223,0.4048955738544464,0.2960338890552521,1.4567251205444336,17.033287048339844,-57.99946594238281, 4.300869941711426
682,1770614107,0.4670568,0.48959336,-0.6816142,0.27849448,0.08250278979539871,0.6393503546714783,2.011922597885132,9.824075698852539,-70.64167785644531, 4.125146389007568
683,1770630774,0.4579442,0.4933466,-0.6871811,0.273275,0.9763367772102356,0.36066073179244995,2.0830483436584473,7.191370487213135,-83.08243560791016, 2.012624740600586
684,1770647441,0.44741607,0.49797517,-0.69305456,0.26742515,1.376535177230835,0.16473683714866638,2.2216756343841553,11.215654373168945,-94.66116333007812, -0.4067555069923401
685,1770664108,0.43574515,0.50327533,-0.69918233,0.26073962,1.4559519290924072,-0.8333275318145752,1.5047802925109863,12.759861946105957,-105.1333236694336, -3.2103331089019775
686,1770680775,0.42258427,0.5096376,-0.7051986,0.25374824,1.4671216011047363,-1.061752200126648,1.4712631702423096,19.827251434326172,-115.04534149169922, -6.98336935043335
687,1770697442,0.4079979,0.51649034,-0.7115942,0.24578449,2.08782696723938,-0.22821789979934692,1.6778501272201538,20.858606338500977,-127.44034576416016, -8.407838821411133
688,1770714109,0.3923768,0.52352536,-0.718183,0.23701431,2.601252794265747,0.6193886995315552,1.6589508056640625,20.777971267700195,-136.34774780273438, -9.143925666809082
689,1770730776,0.3748058,0.5319109,-0.72411776,0.22857329,3.351701259613037,0.04002866521477699,2.0136096477508545,34.15048599243164,-145.3668212890625, -14.096412658691406
690,1770747443,0.35388392,0.54171556,-0.7299415,0.22021987,4.474732875823975,0.5923389196395874,4.836429595947266,50.68407440185547,-163.83811950683594, -16.09137535095215
691,1770764110,0.32999,0.5521539,-0.7362357,0.210216,6.2666144371032715,0.4342973232269287,6.981604099273682,54.330909729003906,-187.2717742919922, -17.03860092163086
692,1770780777,0.30396172,0.563037,-0.7421145,0.1996586,8.27970027923584,-1.178658366203308,5.831353664398193,61.27469253540039,-200.23135375976562, -19.045392990112305
693,1770797444,0.27623293,0.5745215,-0.746299,0.19146599,10.296003341674805,-2.5421435832977295,6.228852272033691,83.5003433227539,-197.39682006835938, -21.43462371826172
694,1770814111,0.24704632,0.5860246,-0.7486731,0.1871706,12.862920761108398,-1.562595248222351,9.349241256713867,111.6366958618164,-186.47918701171875, -19.409976959228516
695,1770830778,0.21889569,0.5959705,-0.75007856,0.18516816,12.764619827270508,0.7286416888237,13.324519157409668,117.85053253173828,-168.79025268554688, -12.736093521118164
