PacketCounter,SampleTimeFine,Quat_W,Quat_X,Quat_Y,Quat_Z,Acc_X,Acc_Y,Acc_Z,Gyr_X,Gyr_Y,Gyr_Z 
1,1675093129,0.79054666,0.13167706,-0.5664677,0.19186325,-0.07304191589355469,-0.12352859228849411,0.13756577670574188,0.014875676482915878,0.36908745765686035, -0.2851021885871887
2,1675109796,0.7912533,0.1321612,-0.5653165,0.19201283,16.017452239990234,-0.19496387243270874,5.460205554962158,-0.23380552232265472,3.155106782913208, 0.7692197561264038
3,1675126463,0.79140097,0.13207306,-0.5649951,0.1924111,15.74901008605957,-0.05428803339600563,5.49845552444458,0.8644606471061707,3.0074880123138428, 0.8996268510818481
4,1675143130,0.7917865,0.13229519,-0.5643457,0.19257793,15.405977249145508,-0.26655229926109314,5.232093811035156,0.46625998616218567,3.0222151279449463, 0.8509371280670166
5,1675159797,0.7918666,0.13183637,-0.5642634,0.19280457,15.969573020935059,-0.18654541671276093,5.424379825592041,-0.9807487726211548,3.1154329776763916, 0.7806047201156616
6,1675176464,0.79185563,0.13164635,-0.56424785,0.19302443,15.657682418823242,-0.1889825463294983,5.372831344604492,1.9873086214065552,3.2438805103302, 0.7487168908119202
7,1675193131,0.7918416,0.13156419,-0.56414056,0.19345127,15.532666206359863,-0.1360822468996048,5.291506767272949,0.7006289958953857,3.414486885070801, 0.7681185007095337
8,1675209798,0.79187256,0.1314314,-0.5640715,0.19361581,15.91789722442627,-0.1218775138258934,5.493651390075684,0.307691752910614,3.2770869731903076, 0.7344377040863037
9,1675226465,0.7919984,0.13124982,-0.5639542,0.19356607,15.589922904968262,-0.07879309356212616,5.363236427307129,0.44022470712661743,3.213158130645752, 0.6774494647979736
10,1675243132,0.7921014,0.13125792,-0.56376225,0.19369833,15.687417030334473,-0.3766399025917053,5.2807841300964355,0.22548778355121613,3.240921974182129, 0.7896202206611633
11,1675259799,0.79215896,0.13111001,-0.5636523,0.19388266,15.588768005371094,0.006115427240729332,5.4135847091674805,0.7834732532501221,3.2809674739837646, 0.972226083278656
12,1675276466,0.79217345,0.13120125,-0.5634896,0.19423498,15.853130340576172,-0.21511749923229218,5.47913932800293,0.2595527172088623,2.7962987422943115, 1.0868046283721924
13,1675293133,0.79227495,0.13097924,-0.56340486,0.19421569,15.665449142456055,-0.13925735652446747,5.381001949310303,0.06524195522069931,2.5482265949249268, 1.1208820343017578
14,1675309800,0.79235065,0.13069323,-0.5633362,0.19429925,15.558141708374023,-0.13829787075519562,5.28311014175415,-1.6688977479934692,2.514174461364746, 1.4723012447357178
15,1675326467,0.79233605,0.130694,-0.5632113,0.19472022,16.044389724731445,-0.10187424719333649,5.511555194854736,-0.37726232409477234,2.519989013671875, 1.7491236925125122
16,1675343134,0.79242873,0.13028574,-0.5631847,0.19469288,15.43956184387207,-0.12646226584911346,5.383373260498047,-1.4225037097930908,2.4377589225769043, 2.117574691772461
17,1675359801,0.7925481,0.12964459,-0.5632104,0.19456054,15.929746627807617,-0.22477416694164276,5.386063098907471,-4.38632869720459,2.274465322494507, 2.1027708053588867
18,1675376468,0.7925709,0.12953073,-0.5630788,0.19492538,15.603719711303711,-0.22210517525672913,5.323770046234131,-1.1556577682495117,2.651010274887085, 1.987897515296936
19,1675393135,0.7926285,0.12942408,-0.5629143,0.19523588,15.726899147033691,-0.3929698169231415,5.326593399047852,-0.6045237183570862,2.9050369262695312, 1.7662194967269897
20,1675409802,0.79276305,0.12928583,-0.5627167,0.1953513,15.687894821166992,-0.28600355982780457,5.361757278442383,-0.28321242332458496,3.288766384124756, 0.8444058299064636
21,1675426469,0.7929833,0.12901495,-0.56248486,0.1953035,15.609027862548828,-0.23288831114768982,5.259616851806641,-1.221226453781128,3.8140456676483154, 0.41116708517074585
22,1675443136,0.7932183,0.12870216,-0.56225246,0.19522464,15.633440971374512,-0.3233371376991272,5.332690715789795,-2.4329123497009277,3.983281373977661, 0.09820550680160522
23,1675459803,0.79349226,0.12833084,-0.5620175,0.19503221,15.731003761291504,-0.38274165987968445,5.301422119140625,-2.199964761734009,4.098179340362549, -0.06893658638000488
24,1675476470,0.7937341,0.12793791,-0.56181353,0.19489457,15.660447120666504,-0.13042612373828888,5.428229808807373,-3.134866237640381,3.9533519744873047, -0.09607323259115219
25,1675493137,0.79405296,0.12745166,-0.56157637,0.1945968,15.821586608886719,-0.3159390389919281,5.373659610748291,-3.7472920417785645,4.325242519378662, -0.40347689390182495
26,1675509804,0.7943352,0.12698506,-0.56135976,0.19437502,15.65052604675293,-0.38661864399909973,5.251120090484619,-2.6497743129730225,4.122177600860596, 0.21441030502319336
27,1675526471,0.79449475,0.12683125,-0.5610836,0.19462089,15.439705848693848,-0.281990110874176,5.2667717933654785,-0.7001488208770752,4.058748722076416, 0.9617761373519897
28,1675543138,0.79468596,0.12665112,-0.5607739,0.19484994,15.696913719177246,-0.07786662131547928,5.521611213684082,-0.7802653312683105,4.378305912017822, 0.9498021602630615
29,1675559805,0.794854,0.12628014,-0.5605705,0.19499056,15.536951065063477,-0.2296939492225647,5.367104530334473,-2.702523708343506,3.7943484783172607, 1.330240249633789
30,1675576472,0.7950298,0.12584224,-0.56037474,0.19511956,15.554113388061523,-0.45628902316093445,5.3090596199035645,-2.7677087783813477,3.3111910820007324, 1.6654596328735352
31,1675593139,0.79519105,0.12568788,-0.5600467,0.19550325,15.559045791625977,-0.32939934730529785,5.338369846343994,0.17164990305900574,3.281479597091675, 1.8942831754684448
32,1675609806,0.7954169,0.12543751,-0.559721,0.19567785,15.550732612609863,-0.5003340244293213,5.3010053634643555,-0.96111661195755,3.2646138668060303, 1.1417180299758911
33,1675626473,0.79561377,0.12552199,-0.5592672,0.19612059,15.51293659210205,-0.4370492696762085,5.333624839782715,2.162243366241455,3.5756802558898926, 1.265081524848938
34,1675643140,0.79582614,0.12549356,-0.55885774,0.19644381,15.708109855651855,-0.40274956822395325,5.394608974456787,0.6782307624816895,3.4282023906707764, 0.9446540474891663
35,1675659807,0.79610956,0.12537529,-0.5584394,0.19656071,15.362868309020996,-0.303550124168396,5.271984577178955,0.23664215207099915,3.6661314964294434, 0.38716796040534973
36,1675676474,0.7964028,0.12526475,-0.5579985,0.19669577,15.490903854370117,-0.35504332184791565,5.271668910980225,0.145717054605484,3.834343194961548, 0.34486860036849976
37,1675693141,0.7967096,0.12510552,-0.557568,0.19677578,15.452810287475586,-0.3214227259159088,5.317831039428711,0.233030766248703,3.8353676795959473, 0.4395971894264221
38,1675709808,0.7969862,0.12501422,-0.5571246,0.19696926,15.548930168151855,-0.21254627406597137,5.407904148101807,0.7146904468536377,3.8029935359954834, 0.6951736211776733
39,1675726475,0.7972719,0.124839,-0.5567088,0.19709992,15.523909568786621,-0.3690233826637268,5.345005512237549,-0.3102082312107086,3.751716136932373, 0.5824776291847229
40,1675743142,0.79749084,0.124739856,-0.55630267,0.19742282,15.310964584350586,-0.26069316267967224,5.325303077697754,0.8067681193351746,3.5080244541168213, 1.4120731353759766
41,1675759809,0.79772395,0.124424815,-0.55600935,0.19750579,15.389686584472656,-0.08166931569576263,5.348287582397461,-0.8721764087677002,3.017425537109375, 1.2214632034301758
42,1675776476,0.7978973,0.1241462,-0.55576396,0.19767228,15.59283447265625,-0.2529655396938324,5.478794097900391,-0.6893914341926575,2.556243658065796, 1.5459377765655518
43,1675793143,0.798095,0.12373153,-0.5555497,0.19773637,15.302567481994629,-0.4830630421638489,5.236621379852295,-1.6607660055160522,2.570817232131958, 1.5834349393844604
44,1675809810,0.7982465,0.12334691,-0.5553436,0.19794309,15.449640274047852,-0.16409045457839966,5.391714096069336,-1.2961562871932983,2.4413704872131348, 2.175689935684204
45,1675826477,0.7984206,0.123124875,-0.5550768,0.19812831,15.478472709655762,-0.47744786739349365,5.3017754554748535,0.04676239192485809,2.609825611114502, 1.5358338356018066
46,1675843144,0.7985785,0.122860864,-0.5548187,0.19837834,15.511672973632812,-0.45597928762435913,5.361960411071777,-0.4525764584541321,2.62766432762146, 1.8812847137451172
47,1675859811,0.798768,0.1226059,-0.5545781,0.19844556,15.271533012390137,-0.3441731035709381,5.2505950927734375,-0.6198145151138306,2.472445249557495, 1.0148391723632812
48,1675876478,0.79898083,0.12237882,-0.55427843,0.1985668,15.627522468566895,-0.685810923576355,5.2520036697387695,-0.4983975291252136,2.9033854007720947, 1.0110422372817993
49,1675893145,0.7991989,0.12230631,-0.55390275,0.19878148,15.335423469543457,-0.29550987482070923,5.351531028747559,0.6355854868888855,3.2168331146240234, 0.7935134172439575
50,1675909812,0.79947734,0.12201804,-0.5535678,0.1987716,15.432676315307617,-0.4140625,5.251551151275635,-1.323024034500122,3.322434425354004, 0.4091948866844177
51,1675926479,0.7997016,0.12195767,-0.5531955,0.19894308,15.466633796691895,-0.35303056240081787,5.3362135887146,0.7170083522796631,3.1650571823120117, 0.5820165276527405
52,1675943146,0.7999442,0.121728405,-0.55287087,0.19901112,15.423151969909668,-0.3240957260131836,5.343929290771484,-0.43395599722862244,3.1115782260894775, 0.7689381241798401
53,1675959813,0.800176,0.12146477,-0.5525719,0.19907065,15.472735404968262,-0.3160357177257538,5.343442916870117,-0.9187146425247192,2.976611852645874, 0.7991225719451904
54,1675976480,0.8003617,0.12135101,-0.5522496,0.19928834,15.155327796936035,-0.3694305121898651,5.184135913848877,0.31841713190078735,2.864870548248291, 1.045011043548584
55,1675993147,0.8005648,0.12113979,-0.55196124,0.19939941,15.41735553741455,-0.42351508140563965,5.2909650802612305,-0.49189186096191406,2.7865781784057617, 0.9071056842803955
56,1676009814,0.80067736,0.12133372,-0.5516149,0.19978763,15.535061836242676,-0.4746883511543274,5.400568962097168,3.0573177337646484,2.4364914894104004, 1.0136675834655762
57,1676026481,0.80087125,0.121203326,-0.5513432,0.19983956,15.212738990783691,-0.36721575260162354,5.25061559677124,0.04011588916182518,2.493530750274658, 0.42499789595603943
58,1676043148,0.80103016,0.12111193,-0.5510877,0.19996233,15.449331283569336,-0.511387825012207,5.248396873474121,0.09998557716608047,2.291088104248047, 0.5617440938949585
59,1676059815,0.80121636,0.12107235,-0.55080765,0.20001163,15.159608840942383,-0.26586294174194336,5.2643818855285645,0.679511308670044,2.3847665786743164, 0.12069343030452728
60,1676076482,0.8014439,0.1207692,-0.5506007,0.19985338,15.465681076049805,-0.43440407514572144,5.3069586753845215,-2.065100908279419,2.337780237197876, -0.16287115216255188
61,1676093149,0.8016025,0.120922126,-0.5502666,0.2000445,15.195646286010742,-0.49692508578300476,5.217035293579102,2.076927661895752,2.436760187149048, 0.05335765704512596
62,1676109816,0.8017915,0.120871544,-0.5499995,0.20005234,15.543042182922363,-0.2975829839706421,5.309898376464844,0.12052697688341141,2.3090555667877197, -0.18407848477363586
63,1676126483,0.80195427,0.12098314,-0.5496778,0.20021716,15.284372329711914,-0.35837507247924805,5.248425483703613,1.7415419816970825,2.4171154499053955, 0.07537177205085754
64,1676143150,0.8021493,0.120976254,-0.5493651,0.20029855,15.070765495300293,-0.305290549993515,5.130317211151123,0.8109045028686523,2.5798840522766113, 0.05751972645521164
65,1676159817,0.802334,0.12093784,-0.5490637,0.2004083,15.30151653289795,-0.3273254632949829,5.2295403480529785,0.6222413182258606,2.549443244934082, 0.3122764527797699
66,1676176484,0.80252236,0.120910436,-0.54874676,0.20053913,14.72715950012207,-0.2194204479455948,5.153608322143555,1.1526161432266235,2.6415717601776123, 0.5176646113395691
67,1676193151,0.8027363,0.120591775,-0.5485274,0.20047484,15.555893898010254,-0.2948422431945801,5.3310441970825195,-1.5798553228378296,2.4444949626922607, 0.4948309361934662
68,1676209818,0.80287737,0.1205859,-0.5482342,0.20071472,15.12269115447998,-0.4319394826889038,5.218652725219727,1.48628568649292,2.3991096019744873, 1.04633629322052
69,1676226485,0.8030139,0.12042169,-0.54802614,0.20083496,15.034423828125,-0.3928070068359375,5.167237281799316,-0.276117742061615,2.042081356048584, 0.9277880191802979
70,1676243152,0.80318725,0.12038731,-0.54772913,0.2009726,15.435922622680664,-0.3190407454967499,5.218369483947754,1.1188331842422485,2.4924936294555664, 0.6190013289451599
71,1676259819,0.8033653,0.1202989,-0.5474299,0.20112881,15.006579399108887,-0.46474748849868774,5.134945392608643,0.5886118412017822,2.6244499683380127, 0.7967789769172668
72,1676276486,0.803577,0.120247245,-0.54707247,0.20128688,15.172873497009277,-0.48864224553108215,5.131122589111328,0.9014068841934204,3.0239953994750977, 0.5923768877983093
73,1676293153,0.8038491,0.120159656,-0.54670787,0.20124322,15.08903980255127,-0.17558446526527405,5.199431896209717,0.1704845130443573,3.168015241622925, -0.3695271909236908
74,1676309820,0.80408865,0.12009094,-0.5463438,0.20131649,15.143289566040039,-0.5782709717750549,5.202337265014648,0.5512813329696655,3.121080160140991, 0.17850130796432495
75,1676326487,0.80437005,0.11986044,-0.54601157,0.2012302,14.993698120117188,-0.2166547328233719,5.15999698638916,-0.8587168455123901,3.190464973449707, -0.06437751650810242
76,1676343154,0.8046384,0.11962688,-0.5456862,0.20117944,15.205519676208496,-0.3654094934463501,5.198846817016602,-1.0924968719482422,3.1499710083007812, 0.027104634791612625
77,1676359821,0.804864,0.119652614,-0.5452785,0.20136745,14.624205589294434,-0.3262200355529785,5.081590175628662,1.9411160945892334,3.2681617736816406, 0.594707727432251
78,1676376488,0.8051106,0.11947831,-0.54493487,0.20141454,15.121320724487305,-0.21793073415756226,5.212270736694336,0.055521927773952484,3.1588590145111084, 0.5301892757415771
79,1676393155,0.80530834,0.11948999,-0.54455376,0.20164752,14.88551139831543,-0.3320145308971405,5.165515899658203,1.7880160808563232,3.083378314971924, 0.8671627640724182
80,1676409822,0.8055221,0.11935085,-0.5442164,0.2017873,14.985695838928223,-0.25001585483551025,5.1547040939331055,0.2307768017053604,3.044626235961914, 0.8058459758758545
81,1676426489,0.80570835,0.11927461,-0.54387444,0.20201056,15.013439178466797,-0.462521493434906,5.136733531951904,1.3508200645446777,2.9377059936523438, 1.248164415359497
82,1676443156,0.80592287,0.119105466,-0.54355997,0.2021015,15.005319595336914,-0.300337553024292,5.200892448425293,0.24469734728336334,2.916703939437866, 0.8291279673576355
83,1676459823,0.8061269,0.11887258,-0.54329085,0.20214793,14.944561004638672,-0.33147192001342773,5.139998435974121,-0.37114080786705017,2.68178391456604, 0.8566614985466003
84,1676476490,0.8063744,0.11864738,-0.54299015,0.20210157,14.887747764587402,-0.3333434760570526,5.103118896484375,-0.4817235767841339,2.9297211170196533, 0.3058027923107147
85,1676493157,0.806596,0.11852439,-0.542658,0.20218216,15.158333778381348,-0.5751399993896484,5.0971527099609375,0.3304486572742462,2.981593608856201, 0.5163456797599792
86,1676509824,0.80684173,0.118467554,-0.5422698,0.20227554,14.509801864624023,-0.26623964309692383,5.041852951049805,1.160274624824524,3.295208692550659, 0.408183217048645
87,1676526491,0.80709773,0.1183678,-0.541899,0.20230623,15.01736831665039,-0.15472625195980072,5.1775054931640625,0.34005337953567505,3.257019281387329, 0.08983013033866882
88,1676543158,0.80733204,0.118317105,-0.54153234,0.20238346,14.970333099365234,-0.4151334762573242,5.180914878845215,0.9088345766067505,3.123603105545044, 0.25081872940063477
89,1676559825,0.8076016,0.11798815,-0.5412441,0.202271,14.703973770141602,-0.21902655065059662,5.093562126159668,-1.2235186100006104,3.0468287467956543, 0.3572138845920563
90,1676576492,0.8078598,0.1177887,-0.54089946,0.20227778,14.601005554199219,-0.26005247235298157,5.002674579620361,-0.02124573290348053,3.2370798587799072, 0.48981085419654846
91,1676593159,0.80806535,0.11776552,-0.5405309,0.20245549,15.155547142028809,-0.26007384061813354,5.2789998054504395,1.546181082725525,3.070021629333496, 0.7863419055938721
92,1676609826,0.8082691,0.11768564,-0.5402002,0.20257194,14.703863143920898,-0.3961179256439209,5.13198709487915,1.1063342094421387,2.8752753734588623, 0.7573739886283875
93,1676626493,0.808489,0.117431805,-0.53992224,0.20258217,15.127071380615234,-0.28976574540138245,5.099547386169434,-0.277756929397583,2.793416976928711, 0.859338104724884
94,1676643160,0.8086993,0.117424406,-0.5395657,0.20269668,14.698720932006836,-0.18667064607143402,5.022360324859619,1.656008243560791,2.9350807666778564, 0.5013236999511719
95,1676659827,0.8089503,0.117106855,-0.53928965,0.20261262,14.593880653381348,-0.2891772389411926,5.001501083374023,-1.1093627214431763,2.9155893325805664, 0.4896699786186218
96,1676676494,0.80917567,0.11701463,-0.53894347,0.20268837,15.09229564666748,-0.2749381959438324,5.203878879547119,1.001373291015625,3.0197691917419434, 0.5868189334869385
97,1676693161,0.80940574,0.116811894,-0.5386458,0.20267715,14.730371475219727,-0.38506507873535156,5.007086753845215,-0.0681426003575325,2.854900598526001, 0.5194063782691956
98,1676709828,0.809615,0.11668489,-0.5383318,0.2027492,14.895267486572266,-0.23115117847919464,5.043746471405029,0.4891577661037445,2.838789701461792, 0.6248153448104858
99,1676726495,0.80980974,0.11652666,-0.5380373,0.20284459,14.652034759521484,-0.2525748908519745,5.023833751678467,0.5352990031242371,2.73663330078125, 0.9736859798431396
100,1676743162,0.81000763,0.11630599,-0.5377749,0.2028762,14.826213836669922,-0.19515331089496613,5.050567626953125,-0.18570487201213837,2.6095564365386963, 0.8327776789665222
101,1676759829,0.8102031,0.116104305,-0.5374965,0.20294918,14.461737632751465,-0.32499048113822937,4.997697830200195,0.20617583394050598,2.695026159286499, 1.0342600345611572
102,1676776496,0.8103807,0.115801044,-0.53728545,0.20297219,15.11752986907959,-0.44263848662376404,5.058694839477539,-0.6408682465553284,2.3581931591033936, 1.202215313911438
103,1676793163,0.8105396,0.11582439,-0.53695846,0.2031903,14.69846248626709,-0.2777540683746338,5.0595011711120605,1.9188332557678223,2.6448891162872314, 0.9452303051948547
104,1676809830,0.81074786,0.11558076,-0.5366851,0.20321994,14.762483596801758,-0.3495860993862152,4.962490558624268,-0.03272022679448128,2.7408342361450195, 1.0101200342178345
105,1676826497,0.81095487,0.11551647,-0.5363418,0.2033368,14.694226264953613,-0.3241172730922699,4.987142562866211,1.147564172744751,2.958740711212158, 0.6742031574249268
106,1676843164,0.81118,0.115296334,-0.5360527,0.20332602,14.714046478271484,-0.4277568757534027,4.994387626647949,-0.2977348268032074,2.8437204360961914, 0.5489634275436401
107,1676859831,0.8113935,0.11509527,-0.5357615,0.20335568,14.694036483764648,-0.3347027003765106,4.990896701812744,0.22361809015274048,2.812767505645752, 0.8323166966438293
108,1676876498,0.81161135,0.11479373,-0.53554296,0.20323174,14.649397850036621,-0.3253125250339508,4.91664981842041,-1.0628117322921753,2.4482219219207764, 0.3733755648136139
109,1676893165,0.81177527,0.11467966,-0.53526455,0.20337501,14.45961856842041,-0.26522743701934814,4.9616169929504395,0.8243640065193176,2.5479962825775146, 1.082168698310852
110,1676909832,0.81195736,0.11444168,-0.5350293,0.20340125,14.612866401672363,-0.40971866250038147,4.931820869445801,-0.23508614301681519,2.451871633529663, 0.9584463834762573
111,1676926499,0.81209016,0.114346206,-0.53478616,0.20356381,14.726346015930176,-0.39371341466903687,4.950031280517578,1.0181752443313599,2.2315895557403564, 1.2148550748825073
112,1676943166,0.81225914,0.114271805,-0.534494,0.20369919,14.651147842407227,-0.3421022891998291,4.981756210327148,1.225138783454895,2.587862730026245, 0.9645423293113708
113,1676959833,0.8124254,0.11405663,-0.53427523,0.2037303,14.886195182800293,-0.2976785898208618,5.010222911834717,-0.16009217500686646,2.2915236949920654, 0.9098720550537109
114,1676976500,0.812631,0.113866754,-0.5339997,0.203739,14.432944297790527,-0.30435237288475037,4.886724472045898,-0.050252120941877365,2.705975294113159, 0.5955016613006592
115,1676993167,0.81283075,0.11360598,-0.53376746,0.20369627,14.334972381591797,-0.28712567687034607,4.828871726989746,-0.6142181754112244,2.5036094188690186, 0.6477516293525696
116,1677009834,0.81302524,0.113492884,-0.533488,0.20371518,14.671880722045898,-0.3667440414428711,4.932862281799316,0.4129087030887604,2.598606586456299, 0.37944573163986206
117,1677026501,0.8132057,0.11330219,-0.53326285,0.20369059,14.559809684753418,-0.32662487030029297,4.87355899810791,-0.0010501208016648889,2.31449818611145, 0.5966799259185791
118,1677043168,0.8133588,0.11320672,-0.53302157,0.20376381,13.9810209274292,-0.14563442766666412,4.754796028137207,0.7562982439994812,2.2609293460845947, 0.7394322752952576
119,1677059835,0.81351745,0.113005534,-0.53282297,0.20376194,14.677775382995605,-0.2539096772670746,4.901297092437744,-0.29399535059928894,2.141202688217163, 0.6815602779388428
120,1677076502,0.8136274,0.11300641,-0.53258747,0.20393804,14.321086883544922,-0.29827141761779785,4.82234525680542,1.3892775774002075,2.037726879119873, 0.890367865562439
121,1677093169,0.8137686,0.11278562,-0.5324167,0.20394346,14.40605640411377,-0.2993949055671692,4.826562404632568,-0.25117096304893494,1.9542039632797241, 0.9127534031867981
122,1677109836,0.8138971,0.11270312,-0.5321964,0.20405088,14.505786895751953,-0.24627260863780975,4.761227130889893,0.8517055511474609,2.0735082626342773, 0.8989353775978088
123,1677126503,0.8140318,0.112584695,-0.5319692,0.20417136,14.36440372467041,-0.2665126621723175,4.813772678375244,0.7178150415420532,2.1943488121032715, 1.0975745916366577
124,1677143170,0.8141972,0.11240132,-0.5317374,0.20421623,14.365731239318848,-0.32896149158477783,4.781431674957275,0.3884613811969757,2.350189447402954, 1.0202113389968872
125,1677159837,0.8143459,0.11228824,-0.5314983,0.20430784,14.533455848693848,-0.3236504793167114,4.791065692901611,0.5907889604568481,2.2825589179992676, 0.860567569732666
126,1677176504,0.8145461,0.111989096,-0.53128195,0.20423722,14.155437469482422,-0.3321308195590973,4.706221103668213,-0.7338423132896423,2.464473247528076, 0.7581294775009155
127,1677193171,0.8147262,0.11179083,-0.5310359,0.20426734,14.06801700592041,-0.2582435607910156,4.683715343475342,-0.03551200404763222,2.5055174827575684, 0.8206372857093811
128,1677209838,0.8148839,0.11162175,-0.53082454,0.20427997,14.257736206054688,-0.25663065910339355,4.786671161651611,0.07640908658504486,2.173346519470215, 0.6966462135314941
129,1677226505,0.8150476,0.11143493,-0.53061587,0.20427066,14.375104904174805,-0.3514000177383423,4.809358596801758,0.09538809955120087,2.1805949211120605, 0.7324656248092651
130,1677243172,0.81518835,0.1113457,-0.53038347,0.20436145,14.114642143249512,-0.2804394066333771,4.6833271980285645,0.9419134259223938,2.176393985748291, 0.8956440091133118
131,1677259839,0.81531,0.111258246,-0.53017586,0.20446302,14.176787376403809,-0.3936818540096283,4.6206865310668945,1.187756896018982,1.96726655960083, 1.1007633209228516
132,1677276506,0.8154376,0.11118314,-0.5299473,0.2045868,14.159317970275879,-0.14577649533748627,4.692742824554443,1.0775452852249146,2.1234397888183594, 1.017867922782898
133,1677293173,0.81559443,0.11083138,-0.5297998,0.20453434,14.381650924682617,-0.39367082715034485,4.698449611663818,-1.1462194919586182,2.028212070465088, 1.1140437126159668
134,1677309840,0.8157323,0.1106012,-0.5296239,0.20456465,14.161577224731445,-0.3506375849246979,4.605299949645996,0.06393570452928543,2.008387804031372, 1.2231919765472412
135,1677326507,0.81585574,0.11036564,-0.5294718,0.20459352,13.982284545898438,-0.19666752219200134,4.563864231109619,-0.045833926647901535,1.837205410003662, 1.2485358715057373
136,1677343174,0.81599516,0.11000186,-0.52935374,0.20453864,14.100615501403809,-0.39254945516586304,4.606827735900879,-1.3036607503890991,1.8334274291992188, 1.167971134185791
137,1677359841,0.81612086,0.10979089,-0.5291919,0.20456979,14.078214645385742,-0.3899717628955841,4.498546123504639,0.14405220746994019,1.8754322528839111, 1.1803292036056519
138,1677376508,0.81625134,0.1095761,-0.5290166,0.20461749,14.080683708190918,-0.3266143500804901,4.60834264755249,-0.005058508366346359,2.0033676624298096, 1.170954942703247
139,1677393175,0.81636685,0.109485745,-0.5288244,0.20470248,13.832674026489258,-0.3981836140155792,4.421188831329346,0.9791799783706665,1.8970240354537964, 0.9938432574272156
140,1677409842,0.8164983,0.10934244,-0.52862763,0.20476283,14.14590072631836,-0.2206772416830063,4.556115627288818,0.4186460077762604,2.0521090030670166, 0.9393905997276306
141,1677426509,0.81661177,0.10924709,-0.52842736,0.20487821,13.802109718322754,-0.2876662015914917,4.549626350402832,1.2488431930541992,1.9710959196090698, 1.2694998979568481
142,1677443176,0.81676555,0.10897759,-0.5282756,0.20479962,13.910167694091797,-0.2307782918214798,4.551706314086914,-0.567910373210907,1.9511690139770508, 0.7777360677719116
143,1677459843,0.8168846,0.108786315,-0.5281172,0.20483524,13.91707706451416,-0.34583258628845215,4.513406753540039,0.010866188444197178,1.8600647449493408, 1.0283435583114624
144,1677476510,0.81700325,0.10861171,-0.5279763,0.20481794,13.829919815063477,-0.2776232063770294,4.460087299346924,0.19368962943553925,1.6891766786575317, 0.8370165228843689
145,1677493177,0.81713223,0.108353615,-0.5278478,0.20477162,14.085649490356445,-0.322576642036438,4.492170333862305,-0.3824104368686676,1.7590864896774292, 0.9860312938690186
146,1677509844,0.8172436,0.10815765,-0.5277027,0.20480457,13.732282638549805,-0.28380072116851807,4.400380611419678,0.11290719360113144,1.778936505317688, 1.1314345598220825
147,1677526511,0.8173717,0.107963644,-0.5275403,0.20481402,13.65322494506836,-0.20037156343460083,4.312839508056641,0.24768123030662537,1.914607048034668, 1.0566456317901611
148,1677543178,0.81748813,0.10776523,-0.5273999,0.20481537,13.79421615600586,-0.1814265251159668,4.427553176879883,-0.05928059294819832,1.7699975967407227, 0.948790431022644
149,1677559845,0.817602,0.107590795,-0.52724326,0.20485575,13.67919921875,-0.2893190383911133,4.3814215660095215,0.5424193739891052,1.8405605554580688, 1.2283657789230347
150,1677576512,0.81770456,0.107195295,-0.52719,0.20479077,13.758978843688965,-0.1797298938035965,4.397032260894775,-1.5483131408691406,1.4747343063354492, 1.3657267093658447
151,1677593179,0.8177776,0.106953874,-0.5271059,0.2048417,13.653454780578613,-0.23047275841236115,4.353691577911377,-0.13528627157211304,1.408499836921692, 1.512179970741272
152,1677609846,0.8178476,0.10661722,-0.52707344,0.20482099,13.65384578704834,-0.28760722279548645,4.299193859100342,-0.957351565361023,1.1862843036651611, 1.5199666023254395
153,1677626513,0.8179121,0.106346525,-0.5270316,0.20481203,13.415350914001465,-0.21322639286518097,4.263566017150879,-0.35074031352996826,1.1242374181747437, 1.4369940757751465
154,1677643180,0.81795394,0.10609203,-0.52700835,0.20483716,13.5787353515625,-0.3552582859992981,4.222031116485596,-0.519335925579071,0.9586642384529114, 1.4270052909851074
155,1677659847,0.81800246,0.105794646,-0.52702826,0.20474564,13.493999481201172,-0.17595688998699188,4.314505100250244,-0.9870878458023071,0.7005393505096436, 1.0797866582870483
156,1677676514,0.81806403,0.10534938,-0.5270769,0.20460421,13.527838706970215,-0.2550441324710846,4.253364086151123,-2.035146713256836,0.7547101974487305, 1.3476442098617554
157,1677693181,0.81809264,0.10500025,-0.52711844,0.20456204,13.40106201171875,-0.23596611618995667,4.137650489807129,-1.2559058666229248,0.6212295889854431, 1.5202481746673584
158,1677709848,0.818098,0.10467837,-0.52718216,0.20454122,13.359838485717773,-0.09141770005226135,4.2826385498046875,-1.042090892791748,0.3914068639278412, 1.5901579856872559
159,1677726515,0.818121,0.10421945,-0.52729505,0.20439269,13.647480010986328,-0.41625553369522095,4.260471343994141,-2.2017316818237305,0.2686324119567871, 1.4635032415390015
160,1677743182,0.8180983,0.10380923,-0.527456,0.20427728,13.242127418518066,-0.2809472382068634,4.129283428192139,-2.0910592079162598,-0.19416987895965576, 1.4420781135559082
161,1677759849,0.8180603,0.10354321,-0.52759254,0.20421246,13.105545997619629,-0.3590395450592041,4.060471534729004,-0.9580942392349243,-0.2817396819591522, 1.256091594696045
162,1677776516,0.81800234,0.10322362,-0.5278007,0.20406759,13.597086906433105,-0.07465893030166626,4.228396415710449,-1.8850821256637573,-0.7197937369346619, 0.9502760171890259
163,1677793183,0.8179317,0.102749094,-0.5280869,0.20384973,13.346969604492188,-0.4445280134677887,4.098241806030273,-3.023514986038208,-1.041271448135376, 1.2319644689559937
164,1677809850,0.81783414,0.102074705,-0.52847207,0.20358156,13.025676727294922,-0.0673520416021347,3.9505910873413086,-4.452051162719727,-1.446374773979187, 1.7786035537719727
165,1677826517,0.81777036,0.10128841,-0.5288582,0.20322707,13.484935760498047,-0.22616273164749146,4.033854007720947,-5.347291469573975,-1.2321884632110596, 1.6967965364456177
166,1677843184,0.81770194,0.10079643,-0.5290609,0.20321962,13.232263565063477,-0.42279186844825745,3.8219406604766846,-2.6305906772613525,-0.34775641560554504, 2.223188638687134
167,1677859851,0.8176293,0.10054392,-0.5291433,0.20342231,13.273032188415527,-0.28000524640083313,3.9618239402770996,0.04362482950091362,0.10611982643604279, 2.6565299034118652
168,1677876518,0.81762195,0.100236565,-0.5291614,0.20355721,13.264039039611816,-0.37581124901771545,3.8884007930755615,-0.667454183101654,0.7568488717079163, 2.2379162311553955
169,1677893185,0.8176235,0.10006237,-0.52912027,0.20374352,13.373183250427246,-0.5263463854789734,3.8510584831237793,0.3793689012527466,0.9783219695091248, 2.0071072578430176
170,1677909852,0.81766856,0.09997428,-0.5290077,0.20389761,13.161269187927246,-0.39785200357437134,3.8749630451202393,0.7804445624351501,1.4093388319015503, 1.3813185691833496
171,1677926519,0.8177469,0.09971891,-0.5289512,0.20385501,13.18932056427002,-0.2737843990325928,3.9170637130737305,-1.0837372541427612,1.3303683996200562, 0.8215081095695496
172,1677943186,0.8178161,0.09956064,-0.5288931,0.2038054,13.125226974487305,-0.42033112049102783,3.8667397499084473,-0.4705949127674103,1.1678942441940308, 0.4881076216697693
173,1677959853,0.81785315,0.09924047,-0.5289517,0.20366068,13.28023910522461,-0.20995840430259705,4.007300853729248,-1.6602919101715088,0.5505513548851013, 0.7752900123596191
174,1677976520,0.81786853,0.09879572,-0.52907604,0.2034921,13.077973365783691,-0.3137483298778534,3.8137638568878174,-2.9192330837249756,0.29904747009277344, 0.9702026844024658
175,1677993187,0.817796,0.098713435,-0.5291522,0.20362572,13.101142883300781,-0.17062385380268097,3.898881673812866,0.5307270884513855,-0.056155841797590256, 1.5406615734100342
176,1678009854,0.81768644,0.09865699,-0.52926195,0.20380794,13.178435325622559,-0.19895142316818237,3.8997223377227783,0.6445115208625793,-0.358513742685318, 1.703596591949463
177,1678026521,0.81752133,0.098526604,-0.52946746,0.20399928,13.023260116577148,-0.25572481751441956,3.84226655960083,0.33959242701530457,-0.9931836724281311, 2.2633111476898193
178,1678043188,0.81730735,0.09826534,-0.52977,0.20419712,13.00082778930664,-0.1508338898420334,3.788069486618042,-0.7442409992218018,-1.4959609508514404, 2.7741692066192627
179,1678059855,0.8170774,0.09805098,-0.5300811,0.20441352,13.139954566955566,-0.22510989010334015,3.8324897289276123,-0.4871535301208496,-1.638444423675537, 2.7044639587402344
180,1678076522,0.8168794,0.0979204,-0.5303078,0.20467828,13.011466979980469,-0.3844287097454071,3.8254828453063965,0.20941583812236786,-1.1200817823410034, 2.5488030910491943
181,1678093189,0.81669426,0.09772863,-0.53056604,0.20483972,12.861685752868652,-0.1977969855070114,3.7643537521362305,-0.5699337124824524,-1.2293198108673096, 2.1906988620758057
182,1678109856,0.8164836,0.09741536,-0.53091675,0.20491965,12.81520938873291,-0.33395418524742126,3.7077102661132812,-1.6513402462005615,-1.7263343334197998, 2.28360915184021
183,1678126523,0.81619906,0.097345576,-0.53127205,0.2051661,13.066778182983398,-0.5604593753814697,3.6136860847473145,0.3212280571460724,-2.2496016025543213, 2.4126455783843994
184,1678143190,0.8158252,0.09759618,-0.5316391,0.20558293,12.724503517150879,-0.4419889450073242,3.622805118560791,3.0138399600982666,-2.997723340988159, 2.445340394973755
185,1678159857,0.8154107,0.09775069,-0.53215843,0.20581037,12.686655044555664,-0.45819559693336487,3.6714186668395996,1.2679247856140137,-3.963629722595215, 1.7216538190841675
186,1678176524,0.8149123,0.09813518,-0.5327471,0.20607862,12.937834739685059,-0.5716362595558167,3.643527030944824,2.6726787090301514,-4.960628986358643, 1.2760438919067383
187,1678193191,0.81439084,0.09852336,-0.5334525,0.20612878,12.51939582824707,-0.3341176509857178,3.652188777923584,2.0939600467681885,-5.883302211761475, 0.3277978003025055
188,1678209858,0.81388485,0.09870597,-0.5343076,0.20582527,12.693541526794434,-0.4787175953388214,3.66267466545105,-0.9556099772453308,-6.582004070281982, -1.0119707584381104
189,1678226525,0.81336194,0.09902644,-0.5351969,0.20542772,12.714251518249512,-0.43333926796913147,3.43916392326355,-0.5090780258178711,-7.101352214813232, -1.968950867652893
190,1678243192,0.8128143,0.099338934,-0.5361836,0.20487154,12.372904777526855,-0.2427779734134674,3.4106969833374023,-1.4156653881072998,-7.816740989685059, -2.804821491241455
191,1678259859,0.81225586,0.09962974,-0.5371953,0.20429292,12.693086624145508,-0.33951863646507263,3.2955687046051025,-1.7099171876907349,-7.975285053253174, -2.844022274017334
192,1678276526,0.81174624,0.100040294,-0.5380787,0.20379326,12.622150421142578,-0.38718825578689575,3.411414861679077,-0.6696698069572449,-7.180471420288086, -3.032134532928467
193,1678293193,0.81147134,0.10060476,-0.5385675,0.2033176,12.39627742767334,-0.28967779874801636,3.2806973457336426,0.5503977537155151,-4.296018600463867, -4.125758171081543
194,1678309860,0.811268,0.10087543,-0.539096,0.20259354,12.33949089050293,-0.17621353268623352,3.229783773422241,-1.6630964279174805,-4.051019668579102, -4.26880407333374
195,1678326527,0.81106323,0.100878194,-0.53966755,0.2018891,12.468592643737793,-0.03303241357207298,3.288640260696411,-3.6304214000701904,-3.862292766571045, -3.3703503608703613
196,1678343194,0.81112903,0.10035292,-0.5400105,0.20096666,12.265301704406738,-0.15472519397735596,3.1968157291412354,-7.256475925445557,-0.9968976974487305, -3.1526293754577637
197,1678359861,0.8112383,0.0991635,-0.54051125,0.1997665,12.150341033935547,0.08492152392864227,3.094142198562622,-11.935561180114746,-1.011228322982788, -2.031420946121216
198,1678376528,0.81109226,0.09746608,-0.54152167,0.1984539,12.170572280883789,-0.12913094460964203,3.08809494972229,-15.928975105285645,-4.154575347900391, -0.16698212921619415
199,1678393195,0.8107106,0.09522559,-0.5430141,0.19701794,11.963022232055664,-0.3675724267959595,2.9520986080169678,-20.25174903869629,-7.020925521850586, 1.6557931900024414
200,1678409862,0.8102337,0.09308263,-0.544565,0.19571969,11.920913696289062,-0.27007365226745605,3.045072317123413,-19.212629318237305,-7.7325758934021, 2.2293903827667236
201,1678426529,0.8096416,0.091168225,-0.5461908,0.19453746,11.829678535461426,-0.36833515763282776,3.0267202854156494,-17.472047805786133,-8.81153678894043, 2.2593185901641846
202,1678443196,0.80881464,0.08932167,-0.54816306,0.19328141,11.807835578918457,-0.35119834542274475,3.1033036708831787,-17.759735107421875,-11.744197845458984, 2.097036838531494
203,1678459863,0.807745,0.08719816,-0.550627,0.1917148,11.430109024047852,-0.2148793339729309,3.2539377212524414,-21.030548095703125,-15.203167915344238, 2.0214035511016846
204,1678476530,0.8064978,0.084368624,-0.55369335,0.18938635,11.415355682373047,-0.21245825290679932,3.1730499267578125,-28.47249984741211,-18.753080368041992, 1.097617506980896
205,1678493197,0.80504686,0.08164216,-0.5570485,0.18689927,11.609956741333008,-0.9520315527915955,2.4546446800231934,-28.759450912475586,-21.35589027404785, 0.27754685282707214
206,1678509864,0.80323243,0.080309905,-0.5604612,0.18507163,11.227126121520996,-0.5764055848121643,2.836793899536133,-18.38962173461914,-24.47005844116211, -0.9146581888198853
207,1678526531,0.8012828,0.079299286,-0.5641005,0.1828887,10.841923713684082,-0.20983758568763733,2.960866689682007,-18.137163162231445,-26.85199546813965, -3.7828052043914795
208,1678543198,0.7991334,0.07856427,-0.56801414,0.18048127,11.161523818969727,-0.7047252655029297,2.533568859100342,-17.68613052368164,-29.618907928466797, -5.650493144989014
209,1678559865,0.7968647,0.0784111,-0.57197374,0.17805809,11.13346004486084,-0.9488147497177124,1.903261423110962,-14.440580368041992,-31.07620620727539, -7.787102222442627
210,1678576532,0.7945047,0.07949561,-0.57568854,0.17614065,11.167909622192383,-0.7528941035270691,1.8574559688568115,-4.558526992797852,-31.413785934448242, -9.606334686279297
211,1678593199,0.79210556,0.081027545,-0.5792993,0.17440067,10.844123840332031,-0.3001306653022766,1.8372557163238525,-1.2622243165969849,-31.42878532409668, -10.421911239624023
212,1678609866,0.7897626,0.081859484,-0.58304024,0.17215833,10.986044883728027,0.04761461168527603,1.6524858474731445,-7.263931751251221,-31.344118118286133, -10.358867645263672
213,1678626533,0.78750813,0.08267077,-0.5865747,0.17007902,10.777630805969238,-0.09747356176376343,1.2782694101333618,-6.5313262939453125,-29.736745834350586, -9.59804916381836
214,1678643200,0.7853685,0.08363531,-0.589757,0.1684884,10.987859725952148,-0.31626400351524353,0.9503365755081177,-3.385572910308838,-27.248517990112305, -7.896212577819824
215,1678659867,0.7834061,0.08459864,-0.59255457,0.16732323,10.772541999816895,0.045002225786447525,1.0496903657913208,-1.3220791816711426,-24.17897605895996, -6.018382549285889
216,1678676534,0.7818701,0.08556119,-0.59469426,0.16642563,10.704890251159668,-0.24213017523288727,0.5967100262641907,0.2709250748157501,-18.72136878967285, -5.4369049072265625
217,1678693201,0.7807721,0.08706341,-0.5959007,0.16648604,11.13981819152832,-0.7361023426055908,0.02709941752254963,7.900083065032959,-11.93798542022705, -3.54245662689209
218,1678709868,0.7799886,0.089024,-0.5963789,0.16740598,10.885009765625,-0.2664426863193512,0.5448261499404907,14.532947540283203,-6.703284740447998, -1.6146389245986938
219,1678726535,0.7797136,0.089809485,-0.596577,0.16756238,10.335487365722656,0.09129270911216736,0.3573976457118988,5.112480163574219,-2.202359199523926, -1.647472858428955
220,1678743202,0.7796817,0.09097844,-0.59626156,0.16820122,10.468940734863281,-0.6867237091064453,0.48543959856033325,9.586934089660645,1.432371735572815, -1.2220593690872192
221,1678759869,0.77964,0.0925482,-0.5957779,0.1692478,10.051941871643066,-0.2549406886100769,1.0579028129577637,13.611358642578125,2.1120693683624268, -0.7863359451293945
222,1678776536,0.7794726,0.0944776,-0.5953717,0.17037863,9.46364974975586,0.15603859722614288,1.575713872909546,15.874005317687988,0.825696587562561, -1.614165186882019
223,1678793203,0.77908707,0.09652711,-0.59522563,0.1715009,9.453815460205078,-0.030141957104206085,1.4480229616165161,16.315324783325195,-1.6165854930877686, -1.7190362215042114
224,1678809870,0.7782923,0.099148974,-0.5954281,0.1729045,9.093518257141113,0.26277390122413635,1.9865710735321045,20.39099884033203,-5.650758743286133, -1.8383798599243164
225,1678826537,0.7771962,0.10106036,-0.59630734,0.17369607,8.94482135772705,0.5034071207046509,1.8021233081817627,13.479522705078125,-10.098238945007324, -1.3755699396133423
226,1678843204,0.7756889,0.10283735,-0.5977863,0.17430761,8.95119857788086,0.25525325536727905,1.8715143203735352,11.587039947509766,-14.969258308410645, -0.8617659211158752
227,1678859871,0.7738073,0.10409693,-0.59996223,0.17444679,8.69908332824707,1.155112385749817,2.027491807937622,6.312252521514893,-19.954986572265625, -0.3035365343093872
228,1678876538,0.77172256,0.10430989,-0.60272723,0.17402221,8.942484855651855,0.28652557730674744,0.9082459211349487,-2.1523163318634033,-23.096847534179688, 1.715753197669983
229,1678893205,0.7692875,0.10488645,-0.60568666,0.17418188,8.884878158569336,0.687311053276062,1.222485065460205,2.216188669204712,-25.585107803344727, 3.8779184818267822
230,1678909872,0.7666381,0.10502735,-0.60897624,0.1743083,8.369219779968262,0.39523541927337646,1.1669816970825195,-0.4705963134765625,-27.725135803222656, 6.033466339111328
231,1678926539,0.76393676,0.10471334,-0.61249894,0.17401439,8.207330703735352,1.083600401878357,1.4003629684448242,-4.870488166809082,-28.931428909301758, 5.966196060180664
232,1678943206,0.76148635,0.102804706,-0.61626905,0.17257637,9.135696411132812,-0.5242980718612671,-0.1625840961933136,-18.546194076538086,-28.10296058654785, 6.585840225219727
233,1678959873,0.7592306,0.10144851,-0.6194873,0.17179261,8.779656410217285,-0.08640554547309875,-0.3629418909549713,-12.35640811920166,-24.540725708007812, 7.037409782409668
234,1678976540,0.75734925,0.100303285,-0.6221147,0.1712746,8.791731834411621,-0.780472457408905,-0.6751155853271484,-9.681451797485352,-19.882856369018555, 6.6737284660339355
235,1678993207,0.755742,0.09980794,-0.62412876,0.1713351,8.506333351135254,-0.6094343662261963,-0.25108036398887634,-3.2800679206848145,-15.832825660705566, 6.140900611877441
236,1679009874,0.75436616,0.09982227,-0.6256624,0.17179646,8.133172035217285,0.11219246685504913,0.35783588886260986,1.5024739503860474,-12.635982513427734, 5.420515537261963
237,1679026541,0.753401,0.09920445,-0.6268879,0.17192107,8.139248847961426,0.19714616239070892,-0.12202753871679306,-3.1423850059509277,-8.746330261230469, 5.706454277038574
238,1679043208,0.7526541,0.09888034,-0.62763184,0.17266515,8.007928848266602,0.2685472369194031,0.1357964724302292,1.4694712162017822,-5.209841728210449, 7.0758233070373535
239,1679059875,0.7523716,0.0972879,-0.62813836,0.17295764,7.742039680480957,0.4208807945251465,0.027330905199050903,-7.077215671539307,-0.7627081871032715, 9.515168190002441
240,1679076542,0.7523839,0.09534748,-0.6282261,0.17366493,8.25387954711914,0.07481399178504944,-0.4575328230857849,-6.785987854003906,3.3853416442871094, 12.55502700805664
241,1679093209,0.7525407,0.09364361,-0.62782586,0.17535178,7.675088405609131,0.6612375974655151,-0.19652725756168365,-0.8406738042831421,6.9316301345825195, 16.119518280029297
242,1679109876,0.75293833,0.091008924,-0.62725216,0.17707732,7.558338165283203,0.42771339416503906,-0.014904629439115524,-5.436971664428711,10.042585372924805, 19.96678352355957
243,1679126543,0.7534973,0.08768408,-0.626551,0.17885007,7.469358921051025,0.554692804813385,0.005936683155596256,-8.75181770324707,12.288421630859375, 22.935646057128906
244,1679143210,0.75389,0.0843335,-0.6259415,0.18092862,7.156248569488525,0.1763746440410614,0.47546082735061646,-7.580561637878418,11.331878662109375, 24.92141342163086
245,1679159877,0.7539076,0.08130482,-0.62562585,0.18331811,6.606237411499023,-0.22569818794727325,0.5554754734039307,-4.720727443695068,7.977205276489258, 25.80188751220703
246,1679176544,0.7530989,0.080807015,-0.62553436,0.18713388,6.164204120635986,-1.4116359949111938,1.0238467454910278,14.716373443603516,0.8671138286590576, 23.47511863708496
247,1679193211,0.750827,0.083874226,-0.6261007,0.19293135,5.554671764373779,-0.03709831088781357,2.7860517501831055,41.67725372314453,-12.338238716125488, 20.604618072509766
248,1679209878,0.7480006,0.08386369,-0.6285883,0.19580366,6.61034631729126,-0.24892622232437134,0.15490850806236267,10.961950302124023,-22.33342170715332, 20.60017204284668
249,1679226545,0.7443682,0.0859791,-0.6310284,0.20081563,7.056614398956299,-0.7165089249610901,-0.6374962329864502,31.67839813232422,-27.179536819458008, 23.476709365844727
250,1679243212,0.74031895,0.08901072,-0.63337064,0.20699467,6.823973178863525,-0.6793807744979858,-0.1552722454071045,41.82770919799805,-29.007246017456055, 25.976823806762695
251,1679259879,0.7358346,0.093816325,-0.63515353,0.21523513,8.57967472076416,-0.3974025547504425,-0.17393112182617188,60.90980911254883,-29.28598976135254, 29.005210876464844
252,1679276546,0.7313957,0.09959766,-0.63604456,0.22491875,8.80146312713623,1.6900385618209839,1.24783194065094,73.45004272460938,-25.042308807373047, 31.404035568237305
253,1679293213,0.7283125,0.104892634,-0.63558626,0.2336426,11.397395133972168,1.9111734628677368,2.7111716270446777,67.95128631591797,-12.240760803222656, 25.769243240356445
254,1679309880,0.7290455,0.109303705,-0.63168234,0.23983985,13.130675315856934,0.2657160758972168,4.03996467590332,55.236793518066406,21.24273109436035, 8.477327346801758
255,1679326547,0.7312836,0.11256366,-0.6292803,0.23782416,9.637018203735352,10.699142456054688,4.013930320739746,10.155906677246094,15.889549255371094, -28.978713989257812
256,1679343214,0.7280919,0.12585993,-0.6305803,0.2375085,8.748113632202148,1.7910646200180054,-12.26168155670166,66.00799560546875,-41.412784576416016, -51.651824951171875
257,1679359881,0.72053236,0.15301576,-0.63314414,0.23779899,10.960783958435059,15.930886268615723,-11.583316802978516,139.786865234375,-88.21466064453125, -100.4378890991211
258,1679376548,0.71460277,0.15718503,-0.6484814,0.21001883,5.352682590484619,15.341317176818848,-7.556787967681885,-120.84561157226562,-135.58778381347656, -128.0493927001953
259,1679393215,0.7077383,0.15748788,-0.6654918,0.17727143,4.292830944061279,-5.6513848304748535,-7.651464462280273,-161.63258361816406,-147.82688903808594, -131.3153533935547
260,1679409882,0.69809985,0.17140053,-0.67618203,0.161421,-1.3187546730041504,-7.431051731109619,0.417035847902298,-7.308142185211182,-127.80084228515625, -115.0517349243164
261,1679426549,0.69117874,0.18302383,-0.68243355,0.15185216,-5.803225517272949,-8.482393264770508,6.451371669769287,12.652488708496094,-83.98958587646484, -82.87383270263672
262,1679443216,0.6911468,0.18120484,-0.6853946,0.14041188,-9.378984451293945,-11.20233154296875,9.44480037689209,-65.2239990234375,-24.699325561523438, -40.4216194152832
263,1679459883,0.6979596,0.16844249,-0.6836915,0.13055982,-8.431920051574707,-12.465137481689453,8.516512870788574,-113.74050903320312,41.778072357177734, 5.796627521514893
264,1679476550,0.7076069,0.14952925,-0.67943865,0.12368078,-8.651439666748047,-7.098254203796387,2.281507968902588,-130.239990234375,75.87996673583984, 42.94776916503906
265,1679493217,0.71234465,0.14119805,-0.6771837,0.11853652,-10.074334144592285,4.744074821472168,-26.656660079956055,-67.2699203491211,35.87262725830078, 7.885563850402832
266,1679509884,0.7051909,0.13551013,-0.6884584,0.101825625,13.602987289428711,16.249011993408203,10.907119750976562,-107.7448959350586,-97.95411682128906, -37.96583938598633
267,1679526551,0.7064801,0.12294969,-0.6931188,0.07318514,2.7810864448547363,-8.791630744934082,6.206815719604492,-200.80807495117188,-32.807884216308594, -74.5815200805664
268,1679543218,0.69987065,0.13781375,-0.6967586,0.075607866,19.868009567260742,-6.2140727043151855,4.712907314300537,87.69024658203125,-53.36021423339844, -51.69649124145508
269,1679559885,0.6929204,0.13878722,-0.704494,0.06548386,23.94898796081543,1.2670680284500122,7.692553997039795,-41.03578567504883,-79.6092529296875, -41.85821533203125
270,1679576552,0.68442756,0.14002863,-0.7136197,0.051945042,30.342533111572266,-16.074737548828125,2.4434990882873535,-55.41190719604492,-97.50032043457031, -57.457183837890625
271,1679593219,0.6750332,0.14933883,-0.7209057,0.048204027,3.3443827629089355,4.15616512298584,-6.4917216300964355,32.15213394165039,-86.90279388427734, -53.3166618347168
272,1679609886,0.6704465,0.15866837,-0.72326106,0.047113538,-3.7205262184143066,5.176907539367676,-5.195446014404297,42.036170959472656,-37.18778991699219, -47.56079864501953
273,1679626553,0.669952,0.17031598,-0.7207029,0.05238864,-7.703103542327881,8.742459297180176,-6.908634662628174,81.48157501220703,12.235452651977539, -36.15304946899414
274,1679643220,0.67388445,0.17493705,-0.7155786,0.05678452,-2.5154123306274414,7.939364433288574,-7.439415454864502,40.47193145751953,47.805992126464844, -9.544221878051758
275,1679659887,0.6795679,0.17281598,-0.71058166,0.05827616,27.889427185058594,-4.1666741371154785,4.676883697509766,-7.243660926818848,55.24809646606445, 9.978275299072266
276,1679676554,0.6852409,0.16918284,-0.7058231,0.060300738,3.7727324962615967,0.9253346920013428,-5.623209476470947,-11.742902755737305,54.92966079711914, 19.725412368774414
277,1679693221,0.6926648,0.16499645,-0.69921935,0.063909575,3.059573173522949,1.0764696598052979,-3.816072463989258,-7.954417705535889,74.36003875732422, 26.999452590942383
278,1679709888,0.7003936,0.16647644,-0.6898687,0.076262414,4.892409801483154,2.4743919372558594,-3.2112979888916016,61.9254264831543,96.41776275634766, 38.14912414550781
279,1679726555,0.70935714,0.16644116,-0.6789422,0.09026413,5.957827091217041,1.241775631904602,-5.150313854217529,61.86376190185547,112.59244537353516, 50.85945510864258
280,1679743222,0.71922624,0.16582248,-0.66645086,0.10516753,6.120260715484619,0.40152281522750854,-1.7455018758773804,63.16109085083008,125.97088623046875, 55.60209655761719
281,1679759889,0.72902787,0.16604598,-0.6529885,0.12063954,8.536185264587402,-2.306373357772827,0.28020161390304565,70.72903442382812,130.48277282714844, 53.44197463989258
282,1679776556,0.7395978,0.17229567,-0.6357231,0.13844039,7.350029468536377,2.612192153930664,7.954229831695557,113.71223449707031,150.5747833251953, 32.919681549072266
283,1679793223,0.7451698,0.17271768,-0.6267561,0.14855269,-0.7921832203865051,-0.6256395578384399,5.455341815948486,48.50544738769531,82.59942626953125, 33.937313079833984
284,1679809890,0.74580073,0.16261137,-0.6302534,0.14184414,-3.7719483375549316,4.173274040222168,3.1068015098571777,-84.7577133178711,-12.041194915771484, 12.9531888961792
285,1679826557,0.7407401,0.15182833,-0.64170736,0.12831336,-2.9829249382019043,-0.47516152262687683,0.1973719745874405,-119.20980834960938,-84.650390625, -4.488311290740967
286,1679843224,0.72950405,0.1456378,-0.6586406,0.11316573,-5.920452117919922,2.5806405544281006,-8.911508560180664,-101.33221435546875,-145.59942626953125, -21.83692741394043
287,1679859891,0.7141553,0.14091435,-0.67875123,0.097068846,-9.019165992736816,1.030441403388977,-5.737152576446533,-96.65092468261719,-181.9990234375, -26.758712768554688
288,1679876558,0.7013919,0.13579768,-0.6949389,0.08166229,-10.199712753295898,-3.5870909690856934,10.823622703552246,-95.24449920654297,-149.59913635253906, -27.00655746459961
289,1679893225,0.6951158,0.13922954,-0.7014935,0.07305335,-5.98909330368042,0.5280632376670837,16.00959587097168,-22.139921188354492,-71.01361846923828, -47.82326889038086
290,1679909892,0.68612456,0.15036504,-0.70852363,0.06795819,14.807259559631348,9.602845191955566,-6.793619632720947,34.0379638671875,-87.43824005126953, -66.34901428222656
291,1679926559,0.6758685,0.16066289,-0.71629626,0.065644495,19.06060028076172,-1.8929345607757568,4.147765159606934,44.58585739135742,-93.59061431884766, -47.53825378417969
292,1679943226,0.66660625,0.16617191,-0.7239538,0.062566325,10.12067985534668,-4.583502769470215,-5.766167640686035,17.546432495117188,-87.005126953125, -28.24894142150879
293,1679959893,0.65901285,0.16958362,-0.7302841,0.060241517,1.018527865409851,-7.6622443199157715,-3.24235463142395,10.320405006408691,-70.67221069335938, -16.801776885986328
294,1679976560,0.6571027,0.17063971,-0.7319584,0.05775299,-5.887619972229004,2.451199531555176,-7.862123489379883,-5.904392719268799,-20.14596939086914, -13.752408027648926
295,1679993227,0.66054183,0.17505395,-0.72759503,0.060386434,0.7279630899429321,10.13376235961914,-7.39503288269043,31.13782501220703,39.00220489501953, -16.606245040893555
296,1680009894,0.66573316,0.18213814,-0.7200247,0.07204122,22.2366886138916,2.482698440551758,-2.9733524322509766,87.60787963867188,72.30199432373047, 6.729205131530762
297,1680026561,0.6720062,0.18024094,-0.71334946,0.08398738,10.711121559143066,3.075979709625244,-1.9889857769012451,46.1408576965332,78.35905456542969, 53.06193923950195
298,1680043228,0.6821026,0.16879913,-0.7060136,0.08825039,10.564455032348633,-0.6913378238677979,-3.7935380935668945,-39.99763107299805,96.15748596191406, 61.386505126953125
299,1680059895,0.6889186,0.1750611,-0.6948339,0.10932079,14.377275466918945,-4.032959461212158,1.8906638622283936,130.7642364501953,107.10140228271484, 51.72043228149414
300,1680076562,0.6971253,0.1804396,-0.6817717,0.12901722,12.504423141479492,-2.2594683170318604,7.555255889892578,119.77572631835938,121.55877685546875, 45.92634963989258
301,1680093229,0.7066167,0.17899364,-0.6696484,0.14221646,1.2981711626052856,-1.4636560678482056,4.529652118682861,54.207611083984375,120.79460144042969, 46.69597244262695
302,1680109896,0.7106109,0.16678597,-0.6688148,0.14107318,-8.341814994812012,8.790862083435059,-7.626023292541504,-68.37218475341797,33.35175704956055, 45.79372024536133
303,1680126563,0.70889515,0.15817638,-0.67483765,0.13054661,-5.479970932006836,2.0378668308258057,-13.615318298339844,-94.08563995361328,-40.431427001953125, -2.8972368240356445
304,1680143230,0.69649273,0.16457057,-0.68664545,0.12779987,-9.178528785705566,2.4932925701141357,-13.682662963867188,21.552417755126953,-122.82684326171875, -18.642749786376953
305,1680159897,0.67987776,0.16575156,-0.70497155,0.115360305,-9.312166213989258,1.4532362222671509,-6.175361156463623,-50.15659713745117,-179.9650115966797, -29.29111671447754
306,1680176564,0.661728,0.16339454,-0.7246275,0.10165478,-11.696077346801758,-5.174602031707764,4.422008991241455,-72.1377944946289,-192.14691162109375, -15.264119148254395
307,1680193231,0.6507779,0.15403362,-0.73870325,0.08414121,-15.360942840576172,-3.239635944366455,14.625741958618164,-127.15330505371094,-130.45236206054688, -9.121918678283691
308,1680209898,0.6484763,0.13919517,-0.7455563,0.0651883,-12.838985443115234,-7.105827808380127,11.528233528137207,-163.9293975830078,-53.00736999511719, -0.4528926610946655
309,1680226565,0.6484275,0.13931215,-0.74538285,0.06737053,-7.612840175628662,-7.781671047210693,5.732236862182617,12.102399826049805,3.082010269165039, 9.1986083984375
310,1680243232,0.6405502,0.16548407,-0.74480176,0.08707155,-3.711146116256714,18.566640853881836,-19.537729263305664,225.76068115234375,-30.666290283203125, -43.20004653930664
311,1680259899,0.6285189,0.16151522,-0.75787294,0.06712552,26.073240280151367,14.93548583984375,15.377240180969238,-113.49312591552734,-138.54425048828125, -44.8894157409668
312,1680276566,0.61828,0.17094474,-0.7647542,0.060492754,5.730121612548828,-9.320460319519043,8.90250015258789,14.765230178833008,-94.47003936767578, -64.54325866699219
313,1680293233,0.60707253,0.18120171,-0.7715852,0.057319798,23.55127716064453,2.592935800552368,-2.096897840499878,37.62629318237305,-95.90929412841797, -54.16762924194336
314,1680309900,0.6007857,0.18065651,-0.7772144,0.048561417,11.796170234680176,-11.39655876159668,-8.69360065460205,-42.736480712890625,-67.56986236572266, -23.64771842956543
315,1680326567,0.5993895,0.17409958,-0.7801968,0.04141057,8.859593391418457,-1.2666407823562622,-9.365617752075195,-64.26994323730469,-26.317399978637695, 9.813579559326172
316,1680343234,0.60235375,0.16890207,-0.7789306,0.043697778,10.23166275024414,6.690743923187256,-5.76621150970459,-12.089574813842773,25.6991024017334, 35.02485656738281
317,1680359901,0.61078376,0.16217451,-0.7735062,0.04828057,11.121646881103516,7.895439147949219,-2.859405279159546,-11.207483291625977,75.3999252319336, 46.410255432128906
318,1680376568,0.62166685,0.15902679,-0.76456416,0.06068709,14.185511589050293,2.2169344425201416,0.19145837426185608,43.900146484375,110.7513198852539, 55.67057800292969
319,1680393235,0.63519466,0.15547901,-0.7528177,0.07496732,11.165484428405762,-2.294964551925659,0.5901703834533691,50.32331848144531,138.75949096679688, 61.621421813964844
320,1680409902,0.65348786,0.15384518,-0.73532796,0.092619024,9.063739776611328,-5.174605369567871,4.468230247497559,73.99250793457031,191.06393432617188, 57.74584197998047
321,1680426569,0.67235106,0.14966221,-0.7170384,0.10677838,-4.759636402130127,-2.1164438724517822,-0.12605427205562592,44.78190231323242,195.30484008789062, 53.56866455078125
322,1680443236,0.68101496,0.14014083,-0.71077347,0.10668024,-10.374800682067871,9.831436157226562,-6.51237154006958,-48.52529525756836,78.6949462890625, 33.78719711303711
323,1680459903,0.6832407,0.12997927,-0.7117641,0.09838598,-7.001972198486328,-0.11017243564128876,-9.841567039489746,-90.70852661132812,6.055193901062012, 10.552915573120117
324,1680476570,0.678004,0.14014241,-0.71380377,0.10561853,-7.807838439941406,-2.658996343612671,-2.9502151012420654,86.70922088623047,-34.96445083618164, -9.989289283752441
325,1680493237,0.6723619,0.15141413,-0.71579224,0.11245067,-12.322458267211914,3.5486812591552734,4.215916633605957,90.33989715576172,-37.82096481323242, -17.13544273376465
326,1680509904,0.67018634,0.15280415,-0.7179621,0.109690584,-13.402535438537598,-2.563410758972168,7.444243431091309,-6.297823429107666,-24.06075668334961, -15.227807998657227
327,1680526571,0.6684409,0.15559047,-0.71948767,0.10637801,-12.681726455688477,-0.512559175491333,2.744504451751709,-2.550445318222046,-20.80533790588379, -25.733997344970703
328,1680543238,0.6650751,0.15484609,-0.7237614,0.09933501,-10.976142883300781,1.1360630989074707,1.0567958354949951,-37.50484085083008,-42.912139892578125, -21.290205001831055
329,1680559905,0.6603376,0.15189824,-0.72976965,0.09120181,-10.098947525024414,-4.421056270599365,0.14388377964496613,-52.727699279785156,-57.32703399658203, -12.48169994354248
330,1680576572,0.6557217,0.15357101,-0.733612,0.09087684,-9.419967651367188,-2.5638463497161865,3.0081310272216797,8.656232833862305,-41.59733963012695, -2.6707684993743896
331,1680593239,0.6454317,0.15490472,-0.7436901,0.07967475,-7.12346887588501,11.19575309753418,-22.72687339782715,-45.64204025268555,-109.66435241699219, -39.92910385131836
332,1680609906,0.6275683,0.15780348,-0.7591796,0.07001972,16.06009864807129,1.9991651773452759,2.3847837448120117,-25.698564529418945,-170.91619873046875, -30.8037166595459
333,1680626573,0.62032497,0.16099903,-0.7652532,0.06053198,1.587839126586914,-1.2851245403289795,9.574734687805176,-30.51403045654297,-74.99879455566406, -46.957977294921875
334,1680643240,0.6135966,0.16799451,-0.7696235,0.054378834,23.794370651245117,12.369902610778809,4.929695129394531,3.396500825881958,-63.23218536376953, -54.891510009765625
335,1680659907,0.60915565,0.17497648,-0.77171415,0.052635092,19.093225479125977,-10.60421371459961,-2.4302725791931152,24.95829200744629,-36.72353744506836, -39.45197677612305
336,1680676574,0.60659033,0.17678958,-0.7733626,0.05200207,19.18096923828125,-3.6882424354553223,-6.01119327545166,7.048840045928955,-21.772249221801758, -8.989128112792969
337,1680693241,0.61027646,0.17431526,-0.77103144,0.051844936,12.120223999023438,-3.1286067962646484,-7.301244258880615,-14.513779640197754,30.21680450439453, 8.534335136413574
338,1680709908,0.61723953,0.17435499,-0.7648218,0.06052964,8.078811645507812,0.9745586514472961,-7.133262634277344,40.329227447509766,73.69281768798828, 26.36083221435547
339,1680726575,0.6260422,0.17194918,-0.75722533,0.0715185,7.907947063446045,2.2226524353027344,-3.3707165718078613,40.4315185546875,93.18334197998047, 46.58110046386719
340,1680743242,0.6357574,0.17040056,-0.74771225,0.08776688,8.37303352355957,-0.03228624910116196,1.129743218421936,71.3796615600586,112.02364349365234, 62.09132385253906
341,1680759909,0.65219784,0.16869216,-0.7313991,0.10600322,5.487656116485596,-0.4745962619781494,5.319923400878906,77.14350891113281,178.67245483398438, 59.5655632019043
342,1680776576,0.66525716,0.16278057,-0.71919185,0.11704269,-3.9726574420928955,4.5752081871032715,-0.05059868469834328,23.040491104125977,137.77578735351562, 55.63935470581055
343,1680793243,0.67316324,0.15504898,-0.7136505,0.116251074,-8.227424621582031,9.946249961853027,-12.479927062988281,-43.384769439697266,70.0459213256836, 22.275222778320312
344,1680809910,0.6746594,0.15942793,-0.7107092,0.11962543,-6.504719257354736,-3.208250045776367,-6.44028902053833,37.84341812133789,21.718345642089844, -9.673612594604492
345,1680826577,0.668053,0.17187418,-0.7126253,0.12778921,-10.530338287353516,2.5202157497406006,-9.230791091918945,103.55500793457031,-41.603363037109375, -14.996750831604004
346,1680843244,0.6573237,0.18168406,-0.7198334,0.12944789,-10.26435375213623,-0.11452791839838028,-3.338357448577881,59.78465270996094,-91.21028900146484, -22.021543502807617
347,1680859911,0.64413846,0.18881626,-0.73015165,0.12772253,-10.264598846435547,-1.3760071992874146,1.6574701070785522,31.23310661315918,-119.18244171142578, -18.002702713012695
348,1680876578,0.63380826,0.18833528,-0.7406434,0.11943442,-10.181778907775879,-2.7254836559295654,8.720279693603516,-39.286964416503906,-107.50931549072266, -11.163069725036621
349,1680893245,0.62904644,0.18225276,-0.74785763,0.10859897,-10.435471534729004,-3.6645355224609375,11.820904731750488,-81.17910766601562,-63.822654724121094, -2.6172168254852295
350,1680909912,0.62848055,0.17467986,-0.7511258,0.101536915,-9.934365272521973,-4.434942245483398,12.059256553649902,-70.52385711669922,-19.65896224975586, 13.200024604797363
351,1680926579,0.6292004,0.17252463,-0.75138855,0.0987822,-12.012101173400879,3.3866705894470215,-11.458553314208984,-24.309858322143555,1.053330898284912, -0.7851205468177795
352,1680943246,0.6147898,0.18133004,-0.76152414,0.096094295,4.407748222351074,9.552190780639648,-14.892789840698242,34.68629455566406,-126.7820816040039, -35.00746536254883
353,1680959913,0.60370135,0.18715772,-0.7693953,0.09245407,7.161877155303955,4.389288902282715,15.100786209106445,14.476621627807617,-98.63238525390625, -28.20060920715332
354,1680976580,0.5988989,0.1966524,-0.7712679,0.08828448,2.944395065307617,-0.8186918497085571,4.781539440155029,22.671432495117188,-44.01698684692383, -61.42217254638672
355,1680993247,0.59415585,0.20466812,-0.77331805,0.084080555,19.776277542114258,3.4100520610809326,1.512617826461792,16.219011306762695,-43.74910354614258, -53.568851470947266
356,1681009914,0.59057134,0.20892078,-0.77528614,0.08068061,17.517610549926758,-7.523327350616455,-2.7270286083221436,3.5658838748931885,-34.15203094482422, -31.045394897460938
357,1681026581,0.5891313,0.20638983,-0.777607,0.07520241,17.934724807739258,-3.156998872756958,-4.059177398681641,-38.378936767578125,-23.437698364257812, -4.302759647369385
358,1681043248,0.5904285,0.20192729,-0.7778419,0.0747114,13.219537734985352,-0.7568961977958679,-4.823435306549072,-22.373336791992188,7.6931538581848145, 21.686893463134766
359,1681059915,0.5965147,0.19439979,-0.77496576,0.07620502,9.126423835754395,1.688799262046814,-4.139966011047363,-29.27050018310547,50.3039665222168, 39.288330078125
360,1681076582,0.60539883,0.18894231,-0.76850617,0.08480355,8.391936302185059,1.4856489896774292,-2.470545530319214,15.214125633239746,88.37816619873047, 51.168094635009766
361,1681093249,0.6160975,0.18412843,-0.75961435,0.09750358,7.101383209228516,0.7522628307342529,-0.21690385043621063,38.630550384521484,113.0603256225586, 60.64932632446289
362,1681109916,0.6299207,0.18184024,-0.7462031,0.11539256,6.962640762329102,-0.8337239027023315,5.450185775756836,75.5127944946289,153.3732452392578, 61.63984298706055
363,1681126583,0.64716077,0.17799766,-0.7299814,0.12894721,-3.7183210849761963,1.9038782119750977,2.2591469287872314,44.505767822265625,178.69537353515625, 44.59126281738281
364,1681143250,0.65488243,0.16983323,-0.7249862,0.12915556,-9.822306632995605,10.749654769897461,-8.755231857299805,-40.01759338378906,68.42353820800781, 29.140520095825195
365,1681159917,0.6567175,0.164295,-0.7259504,0.121350236,-6.740902900695801,0.09848298132419586,-9.2468843460083,-66.5641860961914,0.8894214034080505, -7.515063285827637
366,1681176584,0.64868486,0.17660198,-0.72908646,0.12826955,-8.661175727844238,-2.834733009338379,-6.7206525802612305,96.83883666992188,-56.110774993896484, -19.417139053344727
367,1681193251,0.6364385,0.18884006,-0.7360504,0.13234712,-10.610332489013672,2.66348934173584,0.6270286440849304,84.02399444580078,-97.46881866455078, -23.478836059570312
368,1681209918,0.6258159,0.19010103,-0.74622643,0.12394608,-10.689756393432617,0.6874582767486572,6.975038528442383,-32.18910217285156,-109.51431274414062, -19.758787155151367
369,1681226585,0.6189173,0.18537602,-0.75535285,0.10963376,-10.186531066894531,-5.935762405395508,8.51737117767334,-92.2388687133789,-88.7020492553711, -19.001827239990234
370,1681243252,0.6140075,0.18129772,-0.761481,0.10135775,-9.3439302444458,-6.830495834350586,8.734687805175781,-58.41183853149414,-58.61578369140625, -2.1656441688537598
371,1681259919,0.61190826,0.17588948,-0.76494884,0.09738983,-9.95768928527832,-4.911532402038574,9.938551902770996,-43.13168716430664,-26.573278427124023, 17.52090835571289
372,1681276586,0.61368364,0.16782823,-0.76575655,0.09403981,-9.995594024658203,-2.2407608032226562,6.476400852203369,-53.95452117919922,7.306957721710205, 28.13854217529297
373,1681293253,0.600082,0.17239921,-0.7762884,0.08693032,-14.01409912109375,17.929561614990234,-43.13282012939453,-8.996499061584473,-127.2918701171875, -33.10833740234375
374,1681309920,0.58630973,0.16071552,-0.79158473,0.061688576,19.65292739868164,-1.3295634984970093,13.602019309997559,-175.4920654296875,-158.24996948242188, -14.820962905883789
375,1681326587,0.5822467,0.16079599,-0.7956473,0.045597743,-1.1255595684051514,2.78108549118042,3.257204055786133,-84.18256378173828,-55.60396957397461, -58.58738327026367
376,1681343254,0.5743909,0.17085877,-0.79924315,0.045751147,21.493595123291016,4.899350166320801,2.114037036895752,49.00742721557617,-59.75436019897461, -47.422359466552734
377,1681359921,0.5717304,0.17709844,-0.7999158,0.043538183,14.047306060791016,-2.7259349822998047,-3.452465057373047,15.760234832763672,-21.519329071044922, -40.78359603881836
378,1681376588,0.56935,0.18233928,-0.8002417,0.04697409,21.75947380065918,-3.043334722518921,-1.7895146608352661,42.63484191894531,-11.479019165039062, -13.740636825561523
379,1681393255,0.57017845,0.18115208,-0.7998129,0.048787177,19.281892776489258,-4.020793437957764,-3.337141513824463,4.739064693450928,8.996999740600586, 13.108867645263672
380,1681409922,0.5750683,0.17676365,-0.7970423,0.05267872,13.554756164550781,-2.5743987560272217,-2.261836051940918,-0.6905643343925476,44.07954788208008, 34.39083480834961
381,1681426589,0.5823381,0.17210023,-0.7921548,0.0612797,8.563982963562012,-0.7199881672859192,-0.386482834815979,21.883251190185547,71.25923156738281, 50.97043991088867
382,1681443256,0.5921997,0.16837913,-0.7844417,0.074830115,4.042453289031982,0.7552362680435181,2.0590944290161133,50.73564529418945,102.09603881835938, 61.19133758544922
383,1681459923,0.6079698,0.16568021,-0.7711445,0.09088209,0.09879076480865479,1.4654494524002075,3.017603635787964,64.437255859375,159.00364685058594, 56.39707946777344
384,1681476590,0.61772835,0.16145383,-0.7635139,0.09691008,-9.739115715026855,10.005171775817871,-4.779909610748291,8.21688175201416,92.9005355834961, 32.863792419433594
385,1681493257,0.6222939,0.14979514,-0.76345843,0.08627627,-8.311142921447754,4.519018650054932,-2.3706932067871094,-110.07972717285156,20.172433853149414, 13.299816131591797
386,1681509924,0.6232472,0.14909412,-0.7625109,0.08894628,-6.814651966094971,-10.219976425170898,4.199975490570068,10.896241188049316,12.375967025756836, 14.065434455871582
387,1681526591,0.6260953,0.15445895,-0.757443,0.10211683,-10.771769523620605,-4.703237533569336,8.657329559326172,92.49446868896484,46.94375991821289, 21.58026695251465
388,1681543258,0.6356901,0.1497411,-0.74978113,0.10632276,-11.731362342834473,0.5434595346450806,12.29478931427002,-2.9464242458343506,90.61570739746094, 27.889301300048828
389,1681559925,0.64976543,0.13877693,-0.74037045,0.101970114,-9.455928802490234,-3.1277310848236084,9.005247116088867,-77.70366668701172,116.8259506225586, 17.63228988647461
390,1681576592,0.6593866,0.1351372,-0.73227936,0.10351105,-7.900477409362793,-2.8195769786834717,-3.2339210510253906,-11.651652336120605,88.54219055175781, 10.96445083618164
391,1681593259,0.6628964,0.1382935,-0.7276738,0.10924543,-10.224848747253418,2.095153331756592,-5.263963222503662,43.476051330566406,41.207542419433594, 3.2866568565368652
392,1681609926,0.6616107,0.14049241,-0.7284291,0.109200105,-8.951103210449219,0.1821497678756714,-6.09844970703125,10.730050086975098,-11.751618385314941, -9.472342491149902
393,1681626593,0.654233,0.14651918,-0.73429877,0.10638136,-10.667038917541504,4.460901260375977,-20.559961318969727,16.298307418823242,-70.83024597167969, -31.717859268188477
394,1681643260,0.6333629,0.15684806,-0.7514228,0.098053664,3.1661009788513184,4.979172229766846,-13.434222221374512,13.190408706665039,-197.58348083496094, -56.858707427978516
395,1681659927,0.6196379,0.15774009,-0.7645916,0.08103832,9.489761352539062,7.19392728805542,15.387453079223633,-77.84416198730469,-146.049560546875, -54.857635498046875
396,1681676594,0.6097774,0.15919723,-0.7736419,0.065622024,12.936338424682617,1.5591673851013184,-4.904402256011963,-68.88614654541016,-107.34938049316406, -57.44535446166992
397,1681693261,0.6022052,0.16835324,-0.7776508,0.06531301,15.501212120056152,3.2191104888916016,-0.3918324410915375,43.52511215209961,-60.92803955078125, -41.610748291015625
398,1681709928,0.59721464,0.1736173,-0.7803091,0.06564879,19.953744888305664,-4.51429557800293,-3.9063844680786133,28.491199493408203,-39.16062545776367, -20.82513427734375
399,1681726595,0.59597564,0.17245132,-0.78149927,0.06582611,15.96787166595459,-5.288082122802734,-5.770719051361084,-2.602597951889038,-10.35323715209961, 9.360020637512207
400,1681743262,0.5998841,0.16636066,-0.77970004,0.06731672,12.456803321838379,-2.9784188270568848,-4.711731433868408,-20.508209228515625,33.369258880615234, 35.11591720581055
401,1681759929,0.6079353,0.1606075,-0.77398276,0.074639514,7.949495792388916,-0.1959373950958252,-4.099118709564209,9.20991325378418,78.28341674804688, 50.84284591674805
402,1681776596,0.61856276,0.15760538,-0.7646084,0.08896815,6.002624988555908,1.445778489112854,-0.027272552251815796,57.02921676635742,113.66057586669922, 60.110836029052734
403,1681793263,0.63034236,0.15799709,-0.7521692,0.10930424,3.658883571624756,1.6760905981063843,3.033987283706665,103.69264221191406,137.1371612548828, 63.83442306518555
404,1681809930,0.6456901,0.16113663,-0.7348252,0.13096443,-1.0126146078109741,1.7574890851974487,4.152332305908203,122.27793884277344,176.10731506347656, 47.40709686279297
405,1681826597,0.6544396,0.16191073,-0.7251034,0.1404251,-10.283077239990234,9.210007667541504,-4.298031806945801,50.572471618652344,97.39900207519531, 19.64095115661621
406,1681843264,0.6573083,0.15341346,-0.72621554,0.13046612,-9.679459571838379,5.627285957336426,-7.3922648429870605,-91.88419342041016,6.846729755401611, -3.4989535808563232
407,1681859931,0.65334094,0.15316096,-0.73065263,0.12583607,-7.370716094970703,-5.913692951202393,-5.793150901794434,-23.78720474243164,-43.82700729370117, -10.777511596679688
408,1681876598,0.6447493,0.16007806,-0.7359844,0.13038683,-9.896592140197754,-7.162838459014893,-1.5578521490097046,58.64630126953125,-67.42156219482422, -0.8027245402336121
409,1681893265,0.6374377,0.16272637,-0.74151045,0.13174182,-12.123645782470703,-2.0385758876800537,5.245547294616699,21.972604751586914,-61.43395233154297, 5.475111484527588
410,1681909932,0.6347449,0.15656123,-0.7468432,0.121708795,-12.05576229095459,-1.113141655921936,5.715799808502197,-79.70931243896484,-41.93565368652344, -3.9530365467071533
411,1681926599,0.6330648,0.14679344,-0.752395,0.10762396,-10.320430755615234,-2.8822970390319824,2.373009204864502,-117.5176010131836,-39.1740837097168, -3.7657830715179443
412,1681943266,0.62986183,0.13843666,-0.7578277,0.09902866,-9.503411293029785,-5.993920803070068,1.4313737154006958,-81.3533706665039,-42.06420135498047, 13.767684936523438
413,1681959933,0.6253761,0.13487978,-0.76226085,0.098341346,-10.258345603942871,-1.564855694770813,-2.2695884704589844,-17.46893310546875,-40.15907287597656, 22.765933990478516
414,1681976600,0.6089552,0.14181265,-0.77477485,0.093739256,-6.238193511962891,20.681798934936523,-18.51544189453125,12.713152885437012,-148.06654357910156, -33.502830505371094
415,1681993267,0.59524274,0.1333741,-0.7894623,0.06816932,15.43323040008545,9.021820068359375,10.569831848144531,-167.34945678710938,-152.67916870117188, -38.373626708984375
416,1682009934,0.590553,0.13526,-0.79367983,0.054994676,0.8830841779708862,-5.407241344451904,0.30042916536331177,-61.11643600463867,-54.817447662353516, -57.26439666748047
417,1682026601,0.5844196,0.15240589,-0.79441345,0.06429386,21.211362838745117,4.040469169616699,0.2816481590270996,126.11908721923828,-33.45597457885742, -52.17457962036133
418,1682043268,0.584056,0.15434793,-0.7945464,0.061251592,15.625914573669434,-7.14288330078125,-4.300861358642578,-8.151936531066895,-5.963314533233643, -21.84882926940918
419,1682059935,0.58540994,0.15210444,-0.793957,0.06158038,19.644319534301758,-4.447216033935547,-5.233654975891113,-8.107684135437012,11.623190879821777, 12.792284965515137
420,1682076602,0.5903413,0.14836462,-0.79068357,0.0656127,16.735118865966797,-2.286135196685791,-4.15256404876709,3.452636480331421,46.415958404541016, 31.35489845275879
421,1682093269,0.59986866,0.14736842,-0.7827173,0.07612012,11.676660537719727,1.3229174613952637,-1.9147745370864868,47.208282470703125,95.77583312988281, 35.75386428833008
422,1682109936,0.6106893,0.14737014,-0.77268124,0.09113,7.98992919921875,0.1745074838399887,-0.1573716551065445,75.33847045898438,115.2639389038086, 46.203857421875
423,1682126603,0.6272684,0.14948736,-0.7560068,0.11243804,6.483780384063721,0.34494549036026,5.035952091217041,116.0243148803711,178.73995971679688, 51.080265045166016
424,1682143270,0.6424137,0.14660214,-0.7412901,0.12767853,-5.983680725097656,3.5786361694335938,0.020617321133613586,62.86115646362305,160.2574462890625, 54.04875564575195
425,1682159937,0.6501122,0.13886483,-0.73573935,0.12945487,-9.541736602783203,12.380972862243652,-10.016002655029297,-27.740188598632812,72.5383529663086, 35.197052001953125
426,1682176604,0.65400296,0.13376829,-0.7340557,0.12469513,-6.010564804077148,-1.1420421600341797,-6.022127151489258,-48.80465316772461,27.778911590576172, 0.08406820893287659
427,1682193271,0.64720976,0.15286843,-0.73280334,0.14405061,-8.129725456237793,-7.211656093597412,-10.518608093261719,191.1946258544922,-26.435468673706055, -4.105409622192383
428,1682209938,0.6348033,0.17305265,-0.7363898,0.15750535,-9.120316505432129,7.127928733825684,-4.645514965057373,167.41213989257812,-83.18148803710938, -25.453393936157227
429,1682226605,0.6219018,0.17688233,-0.74875414,0.14600846,-9.139735221862793,6.567999839782715,-1.9376294612884521,-39.237274169921875,-135.81564331054688, -40.37916564941406
430,1682243272,0.6067773,0.1764132,-0.76469105,0.12628369,-7.703888416290283,-2.016486167907715,0.2956303656101227,-100.86051177978516,-168.18035888671875, -46.65391540527344
431,1682259939,0.5911141,0.17455238,-0.78017175,0.106994376,-7.682701110839844,-2.5533506870269775,7.4092326164245605,-103.32476043701172,-167.3889923095703, -37.65950012207031
432,1682276606,0.57832795,0.17108701,-0.7924516,0.09103192,-8.166701316833496,-7.570812702178955,10.031848907470703,-93.09447479248047,-133.98931884765625, -21.556846618652344
433,1682293273,0.5691696,0.1713192,-0.79933316,0.088106886,-9.48609447479248,-9.176291465759277,12.842400550842285,-8.266481399536133,-79.99754333496094, 1.2944376468658447
434,1682309940,0.5643557,0.17131042,-0.80272776,0.088226676,-15.147537231445312,0.7957326173782349,-8.247729301452637,4.47774600982666,-39.05912399291992, 7.534280300140381
435,1682326607,0.54317856,0.17241585,-0.8180813,0.07728674,4.472524642944336,14.059301376342773,-16.811023712158203,-40.22625732421875,-189.08392333984375, -17.45682144165039
436,1682343274,0.53725475,0.16334994,-0.8252995,0.05962658,14.28278636932373,-2.1607604026794434,7.098156452178955,-129.68138122558594,-75.02884674072266, -2.660102128982544
437,1682359941,0.5350109,0.16541417,-0.82692564,0.05095118,6.030996322631836,5.1353349685668945,2.9675376415252686,-39.43313980102539,-28.408113479614258, -40.51476287841797
438,1682376608,0.53507346,0.17868942,-0.82355535,0.059360456,21.782407760620117,3.9026663303375244,1.2531352043151855,98.10968017578125,18.401151657104492, -47.7840461730957
439,1682393275,0.5392227,0.18843745,-0.81813884,0.066177376,15.070669174194336,0.2014906406402588,-3.1425490379333496,71.95402526855469,48.214942932128906, -37.817955017089844
440,1682409942,0.5450923,0.19006965,-0.8133734,0.07191728,16.932937622070312,-4.152730941772461,-4.076059341430664,33.26771926879883,57.669925689697266, 3.8488354682922363
441,1682426609,0.55335045,0.18501963,-0.80833894,0.078482606,17.505828857421875,-3.0654664039611816,-2.6590828895568848,9.805826187133789,76.32456970214844, 42.596351623535156
442,1682443276,0.56388,0.1770473,-0.802086,0.08574447,14.80683708190918,-0.8247773051261902,0.816901445388794,0.2949497699737549,95.918701171875, 58.57151794433594
443,1682459943,0.5757376,0.17090034,-0.79374975,0.09633854,9.927616119384766,-2.4819717407226562,3.011273145675659,25.348636627197266,114.11717987060547, 58.0505485534668
444,1682476610,0.5886536,0.16920142,-0.78235185,0.11306472,4.430511951446533,-2.7952561378479004,4.861248970031738,77.19266510009766,136.09814453125, 53.674278259277344
445,1682493277,0.60666084,0.16760896,-0.76669186,0.12670259,-4.839094161987305,0.9052218794822693,1.4393703937530518,58.38979721069336,176.898681640625, 31.618295669555664
446,1682509944,0.61526406,0.15761507,-0.76292074,0.120666094,-10.051806449890137,8.83039379119873,-5.107895851135254,-79.88744354248047,62.39950942993164, 15.766626358032227
447,1682526611,0.6195699,0.14723018,-0.7631391,0.10988945,-8.263154029846191,-2.2427923679351807,-6.303549289703369,-105.04165649414062,18.442724227905273, 5.917917728424072
448,1682543278,0.6191358,0.15217142,-0.7615435,0.11647716,-8.242679595947266,-7.0539398193359375,-2.332890748977661,57.528053283691406,7.581109523773193, 1.1482118368148804
449,1682559945,0.6178333,0.16037849,-0.75928193,0.12669788,-12.689165115356445,0.7297833561897278,-0.46912673115730286,91.8904037475586,7.189911365509033, -0.6957641839981079
450,1682576612,0.618019,0.16022572,-0.7590949,0.12710367,-13.056999206542969,-0.21180935204029083,1.5951929092407227,1.696015477180481,2.711930513381958, 2.27890944480896
451,1682593279,0.6185969,0.15708621,-0.7599637,0.122953326,-11.33918285369873,-3.233776807785034,3.825417995452881,-36.12760543823242,-2.0963194370269775, -0.6699800491333008
452,1682609946,0.6157382,0.15558915,-0.7632045,0.11907022,-9.231512069702148,-0.665216863155365,-0.4274488687515259,-26.044605255126953,-31.28754234313965, -2.739281415939331
453,1682626613,0.60959184,0.15389729,-0.76915413,0.11452511,-8.527871131896973,-2.1761765480041504,0.8779247999191284,-29.04506492614746,-60.473785400390625, 1.063308835029602
454,1682643280,0.6016908,0.15281872,-0.77602965,0.11132329,-8.445197105407715,-1.5462887287139893,2.948383331298828,-18.251127243041992,-72.66178894042969, 5.760379791259766
455,1682659947,0.5873249,0.15614744,-0.7877082,0.100914195,-9.156512260437012,11.658498764038086,-19.671215057373047,-35.37160110473633,-138.00729370117188, -37.608028411865234
456,1682676614,0.5692801,0.15118243,-0.8041833,0.07971025,14.057112693786621,2.4386069774627686,-1.078653335571289,-126.67707824707031,-182.4453125, -28.18404769897461
457,1682693281,0.56203276,0.1525071,-0.81016695,0.0670155,-0.9617838263511658,1.2167940139770508,4.510076999664307,-60.4575080871582,-76.40448760986328, -46.40665054321289
458,1682709948,0.5543262,0.16277474,-0.813511,0.0665357,21.699726104736328,9.01270866394043,2.947532892227173,43.84452819824219,-60.230247497558594, -51.54402542114258
459,1682726615,0.5517853,0.16885553,-0.81422275,0.06373795,15.429465293884277,0.03138897195458412,-1.031633973121643,10.402127265930176,-22.34925079345703, -42.059410095214844
460,1682743282,0.54928225,0.17115097,-0.81539017,0.06431043,20.951684951782227,-3.3874785900115967,-3.5560686588287354,14.660735130310059,-18.45804786682129, -7.627132415771484
461,1682759949,0.54921705,0.16641065,-0.81649345,0.063300505,19.82735252380371,-4.031664848327637,-3.790372133255005,-23.65392303466797,-3.456179141998291, 24.51473617553711
462,1682776616,0.5531893,0.15859334,-0.81534004,0.06364713,14.079867362976074,-2.1951262950897217,-2.683091163635254,-31.334575653076172,30.493844985961914, 42.39081573486328
463,1682793283,0.56096935,0.15390284,-0.8102731,0.07131013,9.813851356506348,-1.712821364402771,0.27983546257019043,19.110504150390625,73.25593566894531, 46.657894134521484
464,1682809950,0.570529,0.15011767,-0.80318785,0.082771815,4.43405294418335,0.929717481136322,2.4499852657318115,42.85783767700195,94.42390441894531, 53.197933197021484
465,1682826617,0.5855125,0.14644688,-0.79140437,0.09699497,1.1036714315414429,0.8121837377548218,4.737570762634277,55.63615417480469,145.4987335205078, 55.502647399902344
466,1682843284,0.596712,0.14305371,-0.7823584,0.10670654,-10.131479263305664,7.338421821594238,-2.450749158859253,34.18138885498047,109.02432250976562, 41.14582824707031
467,1682859951,0.60221183,0.13103314,-0.7814539,0.0974765,-8.034424781799316,8.071974754333496,-1.2097885608673096,-103.45071411132812,32.86941146850586, 22.254013061523438
468,1682876618,0.6049394,0.12468359,-0.7809124,0.09315845,-7.510842323303223,-3.252405881881714,0.06938004493713379,-51.30130386352539,17.22751235961914, 14.536372184753418
469,1682893285,0.6082592,0.13051905,-0.7755667,0.10715481,-8.646819114685059,-10.671784400939941,6.237531661987305,100.27447509765625,48.36434555053711, 20.681285858154297
470,1682909952,0.6168294,0.1341369,-0.76630163,0.11962903,-12.36562442779541,1.8838136196136475,10.318522453308105,81.03108978271484,92.89897155761719, 18.434581756591797
471,1682926619,0.63085383,0.12710953,-0.75645876,0.11677852,-10.076042175292969,0.9674367308616638,9.368929862976074,-49.42753601074219,118.49436950683594, 4.565402984619141
472,1682943286,0.64182675,0.122042544,-0.74838686,0.114374384,-8.081818580627441,-4.757091522216797,-4.096551895141602,-37.36750793457031,93.5487060546875, 0.31283828616142273
473,1682959953,0.64461076,0.12965174,-0.7428404,0.12591998,-9.633569717407227,-3.1648545265197754,-8.865765571594238,95.2547378540039,42.212364196777344, 5.0654706954956055
474,1682976620,0.6414514,0.13957022,-0.74231356,0.13427983,-9.046623229980469,3.6681318283081055,-7.202123165130615,90.19489288330078,-14.87481689453125, -11.309062957763672
475,1682993287,0.6302556,0.14963871,-0.7502197,0.13250257,-11.972579002380371,7.383199214935303,-19.838354110717773,39.054473876953125,-102.66168212890625, -41.15174102783203
476,1683009954,0.61133397,0.1566446,-0.7665264,0.11904109,11.717620849609375,0.7772473096847534,-1.7968614101409912,-34.173675537109375,-187.44818115234375, -60.08250427246094
477,1683026621,0.6007914,0.15500106,-0.77800804,0.098631755,8.405584335327148,2.299900531768799,7.700028896331787,-112.23194885253906,-123.44632720947266, -55.72260284423828
478,1683043288,0.59050006,0.15845656,-0.7862806,0.08924504,15.560224533081055,-1.5301085710525513,-4.822781085968018,-30.288639068603516,-100.89276885986328, -40.990577697753906
479,1683059955,0.584564,0.16429192,-0.78976315,0.08699465,15.287518501281738,3.3481462001800537,-1.469929814338684,16.141151428222656,-51.581756591796875, -32.84645462036133
480,1683076622,0.580807,0.17036238,-0.79099643,0.0892465,19.95223617553711,-2.2783875465393066,-2.1714372634887695,40.42744445800781,-25.874807357788086, -19.802310943603516
481,1683093289,0.57992786,0.17123672,-0.79099834,0.09318557,15.787302017211914,-2.8889341354370117,-3.708648443222046,26.22673225402832,-0.28375110030174255, 11.872204780578613
482,1683109956,0.58399403,0.16684884,-0.78831494,0.09834789,11.878666877746582,-1.3920799493789673,-3.6556496620178223,7.780978679656982,42.082481384277344, 38.92009353637695
483,1683126623,0.59259206,0.16245386,-0.78134257,0.10930518,7.593972206115723,0.7947769165039062,-1.4285101890563965,36.85871124267578,90.51653289794922, 54.185768127441406
484,1683143290,0.60319364,0.15889709,-0.7714022,0.12588938,4.01794958114624,2.038978099822998,1.6075994968414307,70.50114440917969,119.00696563720703, 67.81302642822266
485,1683159957,0.6188746,0.15752545,-0.75542766,0.14666072,0.40731343626976013,3.2627053260803223,4.339991569519043,101.45553588867188,173.58877563476562, 62.6704216003418
486,1683176624,0.6304513,0.15515395,-0.74363965,0.15955822,-9.533888816833496,7.962713718414307,-4.543051719665527,56.50754928588867,126.7879867553711, 43.131126403808594
487,1683193291,0.6359482,0.14618585,-0.7422562,0.15249896,-8.313163757324219,10.82153034210205,-6.677365303039551,-79.05546569824219,36.761634826660156, 8.348666191101074
488,1683209958,0.63544005,0.14340788,-0.7447388,0.14496481,-8.141209602355957,-2.3478684425354004,-8.980788230895996,-52.426116943359375,-17.497133255004883, -14.827850341796875
489,1683226625,0.62880695,0.1512877,-0.7485357,0.14631717,-8.859515190124512,-4.369068622589111,-4.200519561767578,44.39497375488281,-56.1407356262207, -23.28042221069336
490,1683243292,0.6193347,0.15886593,-0.7550085,0.14542668,-10.644268989562988,-1.4213098287582397,-2.0194530487060547,31.825796127319336,-84.19129943847656, -25.95701026916504
491,1683259959,0.6090688,0.16220972,-0.76404583,0.13768646,-10.639442443847656,-2.0663039684295654,1.5364655256271362,-23.45509910583496,-102.3838119506836, -29.617107391357422
492,1683276626,0.6000804,0.16202714,-0.77324855,0.12545127,-9.76728630065918,-4.602330207824707,4.302985668182373,-63.42026901245117,-98.05668640136719, -31.014196395874023
493,1683293293,0.59175915,0.1594599,-0.7819998,0.11344853,-9.662286758422852,-5.402552127838135,3.539494037628174,-72.39056396484375,-90.43170928955078, -18.59286880493164
494,1683309960,0.58456343,0.15766186,-0.7886302,0.107197694,-9.218690872192383,-6.641005516052246,5.675209999084473,-37.930397033691406,-70.10279083251953, -2.683438301086426
495,1683326627,0.57794744,0.15888508,-0.7933591,0.10636745,-11.452363967895508,-1.873024821281433,-8.22657585144043,4.350473880767822,-55.787723541259766, 0.04249834269285202
496,1683343294,0.5595575,0.16659096,-0.80575454,0.09951284,0.6182194948196411,15.767358779907227,-13.16624641418457,4.492544174194336,-161.4614715576172, -42.312252044677734
497,1683359961,0.5493655,0.15789872,-0.81696874,0.076340996,14.89748764038086,3.6992313861846924,10.500006675720215,-157.51934814453125,-118.6029052734375, -20.694881439208984
498,1683376628,0.54491675,0.15995774,-0.82035446,0.0670684,0.6914504766464233,-2.856052875518799,0.794708788394928,-40.926116943359375,-47.872596740722656, -39.99974822998047
499,1683393295,0.5406185,0.17305523,-0.8198528,0.07500133,22.844594955444336,7.596503734588623,2.3276612758636475,99.0788345336914,-18.687158584594727, -42.24739074707031
500,1683409962,0.5420755,0.17668569,-0.8182325,0.07370377,17.01698875427246,-3.5555739402770996,-3.4630625247955322,5.630412578582764,11.42503547668457, -27.326068878173828
501,1683426629,0.5441167,0.17544532,-0.8169212,0.076132484,19.279272079467773,-4.714264392852783,-5.266275405883789,7.541504859924316,20.424747467041016, 13.885388374328613
502,1683443296,0.55001175,0.16823229,-0.8143092,0.07801227,17.420066833496094,-3.7328386306762695,-4.84669828414917,-21.892988204956055,49.302642822265625, 41.60337448120117
503,1683459963,0.56005317,0.16103622,-0.8082321,0.08467137,13.272482872009277,0.2560487389564514,-1.8505644798278809,1.9643980264663696,91.06568145751953, 53.20459747314453
504,1683476630,0.57192993,0.15529644,-0.79962045,0.09688559,8.244316101074219,-0.7868256568908691,-0.030371814966201782,37.887264251708984,116.2296142578125, 62.621402740478516
505,1683493297,0.5864146,0.1534678,-0.786565,0.1178193,4.920407295227051,-1.023682713508606,3.853050708770752,101.38634490966797,154.67169189453125, 68.90853881835938
506,1683509964,0.6050605,0.15002812,-0.77000785,0.13594751,-5.264231204986572,2.5961291790008545,2.3056812286376953,78.15705871582031,189.4853973388672, 59.22715377807617
507,1683526631,0.6148184,0.14108783,-0.7632939,0.1395546,-11.831615447998047,11.468484878540039,-7.97410249710083,-21.644853591918945,91.60997009277344, 46.47771453857422
508,1683543298,0.61961836,0.13387209,-0.76197755,0.13244534,-6.377991199493408,8.076458930969238,-8.412829399108887,-70.93830108642578,31.089195251464844, 2.459313154220581
509,1683559965,0.6179804,0.13624837,-0.7629206,0.13224673,-8.196842193603516,-6.438730239868164,-5.829167366027832,10.021244049072266,-14.315508842468262, -10.176514625549316
510,1683576632,0.6098596,0.15174519,-0.76452446,0.14334342,-10.866031646728516,1.4580988883972168,-3.8636672496795654,130.5116729736328,-52.244632720947266, -24.72466468811035
511,1683593299,0.6000587,0.16343872,-0.76915854,0.14701338,-10.716583251953125,1.9504566192626953,1.353532314300537,74.29785919189453,-77.58815002441406, -31.050106048583984
512,1683609966,0.5914129,0.1677234,-0.77625555,0.1397399,-10.454544067382812,-0.3918185532093048,3.606217622756958,-17.928144454956055,-86.4336166381836, -35.3868293762207
513,1683626633,0.58373654,0.16927879,-0.78356385,0.12893596,-9.07202434539795,-4.380813121795654,4.305166244506836,-49.195228576660156,-83.6266860961914, -35.890380859375
514,1683643300,0.57590985,0.1696819,-0.7905437,0.12073591,-8.1940279006958,-5.532059192657471,5.104179382324219,-39.340484619140625,-79.14891815185547, -19.621904373168945
515,1683659967,0.5697867,0.1700917,-0.795399,0.117271826,-8.705120086669922,-5.210201263427734,6.870344638824463,-13.819316864013672,-56.06139373779297, -4.966181755065918
516,1683676634,0.5638529,0.17391935,-0.7993433,0.1134574,-14.111795425415039,3.23909592628479,-13.210844039916992,-1.8565478324890137,-54.766624450683594, -26.402667999267578
517,1683693301,0.54659164,0.18109278,-0.81046325,0.107669584,7.82991886138916,3.687364339828491,-12.814876556396484,8.229909896850586,-149.25929260253906, -34.91300582885742
518,1683709968,0.53717047,0.179266,-0.81844276,0.097281076,6.348341464996338,5.053474426269531,8.173900604248047,-58.65562438964844,-92.55824279785156, -11.644723892211914
519,1683726635,0.5300283,0.1838108,-0.82280254,0.090994366,3.1112799644470215,3.046725034713745,7.382140159606934,-12.399880409240723,-65.94788360595703, -38.18667221069336
520,1683743302,0.52909684,0.18838379,-0.8229571,0.085499965,19.73240089416504,8.889439582824707,4.979516983032227,-13.014202117919922,-14.798999786376953, -44.57985305786133
521,1683759969,0.5288999,0.19521475,-0.8212601,0.08768359,18.233470916748047,-5.580056667327881,-3.4957261085510254,38.84413528442383,4.270501136779785, -32.0401611328125
522,1683776636,0.5294734,0.19396274,-0.8211132,0.08837387,18.795421600341797,-6.368756294250488,-6.894720554351807,-0.9978582859039307,5.70353364944458, 9.568824768066406
523,1683793303,0.53440607,0.18410838,-0.8206417,0.08403451,14.76444149017334,-2.3754286766052246,-5.4536213874816895,-66.38142395019531,29.9645938873291, 36.50734329223633
524,1683809970,0.54358417,0.17618662,-0.81585497,0.08863285,11.930427551269531,-1.9369226694107056,-4.366640090942383,-11.756016731262207,79.94143676757812, 50.42717361450195
525,1683826637,0.55469304,0.17096259,-0.8081346,0.10003221,9.636683464050293,1.4508776664733887,-0.6610075235366821,35.91176986694336,108.31672668457031, 55.9103889465332
526,1683843304,0.56625193,0.16740203,-0.79864913,0.11616913,6.837206840515137,-1.3302245140075684,2.1923680305480957,69.27247619628906,121.88811492919922, 62.396339416503906
527,1683859971,0.58137244,0.16478318,-0.7851796,0.1354469,3.3428120613098145,-0.6545530557632446,6.485333442687988,89.26419067382812,159.6951141357422, 61.99760818481445
528,1683876638,0.59641814,0.16026801,-0.77248996,0.14784892,-7.833329677581787,2.0945074558258057,1.77910578250885,43.904388427734375,149.92529296875, 45.69876480102539
529,1683893305,0.6042669,0.15185416,-0.76829845,0.1466959,-10.756864547729492,10.913640022277832,-6.02925968170166,-44.787574768066406,65.91132354736328, 27.558002471923828
530,1683909972,0.60834605,0.14564034,-0.7677639,0.13871911,-6.297871112823486,1.9501608610153198,-3.8630611896514893,-71.42000579833984,21.765583038330078, -4.483066558837891
531,1683926639,0.60763973,0.1486098,-0.7678542,0.13816561,-9.512001037597656,-1.552297830581665,-3.0970444679260254,10.385254859924316,-7.250903129577637, -16.67888832092285
532,1683943306,0.60308224,0.15737736,-0.7688278,0.1429283,-11.31654167175293,-0.4454347491264343,-2.9321255683898926,65.78130340576172,-31.17202377319336, -20.5833683013916
533,1683959973,0.5963762,0.16680633,-0.771175,0.14765036,-11.42961311340332,-0.8051439523696899,0.0517253652215004,69.29432678222656,-48.73801040649414, -20.684614181518555
534,1683976640,0.58890796,0.17398131,-0.7753041,0.14772226,-10.745359420776367,-2.0321972370147705,0.7365276217460632,34.46379852294922,-63.04701232910156, -25.02800941467285
535,1683993307,0.5797441,0.17909491,-0.7815408,0.14497,-8.549720764160156,-2.953815460205078,1.8064922094345093,10.94797420501709,-81.84868621826172, -21.307275772094727
536,1684009974,0.5709771,0.17978506,-0.7889851,0.13843861,-8.743861198425293,-2.1062612533569336,2.7986199855804443,-28.692901611328125,-84.76758575439453, -11.604768753051758
537,1684026641,0.5645342,0.1768875,-0.7962343,0.12658313,-9.679088592529297,-0.9968233704566956,-0.6953652501106262,-74.35607147216797,-74.57389068603516, -15.559466361999512
538,1684043308,0.5518328,0.17971192,-0.80650395,0.112852596,-2.0308279991149902,-2.163201093673706,-16.08621597290039,-57.44052505493164,-127.71073913574219, -45.06169509887695
539,1684059975,0.53347206,0.18824208,-0.8168086,0.113122724,9.28101921081543,-0.23918984830379486,0.4879038631916046,48.799808502197266,-145.84747314453125, -19.20083999633789
540,1684076642,0.52422523,0.18875857,-0.82435083,0.1000218,-4.0827178955078125,5.7615766525268555,6.526297092437744,-65.35214233398438,-95.76573181152344, -33.90528869628906
541,1684093309,0.51930404,0.18809777,-0.82951206,0.08278259,19.782835006713867,12.186580657958984,6.805761337280273,-96.99504852294922,-67.39507293701172, -48.020545959472656
542,1684109976,0.51547325,0.19854516,-0.8294357,0.08309032,14.281662940979004,0.5419290661811829,1.8812053203582764,44.41170120239258,-26.617156982421875, -55.79074478149414
543,1684126643,0.5134136,0.20874555,-0.8274295,0.09051424,15.861225128173828,1.5224483013153076,-2.970526695251465,82.80986022949219,-0.08668859302997589, -32.83110427856445
544,1684143310,0.51450026,0.20772858,-0.82681465,0.0922859,14.825121879577637,-7.145542621612549,-8.985745429992676,5.6811394691467285,11.629874229431152, 11.072810173034668
545,1684159977,0.5199972,0.19890328,-0.8256485,0.09135296,12.855708122253418,-2.950653076171875,-5.13043737411499,-43.336421966552734,39.79736328125, 42.0581169128418
546,1684176644,0.5286595,0.18924522,-0.8221849,0.0933682,10.43988037109375,-1.5817171335220337,-0.9683171510696411,-32.49531173706055,70.50943756103516, 52.08103942871094
547,1684193311,0.5376889,0.1849187,-0.8158403,0.105359994,8.194127082824707,-0.05811801552772522,2.1205224990844727,44.63862991333008,92.50875854492188, 54.16107940673828
548,1684209978,0.5470158,0.18231721,-0.8079444,0.121492274,3.94722318649292,0.7835259437561035,4.444468975067139,74.98381042480469,103.77017974853516, 57.60773468017578
549,1684226645,0.561319,0.17863639,-0.7963677,0.13714609,-1.1594769954681396,0.14462856948375702,6.329484939575195,65.09967041015625,145.4020233154297, 53.073936462402344
550,1684243312,0.57054126,0.17034443,-0.79093593,0.1410187,-12.179360389709473,6.847676753997803,-0.30553576350212097,-16.775266647338867,83.58353424072266, 45.1996955871582
551,1684259979,0.57655174,0.15402678,-0.7922798,0.12711151,-8.666155815124512,8.594806671142578,-2.462916612625122,-147.743408203125,26.67085838317871, 30.3287410736084
552,1684276646,0.5816784,0.1427457,-0.79165024,0.120683715,-5.424609661102295,-9.367595672607422,2.3772687911987305,-84.3404769897461,33.382110595703125, 31.44810676574707
553,1684293313,0.58397365,0.14987363,-0.78595716,0.13705653,-9.461305618286133,-2.8903753757476807,1.0550196170806885,120.34125518798828,45.31901550292969, 19.523733139038086
554,1684309980,0.58676887,0.15297797,-0.7820989,0.14360265,-11.359786987304688,7.3180670738220215,2.7295517921447754,48.83056640625,34.39157485961914, 3.1449525356292725
555,1684326647,0.5891144,0.14679496,-0.7835494,0.13208362,-11.030473709106445,0.6913989782333374,0.4515688121318817,-90.53174591064453,0.7635306119918823, -13.568572998046875
556,1684343314,0.58547425,0.14663844,-0.7876465,0.12381679,-8.861529350280762,-2.3373680114746094,-5.057127952575684,-44.95323181152344,-44.29680633544922, -24.759645462036133
557,1684359981,0.57670563,0.14909256,-0.79473585,0.11652191,-9.063632011413574,0.9238806962966919,-3.3246419429779053,-26.546764373779297,-85.11180877685547, -27.684324264526367
558,1684376648,0.56690556,0.14957601,-0.8028644,0.10795493,-8.830209732055664,-2.391535758972168,1.1618876457214355,-41.07490539550781,-94.40055847167969, -20.04722023010254
559,1684393315,0.5546183,0.15543327,-0.8110945,0.101810716,-7.048013210296631,-1.4546232223510742,-16.10205841064453,-4.278614044189453,-109.975830078125, -38.39319610595703
560,1684409982,0.53647715,0.16381422,-0.821909,0.09911232,8.487886428833008,2.6284985542297363,-5.366724014282227,29.014387130737305,-150.00405883789062, -32.51154708862305
561,1684426649,0.53127897,0.16053286,-0.8279766,0.080169715,-0.6384161710739136,4.3585944175720215,3.345191478729248,-117.14238739013672,-69.66805267333984, -40.607643127441406
562,1684443316,0.5247696,0.17119692,-0.8297632,0.08247267,19.82099723815918,0.7799589037895203,2.615018844604492,58.576541900634766,-45.847267150878906, -46.26182174682617
563,1684459983,0.5223275,0.18062006,-0.82889473,0.08651175,17.72100067138672,2.4107344150543213,2.3479180335998535,60.71793746948242,-10.690131187438965, -38.36479568481445
564,1684476650,0.52042335,0.18264237,-0.82950276,0.087904565,19.906091690063477,-3.0874907970428467,-1.8122767210006714,17.52630615234375,-12.139313697814941, -4.139389991760254
565,1684493317,0.5205564,0.17845722,-0.83023554,0.088789016,17.58316421508789,-2.8495078086853027,-2.6942756175994873,-10.245523452758789,1.9143186807632446, 28.2447452545166
566,1684509984,0.5252005,0.17396489,-0.8275687,0.09503167,13.1754789352417,0.22501344978809357,0.7758583426475525,15.752190589904785,46.42783737182617, 42.14354705810547
567,1684526651,0.53264034,0.17116383,-0.82173,0.108430676,6.317190647125244,0.02677888795733452,0.9069612622261047,61.29887771606445,81.05241394042969, 52.743751525878906
568,1684543318,0.5456407,0.1693874,-0.81072956,0.12767929,2.410078763961792,1.1809355020523071,4.593373775482178,95.39935302734375,137.41107177734375, 58.174888610839844
569,1684559985,0.55929387,0.1650236,-0.7997497,0.14268251,-8.834556579589844,5.353420734405518,-0.5282459259033203,61.23054885864258,138.15550231933594, 56.174461364746094
570,1684576652,0.5659565,0.15731649,-0.796604,0.14271432,-9.948030471801758,13.044822692871094,-7.558080673217773,-33.691978454589844,56.02642059326172, 32.87697219848633
571,1684593319,0.5712583,0.1487488,-0.7958232,0.1349206,-8.290176391601562,1.114644169807434,-2.394587516784668,-80.6940689086914,32.11551284790039, 11.389923095703125
572,1684609986,0.5736665,0.15625063,-0.7900816,0.14921214,-8.545944213867188,-11.10856819152832,2.1259002685546875,110.83568572998047,43.624473571777344, 7.8204026222229
573,1684626653,0.57543105,0.16869396,-0.7822687,0.16875282,-11.97437572479248,1.4084904193878174,4.302412509918213,161.6324005126953,48.894920349121094, -0.23814521729946136
574,1684643320,0.58061796,0.16831763,-0.7786028,0.16831574,-12.514132499694824,5.228185653686523,5.519887924194336,-5.332382678985596,42.582984924316406, -9.474457740783691
575,1684659987,0.5874525,0.1620012,-0.77707,0.15753785,-10.551291465759277,-3.2592451572418213,2.3568098545074463,-88.78033447265625,37.73993682861328, -18.278419494628906
576,1684676654,0.59181225,0.15592362,-0.77684385,0.1481896,-9.440610885620117,-4.9225335121154785,-1.845168113708496,-78.84030151367188,20.591737747192383, -9.776447296142578
577,1684693321,0.5915639,0.15454206,-0.7779549,0.14476077,-9.021997451782227,-4.475147247314453,-4.140932559967041,-24.53413200378418,-7.759206771850586, -4.810768127441406
578,1684709988,0.58744466,0.15625387,-0.78099513,0.14331916,-8.600220680236816,-1.6262972354888916,-1.6905089616775513,0.8762596249580383,-37.07199478149414, -7.514355659484863
579,1684726655,0.57951117,0.15918829,-0.78732944,0.1376181,-9.394923210144043,3.361753463745117,-12.419590950012207,-16.204692840576172,-76.51996612548828, -24.038814544677734
580,1684743322,0.56160927,0.16544712,-0.80131346,0.12296175,3.532303810119629,10.563969612121582,-4.287113666534424,-47.74747085571289,-173.46356201171875, -59.81612777709961
581,1684759989,0.5473578,0.16090792,-0.8156053,0.09641827,16.63380241394043,0.023533672094345093,8.458392143249512,-159.33358764648438,-158.87649536132812, -48.63041687011719
582,1684776656,0.5381429,0.16785586,-0.8211286,0.08930389,7.655435562133789,-6.223324775695801,-1.9404994249343872,-6.894002914428711,-84.2132568359375, -52.967525482177734
583,1684793323,0.5288794,0.17722641,-0.82488054,0.09192256,17.955150604248047,2.0077645778656006,-2.9096274375915527,58.12468338012695,-68.24125671386719, -32.843387603759766
584,1684809990,0.5257801,0.17564236,-0.82780355,0.08629412,12.6510591506958,-4.2066497802734375,-6.045004367828369,-35.46157455444336,-33.554630279541016, -5.574997901916504
585,1684826657,0.5263511,0.17093176,-0.82855374,0.08506453,13.135846138000488,-1.3135648965835571,-5.480522632598877,-24.901691436767578,2.3547582626342773, 23.18192481994629
586,1684843324,0.53149647,0.16575055,-0.8257368,0.090540245,10.255041122436523,0.0020464234985411167,-5.330657005310059,8.29279613494873,49.45061492919922, 43.209320068359375
587,1684859991,0.54182005,0.16209301,-0.81827843,0.10284777,8.801658630371094,2.0070385932922363,-2.68072509765625,49.63890838623047,102.66366577148438, 51.00564956665039
588,1684876658,0.5549011,0.16010317,-0.80750656,0.1199376,5.658104419708252,-0.9691248536109924,-0.36089491844177246,82.04403686523438,134.63990783691406, 53.85352325439453
589,1684893325,0.5722515,0.16164175,-0.79087746,0.14461401,5.354939937591553,-1.2827584743499756,4.904228687286377,137.77249145507812,186.0924530029297, 53.22038269042969
590,1684909992,0.5876702,0.16132572,-0.7761496,0.16189481,-7.982248783111572,5.4026265144348145,-1.0202933549880981,90.48973846435547,161.51124572753906, 38.211639404296875
591,1684926659,0.59424967,0.15289202,-0.774099,0.15576474,-9.52407455444336,15.080079078674316,-9.66530704498291,-71.542236328125,46.28422927856445, 10.98226261138916
592,1684943326,0.59724754,0.14525764,-0.7751246,0.14621231,-6.016002655029297,-10.947197914123535,-1.855364203453064,-85.98332977294922,10.577587127685547, 0.23771131038665771
593,1684959993,0.59396696,0.15645386,-0.7733565,0.15698996,-10.16657543182373,-0.8054437637329102,-3.430047035217285,108.76959991455078,-9.948254585266113, -13.457433700561523
594,1684976660,0.59187835,0.16062841,-0.7742998,0.1560094,-11.601896286010742,3.8128631114959717,0.9525189399719238,13.37142276763916,-19.577869415283203, -22.562335968017578
595,1684993327,0.5908424,0.15827614,-0.777434,0.14646082,-11.786352157592773,-3.2752256393432617,0.8484367728233337,-62.3121452331543,-25.304973602294922, -21.299882888793945
596,1685009994,0.58644277,0.16179973,-0.7806007,0.14341915,-10.099320411682129,-5.732776641845703,-1.6459237337112427,-0.03877793997526169,-42.20503234863281, -22.962482452392578
597,1685026661,0.5767397,0.17085601,-0.78556186,0.14516434,-7.6117424964904785,-2.6304075717926025,-2.316232919692993,52.083919525146484,-77.92317199707031, -26.315853118896484
598,1685043328,0.56363344,0.17956086,-0.7933216,0.14393276,-7.693398952484131,-2.810887575149536,-0.5615919232368469,35.805198669433594,-110.43880462646484, -29.627195358276367
599,1685059995,0.5507419,0.1813109,-0.80344194,0.13524567,-7.820829391479492,-2.7383391857147217,5.878538131713867,-34.43704605102539,-120.67356872558594, -17.962867736816406
600,1685076662,0.5450811,0.17627402,-0.81055593,0.121711105,-9.42578125,-4.119625568389893,2.851025104522705,-93.15760803222656,-69.19267272949219, -9.359774589538574
601,1685093329,0.5347387,0.179734,-0.8177541,0.1141439,-1.756649374961853,0.007753204554319382,-21.309431076049805,-22.488426208496094,-95.47055053710938, -30.420427322387695
602,1685109996,0.51873463,0.18400924,-0.82752943,0.11068202,12.388816833496094,18.12770652770996,11.954108238220215,8.559314727783203,-131.71925354003906, -12.260751724243164
603,1685126663,0.51524544,0.18627533,-0.83093345,0.09681868,7.195590972900391,5.040822982788086,13.217820167541504,-68.67359924316406,-49.982887268066406, -54.977535247802734
604,1685143330,0.51289046,0.1966987,-0.8297274,0.09902391,23.29297637939453,7.420924663543701,5.486959457397461,53.6695671081543,-12.537652969360352, -51.179725646972656
605,1685159997,0.51179266,0.20133504,-0.8288382,0.10276167,17.942256927490234,-11.670744895935059,-9.09282112121582,40.14168930053711,-0.9757604002952576, -13.010897636413574
606,1685176664,0.5140762,0.19281365,-0.8301252,0.097165205,15.623746871948242,-4.857601642608643,-7.132246971130371,-65.66132354736328,7.016490936279297, 29.38089942932129
607,1685193331,0.52134925,0.18398148,-0.82761717,0.096932694,12.874927520751953,-6.995819568634033,-6.701500415802002,-40.26404571533203,56.21137619018555, 41.58832931518555
608,1685209998,0.53068566,0.18355016,-0.8198778,0.11172661,8.295294761657715,-0.8787200450897217,-0.6962283253669739,76.18867492675781,100.13177490234375, 39.44760513305664
609,1685226665,0.5406166,0.18427551,-0.81030715,0.13106935,6.54593563079834,-0.2747441828250885,2.6985881328582764,106.71544647216797,114.92591094970703, 46.74480056762695
610,1685243332,0.55235034,0.18405898,-0.7985633,0.15273674,2.5060365200042725,-0.38723716139793396,6.72012996673584,115.8475112915039,136.68397521972656, 56.27321243286133
611,1685259999,0.56667906,0.18008679,-0.78638875,0.1674423,-7.960039138793945,2.0752761363983154,3.695634365081787,60.51591491699219,147.4755859375, 47.199623107910156
612,1685276666,0.5736626,0.170407,-0.7836141,0.16679916,-12.078661918640137,10.57472038269043,-5.405181884765625,-46.436370849609375,58.68830490112305, 38.407493591308594
613,1685293333,0.5766356,0.16079476,-0.7859845,0.15448387,-6.404296875,6.725861549377441,-7.302462577819824,-110.22061157226562,3.3456873893737793, 2.9190895557403564
614,1685310000,0.57332,0.16260381,-0.78821385,0.15356976,-8.692648887634277,-7.1349616050720215,-4.796199798583984,3.812136173248291,-29.30569839477539, -6.894589424133301
615,1685326667,0.5645781,0.17464793,-0.7901927,0.16231324,-11.335217475891113,2.023077964782715,-3.9733951091766357,102.82977294921875,-57.507965087890625, -19.0791015625
616,1685343334,0.5547883,0.18219253,-0.79546124,0.16204214,-10.862651824951172,2.416649103164673,-0.4352741837501526,33.98931884765625,-81.54463195800781, -24.474773406982422
617,1685360001,0.54496855,0.18481463,-0.8035674,0.15209372,-9.680179595947266,-0.14345145225524902,0.8845725059509277,-40.829185485839844,-99.05878448486328, -30.829586029052734
618,1685376668,0.5344417,0.18456186,-0.8133487,0.13701521,-8.095219612121582,-3.241300106048584,2.6304726600646973,-80.80545043945312,-112.69567108154297, -31.312063217163086
619,1685393335,0.5239119,0.18283746,-0.82270825,0.12344361,-8.04239273071289,-5.702032089233398,3.4765589237213135,-77.40388488769531,-107.86457824707031, -18.171092987060547
620,1685410002,0.5156814,0.18006162,-0.83002853,0.112710774,-10.037545204162598,-4.317996025085449,7.626865386962891,-66.32921600341797,-83.063232421875, -6.671350479125977
621,1685426669,0.50801724,0.1824694,-0.83511513,0.105860315,-12.220403671264648,-1.6935774087905884,-11.1405668258667,-24.805021286010742,-71.22208404541016, -25.800735473632812
622,1685443336,0.48924735,0.1871396,-0.8462675,0.0971985,13.590462684631348,10.256844520568848,-9.329041481018066,-17.803983688354492,-159.61524963378906, -29.456256866455078
623,1685460003,0.48502335,0.18257292,-0.8518489,0.07598527,4.6862287521362305,3.4864954948425293,11.428689002990723,-136.83277893066406,-66.18675994873047, -34.50074005126953
624,1685476670,0.47816476,0.19139901,-0.8539135,0.074546166,12.84804916381836,-1.248125672340393,-0.8301590085029602,28.825851440429688,-52.49739074707031, -49.932823181152344
625,1685493337,0.4751374,0.2030917,-0.8522442,0.0817227,12.594930648803711,2.0640223026275635,0.2462874948978424,85.6871337890625,-8.076133728027344, -45.380985260009766
626,1685510004,0.4753657,0.20686407,-0.85087085,0.08517146,13.1348237991333,-3.636118173599243,-5.981621742248535,33.27524948120117,9.038898468017578, -12.530956268310547
627,1685526671,0.48019853,0.20178698,-0.8493599,0.08532006,12.576555252075195,-0.3729415535926819,-5.044212818145752,-21.46379280090332,36.84657669067383, 25.433597564697266
628,1685543338,0.4892496,0.19386502,-0.845608,0.08943638,13.025728225708008,1.5474681854248047,-2.3501265048980713,-12.23030948638916,75.97557067871094, 49.533687591552734
629,1685560005,0.50048196,0.18781124,-0.8390625,0.10109109,9.408163070678711,1.2434486150741577,-0.2047778218984604,36.704349517822266,106.80288696289062, 58.995887756347656
630,1685576672,0.5124231,0.1840222,-0.83027434,0.11917707,6.511628150939941,-1.290210247039795,1.3806548118591309,82.2520523071289,125.20317840576172, 64.70977020263672
631,1685593339,0.5269184,0.18246534,-0.8177077,0.14289191,3.871725559234619,-2.1099250316619873,5.402400493621826,122.10565948486328,158.2698211669922, 64.90531921386719
632,1685610006,0.5433233,0.17811435,-0.8047957,0.15930952,-6.336874485015869,0.2456030696630478,2.850865602493286,68.86333465576172,163.63755798339844, 51.82443618774414
633,1685626673,0.55155283,0.1695923,-0.80100596,0.15942997,-11.006049156188965,8.765254974365234,-6.081952095031738,-36.88625717163086,68.93668365478516, 34.14543914794922
634,1685643340,0.5547992,0.16329257,-0.8019423,0.14974074,-5.769582271575928,4.19833517074585,-6.924873352050781,-81.80176544189453,10.04159164428711, -4.083632946014404
635,1685660007,0.55111223,0.1656111,-0.80429286,0.14819452,-7.8605170249938965,-5.643442630767822,-5.086940765380859,2.3364579677581787,-33.015419006347656, -11.706897735595703
636,1685676674,0.542019,0.17447376,-0.8074313,0.15436739,-11.104938507080078,-0.6869618892669678,-3.1236178874969482,75.16857147216797,-63.52849197387695, -12.435921669006348
637,1685693341,0.5318423,0.17928609,-0.81309927,0.15449962,-11.673393249511719,-0.24404262006282806,1.7384223937988281,25.162921905517578,-81.69402313232422, -8.32772445678711
638,1685710008,0.52389324,0.17696893,-0.8207634,0.14340739,-11.134754180908203,-1.5737615823745728,6.7942280769348145,-68.52629089355469,-82.72698211669922, -9.448758125305176
639,1685726675,0.51704913,0.16948599,-0.82933015,0.12706886,-9.89333724975586,-5.518637657165527,3.3590078353881836,-118.99882507324219,-81.1133041381836, 0.7609384655952454
640,1685743342,0.51125616,0.1627817,-0.83592033,0.11557178,-10.262229919433594,-4.153758525848389,5.0633625984191895,-88.15436553955078,-63.10344314575195, 10.148822784423828
641,1685760009,0.50854653,0.15669003,-0.8395645,0.10936409,-9.921093940734863,-4.122859001159668,6.828486919403076,-56.74064254760742,-29.60407257080078, 19.35881233215332
642,1685776676,0.49632967,0.16555995,-0.8451104,0.10970645,-9.882824897766113,14.00084114074707,-28.02277374267578,42.152793884277344,-95.40032958984375, -35.01880645751953
643,1685793343,0.4822253,0.16367716,-0.8558489,0.090507574,19.637008666992188,9.003717422485352,11.405598640441895,-109.71891021728516,-137.25057983398438, -31.461442947387695
644,1685810010,0.4803385,0.16504814,-0.85807943,0.07572568,-0.12436419725418091,-2.2694079875946045,-1.9683948755264282,-81.33628845214844,-34.905555725097656, -52.85443115234375
645,1685826677,0.47450772,0.178736,-0.8572423,0.089621216,20.273693084716797,1.2392024993896484,3.320730447769165,134.58026123046875,-21.877500534057617, -32.32088088989258
646,1685843344,0.47459307,0.18180646,-0.8564097,0.0909428,16.863765716552734,-1.698009967803955,-1.4477574825286865,18.550153732299805,3.5916824340820312, -14.392045021057129
647,1685860011,0.47569168,0.17994985,-0.8560793,0.09200106,21.077415466308594,-3.965421676635742,-0.15954652428627014,-0.6834883093833923,10.402280807495117, 13.691030502319336
648,1685876678,0.4774745,0.17768715,-0.8548973,0.097962655,18.683320999145508,-3.182424545288086,1.8906711339950562,26.490949630737305,23.166767120361328, 30.50539779663086
649,1685893345,0.48281687,0.17573848,-0.85120606,0.107016906,11.778712272644043,-0.7951417565345764,3.7048847675323486,42.99753189086914,55.52295684814453, 33.261940002441406
650,1685910012,0.49371243,0.174864,-0.84306717,0.12210129,6.290309429168701,-2.0563135147094727,5.7127556800842285,78.39825439453125,109.00358581542969, 37.53599166870117
651,1685926679,0.5059279,0.17053804,-0.8344412,0.13660891,-5.653101444244385,-0.008134638890624046,1.1719081401824951,62.12260055541992,120.2781982421875, 53.863285064697266
652,1685943346,0.5112977,0.16309981,-0.8320976,0.13995443,-11.04947280883789,10.488653182983398,-7.127764701843262,-10.63015079498291,49.081642150878906, 46.6876220703125
653,1685960013,0.51800203,0.14796227,-0.83290523,0.12669015,-7.988514423370361,3.3582279682159424,-1.0435181856155396,-137.16912841796875,34.85139083862305, 34.870994567871094
654,1685976680,0.5233501,0.14388867,-0.8291022,0.13412952,-9.187175750732422,-11.224111557006836,1.2095811367034912,26.222023010253906,55.10440444946289, 41.806640625
655,1685993347,0.52773154,0.15095378,-0.82074803,0.15838382,-10.287107467651367,-2.6942365169525146,3.1001033782958984,167.260986328125,72.4442367553711, 34.85769271850586
656,1686010014,0.53422797,0.15115403,-0.8147159,0.16730642,-11.988624572753906,9.630497932434082,5.020965099334717,51.084720611572266,67.5634536743164, 17.976282119750977
657,1686026681,0.5427135,0.14427863,-0.8122465,0.15780297,-10.9818696975708,2.5401456356048584,1.4834294319152832,-84.2456283569336,54.63215255737305, -8.40269947052002
658,1686043348,0.5475269,0.14005849,-0.8113374,0.14943163,-9.973145484924316,-2.9300503730773926,-4.297911643981934,-66.04548645019531,26.649272918701172, -13.444316864013672
659,1686060015,0.5460317,0.14328268,-0.81163883,0.15020692,-8.96167278289795,-2.9235663414001465,-5.377884387969971,17.848342895507812,-11.673295021057129, -13.012930870056152
660,1686076682,0.5393166,0.15137562,-0.8139761,0.1538393,-8.39755916595459,0.9947052001953125,-2.7942094802856445,55.12553024291992,-50.38053512573242, -22.175716400146484
661,1686093349,0.53032625,0.15830944,-0.81899506,0.15145838,-7.643648624420166,0.9186703562736511,0.08973904699087143,16.721025466918945,-77.90577697753906, -32.78099822998047
662,1686110016,0.5136728,0.16694397,-0.82941777,0.14260629,-5.669372081756592,3.812652587890625,-6.930929660797119,-10.804485321044922,-149.50131225585938, -52.08362579345703
663,1686126683,0.496428,0.16750558,-0.84324104,0.120191924,14.081265449523926,3.028459072113037,-6.048046588897705,-119.29754638671875,-172.26600646972656, -49.346961975097656
664,1686143350,0.48936716,0.1623884,-0.8513225,0.09695607,7.535488128662109,-1.066201090812683,2.5351827144622803,-150.4045867919922,-89.92589569091797, -34.1104850769043
665,1686160017,0.4812975,0.1654163,-0.8558884,0.09190032,17.993175506591797,-0.7480706572532654,-3.6282291412353516,-13.125663757324219,-69.35653686523438, -23.88392448425293
666,1686176684,0.47774437,0.17016909,-0.8566466,0.09465636,16.30620574951172,1.997512698173523,-2.155388832092285,35.80574035644531,-22.609668731689453, -15.392995834350586
667,1686193351,0.4769799,0.17091373,-0.85647154,0.09866958,17.98172950744629,-2.2185399532318115,-1.8143808841705322,27.400432586669922,0.7235543727874756, 9.492905616760254
668,1686210018,0.4803064,0.16774945,-0.85452193,0.10468405,14.436426162719727,-3.61393141746521,-2.7677321434020996,22.730854034423828,35.36391067504883, 34.148033142089844
669,1686226685,0.48845774,0.16292007,-0.8495838,0.11434133,8.409828186035156,-1.5501099824905396,-0.1000266969203949,35.17778396606445,78.81295776367188, 48.94377899169922
670,1686243352,0.49947503,0.15630957,-0.8427621,0.12587619,3.3792858123779297,-0.8183375597000122,0.9571017026901245,38.41059112548828,105.25926208496094, 61.26028823852539
671,1686260019,0.5145238,0.15171257,-0.83161473,0.14375627,0.2025333195924759,-0.7598161101341248,2.5182173252105713,81.49224090576172,148.49758911132812, 63.24229431152344
672,1686276686,0.52705866,0.15115331,-0.8211539,0.15833099,-10.222970962524414,6.597592353820801,-5.836723327636719,78.80406951904297,124.19110107421875, 31.65106964111328
673,1686293353,0.53342384,0.14607942,-0.8184959,0.15551431,-8.933900833129883,7.171483516693115,-6.102754592895508,-37.765220642089844,48.272518157958984, 9.113858222961426
674,1686310020,0.53504294,0.14628689,-0.8174336,0.15534513,-8.845934867858887,-2.800877571105957,-3.895246982574463,-0.37032145261764526,13.052324295043945, -4.03579568862915
675,1686326687,0.53246224,0.15330502,-0.81642115,0.16259925,-9.9573392868042,-4.564741611480713,-2.216639280319214,70.58390808105469,-10.306713104248047, -10.595975875854492
676,1686343354,0.5270885,0.16031569,-0.81735915,0.16852635,-11.20556926727295,-1.4061658382415771,-0.7926815748214722,63.865474700927734,-34.331077575683594, -10.41896915435791
677,1686360021,0.52179956,0.16290244,-0.82061553,0.16666907,-11.515983581542969,-0.3454597592353821,2.035614252090454,1.309606671333313,-45.556968688964844, -11.396330833435059
678,1686376688,0.517791,0.16206719,-0.8251293,0.15744498,-10.88473892211914,-0.5476537346839905,2.628918170928955,-55.41204071044922,-47.103580474853516, -18.618200302124023
679,1686393355,0.51361144,0.1588828,-0.8307301,0.14438611,-9.666651725769043,-3.048130512237549,0.7471883893013,-86.52825927734375,-53.6247673034668, -17.57914161682129
680,1686410022,0.5075492,0.15697679,-0.83629435,0.13551441,-9.956242561340332,-4.275259017944336,0.5456549525260925,-56.026546478271484,-60.84855270385742, -8.359382629394531
681,1686426689,0.4987617,0.1606699,-0.84087056,0.13549516,-10.984800338745117,-3.0193331241607666,-5.1410064697265625,18.24651336669922,-68.62879180908203, -8.3282470703125
682,1686443356,0.48123798,0.17420943,-0.8488358,0.13243672,-3.2261464595794678,16.451589584350586,-8.06867504119873,40.91014099121094,-143.00958251953125, -63.90724563598633
683,1686460023,0.4722351,0.16805877,-0.8593875,0.1010136,16.7293758392334,10.885674476623535,10.668570518493652,-202.25450134277344,-117.62781524658203, -46.971439361572266
684,1686476690,0.46873397,0.16694947,-0.86352426,0.08211344,6.161087512969971,-9.908608436584473,-4.811400413513184,-113.68998718261719,-53.97633743286133, -46.955020904541016
685,1686493357,0.4607543,0.18442626,-0.86219835,0.10152246,22.074060440063477,5.717750549316406,3.6810452938079834,181.79161071777344,-29.48649024963379, -37.8959846496582
686,1686510024,0.4601252,0.18545127,-0.8627304,0.097925454,19.491880416870117,-3.4835026264190674,-0.12866836786270142,-17.29865074157715,-10.029393196105957, -15.861007690429688
687,1686526691,0.46092442,0.18248391,-0.86304057,0.097004116,19.49046516418457,-9.589588165283203,-3.78139066696167,-15.774953842163086,4.862649440765381, 14.931312561035156
688,1686543358,0.46453613,0.17724232,-0.8617509,0.100881174,14.234308242797852,-3.7808895111083984,-0.24268598854541779,2.917858362197876,33.895931243896484, 39.46440505981445
689,1686560025,0.4738926,0.1684365,-0.8581072,0.10347678,6.672497749328613,-1.419045090675354,-0.08459878712892532,-21.472938537597656,76.11315155029297, 49.53080368041992
690,1686576692,0.4849737,0.16082081,-0.8520563,0.11374416,1.4850975275039673,-1.111769437789917,-0.16233861446380615,27.366016387939453,102.07325744628906, 63.46132278442383
691,1686593359,0.5013355,0.1551342,-0.8412736,0.12982781,-2.0423777103424072,1.4757280349731445,1.6842358112335205,65.73104095458984,153.7230682373047, 62.18075180053711
