Acc_X,Acc_Y,Acc_Z
2.697098731994629,1.5806256532669067,2.1486544609069824
3.197633981704712,-0.969820499420166,3.280754804611206
4.01287841796875,-1.7111417055130005,2.486799955368042
4.1139445304870605,-0.6427733302116394,3.1399588584899902
5.588444709777832,-0.460947573184967,5.188926696777344
7.087555885314941,0.637056291103363,9.73958969116211
7.315672397613525,2.408323287963867,10.406990051269531
7.85391902923584,5.060709476470947,10.371551513671877
13.362675666809082,-0.6989738345146179,7.032757759094238
18.882104873657227,-4.61554765701294,14.648785591125488
12.795258522033691,-13.391100883483888,9.626006126403809
9.57540225982666,-12.39360237121582,9.21088409423828
5.635072708129883,-3.48535418510437,15.194212913513184
2.779353141784668,0.8130725622177124,18.758243560791016
0.8261207342147827,1.586660623550415,16.8705997467041
1.4292869567871094,-4.15000581741333,12.40689754486084
2.062533140182495,-7.517198085784912,10.896588325500488
1.1524289846420288,-7.342903137207031,9.965237617492676
0.7829453945159912,-4.848292827606201,8.462882041931152
1.2432777881622314,-1.751218557357788,7.234042167663574
1.2312920093536377,0.7442399859428406,5.209970951080322
2.001436233520508,1.9943690299987795,2.5449368953704834
3.962323427200317,-0.0982207953929901,-2.342769145965576
4.811284065246582,-0.8161439895629883,-4.682860374450684
5.398313999176025,-0.0882603600621223,-6.685959815979004
6.867343902587891,0.3796051442623138,-11.19961166381836
11.931402206420898,0.8440597057342529,-17.96946144104004
9.528375625610352,6.866147041320801,-15.88287353515625
6.864379405975342,-1.958159565925598,-22.878564834594727
1.7210757732391355,-1.4477357864379885,-24.99272727966309
-0.3269832134246826,4.492298126220703,-25.002086639404297
-0.950126051902771,4.138227462768555,-22.84167861938477
-0.4621583819389343,3.989471912384033,-18.92804336547852
-0.3777148723602295,7.052459239959717,-12.588431358337402
-0.741628885269165,6.022818088531494,-5.480022430419922
17.55590057373047,-2.0800621509552,21.060148239135746
12.15986442565918,21.705293655395508,-5.322396278381348
1.5081682205200195,-0.552105724811554,-13.1195707321167
12.328327178955078,6.179821014404297,1.1596057415008545
-3.78583574295044,-1.35481858253479,0.6024014353752136
-0.0886348634958267,-4.687686443328857,-3.1588823795318604
0.4573110938072204,-5.237009048461914,-5.769954681396484
1.374140739440918,-1.3777092695236206,-3.332810163497925
1.9959100484848025,-0.3391925692558288,-3.07898473739624
0.819684624671936,2.4913666248321533,-2.6996009349823
0.6414765119552612,3.370725631713867,-0.0868086814880371
-0.3603092432022095,1.1992011070251465,-0.6553342938423157
-0.7752480506896973,0.2826250195503235,1.2227096557617188
-0.1459889560937881,0.0700866281986236,0.5440188050270081
1.4481861591339111,0.3271521627902984,0.291288286447525
0.8948096632957458,0.1359093785285949,0.8270580172538757
-0.1678757220506668,0.7000159025192261,1.3751691579818726
-0.2616514265537262,-0.5356597304344177,2.053830623626709
-1.812301516532898,-2.51333236694336,1.7678943872451782
1.2882481813430786,-2.840546131134033,2.732090950012207
2.9234042167663574,0.7191508412361145,1.9182116985321045
4.336912631988525,3.4857869148254395,1.845123052597046
3.8076400756835938,3.246681928634644,1.1993043422698977
4.824365139007568,2.790320873260498,2.6245813369750977
5.87959623336792,1.1660826206207275,5.205556392669678
8.278664588928223,-0.1697829365730285,8.721879005432129
10.154123306274414,0.4225242435932159,9.584988594055176
11.007290840148926,2.845433235168457,11.35130786895752
11.22082233428955,3.278878688812256,14.324356079101562
11.267352104187012,0.0593259632587432,8.222078323364258
9.501258850097656,-5.800785541534424,3.070204973220825
4.782717704772949,-7.674161434173584,3.973188877105713
2.214113235473633,-6.120193004608154,10.424234390258787
-0.0398289039731025,0.1725939512252807,19.752487182617188
-2.0157487392425537,4.263003826141357,17.77921485900879
-1.3527185916900637,-1.0222173929214478,13.92347240447998
-0.8162742853164673,-4.508277416229248,9.109489440917969
-0.1765545755624771,-5.43738317489624,7.567789077758789
0.07886403799057,-3.623737096786499,6.380976676940918
1.0101466178894043,-2.354876041412353,5.723429203033447
2.297499656677246,-0.0487054362893104,4.744002819061279
4.039327621459961,0.4416508972644806,2.4752328395843506
5.324038982391357,0.2084797620773315,-0.0932900756597518
6.578493118286133,-0.4423410296440124,-2.247044086456299
5.865907192230225,-0.984384834766388,-4.571723937988281
4.78786039352417,4.170921802520752,-3.798662662506104
5.635751724243164,3.3125102519989014,-7.441926956176758
5.128011226654053,4.491246700286865,-11.900062561035156
6.290859699249268,1.637777328491211,-14.325726509094238
4.910488128662109,-1.8614299297332764,-17.222885131835938
1.5619494915008545,1.8504891395568848,-18.267602920532227
-8.17030668258e-05,5.437277317047119,-19.5503044128418
-0.2571148872375488,2.52848482131958,-20.267311096191406
0.629642128944397,-0.0580331906676292,-18.42663955688477
1.008284568786621,0.998388171195984,-14.26280117034912
4.344690322875977,0.8997116088867188,-2.322918176651001
11.918705940246582,1.1914681196212769,13.01657485961914
3.0525124073028564,7.589082717895508,-3.919821739196777
1.7142865657806396,-0.2930532097816467,-14.367018699645996
7.398589134216309,4.222480297088623,0.0714377164840698
-0.3841480016708374,0.5822679996490479,-0.9318756461143494
1.225231051445007,-2.236412525177002,-1.4530799388885498
1.8398817777633667,-0.022208172827959,-0.3852655291557312
1.6411916017532349,-1.2709929943084717,-1.0204191207885742
1.6737613677978516,-1.3082736730575562,-1.6586421728134155
1.606658101081848,0.8015884160995483,-0.6496672630310059
1.1221671104431152,-0.4022483825683594,-0.493330180644989
0.5109466910362244,-0.4167714715003967,0.6767610907554626
0.4954808354377746,-0.865533709526062,0.3593681752681732
0.6271429657936096,-0.4398969411849975,1.5088279247283936
0.4451161623001098,-2.716552734375,1.764393925666809
-0.4846561849117279,-0.3313652276992798,0.5878549814224243
1.1178953647613523,-0.3015843033790588,1.281727313995361
1.4442241191864014,1.1609307527542114,0.8283348083496094
2.39406967163086,2.476743221282959,1.3710665702819824
2.468603610992432,2.468881368637085,1.1322377920150757
2.247663736343384,1.8088796138763428,1.8291983604431152
2.836132526397705,1.5712355375289917,2.36665415763855
3.597006320953369,0.9010599851608276,3.829784631729126
4.597114086151123,-0.0973149836063385,5.4654154777526855
5.740078449249268,0.1108069941401481,6.868115425109863
6.734211921691895,1.027908444404602,7.325899600982666
7.815737724304199,2.895318031311035,9.189009666442873
7.918110370635986,3.5730369091033936,11.025495529174805
8.292566299438477,0.7647003531455994,6.496311187744141
12.635814666748049,-4.924747943878174,7.97055721282959
12.462546348571776,-6.455772876739502,8.891434669494629
7.979918956756592,-7.347362995147705,7.34946346282959
6.483325004577637,-5.729155540466309,12.284445762634276
2.7575953006744385,3.4795262813568115,18.04225730895996
0.705769956111908,1.4467577934265137,14.742255210876465
0.1807275116443634,-4.942386627197266,9.432430267333984
1.003790020942688,-6.646290302276611,8.48069953918457
1.0995707511901855,-6.565061092376709,6.940307140350342
1.3451805114746094,-3.855581521987915,5.888467311859131
1.8255739212036133,-2.5452916622161865,5.069523334503174
3.028275489807129,-0.0911367461085319,4.378578186035156
3.342585802078247,0.1392198204994201,2.494236469268799
2.8776931762695312,-0.0365915820002555,1.000062108039856
2.3942270278930664,0.8852988481521606,-0.2802270352840423
2.070243120193481,1.8501381874084477,-1.16935932636261
1.6984634399414062,1.7939496040344238,-2.0800013542175293
1.303918719291687,0.6433543562889099,-5.140260696411133
2.739211320877075,1.9115352630615237,-7.883024215698242
6.62169075012207,4.728619575500488,-10.84654712677002
8.537070274353027,6.315694332122803,-12.874334335327148
6.824381351470947,2.057992458343506,-15.9308443069458
3.169128656387329,1.2164173126220703,-18.58077812194824
0.2815947532653808,5.351095676422119,-19.642072677612305
-0.3740373849868774,3.5487492084503174,-20.018930435180664
0.268762469291687,0.8163911700248718,-17.794652938842773
0.8934181332588196,2.0906126499176025,-14.132942199707031
0.6140792369842529,4.32808256149292,-9.94499969482422
5.103929996490479,1.042797327041626,8.729599952697754
15.358136177062988,7.946258068084717,4.759888648986816
-2.41634464263916,11.703124046325684,-8.60368537902832
8.976305961608887,-4.366000652313232,-10.998750686645508
9.797064781188965,7.120716094970703,2.9219696521759038
-3.88060474395752,-2.6338956356048584,-1.0734899044036863
-0.4628998041152954,-2.7081799507141118,-3.2264111042022705
1.477914810180664,-1.6140682697296145,-3.227527618408203
2.3330984115600586,-1.2707549333572388,-2.7134552001953125
1.2267413139343262,1.3493692874908447,-2.0968222618103027
0.6384379863739014,1.9005542993545528,-2.116597414016724
0.6125550270080566,0.1380413174629211,-1.5650664567947388
-0.1695848554372787,-0.4729934334754944,0.1602523773908615
-0.5506172776222229,-1.1999355554580688,0.0106476955115795
-0.9537725448608398,0.3155450224876404,0.2230508774518966
-0.3218271434307098,1.1186363697052002,0.4590047299861908
-0.3988528847694397,0.3953935801982879,1.9185398817062376
0.1543610244989395,-1.150485277175903,2.307974100112915
0.6026345491409302,0.4123507738113403,2.025160074234009
1.5723435878753662,-1.9777321815490725,2.8519318103790283
0.4437645971775055,0.746673047542572,1.060097336769104
0.9335676431655884,0.7812602519989014,1.7937546968460083
1.3685537576675415,0.4664575755596161,2.2484443187713623
3.5888092517852783,1.0555120706558228,2.185274839401245
4.607594966888428,2.015410184860229,3.3655364513397217
4.922543525695801,2.262502908706665,3.997387170791626
5.627404689788818,1.5435192584991455,5.7724714279174805
6.970282077789307,0.3044784069061279,8.086615562438965
9.587925910949709,0.5798242688179016,9.939885139465332
11.017499923706056,3.020634889602661,13.057607650756836
9.830137252807615,3.2881968021392822,13.588726997375488
9.25600814819336,-5.933096408843994,-1.6373841762542725
11.388917922973633,-11.051459312438965,5.852163791656494
5.23992919921875,-5.177677631378174,10.217371940612791
2.6174044609069824,-3.484675407409668,17.567419052124023
-0.5248709917068481,4.064099311828613,19.557580947875977
-0.2916958332061767,-1.7090133428573608,15.843029975891112
-0.3174287974834442,-5.833005428314209,11.60962963104248
0.1479703485965728,-6.355006694793701,10.03907585144043
0.8744902610778809,-4.989992618560791,7.766576290130615
1.9159483909606931,-2.893850564956665,5.732499122619629
2.661836624145508,-0.5069684386253357,5.457554340362549
4.332379817962647,1.269231200218201,3.6308977603912354
4.30593729019165,-0.2464742809534073,0.1517876535654068
4.556509494781494,0.0348181426525116,-1.062624216079712
5.099708080291748,0.244057148694992,-2.462608575820923
5.378452301025391,1.994093656539917,-2.830474615097046
4.16239595413208,4.078530788421631,-3.006181001663208
4.844659328460693,3.396085739135742,-7.220122814178467
5.426070213317871,5.099653244018555,-8.762472152709961
7.020344734191895,2.720234632492065,-11.670140266418455
7.175420761108398,0.6526178121566772,-13.65562629699707
3.9771668910980233,3.4418442249298096,-15.060022354125977
1.641993284225464,5.58583402633667,-17.577512741088867
-0.0262380316853523,3.3723764419555664,-19.976661682128903
-0.3954989910125732,1.3739559650421145,-19.20333480834961
0.2818808257579803,2.2878198623657227,-17.36232566833496
1.621760010719299,3.548650026321411,-13.199495315551758
1.3977710008621216,3.364358901977539,-8.826499938964844
4.171488285064697,-0.7993005514144897,8.650705337524414
10.7802152633667,6.287351608276367,11.647455215454102
3.99273943901062,13.676836013793944,-6.288759708404541
3.4890804290771484,-8.005012512207031,-10.986337661743164
7.480661869049072,3.122901678085327,-2.6510791778564453
0.8747994303703308,-1.361617922782898,0.1872161030769348
-1.3814600706100464,-1.513785481452942,-3.072640419006348
1.2959150075912476,1.1714788675308228,-1.6548771858215332
2.4065957069396973,-2.143554210662842,-2.9375736713409424
1.3513456583023071,0.1045620143413543,-2.346944808959961
0.661467432975769,2.0529305934906006,-1.3794742822647097
0.4246415197849273,0.1360202878713607,-0.8901191353797913
0.1823905706405639,-0.098988227546215,0.2788640558719635
0.0116433138027787,-1.810336351394653,0.1245960667729377
-0.2744485735893249,-1.146109104156494,-0.1071833297610282
-0.561469316482544,-0.2029307335615158,0.566279411315918
-0.1808943450450897,0.1739500761032104,0.6486920118331909
-0.0006506815552711,-1.336108684539795,0.9630038738250732
0.4800064861774444,-1.0080560445785522,1.5683661699295044
1.9402137994766235,-0.5655702948570251,3.2341434955596924
0.4461878836154938,-1.0462127923965454,1.1360702514648438
1.5647549629211426,0.3801435232162475,2.044090986251831
1.7987521886825562,1.65529465675354,2.1403095722198486
3.787116050720215,2.1377882957458496,2.967243432998657
5.467438220977783,2.3207755088806152,3.3205487728118896
6.386926651000977,1.9043809175491333,5.248693466186523
7.137983322143555,0.5690813064575195,6.550537586212158
9.046075820922852,0.2594067752361297,9.90260410308838
10.45270538330078,0.4440936148166656,11.690168380737305
9.65286350250244,2.13074803352356,13.635112762451172
8.820096015930176,1.602089762687683,8.622235298156738
10.474761009216309,-8.512495040893555,1.3557395935058594
9.55871295928955,-8.58897590637207,6.322551250457764
5.609476089477539,-7.517568111419678,8.182679176330566
2.61299991607666,-2.331474542617798,18.74744033813477
-1.2375195026397705,3.0107483863830566,17.703916549682617
-0.6852726936340332,-3.6288795471191406,13.84959888458252
-0.1725476235151291,-7.236804485321045,10.348060607910156
-0.3057976365089416,-6.995837211608887,8.90107536315918
-0.198400467634201,-4.756054401397705,7.255003929138184
0.3341067433357239,-1.465787649154663,6.6965532302856445
0.9891656041145324,-0.6961235404014587,5.470963954925537
3.191384792327881,0.831405758857727,4.315708160400391
3.8083324432373047,0.0494415760040283,1.6841319799423218
4.0130486488342285,-0.9270616769790648,-0.3363043069839477
5.441947937011719,-0.1775943487882614,-1.945624589920044
6.738727569580078,0.2592910230159759,-2.515488624572754
6.281335353851318,1.7070698738098145,-4.08310604095459
4.394224643707275,4.869375228881836,-8.091378211975098
5.24248743057251,6.87847900390625,-13.108248710632324
5.654836654663086,6.147311687469482,-12.86851692199707
5.654923915863037,-2.815016984939575,-18.10283851623535
1.7403936386108398,1.377033233642578,-20.36457252502441
-0.0580395013093948,7.247230052947998,-20.341318130493164
0.3585713505744934,1.3000168800354004,-21.724199295043945
0.6442477703094482,-0.7147657871246338,-19.11594581604004
1.81397557258606,4.58995246887207,-13.549821853637695
9.807849884033203,8.61520004272461,12.34927463531494
11.759817123413086,9.507896423339844,1.130113124847412
-1.1923177242279053,5.76447343826294,-14.323214530944824
9.913311958312988,0.5115392804145813,-7.353224277496338
1.812519907951355,3.751054286956787,0.7309467792510986
-2.173440456390381,-0.0777439773082733,-1.6198614835739136
1.7382174730300903,-3.471776008605957,-2.3342127799987797
2.212690114974976,-1.663008689880371,-2.9117331504821777
1.718390703201294,-1.3848178386688232,-1.988955855369568
1.3635982275009155,1.8668056726455688,-2.219014883041382
0.7597543597221375,4.013051509857178,-0.3715719580650329
0.3135815560817718,-0.2745607495307922,-0.2870898842811584
0.4326882064342499,-2.939940929412842,-0.8224075436592102
0.4744781255722046,-0.1649281084537506,0.8386653661727905
0.0530090928077697,0.4769233763217926,0.9725815653800964
0.3870082497596741,-0.6685348749160767,0.3411012291908264
0.3831445872783661,-0.0924900844693183,0.962899088859558
0.6178733110427856,-2.4747183322906494,2.203986644744873
1.1279852390289309,-0.4827675521373749,1.0608086585998535
1.1985424757003784,-0.3293912708759308,2.6704297065734863
1.4143928289413452,0.9444457292556764,1.6281354427337646
2.244696855545044,2.184581995010376,3.117020606994629
3.074462652206421,2.393099784851074,2.3056640625
4.311784267425537,2.784986019134521,2.829700469970703
4.4852824211120605,2.929028034210205,3.9961307048797607
5.701953411102295,2.031569242477417,6.017656326293945
7.919958114624023,1.140572190284729,8.343377113342285
10.721457481384276,0.3044015765190124,11.616961479187012
12.01611328125,-0.7049564123153687,14.87436294555664
12.587665557861328,-1.2275806665420532,8.365817070007324
14.06060791015625,-3.511284589767456,7.953867435455322
10.24205493927002,-4.499499320983887,14.669596672058104
4.47269344329834,-9.139391899108888,3.5036981105804443
4.283783435821533,-8.517189979553223,11.724584579467772
0.6216405034065247,1.2951420545578003,21.08636474609375
-0.6126896739006042,-2.462071180343628,14.005964279174805
-1.1180977821350098,-3.314471244812012,10.303977012634276
-1.177610993385315,-2.239313840866089,9.901246070861816
-0.289445161819458,-2.2429685592651367,7.828592300415039
-0.0369481593370437,0.0338579714298248,6.185969829559326
0.3417614102363586,0.7297742962837219,4.847864627838135
1.599204659461975,0.8988595008850098,2.8768186569213867
2.9678854942321777,1.6762261390686035,1.2759521007537842
4.593921661376953,1.5296504497528076,-0.8140274286270142
5.55669641494751,2.085379123687744,-2.377335548400879
4.837405204772949,4.411577224731445,-3.995650053024292
4.730622291564941,6.545893669128418,-5.71565580368042
8.098371505737305,4.659989833831787,-9.812265396118164
9.822881698608398,2.3606343269348145,-13.02574348449707
8.852710723876953,1.8881133794784544,-16.264076232910156
3.38531494140625,6.131909370422363,-19.08765411376953
1.0525025129318235,6.111464500427246,-22.76234245300293
-0.6107984185218811,3.104574918746948,-24.17303466796875
0.3215745985507965,2.7148566246032715,-22.138219833374023
2.283031940460205,4.787388324737549,-17.359224319458008
3.877169370651245,1.2889299392700195,-6.701317310333252
10.330917358398438,-3.0906009674072266,22.09068298339844
3.6831960678100586,8.822734832763672,-1.0434138774871826
2.7074759006500244,-6.011519908905029,-17.659353256225586
7.358302593231201,1.5881891250610352,-1.899996399879456
3.403560161590576,0.877005934715271,-0.8170183897018433
-1.046923041343689,-1.0847045183181765,-1.2691575288772583
0.4078118801116943,-1.564533233642578,-4.642428398132324
0.2791416943073272,-0.6207369565963745,-2.114457607269287
1.661422848701477,-0.6619548201560974,-1.51844322681427
1.3682788610458374,-0.9325363636016846,-2.25208044052124
0.7099651098251343,-0.2810965776443481,-0.6531894207000732
0.6060646176338196,0.1778181940317154,-0.09478809684515
0.5492373704910278,0.1428083777427673,0.8361344933509827
0.281465619802475,0.1259476691484451,0.1730606406927108
0.0255813710391521,-0.4434647858142853,-0.0685355961322784
-0.0106489844620227,0.8813108801841736,0.1833687126636505
-0.3435434103012085,1.1228930950164795,1.302834153175354
-0.0498468279838562,-0.2212623059749603,2.7050423622131348
-0.3409627676010132,-1.568853735923767,1.7082980871200562
-0.1658585667610168,-1.1169341802597046,2.357909917831421
0.8713753819465637,-1.2157795429229736,1.464532732963562
2.228397846221924,-0.0938410982489585,1.809530019760132
3.4258453845977783,-0.0029128119349479,2.1852619647979736
3.64648962020874,-1.110182762145996,2.7120349407196045
4.473430156707764,1.957011103630066,3.1965363025665283
5.4187188148498535,2.368768215179444,4.2940673828125
7.291782379150391,2.0322036743164062,4.94254207611084
10.035758018493652,1.6652309894561768,8.727173805236816
12.090242385864258,0.810251772403717,12.903599739074709
13.810541152954102,0.6758191585540771,15.887454986572266
11.66702365875244,-0.8705718517303467,12.83708953857422
8.289461135864258,-5.770817279815674,3.7334911823272714
9.451346397399902,-10.170488357543944,5.610899925231934
5.224766731262207,-8.238519668579102,12.30768585205078
0.7358015775680542,-2.777488470077514,19.940814971923828
-1.8928277492523196,-0.9321317672729492,18.158069610595703
-0.9462426900863647,-5.1867218017578125,13.997036933898926
-0.6294268369674683,-4.323081970214844,11.853354454040527
-0.7998650074005127,-4.603735446929932,9.096726417541504
-0.1303187757730484,-2.971034526824951,7.040651798248291
1.0328710079193115,-1.4695165157318115,6.2315545082092285
2.7629289627075195,-0.2990776300430298,4.323083400726318
4.248994827270508,0.037984050810337,2.0300567150115967
4.576328754425049,-1.022624373435974,-0.3954937160015106
4.810990333557129,-0.7009151577949524,-1.9717490673065183
5.609555721282959,-1.2459663152694702,-3.9974844455718994
5.839369297027588,0.7165946960449219,-5.849874496459961
6.621719837188721,3.969701766967773,-8.937402725219727
8.068137168884277,7.133398056030273,-13.386937141418455
7.833209037780762,5.244952201843262,-14.438894271850586
6.045896053314209,-0.9990801811218262,-19.304697036743164
0.2487948834896087,6.019437313079834,-21.857606887817383
-1.219689965248108,8.781270027160645,-22.846778869628903
-0.9577174782752992,2.574867486953736,-22.8289852142334
0.4852712452411651,2.2716190814971924,-18.813535690307617
2.1368658542633057,5.384027481079102,-12.939056396484377
2.687060832977295,6.952867031097412,-4.556822299957275
12.860118865966797,-3.144082546234131,22.51759529113769
6.098146438598633,11.01002597808838,-3.864640235900879
1.4673430919647217,-5.017496109008789,-20.008899688720703
8.754851341247559,8.412910461425781,1.8149409294128416
-0.6283987760543823,-0.5962981581687927,0.0607786737382411
-0.0536352470517158,-5.3545823097229,-4.028869152069092
1.37128746509552,0.5572499632835388,-2.8321590423583984
2.2796952724456787,0.3411067426204681,-3.112621545791626
1.8654776811599727,0.7571226358413696,-0.3428569436073303
1.6949769258499146,1.384541630744934,-1.1900657415390017
0.5581234097480774,1.2099097967147827,-0.7647604942321777
-0.0639731362462043,1.587469458580017,-0.8157914876937866
0.0597777776420116,-0.8382489681243896,-0.0446832776069641
-1.156003713607788,-2.0922770500183105,0.0803803503513336
-0.7681673169136047,-0.3248001635074615,0.2028732150793075
-0.4031952917575836,-1.4339675903320312,0.458229124546051
0.048173502087593,-0.4075313806533813,0.7310979962348938
0.1126975268125534,0.2368585616350174,2.63594913482666
-0.3451360464096069,0.239051416516304,1.761193037033081
0.3893510103225708,1.3743740320205688,1.7185956239700315
1.1982381343841553,1.4089713096618652,2.0555191040039062
3.257969379425049,1.4702341556549072,2.680518388748169
4.169445514678955,2.4255316257476807,2.7313618659973145
4.737250328063965,1.0586514472961426,4.055805683135986
5.138195991516113,-0.5466155409812927,4.867490768432617
6.457686901092529,-0.3625902831554413,6.638039588928223
8.77053451538086,-0.2072396725416183,9.390864372253418
12.04255199432373,-1.017957091331482,11.696174621582031
13.607802391052246,-1.9383424520492556,8.230003356933594
12.38671588897705,-4.645163059234619,4.7996015548706055
10.277365684509276,-3.450227975845337,12.148395538330078
4.22101640701294,-5.002357482910156,11.48054313659668
-0.4632615447044372,-3.0598678588867188,16.918975830078125
-1.116462469100952,0.9530308842658995,19.641414642333984
0.1188290864229202,-2.089473247528076,15.813098907470703
0.3049724102020263,-3.139739990234375,11.614253044128418
1.558480978012085,-3.592259168624878,8.575760841369629
2.769369125366211,-2.589208602905273,6.636134147644043
3.589384078979492,-0.755270779132843,6.531097888946533
3.411862850189209,0.2127186357975006,5.030551910400391
3.377190589904785,0.1473574936389923,2.062380313873291
2.835172653198242,0.5144858956336975,-0.009189173579216
1.235826849937439,1.6922999620437622,-0.7736040353775024
-0.2215876132249832,2.556268215179444,-1.2108880281448364
-0.8194103240966797,1.7645846605300903,-4.611023426055908
0.7323483228683472,4.424993515014648,-5.793546199798584
3.178731203079224,5.307528972625732,-6.972326278686523
6.781708240509033,3.9719088077545166,-10.706731796264648
8.103546142578125,1.6427737474441528,-13.58091640472412
5.9165544509887695,0.6008564233779907,-16.230342864990234
1.7042367458343506,2.90320348739624,-19.170307159423828
-0.507501482963562,3.0399231910705566,-22.13121223449707
-0.602965772151947,0.9960986971855164,-21.113988876342773
0.0327216982841491,1.2434273958206177,-18.426488876342773
1.7367866039276123,-0.3506243824958801,-11.936142921447754
12.504895210266112,-3.505979299545288,6.84847354888916
5.802172660827637,6.290686130523682,3.602577447891236
-0.3740688264369964,-1.575602889060974,-16.318058013916016
7.272629261016846,3.937286615371704,-4.065621852874756
1.2037250995635986,-2.134568691253662,-1.0027676820755005
-1.6193219423294067,-1.2397631406784058,-1.1832972764968872
1.6538535356521606,-3.0266036987304688,-3.441199541091919
1.1352181434631348,0.2025810033082962,-1.544026255607605
1.6351102590560913,1.644930124282837,-1.56505286693573
1.2549176216125488,1.177952766418457,-1.350888967514038
0.4071217477321625,0.8850330114364624,-0.4274568855762481
0.7413538694381714,0.8726961612701416,0.0969336256384849
0.0133457453921437,0.7425401210784912,0.4241844415664673
-0.1860409379005432,-1.3551478385925293,0.299961119890213
-0.5031567811965942,-0.7337081432342529,0.0739548653364181
-0.0090013295412063,0.2396728247404098,0.3416123390197754
0.1171715334057807,0.1481090784072876,0.7413921356201172
0.3578115999698639,0.3104271292686462,1.5362038612365725
0.6297388672828674,1.025160789489746,2.3194568157196045
0.7549214363098145,0.1277410238981247,2.228886365890503
0.7138242721557617,-0.1447780430316925,1.4165211915969849
2.0621562004089355,0.30629563331604,2.4067957401275635
2.873787403106689,-0.3942459225654602,2.543646812438965
3.931287288665772,-0.5618417859077454,3.613680362701416
5.006436824798584,-0.6046004295349121,5.17491340637207
6.998961925506592,0.0474606789648532,7.440511226654053
9.914661407470703,1.589773178100586,10.490768432617188
13.729740142822266,1.8579800128936768,11.955763816833496
15.405749320983888,-0.7208166122436523,12.531964302062988
10.229823112487791,0.0479421094059944,7.795523166656494
10.099347114562988,-3.589886426925659,9.969085693359377
6.254467010498047,-5.8914666175842285,9.011649131774902
3.3288252353668213,-6.133686065673828,13.802009582519531
0.2026768922805786,-3.480598211288452,19.032957077026367
0.1588173657655716,-3.390710592269897,17.86594009399414
-0.2337468564510345,-3.812216520309448,12.448542594909668
-0.0340115576982498,-3.2286951541900635,9.885040283203123
0.2998108267784118,-2.4577853679656982,8.574969291687012
0.6172926425933838,-1.4724464416503906,7.100718975067139
1.1403380632400513,-0.7168762683868408,4.948716640472412
2.6002509593963623,-0.3226443231105804,3.730278730392456
3.122754573822021,-0.0253584999591112,2.113698959350586
3.772574663162232,0.0573542453348636,0.6473774909973145
4.500813961029053,0.3563495874404907,-1.0396223068237305
5.586296081542969,0.1001510918140411,-2.362964153289795
4.925899505615234,0.8818624019622803,-4.844182968139648
3.0428006649017334,4.64402961730957,-7.622647762298584
5.907604217529297,7.273448944091797,-11.863628387451172
6.722077369689941,7.299269676208496,-12.33420467376709
5.8045573234558105,-0.7884026169776917,-18.240373611450195
0.2842399775981903,6.585145950317383,-21.102746963500977
-1.8273323774337769,9.571077346801758,-21.839998245239254
-0.8457072973251343,4.904712200164795,-22.69468116760254
0.9491522312164308,2.239814281463623,-18.9890251159668
2.2992539405822754,4.477481842041016,-13.519671440124512
5.88498067855835,0.4365336894989013,5.542197227478027
15.556402206420898,5.162625312805176,8.50694465637207
4.009033203125,15.272202491760254,-6.836690425872803
4.1074538230896,-7.14559268951416,-13.307552337646484
7.585562229156494,6.874598979949951,-2.08701753616333
-0.1400719434022903,-3.187347888946533,-2.2163357734680176
-0.7082530856132507,-1.698016881942749,-4.336131095886231
1.5293924808502195,1.1037023067474363,-2.4285035133361816
2.721600294113159,-0.7135912775993347,-2.975877523422241
1.620529055595398,-0.5293262004852295,-1.896934986114502
1.104559063911438,1.6473959684371948,-0.6647716760635376
0.6606337428092957,1.7290773391723633,-0.8778983950614929
-0.117094948887825,1.096624493598938,-0.404740959405899
-0.7870231866836548,-1.4917389154434204,-0.1116586998105049
-0.8133973479270935,-1.9898390769958496,0.2508566677570343
-0.3050209581851959,-1.4751077890396118,0.6537395119667053
-0.1880435198545456,-0.2928017973899841,-0.5522456169128418
0.4423084259033203,-0.6959702372550964,1.0036358833312988
0.32270148396492,-0.1495649516582489,0.8254077434539795
0.2637899518013,-0.5422064661979675,1.494876265525818
0.0801019892096519,0.4199061691761017,1.7899595499038696
0.3866917490959167,1.4630768299102783,2.4349470138549805
1.2107263803482056,0.9233790636062622,2.8377089500427246
2.753284454345703,0.7214451432228088,3.2983486652374268
3.5147290229797363,1.4812729358673096,3.522754430770874
3.3674960136413574,1.0430240631103516,4.040343761444092
4.295725345611572,0.375197172164917,4.730447769165039
6.757072448730469,0.3443500697612762,6.780974388122559
9.49011516571045,0.5954830050468445,9.027650833129885
11.776798248291016,0.5096144676208496,13.246378898620604
11.693774223327637,-0.2282798737287521,15.313858032226562
9.41202163696289,-4.463135242462158,-0.8563271760940552
13.044880867004396,-9.556239128112791,4.149524688720703
9.555617332458496,-6.248159408569336,9.927563667297363
5.046936988830566,-0.3381778299808502,17.61819076538086
0.1549168974161148,1.7995645999908447,17.672256469726562
-0.8389151096343994,-3.755627155303955,15.19960594177246
-1.3305765390396118,-7.290597915649414,11.720873832702637
-1.9207350015640257,-7.294649600982666,9.903704643249512
-1.2852180004119873,-5.501318454742432,8.019545555114746
-0.7328296899795532,-2.6684234142303467,6.682339668273926
-0.1573371142148971,-0.4273975193500519,6.33984375
1.3111274242401123,0.8782578110694885,4.622979640960693
2.364057302474976,0.1999056190252304,2.259639024734497
2.2687857151031494,-0.480935126543045,0.4289866983890533
2.2827296257019043,-0.1668257117271423,-1.4643975496292114
2.591900587081909,0.0866071954369545,-2.255946159362793
4.241761207580566,-0.0231814477592706,-3.79424786567688
4.618505001068115,1.4944192171096802,-5.362263202667236
5.783967018127441,2.558893918991089,-10.0556001663208
8.750755310058594,6.239718437194824,-10.31432056427002
9.595684051513672,3.407849073410034,-12.259040832519531
4.940938949584961,2.0476136207580566,-17.92156410217285
-0.7092124223709106,7.475920677185059,-20.283323287963867
-1.748484492301941,5.052903652191162,-23.22694396972656
-1.6299833059310913,2.5789272785186768,-22.288501739501957
1.7337983846664429,1.2268787622451782,-16.179410934448242
14.047195434570312,-7.891861915588379,0.1241326928138732
5.946944713592529,5.621030807495117,3.6437578201293945
1.2828257083892822,-1.8665744066238403,-14.98660373687744
8.864177703857422,3.475919723510742,-3.8543121814727774
2.8698573112487797,1.2706390619277954,-3.077585935592652
-0.7124335765838623,1.4294806718826294,-1.3256109952926636
1.1277153491973877,-1.895783543586731,-3.7942569255828857
0.5160794258117676,-2.194308996200561,-2.435821056365967
0.4020545184612274,-1.3953027725219729,-0.8371642827987671
0.9282790422439576,-0.126005083322525,-1.8264471292495728
0.4832180142402649,-0.7743703126907349,-1.146629810333252
0.2382589727640152,-0.1242758184671402,-0.2018494606018066
0.4188267290592193,-0.2629789412021637,0.9407199025154114
0.1417840123176574,0.1611206233501434,-0.1224643215537071
0.128862977027893,0.2090223431587219,0.3971491158008575
0.0240302439779043,0.6017866134643555,0.2190658003091812
-0.1318384259939193,-0.024065013974905,0.692918062210083
0.2417084276676178,-0.4969088733196258,1.4315532445907593
0.4843624532222748,-0.653011679649353,1.4354733228683472
1.2334926128387451,0.126113936305046,1.7077691555023191
1.8521702289581297,-0.5747566819190979,2.1775121688842773
1.2367784976959229,-1.7852531671524048,1.9264609813690183
2.439464569091797,-0.398312360048294,2.4469845294952397
2.843324899673462,0.1133652031421661,3.053379535675049
3.889161109924317,1.4031367301940918,4.252281665802002
5.167440414428711,1.90276563167572,5.407810211181641
7.610101699829102,2.745009660720825,5.795680999755859
10.697986602783203,3.2445192337036133,8.955820083618164
13.359006881713867,1.3167293071746826,13.52645778656006
15.868507385253906,-1.77140474319458,20.06748962402344
8.145174980163574,-4.977845191955566,2.067197799682617
10.736154556274414,-10.157267570495604,4.100817680358887
9.704050064086914,-6.628478527069092,14.115927696228027
3.160025119781494,0.1076424866914749,18.912616729736328
0.3137965798377991,-5.257182598114014,15.945116996765137
-0.0618648752570152,-7.319328308105469,14.027660369873049
-1.34101140499115,-6.539541721343994,12.791703224182127
-2.050776243209839,-5.57404088973999,8.97055721282959
-0.9653255343437196,-3.206176280975342,6.928280353546143
-0.526490330696106,-0.6590057015419006,5.977986812591553
0.7283183336257935,0.5403856039047241,4.3140950202941895
1.720455288887024,-0.0433367229998111,1.8845603466033936
2.2767136096954346,-0.1860365718603134,-0.2178077399730682
3.104923248291016,0.637476921081543,-1.4240326881408691
4.040198802947998,0.6857165694236755,-2.711818218231201
2.8725452423095703,4.0344672203063965,-4.178702831268311
4.458611965179443,2.5929477214813232,-8.542949676513672
6.689980983734131,5.9100847244262695,-10.430912017822266
8.180810928344727,6.933145046234131,-11.129488945007324
8.157212257385254,1.676777482032776,-14.367783546447754
4.22931432723999,2.626906394958496,-17.439767837524414
0.1687594652175903,6.970176696777344,-19.370758056640625
-0.8821596503257751,7.159070491790772,-21.33533096313477
-0.7774794101715088,3.1036157608032227,-21.12837028503418
1.5591793060302734,3.2956552505493164,-17.76262664794922
7.16046667098999,2.760396718978882,1.7238537073135376
12.824710845947266,7.237771511077881,11.085740089416504
1.17621910572052,13.33285140991211,-3.982663631439209
2.1629672050476074,-5.231407165527344,-13.35639476776123
7.734345436096191,-3.5665807723999023,-6.272047519683838
1.1577188968658447,2.784350872039795,0.7118443846702576
-0.1290980279445648,-0.6837638020515442,-2.8922157287597656
1.8625731468200684,1.7120682001113892,-2.04012393951416
1.5130937099456787,-3.112164258956909,-3.3672940731048584
1.7224916219711304,0.0357209295034408,-1.8672505617141724
1.109233260154724,1.7669801712036133,-0.5735185742378235
0.3669620454311371,0.5003250241279602,0.0214782916009426
0.3842537701129913,-1.400637149810791,0.1465969234704971
0.3604079186916351,-1.2660571336746216,0.0527845174074173
0.646091103553772,0.3516774773597717,1.1710801124572754
0.2597257196903229,-1.2279218435287476,1.1338090896606443
-0.2021283954381942,-0.0155383367091417,-0.3913127481937408
0.2428710311651229,0.5429369807243347,0.6869609951972961
0.431437075138092,0.7411734461784363,0.9845007061958312
0.2689135372638702,1.4597203731536863,1.260586500167847
1.192704439163208,2.15485954284668,2.0900895595550537
1.1136181354522705,1.9844534397125244,1.289892315864563
1.1198928356170654,2.3157315254211426,1.915635585784912
1.935816764831543,1.0508906841278076,2.466653823852539
2.9948904514312744,-0.5241254568099976,3.667625665664673
3.957058906555176,-0.3285889327526092,4.380630493164063
4.59864616394043,-1.0769058465957642,5.060396671295166
6.499828815460205,-1.1581240892410278,6.871855735778809
8.796629905700684,0.04354178160429,8.68667221069336
11.017496109008787,1.5852670669555664,12.547245025634766
10.919486045837402,0.6523857116699219,12.40536117553711
12.70042610168457,-3.713982105255127,3.1756796836853027
13.952520370483398,-5.402555465698242,10.618585586547852
7.940381526947021,-4.912234783172607,9.652767181396484
4.28645658493042,-7.251201152801514,9.557266235351562
3.089057445526123,-2.8164403438568115,16.966630935668945
0.1335209608078003,0.887569010257721,17.440122604370117
-0.3135428428649902,-3.830113649368286,12.650928497314451
-0.4330175220966339,-4.025236129760742,10.248092651367188
-0.3217679858207702,-3.4524834156036377,9.261311531066896
-0.0301269739866256,-1.7911012172698977,7.744166851043701
0.4269401431083679,-1.0984784364700315,6.474240779876709
1.651603102684021,0.352078914642334,4.801030158996582
3.1359150409698486,0.8135268092155457,2.9562997817993164
2.5116982460021973,-0.0078686084598302,0.6401563286781311
2.2464301586151123,0.446593701839447,-1.8583351373672483
2.428846597671509,1.0646764039993286,-2.9752511978149414
3.161311149597168,1.419795274734497,-4.013512134552002
4.122358322143555,0.7230169177055359,-6.3005194664001465
6.926743030548096,1.8575870990753172,-11.209471702575684
9.1426362991333,5.794762134552002,-11.9152193069458
8.928922653198242,3.1680235862731934,-14.836065292358398
4.348269939422607,1.8902863264083865,-20.69943046569824
-0.7421219944953918,5.087741374969482,-23.294116973876957
-0.580524206161499,3.0684115886688232,-24.804420471191406
0.3395927846431732,0.8891226649284363,-22.87314224243164
2.090268611907959,2.1748909950256348,-18.42647361755371
11.197160720825195,-1.0377779006958008,9.760692596435549
11.233060836791992,5.477163791656494,4.44117546081543
-0.7921724915504456,9.821046829223633,-5.637950897216797
2.965599536895752,-7.761960983276367,-14.876734733581545
6.9029860496521,4.024632930755615,-3.513047456741333
0.0790509283542633,0.592625617980957,0.9795917868614196
0.0304294042289257,-0.8583508729934692,-2.42082953453064
1.5359925031661987,-1.6509946584701538,-2.310098648071289
1.280295968055725,-2.337552547454834,-2.0357182025909424
1.873565912246704,0.8479406237602234,-0.8327110409736633
1.1155449151992798,2.835443019866944,0.0832890719175338
0.7838519215583801,-0.0918722003698349,-0.708847165107727
0.3454207181930542,0.334255576133728,-0.2329952418804168
-0.0028043217025697,0.2193704843521118,0.5817008018493652
-0.2221975773572921,-0.0929109379649162,-0.2674947679042816
-0.2227435559034347,-0.7116872668266296,0.1494299471378326
0.1070890054106712,-1.3811026811599731,0.4749381244182586
-0.4982693195343017,-0.2247993052005767,0.0680672451853752
0.5614379644393921,-0.5696384906768799,1.2570186853408811
1.0599346160888672,-0.4633770883083343,1.2581062316894531
1.6138876676559448,1.5461223125457764,1.674206018447876
1.5224097967147827,1.862456202507019,2.33505916595459
1.616052508354187,1.0706075429916382,1.959317684173584
2.357255458831787,0.625697135925293,1.996374249458313
2.9517738819122314,-0.0081926211714744,3.171118974685669
3.490762233734131,0.1027146279811859,4.217739105224609
3.9515130519866943,0.1929306387901306,4.52998161315918
6.026630401611328,0.4393307566642761,6.110929489135742
8.670792579650879,0.7961174249649048,8.253521919250488
10.44438648223877,1.171156644821167,12.05906105041504
10.268335342407228,0.154441624879837,12.183551788330078
10.88310432434082,-3.560244083404541,2.834487199783325
12.295774459838867,-6.699746608734131,9.26663303375244
8.227693557739258,-4.916592597961426,8.816549301147461
5.054222583770752,-7.719174861907959,9.836922645568848
3.09883975982666,-2.7481648921966557,16.35889434814453
-0.377541571855545,0.5324333310127258,16.816072463989258
-0.5298047065734863,-3.76621413230896,12.17300796508789
-0.3953862190246582,-3.725292444229126,10.042987823486328
-0.4151375293731689,-3.43174409866333,8.169380187988281
-0.0540291666984558,-2.336370944976806,6.259531497955322
0.2069358229637146,-0.5605471730232239,5.536197662353516
1.1240952014923096,0.3793248534202575,4.5128679275512695
2.6231179237365723,1.1597917079925537,2.657399654388428
2.766700506210327,1.082859754562378,1.2715529203414917
2.913487434387207,1.4149771928787231,-0.0372317880392074
3.006096124649048,1.698833703994751,-1.7960596084594729
2.632124185562134,3.4304628372192383,-1.6865150928497314
2.525258302688598,3.043837070465088,-2.391530752182007
3.711501359939575,2.244636058807373,-4.801745414733887
4.532023906707764,2.454398393630981,-7.427055358886719
6.568992614746094,2.003137350082397,-9.05506420135498
8.546586036682129,1.7286856174468994,-10.258078575134276
6.600254058837891,1.9667294025421145,-12.955588340759276
2.930332899093628,4.323222160339356,-15.829068183898926
-0.7524669170379639,3.1148910522460938,-19.672630310058597
-1.5385936498641968,1.0472919940948486,-21.36635971069336
-0.4905940890312195,1.0673444271087646,-19.92566680908203
1.6808691024780271,1.0547960996627808,-16.043733596801758
3.0519607067108154,2.159786462783813,-11.288030624389648
7.408246040344238,1.658539056777954,12.919309616088867
10.63104248046875,6.720197677612305,6.425624847412109
0.8008116483688354,13.966405868530272,-10.203161239624023
4.274377822875977,-5.519954204559326,-8.700925827026367
6.669604301452637,2.674149751663208,-4.661607265472412
0.0363111682236194,2.7624640464782715,1.9286783933639529
0.2464113384485244,-2.451681613922119,-3.13550353050232
0.9615545868873596,0.6134225130081177,-2.577601432800293
1.7175582647323608,-2.4068899154663086,-3.803730010986328
1.6792620420455933,1.1620949506759644,-1.5189621448516846
0.5250123739242554,2.030956745147705,-0.9856954216957092
-0.0757875517010688,-0.1836044937372207,-0.9851774573326112
-0.2226989269256591,-1.5448880195617676,0.0605176202952861
0.013893230818212,-0.5604810118675232,-0.2910889685153961
0.6428020596504211,-0.4922102093696594,1.3128070831298828
-0.1892935633659362,-0.4650731682777405,-0.3646765947341919
0.0860094055533409,0.2701989710330963,0.3089866042137146
0.0741088911890983,0.8641394972801208,0.7030911445617676
-0.1104505732655525,0.3472941219806671,1.130050539970398
0.2781496345996856,0.2232542037963867,1.98392391204834
1.3829346895217896,-4.578403949737549,4.450721740722656
0.5291271805763245,0.7758557796478271,0.6458566188812256
1.6961688995361328,-0.0516522899270057,2.3426156044006348
3.632383346557617,0.4072988331317901,2.77426815032959
4.745293140411377,2.5289618968963623,3.816707611083984
5.084965229034424,2.459781646728516,4.814486980438232
6.389212131500244,1.563612461090088,6.147338390350342
8.712404251098633,1.2768058776855469,8.661676406860352
10.6990385055542,1.165061593055725,10.275724411010742
10.366076469421388,2.306497097015381,11.456533432006836
9.659653663635254,0.5097631216049194,7.195044994354248
13.260472297668455,-6.456200122833252,8.96945571899414
11.086216926574709,-8.997563362121582,6.778176307678223
6.090184688568115,-8.374289512634277,10.694306373596191
3.8384814262390137,-2.7089996337890625,16.90363311767578
0.3782576024532318,1.49409282207489,17.774709701538086
-0.8206017017364502,-1.150390863418579,14.938172340393066
-1.5679705142974854,-3.0457680225372314,11.458440780639648
-1.2266502380371094,-4.281904220581055,9.033929824829102
-0.3211530745029449,-3.488117456436157,7.111609935760498
0.0298580378293991,-1.831780195236206,6.075730800628662
1.2297853231430054,-1.0630406141281128,5.063988208770752
3.039597272872925,0.2255063652992248,3.213011741638184
3.3614161014556885,-0.4151619672775268,1.1784467697143557
3.081427335739136,0.33724245429039,-0.1851977109909057
2.904001951217652,0.8433260917663574,-1.7717856168746948
2.3175790309906006,1.6637535095214844,-2.317364454269409
3.1888561248779297,2.833324193954468,-2.5759148597717285
4.352776527404785,2.650712490081787,-5.499258518218994
5.045035362243652,4.169819355010986,-9.079509735107422
6.573634624481201,5.195678234100342,-12.567660331726074
6.965905666351318,3.099282503128052,-15.196161270141602
4.233081817626953,1.6808161735534668,-18.257156372070312
0.468229204416275,3.867366075515747,-20.863399505615234
-1.722748041152954,5.929610729217529,-22.653343200683597
-1.3720574378967283,3.8358733654022217,-22.378402709960938
0.0949687659740448,4.207176208496094,-19.24883460998535
7.47245979309082,0.9669636487960817,4.431810855865479
13.897939682006836,6.150722026824951,9.277509689331056
1.2307296991348269,7.436234474182129,-8.956544876098633
5.880039215087891,-7.442613124847412,-13.530550956726074
5.995363235473633,6.472364902496338,-3.258632183074951
-0.7620749473571777,2.690515279769897,0.1970744132995605
0.6145429611206055,-2.3326027393341064,-3.4235212802886963
0.8786373138427734,-1.7392197847366333,-3.2386417388916016
1.4846357107162476,-2.705019235610962,-3.104336261749268
1.5577595233917236,1.6133782863616943,-1.0177322626113892
0.4592865109443664,1.9065558910369875,-0.5211189985275269
-0.0203382782638072,-0.7763251662254333,-0.3006531000137329
-0.3695369064807892,-0.0337449088692665,0.0281086955219507
-0.2814883887767792,-0.3722568452358246,0.4690210521221161
-0.2925821244716644,-0.951266586780548,0.3508733212947845
0.0898556560277938,-0.314364343881607,0.3816835880279541
-0.2783781588077545,0.0310841798782348,0.4597793519496918
0.1328403800725937,0.286707192659378,1.0944048166275024
0.4500994682312011,0.872180163860321,1.3420391082763672
-0.1278933733701706,0.5095473527908325,1.6101175546646118
0.0901204273104667,-0.0737266838550567,1.7103341817855835
0.2560601532459259,-0.4674511253833771,1.9534465074539185
0.9177192449569702,-2.223775148391724,2.761110544204712
2.472639322280884,-0.5781818628311157,1.7485536336898804
3.87760591506958,0.682921826839447,2.3263955116271973
4.7331085205078125,1.7294868230819702,3.62302041053772
5.607907295227051,2.1152124404907227,3.797226428985596
8.106840133666992,2.801851272583008,7.027535915374756
9.532331466674805,1.8517935276031492,8.604007720947266
13.50239086151123,-0.6673175692558289,12.474617958068848
12.134954452514648,-4.888288974761963,10.987642288208008
6.487364292144775,-3.988429069519043,6.351954936981201
8.06711196899414,-5.892482757568359,5.951227188110352
6.394280910491943,-7.58550500869751,10.00922679901123
2.1705007553100586,-4.086119174957275,15.301934242248535
0.7159007787704468,-4.681480407714844,15.59277629852295
0.4024651050567627,-6.729105949401856,12.830750465393066
-0.533765435218811,-4.63129472732544,12.040578842163086
-0.7929770350456238,-3.643920660018921,9.506915092468262
-0.4219189882278442,-1.7188825607299805,8.06302261352539
-0.3009697794914245,0.0616639778017997,7.046463966369629
0.0487705767154693,0.5103740096092224,5.332356452941895
0.668772280216217,1.0707149505615234,3.770338296890259
1.2150590419769287,0.976749837398529,2.54275131225586
1.5618188381195068,0.7606355547904968,1.15285325050354
2.2699811458587646,1.12171733379364,0.458531767129898
3.490670919418335,1.5322779417037964,-1.0697771310806274
2.916745901107788,3.4619174003601074,-2.821659564971924
3.574692487716675,3.571276903152466,-6.449862003326416
5.915178298950195,5.774081707000732,-9.755010604858398
8.995248794555664,6.28704309463501,-11.136558532714844
7.690012454986572,1.254204273223877,-14.754165649414062
2.7766048908233643,0.2273207306861877,-20.44753837585449
-0.9857174158096312,4.947953701019287,-22.85204696655273
-1.3244203329086304,2.945578098297119,-24.30560302734375
-0.8220547437667847,-0.7938759922981262,-23.10321044921875
1.9608131647109983,1.8587913513183596,-13.419422149658203
14.92209243774414,2.321991443634033,15.551874160766602
3.6240644454956055,14.226655960083008,1.0343748331069946
-1.0917766094207764,4.626941680908203,-15.605263710021973
9.701066970825195,-3.56876540184021,-6.636713981628418
1.3263620138168335,0.4897347092628479,-1.33992600440979
-1.650829553604126,-0.0622337609529495,-1.1883424520492554
2.230430603027344,-0.7167196869850159,-2.987579584121704
1.594068169593811,-1.6135265827178955,-3.69624662399292
1.4896714687347412,-0.7812476754188538,-2.2031021118164062
1.4395822286605835,1.7074376344680786,-1.4218672513961792
1.2343465089797974,2.4807589054107666,0.1247943416237831
1.0934269428253174,0.1703555285930633,0.4479146897792816
0.8076279759407043,0.1125378087162971,0.173518031835556
0.9270786046981812,0.0495262891054153,1.4317083358764648
-1.0300238132476809,-0.9994423389434814,0.5889690518379211
-0.9277406334877014,-0.4496996998786926,1.5412988662719729
-1.0211173295974731,-1.526830792427063,2.45279860496521
-0.2334300875663757,-1.283461093902588,1.0563853979110718
1.3030564785003662,1.100612998008728,1.7750853300094604
0.9458832740783693,0.7240067720413208,1.2898694276809692
0.9876576066017152,0.649506151676178,1.760462522506714
1.8782823085784912,1.7843942642211914,2.971120834350586
2.990680694580078,0.1477047055959701,4.659772872924805
3.627189874649048,-0.02487663179636,4.6440300941467285
4.89469575881958,1.1604859828948977,5.242238998413086
6.604892253875732,1.7651082277297974,6.496679306030273
8.701787948608398,1.2078237533569336,9.3521728515625
10.556286811828612,1.2961686849594116,14.67573356628418
11.200504302978516,-2.626919269561768,6.300210475921631
14.52789306640625,-9.27006721496582,3.837622165679932
10.85056972503662,-2.8616397380828857,10.170291900634766
6.623232841491699,-5.051640510559082,10.081732749938965
3.471376895904541,-3.037220001220703,17.44824981689453
-1.0825941562652588,1.526519775390625,19.164350509643555
-2.091230630874634,-5.099654674530029,14.494812965393066
-1.0957778692245483,-5.973685264587402,11.380879402160645
-0.8035200834274292,-4.184645652770996,9.99867057800293
-0.0778664499521255,-2.5749828815460205,8.310928344726562
0.8895550966262817,-1.084411382675171,7.278652191162109
2.7038278579711914,0.7631482481956482,5.631955623626709
3.7532317638397217,0.3192923963069916,2.612726926803589
3.828216791152954,0.8343498110771179,0.6478849649429321
2.776619911193848,1.4426188468933103,-1.2449997663497925
1.9277565479278564,2.366730213165283,-1.995851993560791
2.0820930004119877,2.1797468662261963,-1.9317103624343872
2.417701244354248,0.8516774773597717,-4.541101455688477
3.6717758178710938,1.4499882459640503,-8.374624252319336
6.102602958679199,2.3168535232543945,-9.298773765563965
8.39558219909668,0.9747619032859802,-11.834975242614746
7.025450706481934,-0.786864161491394,-15.64857292175293
2.172013759613037,1.9564998149871824,-18.86184501647949
-0.9540847539901732,3.8686001300811768,-21.82758140563965
-1.7184383869171145,2.15445613861084,-23.001445770263672
-0.8483150005340576,1.968067288398743,-20.82948112487793
1.173937439918518,3.660383939743042,-15.434341430664062
9.926746368408203,4.705003261566162,6.552640438079834
12.345962524414062,9.94809627532959,0.5396583676338196
-1.0279810428619385,8.426209449768066,-9.771599769592283
7.891342639923096,-0.1328538060188293,-10.109557151794434
3.7713022232055664,3.3560385704040527,-2.106495857238769
-2.736335039138794,0.1766891479492187,-1.5334241390228271
1.2629501819610596,-4.348795413970947,-3.4022388458251958
1.4556697607040403,-1.565744161605835,-2.5680620670318604
1.6663113832473757,-1.4414788484573364,-2.6368179321289062
1.354390025138855,1.8209574222564695,-1.0382786989212036
0.6589605808258057,2.880352020263672,-0.1162781342864036
0.1339368522167205,0.3871855437755584,-0.4540582299232483
-0.1904727518558502,-0.6327727437019348,-0.6216608285903931
-0.1336730271577835,-0.5279868841171265,-0.1717071533203125
-0.5721930861473083,-0.3613861501216888,0.2345886379480362
