PacketCounter,SampleTimeFine,Quat_W,Quat_X,Quat_Y,Quat_Z,Acc_X,Acc_Y,Acc_Z,Gyr_X,Gyr_Y,Gyr_Z 
1,861737320,0.7269583,0.23760186,-0.458901,0.45220226,-0.1665709912776947,-0.015409901738166809,-0.08907321840524673,-0.100340336561203,0.5440503358840942, -0.1261437088251114
2,861753987,0.72705376,0.23912309,-0.4587027,0.45144752,15.546235084533691,-1.0670740604400635,8.101143836975098,2.287400007247925,3.9488065242767334, 1.1173605918884277
3,861770654,0.7274284,0.24002662,-0.4585548,0.450514,15.697549819946289,-1.1646727323532104,8.121472358703613,0.9531702995300293,4.058582305908203, 1.4191933870315552
4,861787321,0.72768193,0.24001409,-0.4589157,0.4497432,15.335762977600098,-0.8784088492393494,8.093464851379395,-0.7323694229125977,3.861581563949585, 1.1475577354431152
5,861803988,0.72816414,0.24028733,-0.45843762,0.44930395,15.495038986206055,-1.3820948600769043,8.043685913085938,-0.03780434653162956,4.019420146942139, 1.8220170736312866
6,861820655,0.72821474,0.23982866,-0.45850787,0.44939548,15.876102447509766,-0.9264072179794312,8.261070251464844,0.6575101613998413,3.4840641021728516, 1.5819109678268433
7,861837322,0.72847486,0.23962206,-0.4584261,0.44916743,15.23689079284668,-1.2236354351043701,7.916710376739502,-0.3358849585056305,3.488020896911621, 1.2027020454406738
8,861853989,0.72847205,0.23952787,-0.458205,0.4494476,15.715692520141602,-1.375013828277588,8.121055603027344,1.6776511669158936,3.95273756980896, 1.100648283958435
9,861870656,0.7284758,0.23919056,-0.45822164,0.4496044,15.540092468261719,-1.0522587299346924,8.2413330078125,1.4192062616348267,3.5092928409576416, 0.6456001996994019
10,861887323,0.7286518,0.23898223,-0.45798016,0.44967568,15.809672355651855,-1.0326483249664307,8.093484878540039,2.17647123336792,3.685072422027588, 0.1296835094690323
11,861903990,0.7287918,0.23875627,-0.45782274,0.44972917,15.438173294067383,-1.139245629310608,8.175919532775879,-0.11763915419578552,4.020061016082764, 0.29224735498428345
12,861920657,0.7290197,0.2386553,-0.4574953,0.44974667,16.07217025756836,-1.0647976398468018,8.278828620910645,1.7838155031204224,3.9926929473876953, -0.32419273257255554
13,861937324,0.7290338,0.23877992,-0.4572456,0.44991168,15.637420654296875,-0.9383003115653992,8.171098709106445,2.195322036743164,2.9194443225860596, 0.25591570138931274
14,861953991,0.7292493,0.23866971,-0.45695728,0.44991377,15.35626220703125,-1.182576060295105,8.015294075012207,0.024312853813171387,4.096373081207275, -0.051084525883197784
15,861970658,0.72918963,0.23903352,-0.45651293,0.45026833,16.281694412231445,-0.6501756310462952,8.313183784484863,4.632806301116943,3.0642974376678467, 0.49819907546043396
16,861987325,0.7294572,0.2388913,-0.45631075,0.45011544,15.170709609985352,-1.1126993894577026,7.956841945648193,0.03243209049105644,3.86730694770813, 0.5908274054527283
17,862003992,0.72968584,0.2388795,-0.4559449,0.45012182,15.968918800354004,-0.9224241971969604,8.27946949005127,1.9369159936904907,4.238063812255859, 0.5190350413322449
18,862020659,0.7298551,0.23876573,-0.4557761,0.4500786,15.229829788208008,-0.7310954332351685,8.066000938415527,-0.04711455851793289,3.379896640777588, 0.8438423275947571
19,862037326,0.7300021,0.23889033,-0.45535973,0.45019543,15.885687828063965,-1.149113655090332,8.099770545959473,1.8686959743499756,3.874708652496338, 0.6120090484619141
20,862053993,0.73011965,0.23887366,-0.45519352,0.45018214,15.607516288757324,-0.7075844407081604,8.163175582885742,0.993996798992157,2.9177918434143066, 1.0498836040496826
21,862070660,0.7303779,0.23869924,-0.45495787,0.4500934,15.16688060760498,-1.0855014324188232,7.959840774536133,-0.7519888281822205,4.035107612609863, 0.5605018138885498
22,862087327,0.7304935,0.23876369,-0.45456654,0.4502674,15.962573051452637,-0.7220942378044128,8.269739151000977,1.9779984951019287,3.978107213973999, 1.0093772411346436
23,862103994,0.7306796,0.23871218,-0.4542987,0.4502631,15.379803657531738,-0.9173281192779541,8.011274337768555,0.7742400169372559,3.6456925868988037, 0.9367397427558899
24,862120661,0.73086596,0.23862219,-0.45399356,0.45031592,15.465705871582031,-0.8522874116897583,8.067984580993652,0.33987411856651306,4.06876277923584, 0.9136753678321838
25,862137328,0.7310422,0.23857465,-0.45367527,0.4503756,15.773158073425293,-0.874857485294342,8.131365776062012,0.6861257553100586,3.958096742630005, 0.8504312634468079
26,862153995,0.73125905,0.2383302,-0.4535149,0.45031482,15.367834091186523,-0.9050991535186768,8.14360237121582,-1.0794217586517334,3.7502951622009277, 1.057542085647583
27,862170662,0.7313639,0.238365,-0.45321488,0.45042813,15.387716293334961,-0.8811282515525818,8.072025299072266,1.4916646480560303,3.4205827713012695, 1.118423581123352
28,862187329,0.7314781,0.23843348,-0.45285264,0.4505706,15.731207847595215,-1.0835081338882446,8.149248123168945,1.7248806953430176,3.6868135929107666, 0.8743599057197571
29,862203996,0.73162955,0.23840697,-0.45262095,0.45057148,15.521675109863281,-0.8133763670921326,8.217809677124023,0.867662250995636,3.2106995582580566, 0.6661927700042725
30,862220663,0.73178387,0.23841651,-0.4522606,0.45067766,15.441208839416504,-0.88130784034729,8.025503158569336,1.4851332902908325,3.3249194622039795, 0.28926342725753784
31,862237330,0.73207575,0.23808181,-0.45193386,0.45070827,15.493330955505371,-0.8230609893798828,8.140966415405273,-0.8649665117263794,3.9606142044067383, 0.10788711160421371
32,862253997,0.7322528,0.23793948,-0.4515467,0.45088392,15.78940486907959,-0.7240172624588013,8.150644302368164,1.063381552696228,3.3264427185058594, 0.41594383120536804
33,862270664,0.73255986,0.23750807,-0.45122018,0.4509396,15.326415061950684,-1.0385258197784424,8.086359024047852,-0.7621185779571533,4.042189121246338, 0.5853205323219299
34,862287331,0.73270255,0.23737174,-0.45079887,0.45120087,15.536250114440918,-0.6624481678009033,8.062063217163086,1.8405097723007202,3.410068988800049, 0.9847380518913269
35,862303998,0.732913,0.23703554,-0.4504592,0.451375,15.461586952209473,-0.9903610348701477,8.037921905517578,0.3248395323753357,3.672304630279541, 1.1611968278884888
36,862320665,0.73301387,0.23694614,-0.45002025,0.4516958,15.417140007019043,-0.5320377349853516,8.188384056091309,2.2570104598999023,3.3210771083831787, 1.1673179864883423
37,862337332,0.7332176,0.23669268,-0.44961792,0.45189866,15.485462188720703,-1.0058408975601196,8.00080680847168,0.6850565075874329,3.774242639541626, 0.7741502523422241
38,862353999,0.733314,0.23664697,-0.44913092,0.45225045,15.407556533813477,-0.8146659731864929,8.080573081970215,2.5447306632995605,3.474458932876587, 1.0242326259613037
39,862370666,0.7336538,0.2362131,-0.44879523,0.4522591,15.326667785644531,-0.7734845876693726,7.994157791137695,-0.7312553524971008,4.070478916168213, 0.321368932723999
40,862387333,0.73389405,0.2359701,-0.44836545,0.45242265,15.577879905700684,-0.8754291534423828,8.150239944458008,0.9822279810905457,3.9093501567840576, 0.5716435313224792
41,862404000,0.7340448,0.23583487,-0.44798505,0.45262522,15.356438636779785,-0.8506836891174316,7.998544692993164,1.302732229232788,3.1355769634246826, 0.6074499487876892
42,862420667,0.7342441,0.23571488,-0.44752908,0.45281565,15.336949348449707,-0.7192593216896057,8.04851245880127,1.712241291999817,3.586655855178833, 0.34579071402549744
43,862437334,0.7344512,0.23543492,-0.44718093,0.4529694,15.449275016784668,-0.6417152881622314,8.080799102783203,0.43409040570259094,3.5058212280273438, 0.801811933517456
44,862454001,0.7346796,0.23513888,-0.44679686,0.45313185,15.265453338623047,-0.982110857963562,8.002490043640137,0.31897416710853577,3.8274147510528564, 0.6969280242919922
45,862470668,0.734757,0.23524393,-0.44630915,0.45343238,15.823175430297852,-0.3918025493621826,8.177984237670898,3.5381197929382324,2.8485615253448486, 0.5749092102050781
46,862487335,0.73506564,0.23473237,-0.4460917,0.45341083,14.713465690612793,-0.9971043467521667,7.80718469619751,-1.6214890480041504,3.5862715244293213, 0.6583681106567383
47,862504002,0.7351855,0.23475195,-0.4455645,0.4537247,15.802977561950684,-0.5884296298027039,8.243355751037598,3.2811594009399414,3.4629199504852295, 0.7600504159927368
48,862520669,0.7353358,0.23452239,-0.44521356,0.45394439,15.098690032958984,-0.6408393383026123,7.846149444580078,0.8988200426101685,3.3087830543518066, 1.1089723110198975
49,862537336,0.73561394,0.23418921,-0.44479004,0.4540809,15.104463577270508,-0.8237090110778809,7.866565704345703,0.4087850749492645,4.240035057067871, 0.6453567743301392
50,862554003,0.73581886,0.23403749,-0.4443295,0.45427793,15.269091606140137,-0.7570726275444031,8.102945327758789,1.621508002281189,3.744710922241211, 0.49305087327957153
51,862570670,0.7359727,0.23399985,-0.4438546,0.45451215,15.279631614685059,-0.8550691604614258,8.043033599853516,2.3774027824401855,3.369241714477539, 0.4343849718570709
52,862587337,0.736193,0.23392598,-0.44340262,0.45463485,15.241601943969727,-0.7704585790634155,8.021489143371582,2.025625228881836,3.367499828338623, 0.011045476421713829
53,862604004,0.73640573,0.23387934,-0.44292787,0.4547771,15.249266624450684,-0.5996055006980896,7.938335418701172,2.089311361312866,3.422823905944824, -0.10992972552776337
54,862620671,0.73669624,0.23362595,-0.44252765,0.4548264,15.142889022827148,-0.645494818687439,7.972769260406494,0.24692559242248535,3.7929399013519287, -0.15854260325431824
55,862637338,0.7369804,0.23334731,-0.44209895,0.45492586,14.987951278686523,-0.7700371146202087,7.9296722412109375,0.37391340732574463,4.078329086303711, 0.15094204246997833
56,862654005,0.73712057,0.23340383,-0.4415566,0.45519665,15.5728178024292,-0.415759414434433,8.031785011291504,3.1755459308624268,3.4449403285980225, 0.26520028710365295
57,862670672,0.7373806,0.23300286,-0.44129324,0.45523623,14.69481086730957,-0.8412952423095703,7.7929511070251465,-0.7384397983551025,3.4491024017333984, 0.6641052961349487
58,862687339,0.7375396,0.23301652,-0.44069758,0.45554847,15.546439170837402,-0.5100701451301575,8.096260070800781,3.6949715614318848,3.9462831020355225, 0.7458226084709167
59,862704006,0.7378258,0.2326626,-0.44036594,0.4555865,14.912723541259766,-0.6301612257957458,7.915026664733887,-0.13282746076583862,3.715679407119751, 0.44026312232017517
60,862720673,0.73793966,0.23278068,-0.4397408,0.45594576,14.860058784484863,-0.9389838576316833,7.880786895751953,4.308446884155273,3.7245030403137207, 0.6398372650146484
61,862737340,0.7381361,0.2327831,-0.43918207,0.45616472,15.363924026489258,-0.529975175857544,8.016508102416992,2.8383936882019043,3.78076171875, 0.04779971390962601
62,862754007,0.73833865,0.23277344,-0.43874642,0.4562611,15.026946067810059,-0.5951840877532959,7.959410667419434,2.113245964050293,3.0098440647125244, -0.296274870634079
63,862770674,0.7386986,0.2325898,-0.43828818,0.4562128,14.805648803710938,-0.7272096276283264,7.948146343231201,0.7728439569473267,3.9011664390563965, -0.939191997051239
64,862787341,0.73895055,0.23262963,-0.43774673,0.45630434,15.459716796875,-0.598974347114563,8.019346237182617,2.738222122192383,3.520216226577759, -0.7123532891273499
65,862804008,0.7392518,0.23249452,-0.43739432,0.45622292,14.724865913391113,-0.48840856552124023,7.8746490478515625,0.7636489272117615,2.977175235748291, -0.8512508869171143
66,862820675,0.73950243,0.23255973,-0.43684623,0.4563089,15.10425853729248,-0.7204065322875977,7.94758939743042,3.015082597732544,3.4561331272125244, -0.7324720621109009
67,862837342,0.7396341,0.23272572,-0.436393,0.45644435,15.360547065734863,-0.3114216923713684,8.03244686126709,3.40301251411438,2.392155647277832, -0.35973039269447327
68,862854009,0.7398408,0.23279099,-0.43591425,0.45653352,14.826582908630371,-0.6846736669540405,7.86963415145874,2.748837947845459,2.989546060562134, -0.539813220500946
69,862870676,0.7400397,0.23294684,-0.4353886,0.4566334,15.03388786315918,-0.10389071702957153,7.86675500869751,3.4623825550079346,2.935516834259033, -0.7727224826812744
70,862887343,0.740262,0.23304458,-0.43482417,0.45676082,15.202763557434082,-0.7465245127677917,7.948938846588135,3.4195194244384766,3.4272541999816895, -0.5318092703819275
71,862904010,0.74052805,0.23299555,-0.4344457,0.45671466,15.117972373962402,-0.2520856559276581,8.034208297729492,1.5677467584609985,2.7934041023254395, -0.7782290577888489
72,862920677,0.7407853,0.23293114,-0.43404108,0.4567151,14.713011741638184,-0.565628707408905,7.7775983810424805,1.647568702697754,3.029553174972534, -0.5497508645057678
73,862937344,0.7410449,0.23290773,-0.43348476,0.45683464,15.289536476135254,-0.3254021406173706,8.065653800964355,2.508143186569214,3.883314847946167, -0.4249531924724579
74,862954011,0.7412597,0.23280779,-0.43314272,0.4568612,15.07851791381836,-0.25295117497444153,7.924297332763672,1.4198336601257324,2.742563009262085, -0.0719204694032669
75,862970678,0.74140257,0.23277992,-0.43272164,0.45704252,15.007759094238281,-0.5637467503547668,7.906648635864258,2.6856906414031982,2.950871706008911, 0.652669370174408
76,862987345,0.74163496,0.2325204,-0.4323888,0.4571125,15.208671569824219,-0.2308799922466278,8.051811218261719,0.7990329265594482,3.3172991275787354, 0.6616080403327942
77,863004012,0.74179125,0.23233931,-0.43209398,0.45723003,15.301907539367676,-0.3017016351222992,7.876853942871094,1.2818963527679443,2.7327919006347656, 0.9386606216430664
78,863020679,0.7419864,0.23207004,-0.43173844,0.4573858,14.915544509887695,-0.3990762531757355,7.930291175842285,1.2097455263137817,3.4937965869903564, 1.2647870779037476
79,863037346,0.7421092,0.23187159,-0.43132985,0.4576726,15.206143379211426,-0.4012336730957031,7.9694719314575195,1.951373815536499,3.55344820022583, 1.68607759475708
80,863054013,0.7422452,0.2315777,-0.4310345,0.45787925,14.912653923034668,-0.38934943079948425,7.81210994720459,0.9917301535606384,3.1834218502044678, 1.789975643157959
81,863070680,0.7424111,0.23131098,-0.43068334,0.45807564,15.111262321472168,-0.5300772190093994,7.848532676696777,1.313284993171692,3.452906370162964, 1.529878854751587
82,863087347,0.74254644,0.23112598,-0.4303734,0.45824033,15.208541870117188,-0.2782479226589203,8.047628402709961,1.6231216192245483,2.84525728225708, 1.3303556442260742
83,863104014,0.7427021,0.23081781,-0.43013465,0.4583677,14.840471267700195,-0.5681427717208862,7.799492359161377,0.4929099977016449,2.881114959716797, 1.4738762378692627
84,863120681,0.7428979,0.23053144,-0.42981344,0.45849586,15.200610160827637,-0.3194561302661896,7.9733805656433105,0.8743855357170105,3.3518762588500977, 1.2007169723510742
85,863137348,0.7430647,0.23014672,-0.42958483,0.45863304,15.032515525817871,-0.49175015091896057,7.897683620452881,0.06034352630376816,3.127016067504883, 1.7218139171600342
86,863154015,0.74321276,0.22986728,-0.4292343,0.45886174,15.251917839050293,-0.5744664072990417,8.018895149230957,1.3157435655593872,3.5087411403656006, 1.767039179801941
87,863170682,0.7432204,0.22983432,-0.42887318,0.45920315,15.209325790405273,-0.2796326279640198,7.733600616455078,3.152123212814331,2.5540153980255127, 2.0347306728363037
88,863187349,0.74341583,0.22962774,-0.42849174,0.45934632,15.084345817565918,-0.3982241451740265,7.822789669036865,1.6932621002197266,3.441021680831909, 1.072166919708252
89,863204016,0.7435482,0.22946133,-0.42815074,0.45953292,15.126616477966309,-0.40742549300193787,7.819057941436768,1.7806142568588257,3.007385730743408, 1.3026554584503174
90,863220683,0.7436906,0.22932987,-0.4278096,0.45968583,14.863203048706055,-0.3786815106868744,7.750308990478516,1.994941234588623,2.868539333343506, 1.0947188138961792
91,863237350,0.74389786,0.22906953,-0.42750022,0.45976803,15.123372077941895,-0.3758464753627777,7.808061122894287,0.7666457891464233,3.200185537338257, 0.8548046946525574
92,863254017,0.7440003,0.2289926,-0.4271433,0.45997238,15.27834701538086,-0.4583384692668915,7.850002765655518,2.4153354167938232,2.7443432807922363, 1.2208614349365234
93,863270684,0.74423,0.22873022,-0.42677838,0.4600703,14.828469276428223,-0.35867375135421753,7.80898380279541,1.0842816829681396,3.571159839630127, 0.873898983001709
94,863287351,0.74436384,0.2285636,-0.4263797,0.46030608,15.431022644042969,-0.33115193247795105,7.800634384155273,2.3002700805664062,3.3688061237335205, 1.591989278793335
95,863304018,0.7445326,0.22827448,-0.426023,0.46050662,14.812297821044922,-0.22920481860637665,7.687361240386963,1.3177669048309326,3.595491409301758, 1.6861416101455688
96,863320685,0.7447332,0.22785571,-0.42570496,0.46068373,15.507833480834961,-0.2091696560382843,7.9355340003967285,0.3261329233646393,3.8688557147979736, 1.852150321006775
97,863337352,0.7448595,0.22746003,-0.42548215,0.46088096,14.832472801208496,-0.31418538093566895,7.676307201385498,0.26050040125846863,3.1279194355010986, 2.2386462688446045
98,863354019,0.745027,0.22710764,-0.42512843,0.46111047,15.009127616882324,-0.24928271770477295,7.771308898925781,1.0865997076034546,3.823150157928467, 2.0497524738311768
99,863370686,0.7451957,0.22671986,-0.4248794,0.4612584,15.265384674072266,-0.43669065833091736,7.961175918579102,0.27885183691978455,3.2800710201263428, 1.8623441457748413
100,863387353,0.74522156,0.22658914,-0.42465234,0.46148977,15.11607837677002,-0.2125493437051773,7.734199523925781,2.17073392868042,2.0559892654418945, 2.1460046768188477
101,863404020,0.7454235,0.22620425,-0.42441192,0.46157345,14.79640007019043,-0.3158184885978699,7.603778839111328,0.11770957708358765,3.22432541847229, 1.4980933666229248
102,863420687,0.7456196,0.22588046,-0.4241037,0.46169865,15.358016967773438,-0.3932745158672333,7.935706615447998,0.7114759683609009,3.432863473892212, 1.404017686843872
103,863437354,0.7457095,0.22563556,-0.42391056,0.46185067,15.06725788116455,-0.2342354655265808,7.750514984130859,0.8417806625366211,2.3375113010406494, 1.7265714406967163
104,863454021,0.74597067,0.22524408,-0.42362058,0.46188605,14.58488655090332,-0.33036693930625916,7.5684638023376465,-0.07699177414178848,3.6135103702545166, 0.9552320837974548
105,863470688,0.7461356,0.22509927,-0.42321482,0.4620621,15.738471031188965,-0.2853791415691376,7.928260326385498,2.240041732788086,3.3562045097351074, 1.1730808019638062
106,863487355,0.7462159,0.2249588,-0.42294815,0.46224484,15.050161361694336,-0.2513706386089325,7.722573280334473,2.0404934883117676,2.397329568862915, 1.7308999300003052
107,863504022,0.7464585,0.22469914,-0.42255458,0.4623396,14.960732460021973,-0.08005863428115845,7.775873184204102,1.2776445150375366,3.7715275287628174, 0.8858728408813477
108,863520689,0.7465855,0.22441037,-0.42229488,0.462512,15.249773979187012,-0.19593626260757446,7.645862102508545,1.0126173496246338,2.9698758125305176, 1.8862026929855347
109,863537356,0.74669844,0.22421135,-0.42198643,0.46270764,14.900654792785645,-0.11768890917301178,7.567465782165527,1.7667067050933838,2.9346842765808105, 1.7540284395217896
110,863554023,0.7469265,0.22372293,-0.42177618,0.46276757,14.969554901123047,-0.01613921858370304,7.641306400299072,-0.697625994682312,3.4882771968841553, 1.6219691038131714
111,863570690,0.7470882,0.22331819,-0.42153102,0.4629257,14.907072067260742,-0.43996262550354004,7.60448694229126,0.3740158975124359,3.355821371078491, 2.1500775814056396
112,863587357,0.74709624,0.2233087,-0.42117026,0.4632451,15.49499225616455,-0.0198080912232399,7.770263195037842,3.470745086669922,2.500356912612915, 2.140242338180542
113,863604024,0.74730796,0.22276779,-0.42105508,0.46326888,14.361687660217285,-0.26620814204216003,7.514095783233643,-1.2972065210342407,3.082597494125366, 1.8366550207138062
114,863620691,0.7474216,0.22266127,-0.42061672,0.46353498,15.588201522827148,-0.18649408221244812,7.7867937088012695,2.9841549396514893,3.437166690826416, 1.763466238975525
115,863637358,0.7475559,0.22226098,-0.42048162,0.46363312,15.246088981628418,-0.2603217661380768,7.677027702331543,-0.16704602539539337,2.6385371685028076, 2.042811393737793
116,863654025,0.7477585,0.22185251,-0.4202661,0.46369737,14.47517204284668,-0.1871829479932785,7.497799396514893,-0.16148808598518372,3.2327263355255127, 1.5506634712219238
117,863670692,0.74796045,0.22150753,-0.4199817,0.4637942,15.390641212463379,-0.10146822035312653,7.610605716705322,0.6380699872970581,3.4250905513763428, 1.5503047704696655
118,863687359,0.7481043,0.22117993,-0.41972005,0.4639555,14.710710525512695,-0.3346189260482788,7.516155242919922,0.9426180124282837,3.193833589553833, 2.069922685623169
119,863704026,0.74821866,0.22105914,-0.4193004,0.46420786,15.232658386230469,-0.1541888415813446,7.651882648468018,2.844604253768921,3.4049715995788574, 1.8165359497070312
120,863720693,0.74833554,0.2206837,-0.41912454,0.4643569,14.878259658813477,-0.2095595747232437,7.503446578979492,0.22500118613243103,2.836446762084961, 2.220742702484131
121,863737360,0.7484615,0.22038704,-0.41886172,0.46453205,14.40162467956543,0.020835760980844498,7.366429328918457,1.1008018255233765,3.089090347290039, 2.063852310180664
122,863754027,0.74866176,0.21995795,-0.41860253,0.46464604,15.324856758117676,-0.22183384001255035,7.614741802215576,0.05740446597337723,3.6142663955688477, 1.8590021133422852
123,863770694,0.74873805,0.21957727,-0.41848665,0.4648077,14.710936546325684,-0.16818678379058838,7.482703685760498,0.12579037249088287,2.441767454147339, 2.5416312217712402
124,863787361,0.74895245,0.21909055,-0.41829577,0.46486375,14.642521858215332,-0.2877161204814911,7.396059513092041,-0.5679489374160767,3.3915250301361084, 1.8413293361663818
125,863804028,0.74896973,0.21900922,-0.41802743,0.46511567,15.58871841430664,-0.10697013139724731,7.615076065063477,2.5871200561523438,2.2234838008880615, 2.1659061908721924
126,863820695,0.7491475,0.21856381,-0.4178989,0.46515423,14.044351577758789,-0.13842357695102692,7.3286871910095215,-0.5947780609130859,2.813023567199707, 1.811144471168518
127,863837362,0.7492551,0.21837267,-0.41746426,0.46546113,15.457616806030273,-0.1539381891489029,7.421146869659424,2.590500831604004,3.770888090133667, 2.2437944412231445
128,863854029,0.74938023,0.21787958,-0.41729668,0.4656407,14.601042747497559,-0.19086724519729614,7.340631484985352,-0.23385673761367798,3.2303950786590576, 2.786450147628784
129,863870696,0.7495929,0.21735698,-0.41704226,0.46577087,14.251276016235352,-0.06955695152282715,7.336522102355957,-0.298144668340683,3.9437222480773926, 2.271123170852661
130,863887363,0.74967587,0.21707295,-0.41678327,0.46600133,15.740640640258789,-0.18338382244110107,7.543208599090576,1.4477896690368652,2.977994680404663, 2.5330638885498047
131,863904030,0.7497814,0.21651855,-0.4168085,0.46606678,13.953633308410645,-0.17278151214122772,7.226707458496094,-1.4230929613113403,2.2134687900543213, 2.7676892280578613
132,863920697,0.749955,0.21611227,-0.41653076,0.46622437,14.732580184936523,-0.12974295020103455,7.3573689460754395,0.46374988555908203,3.6314516067504883, 2.1444551944732666
133,863937364,0.75001425,0.21578595,-0.41639522,0.4664014,15.195555686950684,0.0006046676426194608,7.458374500274658,0.5367332696914673,2.35736083984375, 2.514507293701172
134,863954031,0.7501486,0.21530107,-0.41627902,0.4665134,13.865285873413086,-0.258899062871933,7.193899154663086,-0.6821303367614746,2.8966238498687744, 2.3977651596069336
135,863970698,0.7502258,0.21509427,-0.4159762,0.46675417,15.526942253112793,0.05817030370235443,7.449106693267822,1.9548059701919556,2.9814140796661377, 2.2913312911987305
136,863987365,0.7503417,0.21454316,-0.4159837,0.46681476,14.521910667419434,-0.2577314078807831,7.1959123611450195,-1.3977491855621338,2.343658447265625, 2.686561346054077
137,864004032,0.7504819,0.21413387,-0.4157415,0.46699318,14.490374565124512,-0.09465527534484863,7.208336353302002,0.44420745968818665,3.425384998321533, 2.4508986473083496
138,864020699,0.7505037,0.2138467,-0.41550037,0.4673043,15.399831771850586,-0.3573486804962158,7.354589462280273,1.513486623764038,2.901195764541626, 3.0877459049224854
139,864037366,0.75056136,0.21348912,-0.41535866,0.4675011,14.114042282104492,-0.05416618660092354,7.155997276306152,0.5038722157478333,2.558472156524658, 2.773298501968384
140,864054033,0.7506962,0.21303463,-0.41515222,0.46767554,14.606535911560059,-0.04451387748122215,7.106394290924072,-0.06780962646007538,3.4036526679992676, 2.518195867538452
141,864070700,0.75085616,0.21244974,-0.41504374,0.46778098,14.837167739868164,-0.3460564613342285,7.393063068389893,-1.15116286277771,3.2853477001190186, 2.7168993949890137
142,864087367,0.7508812,0.21217342,-0.41491184,0.46798328,14.887149810791016,-0.07791952788829803,7.253892421722412,0.8957208395004272,2.1877150535583496, 2.6619980335235596
143,864104034,0.75103754,0.21156092,-0.4148912,0.4680279,14.08514404296875,-0.15762187540531158,6.9876298904418945,-1.8766294717788696,2.8545289039611816, 2.5261611938476562
144,864120701,0.75119907,0.21115136,-0.414683,0.4681382,14.883122444152832,-0.16799257695674896,7.236652374267578,0.01122476626187563,3.2815444469451904, 2.049329996109009
145,864137368,0.7511682,0.21087238,-0.4145828,0.46840215,14.573796272277832,-0.09135140478610992,7.111323356628418,0.7921047210693359,2.0166094303131104, 3.0389275550842285
146,864154035,0.75134456,0.21038397,-0.4144341,0.46847013,14.124571800231934,-0.14142970740795135,7.000491619110107,-0.8315675854682922,3.243368625640869, 2.0270466804504395
147,864170702,0.7514028,0.21005513,-0.41420493,0.46872723,14.91260814666748,-0.21362613141536713,7.143162727355957,1.0471817255020142,3.081099271774292, 2.891667604446411
148,864187369,0.7514886,0.20963305,-0.41403013,0.468933,14.273189544677734,-0.10436189919710159,7.047128677368164,0.21458959579467773,3.119633197784424, 2.8974814414978027
149,864204036,0.7516347,0.20907083,-0.4138789,0.4690833,14.839717864990234,-0.15613530576229095,7.141240119934082,-0.9822343587875366,3.566805839538574, 2.7318828105926514
150,864220703,0.7517529,0.2085004,-0.41384158,0.4691807,14.473426818847656,-0.1963096708059311,7.12669563293457,-1.500404715538025,2.8603429794311523, 2.744035482406616
151,864237370,0.7518402,0.20807388,-0.41368574,0.4693677,14.358606338500977,0.004787879064679146,7.036128044128418,-0.11921432614326477,3.055614709854126, 2.6930925846099854
152,864254037,0.7519433,0.2075377,-0.41361505,0.46950194,14.509263038635254,-0.19825926423072815,6.937122821807861,-1.2930954694747925,2.955826997756958, 2.672473430633545
153,864270704,0.75204325,0.20718066,-0.41345745,0.46963838,14.469635963439941,-0.08835984766483307,7.086731910705566,0.1625574231147766,2.794659376144409, 2.2643485069274902
154,864287371,0.7522516,0.20658532,-0.41342488,0.4695958,14.4071626663208,-0.2666396498680115,7.083811283111572,-2.1449482440948486,2.968902349472046, 1.8394207954406738
155,864304038,0.7522848,0.20626794,-0.41336095,0.46973825,14.53074836730957,-0.29905012249946594,7.038234710693359,-0.22105039656162262,2.042004346847534, 2.187727928161621
156,864320705,0.7523611,0.20595174,-0.41323197,0.4698681,14.441489219665527,-0.07615184038877487,7.033638000488281,0.18836218118667603,2.4445462226867676, 2.1374244689941406
157,864337372,0.75253,0.20534497,-0.4131997,0.4698917,14.493880271911621,0.06394156068563461,6.887061595916748,-2.3471221923828125,3.0311927795410156, 2.0039186477661133
158,864354039,0.7527082,0.20468879,-0.41321868,0.4698758,14.618229866027832,0.020730948075652122,6.970707416534424,-2.764545202255249,2.883842706680298, 2.103423833847046
159,864370706,0.75290316,0.20378761,-0.41337082,0.4698215,14.311570167541504,-0.0847158208489418,7.014035224914551,-4.7280402183532715,3.001084566116333, 2.6231436729431152
160,864387373,0.7530382,0.20299609,-0.41342318,0.4699017,14.71983814239502,-0.2985750138759613,7.236772537231445,-2.982074499130249,3.130749464035034, 3.412963390350342
161,864404040,0.7529747,0.202427,-0.4135457,0.47014105,14.739553451538086,0.0026395628228783607,6.934047698974609,-1.7150907516479492,1.762775182723999, 3.9975602626800537
162,864420707,0.75301695,0.20164907,-0.4137319,0.47024393,14.25915813446045,-0.241793692111969,6.982150554656982,-3.35709547996521,2.203089475631714, 3.802205801010132
163,864437374,0.7528899,0.2012117,-0.4138901,0.47049516,14.82707691192627,-0.241756871342659,7.048331260681152,-0.9451597929000854,0.9888102412223816, 4.023210525512695
164,864454041,0.7528016,0.20072098,-0.4141527,0.4706149,14.258598327636719,-0.09605146944522858,7.023584842681885,-1.8441144227981567,0.5386030077934265, 3.646691083908081
165,864470708,0.7527945,0.20031328,-0.41417336,0.47078165,14.724259376525879,-0.31854766607284546,7.067692279815674,-0.6508442759513855,1.8281127214431763, 3.0275299549102783
166,864487375,0.75274926,0.19996274,-0.4142696,0.4709186,14.395833015441895,-0.24524684250354767,6.936537742614746,-0.6359248161315918,1.1123403310775757, 2.9380900859832764
167,864504042,0.75272036,0.19976828,-0.41420785,0.47110182,14.36278247833252,-0.35281670093536377,6.965424060821533,0.6147496104240417,1.5713326930999756, 2.3034844398498535
168,864520709,0.7526282,0.19974515,-0.41414368,0.471315,14.942657470703125,-0.3468538522720337,6.9954071044921875,1.8059451580047607,0.8787269592285156, 2.289884328842163
169,864537376,0.7526071,0.19959635,-0.414216,0.47134838,13.998476028442383,-0.08795615285634995,6.823925018310547,0.05822407454252243,0.5576204657554626, 1.6370292901992798
170,864554043,0.75257736,0.19947329,-0.41420546,0.47145686,14.442744255065918,-0.2514233887195587,6.786425590515137,0.7191597819328308,0.982483983039856, 1.9079347848892212
171,864570710,0.75251585,0.19941287,-0.41416335,0.47161758,14.53553581237793,-0.0452926866710186,6.894486904144287,1.3181638717651367,0.9409785270690918, 2.0474727153778076
172,864587377,0.75249314,0.19916813,-0.41423148,0.4716972,14.363965034484863,-0.13998861610889435,6.838647365570068,-0.3768908679485321,0.9975569248199463, 2.0962650775909424
173,864604044,0.7523022,0.19926919,-0.4142722,0.47192326,14.440746307373047,-0.19134025275707245,6.610142230987549,2.1451847553253174,-0.2482510656118393, 2.3834216594696045
174,864620711,0.75214654,0.19934383,-0.41436073,0.4720625,13.881458282470703,-0.029287127777934074,6.655394554138184,1.6825685501098633,-0.4325984716415405, 2.0872366428375244
175,864637378,0.7519,0.19947328,-0.4143745,0.47238815,14.473100662231445,-0.3155849874019623,6.7583723068237305,2.733957529067993,-0.19481021165847778, 2.974640130996704
176,864654045,0.7515955,0.1995723,-0.41443986,0.47277334,14.304895401000977,-0.14314721524715424,6.593021392822266,2.6578619480133057,-0.42948660254478455, 3.6320667266845703
177,864670712,0.7514685,0.19930623,-0.41467708,0.47287968,13.62779426574707,-0.1906019002199173,6.720976829528809,-0.7660887241363525,-0.001831308240070939, 2.9573638439178467
178,864687379,0.75130373,0.19914798,-0.41486138,0.47304636,14.573223114013672,-0.4634956419467926,6.6328840255737305,0.2853702902793884,-0.11660181730985641, 3.1156249046325684
179,864704046,0.75114924,0.19899815,-0.4151795,0.47307563,13.723615646362305,-0.15967963635921478,6.517100811004639,-0.6739213466644287,-0.9423167109489441, 2.376736879348755
180,864720713,0.7511405,0.1986467,-0.41547015,0.47298214,13.6980619430542,-0.4579356610774994,6.527940273284912,-2.177015542984009,0.11097343266010284, 1.8139488697052002
181,864737380,0.7510115,0.19852397,-0.41577822,0.47296777,14.1649169921875,-0.12926121056079865,6.40236234664917,-0.6599624156951904,-0.9562501907348633, 1.9813153743743896
182,864754047,0.75095284,0.19822972,-0.41616917,0.47284043,13.386191368103027,-0.3653390109539032,6.391966819763184,-2.3383114337921143,-0.7527700662612915, 1.675768494606018
183,864770714,0.75079393,0.19825909,-0.41632563,0.47294274,14.194916725158691,-0.2740296423435211,6.403833866119385,1.0304821729660034,-0.6032174825668335, 2.076735496520996
184,864787381,0.750641,0.19829462,-0.41653034,0.47299048,13.392285346984863,-0.12142758071422577,6.17504358291626,0.7094398140907288,-0.9199570417404175, 1.7916531562805176
185,864804048,0.75046045,0.19846135,-0.41653752,0.47320053,13.539552688598633,-0.33563733100891113,6.210239410400391,2.523740530014038,-0.1870623379945755, 2.0676684379577637
186,864820715,0.75026184,0.19871129,-0.41670766,0.4732609,13.64560604095459,-0.0017701782053336501,6.227132797241211,2.0704727172851562,-1.5673818588256836, 1.3844751119613647
187,864837382,0.7500727,0.19883882,-0.4169557,0.47328866,13.281063079833984,-0.24463054537773132,6.193643093109131,1.1680223941802979,-1.6084389686584473, 1.737687110900879
188,864854049,0.74984926,0.19894034,-0.4172446,0.47334564,13.62265682220459,-0.2567932903766632,6.207463264465332,0.8903037905693054,-1.7662516832351685, 1.9880640506744385
189,864870716,0.74960375,0.19905525,-0.41752198,0.4734414,13.131868362426758,-0.12144582718610764,5.979142665863037,1.1417564153671265,-1.7600406408309937, 2.2086408138275146
190,864887383,0.7493921,0.19915563,-0.41775593,0.47352782,13.080384254455566,-0.36134493350982666,6.135096073150635,1.204750895500183,-1.4202624559402466, 2.1049346923828125
191,864904050,0.7490786,0.19945344,-0.4180593,0.47363073,13.415571212768555,-0.22804225981235504,5.944736480712891,2.3104894161224365,-2.7210803031921387, 2.1733720302581787
192,864920717,0.748755,0.19975013,-0.41839302,0.47372276,12.347208976745605,-0.348418653011322,5.835851669311523,1.9631048440933228,-2.859927177429199, 1.9713777303695679
193,864937384,0.74844676,0.20020641,-0.41853818,0.47388914,13.065014839172363,-0.4490128457546234,5.987836837768555,3.7685189247131348,-2.307000160217285, 1.7594327926635742
194,864954051,0.7481118,0.20067772,-0.4188323,0.47395855,12.752799987792969,-0.11100438982248306,5.680129051208496,3.0647263526916504,-3.3164355754852295, 1.452150583267212
195,864970718,0.74787503,0.20096514,-0.41912892,0.4739483,12.256915092468262,-0.30346229672431946,5.568943500518799,1.6588001251220703,-2.5310468673706055, 1.174259066581726
196,864987385,0.747591,0.20149794,-0.41937453,0.47395292,12.606791496276855,-0.13270077109336853,5.511087894439697,3.3399412631988525,-3.215277910232544, 0.7721781730651855
197,865004052,0.7471798,0.20225175,-0.41967508,0.47401443,12.347685813903809,-0.35961267352104187,5.428627014160156,4.452992916107178,-4.453473091125488, 0.7386255264282227
198,865020719,0.74670476,0.20314406,-0.41996932,0.4741207,12.144095420837402,-0.16058076918125153,5.253353595733643,5.492715358734131,-5.008411407470703, 0.8571100234985352
199,865037386,0.74620754,0.20394905,-0.42031884,0.474248,11.958184242248535,-0.11108100414276123,5.1990861892700195,4.845930099487305,-5.007206916809082, 1.2601386308670044
200,865054053,0.74575394,0.20463459,-0.42061457,0.47440398,11.798240661621094,-0.06954450905323029,5.282997131347656,4.402369022369385,-4.16133451461792, 1.512679934501648
201,865070720,0.74537206,0.20501015,-0.42100036,0.47449988,11.876482009887695,-0.060143470764160156,5.153621673583984,2.461745500564575,-3.5382282733917236, 2.218475818634033
202,865087387,0.74506676,0.20507157,-0.42155835,0.47445768,11.556495666503906,0.04668140783905983,5.066305637359619,-0.12304340302944183,-3.383885622024536, 2.514507532119751
203,865104054,0.744745,0.20492458,-0.42217672,0.47447625,11.440988540649414,-0.04530230537056923,4.876815319061279,-1.4355790615081787,-2.908386468887329, 3.3305928707122803
204,865120721,0.74436456,0.20473962,-0.422847,0.47455615,11.414765357971191,-0.06829238682985306,4.933351039886475,-1.5389008522033691,-3.1259281635284424, 4.027360916137695
205,865137388,0.74390316,0.2046144,-0.42362547,0.47463948,11.00875473022461,-0.15589675307273865,4.791374683380127,-1.3773612976074219,-4.119047164916992, 4.379611492156982
206,865154055,0.7434441,0.20448966,-0.42431623,0.47479564,10.799018859863281,-0.34004127979278564,4.860814571380615,-1.0770268440246582,-3.5048420429229736, 4.427072525024414
207,865170722,0.742979,0.20445476,-0.42501226,0.47491592,10.864616394042969,-0.36401787400245667,4.66925573348999,-0.6231954097747803,-3.919422149658203, 4.115627765655518
208,865187389,0.74255514,0.2046804,-0.42565265,0.47490823,10.60558032989502,-0.34206005930900574,4.581389904022217,0.46611276268959045,-4.538712024688721, 2.494664430618286
209,865204056,0.7421142,0.20506114,-0.42632496,0.47483006,10.592863082885742,-0.5909725427627563,4.6152753829956055,0.9873119592666626,-5.354385852813721, 1.7974159717559814
210,865220723,0.7416096,0.20561953,-0.4269485,0.4748169,10.2720365524292,-0.37379971146583557,4.429566383361816,2.155917167663574,-5.725015640258789, 1.5627014636993408
211,865237390,0.74116296,0.20616218,-0.4275886,0.47470272,10.151333808898926,-0.39790624380111694,4.422480583190918,1.674346923828125,-5.742290019989014, 0.9559747576713562
212,865254057,0.740661,0.20687036,-0.42811748,0.47470137,10.15623950958252,-0.33073359727859497,4.424313545227051,3.3786675930023193,-5.749871730804443, 1.1462516784667969
213,865270724,0.7401283,0.20760515,-0.42856285,0.47480962,9.786208152770996,-0.35028937458992004,4.249436378479004,4.0396037101745605,-5.319272041320801, 1.4929325580596924
214,865287391,0.73952854,0.20859957,-0.42890468,0.47499967,10.147356986999512,-0.39648446440696716,4.084691047668457,6.255794525146484,-5.796910762786865, 1.4208585023880005
215,865304058,0.7388454,0.20988336,-0.42920595,0.475225,9.658516883850098,-0.3043358325958252,4.047436237335205,7.927191257476807,-6.683072566986084, 0.802209198474884
216,865320725,0.7381735,0.21133861,-0.42930368,0.47553575,9.499469757080078,-0.3846966028213501,3.863961696624756,9.784612655639648,-6.087809085845947, 0.47550639510154724
217,865337392,0.73744667,0.21297617,-0.4293576,0.47588402,9.720154762268066,-0.26000508666038513,3.737858295440674,10.940669059753418,-6.54094934463501, 0.1368807554244995
218,865354059,0.73680407,0.2144647,-0.42953244,0.4760534,9.150547981262207,-0.28191354870796204,3.723756790161133,9.224884033203125,-6.706995010375977, -0.35066360235214233
219,865370726,0.73626417,0.2158192,-0.42969462,0.4761299,9.32722282409668,-0.38906335830688477,3.868903875350952,8.254085540771484,-6.073195934295654, -0.7010455131530762
220,865387393,0.7356649,0.2173649,-0.4298809,0.47618514,9.077122688293457,-0.24214895069599152,3.7052512168884277,9.154129981994629,-7.028127670288086, -1.1647251844406128
221,865404060,0.73502475,0.21906118,-0.43003944,0.47625306,8.883341789245605,-0.2679041028022766,3.5937252044677734,10.026409149169922,-7.462045669555664, -1.5280158519744873
222,865420727,0.7343857,0.22073042,-0.43033195,0.47620404,9.040520668029785,0.031383611261844635,3.651916742324829,9.34216594696045,-8.302949905395508, -1.636729121208191
223,865437394,0.7337857,0.22214468,-0.430855,0.4759985,8.587750434875488,-0.11960328370332718,3.5241613388061523,6.564056396484375,-8.690071105957031, -1.6307610273361206
224,865454061,0.73305464,0.22388539,-0.43117416,0.4760202,8.529497146606445,-0.2738574743270874,3.4714531898498535,9.954644203186035,-8.84031867980957, -1.1677988767623901
225,865470728,0.73200065,0.226297,-0.4312053,0.47647342,8.568143844604492,-0.3611767590045929,3.3738903999328613,15.975510597229004,-9.85255241394043, -0.43797770142555237
226,865487395,0.730783,0.22895844,-0.43103957,0.47722036,8.471619606018066,-0.03228488937020302,3.0696048736572266,19.17618751525879,-9.761373519897461, 0.648188054561615
227,865504062,0.72965324,0.23126471,-0.43105936,0.4778189,8.169821739196777,0.20629172027111053,3.142303228378296,16.373960494995117,-9.53614616394043, 1.093798279762268
228,865520729,0.7285524,0.23328698,-0.4313748,0.4782304,8.264016151428223,0.05583658441901207,3.065894603729248,13.149227142333984,-10.235549926757812, 1.1848702430725098
229,865537396,0.72734296,0.23548849,-0.43171114,0.47868896,7.902560234069824,-0.09796610474586487,2.7696056365966797,14.26284408569336,-11.159682273864746, 1.268752098083496
230,865554063,0.72612774,0.23769486,-0.43210706,0.4790859,7.645086288452148,0.08212771266698837,2.830019235610962,14.052910804748535,-11.619560241699219, 1.1382681131362915
231,865570730,0.7249754,0.23966251,-0.43265173,0.47935924,7.711973667144775,0.023796821013092995,2.8868093490600586,11.970351219177246,-11.602655410766602, 1.3016387224197388
232,865587397,0.7238798,0.24140252,-0.43322143,0.47962725,7.50382137298584,0.07736032456159592,2.5938034057617188,10.720621109008789,-10.830620765686035, 1.8347482681274414
233,865604064,0.72288585,0.24301064,-0.43379587,0.47979492,7.449970245361328,0.15356892347335815,2.4270999431610107,9.50211238861084,-10.25483226776123, 1.3755052089691162
234,865620731,0.7220055,0.24443632,-0.434366,0.4798807,7.253102779388428,0.30730873346328735,2.6031723022460938,7.9433913230896,-9.369245529174805, 0.9762604832649231
235,865637398,0.7212756,0.24540572,-0.43523845,0.4796928,6.802198886871338,-0.04038887843489647,2.4136319160461426,3.479646682739258,-9.347960472106934, 0.9254576563835144
236,865654065,0.7205457,0.24643758,-0.43602893,0.47954276,6.855659484863281,0.02682594396173954,2.518320322036743,4.434884548187256,-9.137345314025879, 0.9841490387916565
237,865670732,0.71974134,0.24744539,-0.4367761,0.47955203,6.910668849945068,-0.002614632248878479,2.168301820755005,4.744735240936279,-8.734663963317871, 1.7906805276870728
238,865687399,0.71898866,0.24837491,-0.43763036,0.47942156,6.640771865844727,-0.07198915630578995,1.978547215461731,3.5989890098571777,-9.096596717834473, 1.3885737657546997
239,865704066,0.7182386,0.24936269,-0.43849674,0.47924134,6.359714031219482,-0.08858446031808853,2.023552179336548,3.694524049758911,-9.416716575622559, 0.9753894209861755
240,865720733,0.71734494,0.25081566,-0.43909195,0.4792769,6.356093406677246,-0.19906803965568542,2.2004199028015137,8.117507934570312,-9.736865997314453, 0.8993712663650513
241,865737400,0.7164465,0.25230345,-0.4395717,0.47939962,6.31404972076416,0.070716992020607,1.8574926853179932,8.546584129333496,-9.070549964904785, 0.7622151374816895
242,865754067,0.7156368,0.25353265,-0.44014025,0.47943893,6.109145164489746,0.09645886719226837,1.9257025718688965,6.595528602600098,-8.525727272033691, 0.9979991912841797
243,865770734,0.71502364,0.25443068,-0.44074726,0.47932053,6.011806964874268,0.3884914219379425,1.7110097408294678,4.052473545074463,-7.304230213165283, 0.6621587872505188
244,865787401,0.71457493,0.25486776,-0.4415146,0.4790513,6.04738712310791,0.15097787976264954,1.9500043392181396,0.45231395959854126,-6.324160575866699, 1.0450431108474731
245,865804068,0.7142383,0.2551995,-0.44218957,0.4787539,5.873646259307861,0.17045028507709503,1.6351916790008545,0.46944883465766907,-5.317452907562256, 1.0111318826675415
246,865820735,0.714063,0.25534624,-0.44278985,0.47838223,5.581378936767578,0.08595913648605347,1.5186314582824707,-0.6237332820892334,-3.9858994483947754, 0.5955016016960144
247,865837402,0.7138678,0.2557353,-0.44318423,0.4781006,5.723819732666016,0.10869648307561874,2.0232784748077393,1.352357029914856,-3.6355953216552734, -0.0989418774843216
248,865854069,0.7136419,0.2562736,-0.4434759,0.47787902,5.294745445251465,-0.4197962284088135,1.6087496280670166,2.7860536575317383,-3.6304850578308105, -0.2806383967399597
249,865870736,0.7131966,0.2578017,-0.4433568,0.47783256,5.379518508911133,-0.6501457095146179,1.3617218732833862,9.947035789489746,-5.22658109664917, -2.4469358921051025
250,865887403,0.7128195,0.2596062,-0.44330814,0.4774629,4.955933094024658,-0.8185003399848938,2.128458023071289,9.888973236083984,-6.818783760070801, -5.035562038421631
251,865904070,0.71212596,0.26240277,-0.44303414,0.47722337,4.615416049957275,-1.0603179931640625,1.944095492362976,16.42792510986328,-9.709954261779785, -6.831556797027588
252,865920737,0.71113086,0.2660786,-0.44251004,0.4771583,4.63681173324585,-0.7337481379508972,2.0975475311279297,22.944576263427734,-12.02183723449707, -8.01393985748291
253,865937404,0.709851,0.2702442,-0.4420538,0.47714588,4.644285678863525,-0.6132535338401794,1.8676788806915283,25.15574073791504,-14.65496826171875, -8.55012321472168
254,865954071,0.70843333,0.27472404,-0.4416787,0.47704193,4.294933319091797,-0.1775609254837036,1.7593250274658203,26.371606826782227,-16.676313400268555, -9.379021644592285
255,865970738,0.70692986,0.2793409,-0.44137156,0.47687507,4.489955902099609,0.33962124586105347,1.7954800128936768,26.786306381225586,-17.84606170654297, -9.700258255004883
256,865987405,0.7055941,0.28375843,-0.44131532,0.4762972,4.388908386230469,1.0199223756790161,1.726076364517212,23.407625198364258,-18.70037078857422, -11.153205871582031
257,866004072,0.7052043,0.28618947,-0.44232526,0.47447973,4.252018928527832,0.5732823610305786,2.070033311843872,4.658066749572754,-16.92389678955078, -12.127938270568848
258,866020739,0.70524246,0.28782997,-0.44343477,0.47239053,4.193652629852295,1.1862200498580933,1.6951935291290283,-1.1788129806518555,-14.080084800720215, -12.226042747497559
259,866037406,0.7059035,0.2882717,-0.4450181,0.46963704,4.5742034912109375,0.41818147897720337,1.437198519706726,-11.804156303405762,-11.909309387207031, -12.844865798950195
260,866054073,0.7068372,0.2879974,-0.447144,0.46637002,5.185928821563721,-0.30456647276878357,1.787735104560852,-19.148780822753906,-12.409791946411133, -12.941347122192383
261,866070740,0.70810837,0.28651884,-0.45052642,0.4620775,5.459934711456299,-1.020116925239563,2.5184519290924072,-32.84529495239258,-15.646761894226074, -12.825855255126953
262,866087407,0.7093639,0.28639922,-0.4542634,0.4565341,6.955543518066406,-1.1156597137451172,3.5535645484924316,-30.4117488861084,-24.25397491455078, -22.135560989379883
263,866104074,0.7083338,0.2924642,-0.4583655,0.45014372,10.704751014709473,-1.9925978183746338,6.576296329498291,0.2757889926433563,-54.26361846923828, -37.80800247192383
264,866120741,0.7050702,0.29923967,-0.46618629,0.44272143,13.141931533813477,-3.946823835372925,9.559037208557129,-6.495690822601318,-83.74612426757812, -30.762584686279297
265,866137408,0.7010914,0.30353287,-0.47897974,0.43233925,9.061240196228027,-1.4632536172866821,7.525092601776123,-41.96106719970703,-108.80529022216797, -24.98002052307129
266,866154075,0.6984423,0.30175775,-0.49607015,0.4183723,3.322012424468994,-5.810213565826416,2.856261730194092,-99.1595687866211,-114.71760559082031, -17.43256187438965
267,866170742,0.69096416,0.30396795,-0.5084387,0.41432124,2.4546291828155518,-13.711913108825684,6.235709190368652,-23.324161529541016,-99.45938873291016, 20.41476058959961
268,866187409,0.6796637,0.3111508,-0.511383,0.42394567,-1.706034541130066,-6.588115215301514,15.586784362792969,83.11132049560547,-53.81985092163086, 58.798831939697266
269,866204076,0.6749582,0.30832505,-0.50942177,0.43572548,-3.288895606994629,0.21273162961006165,18.441715240478516,44.168792724609375,25.522647857666016, 74.19304656982422
270,866220743,0.68079466,0.29113415,-0.5042648,0.44438368,-2.646702527999878,4.271666049957275,15.80555534362793,-46.336036682128906,113.0789566040039, 71.71851348876953
271,866237410,0.69398147,0.26445338,-0.49509913,0.45092258,-0.5837492942810059,3.380084276199341,10.186949729919434,-101.02444458007812,181.65640258789062, 64.33087158203125
272,866254077,0.7082772,0.2390583,-0.47848734,0.46070004,1.7546002864837646,2.31889009475708,5.211592197418213,-63.04960632324219,222.69984436035156, 58.45878982543945
273,866270744,0.7212473,0.21948934,-0.4550298,0.47389323,4.114933490753174,2.4740543365478516,1.8980605602264404,0.4554828107357025,238.8711700439453, 48.891353607177734
274,866287411,0.73221153,0.20458971,-0.42807034,0.4886363,5.3612895011901855,2.2071573734283447,-1.941859483718872,42.874820709228516,237.2716522216797, 43.251564025878906
275,866304078,0.74089736,0.1940342,-0.39889613,0.5042853,7.344357013702393,3.7189555168151855,-6.732534408569336,78.16897583007812,228.6981964111328, 39.624610900878906
276,866320745,0.74889016,0.1834856,-0.37216285,0.5167121,8.539201736450195,4.196393013000488,-10.731659889221191,63.20346450805664,210.32113647460938, 29.474014282226562
277,866337412,0.75734055,0.1690801,-0.3517622,0.5235558,7.82544469833374,2.6978695392608643,-11.290480613708496,5.9230451583862305,186.09231567382812, 17.103635787963867
278,866354079,0.7653495,0.15165146,-0.33932266,0.52545434,7.152080059051514,0.7438435554504395,-14.619240760803223,-49.94343566894531,149.20071411132812, 9.592085838317871
279,866370746,0.77137226,0.13719042,-0.33260563,0.5249164,5.991970062255859,-0.055442988872528076,-15.380032539367676,-58.56704330444336,101.69977569580078, 3.026831865310669
280,866387413,0.7749669,0.12765421,-0.32971781,0.5238484,5.9564738273620605,-0.16861267387866974,-15.213951110839844,-45.116207122802734,58.00926208496094, 1.353484034538269
281,866404080,0.7758102,0.12355417,-0.33106402,0.5227328,5.9632568359375,-0.29697147011756897,-14.322925567626953,-29.01824378967285,9.9877290725708, 2.4245314598083496
282,866420747,0.773559,0.12448286,-0.3366285,0.5222947,6.048656940460205,-0.5812290906906128,-12.79003620147705,-13.108640670776367,-36.7135009765625, 9.312734603881836
283,866437414,0.768003,0.13055032,-0.34535593,0.5233138,6.379968166351318,-1.6825569868087769,-10.81640338897705,9.143681526184082,-78.11012268066406, 19.74248695373535
284,866454081,0.7592659,0.14150028,-0.35563952,0.5263208,6.42337703704834,-1.3868154287338257,-8.070741653442383,37.000301361083984,-109.4390640258789, 31.446779251098633
285,866470748,0.74811304,0.1555035,-0.36695606,0.5305552,6.5106377601623535,-1.2037544250488281,-6.886507034301758,54.63080596923828,-130.44287109375, 40.08296203613281
286,866487415,0.7347709,0.17330466,-0.37857857,0.53549576,6.744074821472168,-0.8535767793655396,-6.53936243057251,77.23788452148438,-150.52584838867188, 42.38191223144531
287,866504082,0.7187426,0.1922036,-0.39215162,0.5410028,6.305675506591797,-2.2290916442871094,-7.3273420333862305,80.33040618896484,-170.63783264160156, 54.534122467041016
288,866520749,0.69972134,0.21410197,-0.4063863,0.5471752,5.3758087158203125,-0.7288987636566162,-6.396900177001953,98.52593231201172,-192.16014099121094, 61.630332946777344
289,866537416,0.67857164,0.23689531,-0.42209035,0.5525044,3.8024418354034424,0.8649863600730896,-5.625799655914307,98.1202621459961,-209.73663330078125, 65.15472412109375
290,866554083,0.6564646,0.25956985,-0.4386593,0.5561078,2.4284863471984863,2.719785690307617,-4.155302047729492,90.83097839355469,-218.90586853027344, 62.442115783691406
291,866570750,0.63504714,0.2790527,-0.45635986,0.55729765,0.7505503296852112,2.9679317474365234,-1.9372693300247192,63.546119689941406,-214.080322265625, 60.56768798828125
292,866587417,0.6157378,0.29341608,-0.4751881,0.5558509,0.2392193228006363,2.244997978210449,-1.7096015214920044,24.504995346069336,-197.9436798095703, 59.24592208862305
293,866604084,0.5980262,0.30449075,-0.49562338,0.55136883,2.4132304191589355,-0.6067569255828857,-14.747869491577148,-8.731521606445312,-193.19769287109375, 54.322261810302734
294,866620751,0.5836472,0.3089713,-0.52524143,0.53666985,11.1414794921875,6.176685810089111,-9.73283863067627,-112.39599609375,-215.71990966796875, 41.39997482299805
295,866637418,0.5620039,0.32670876,-0.5486431,0.52574116,28.097515106201172,6.034268379211426,15.661643981933594,-7.196895122528076,-257.7210693359375, 22.517528533935547
296,866654085,0.5329756,0.3474938,-0.5731726,0.5163896,-1.978222131729126,-3.0049450397491455,-0.4538821578025818,21.116168975830078,-297.1344299316406, 46.551273345947266
297,866670752,0.50249463,0.37010163,-0.5888562,0.5135878,5.030133247375488,2.173844575881958,-6.177658557891846,88.55520629882812,-261.3199768066406, 47.39067459106445
298,866687419,0.4817509,0.38267288,-0.605209,0.505173,3.777208089828491,2.2012367248535156,0.9849044680595398,4.325538158416748,-203.0065155029297, 36.10918045043945
299,866704086,0.46884444,0.38584355,-0.62414944,0.49167812,2.6639413833618164,-3.7299304008483887,-2.6952037811279297,-77.78694152832031,-159.6448974609375, 38.281490325927734
300,866720753,0.45537627,0.3890375,-0.6390403,0.48260763,4.351627826690674,-4.286076545715332,-0.8752743601799011,-43.68731689453125,-137.19883728027344, 43.759483337402344
301,866737420,0.44229484,0.39335674,-0.6497195,0.4769805,6.81504487991333,0.9136618375778198,-2.779472827911377,-12.019710540771484,-116.89065551757812, 37.102294921875
302,866754087,0.43198606,0.396191,-0.6600885,0.46979144,9.688937187194824,0.8168886303901672,-1.7502694129943848,-29.91632843017578,-102.91596984863281, 29.291181564331055
303,866770754,0.42377186,0.39618492,-0.67278916,0.45914036,9.724102973937988,-0.05787462741136551,-0.3762795031070709,-67.34033966064453,-100.56471252441406, 31.84912109375
304,866787421,0.4178137,0.39357182,-0.6872784,0.44517583,10.724915504455566,0.24192340672016144,0.29600077867507935,-101.99065399169922,-96.25786590576172, 32.29759979248047
305,866804088,0.41453138,0.389228,-0.7019999,0.42879078,13.779168128967285,0.706826388835907,3.0781517028808594,-124.78225708007812,-87.2344970703125, 24.51697540283203
306,866820755,0.41725233,0.3820908,-0.7144329,0.41169512,14.169005393981934,0.9725530743598938,7.3978681564331055,-145.53878784179688,-45.715030670166016, 12.27967357635498
307,866837422,0.42427704,0.3738067,-0.7268422,0.38981828,11.043453216552734,0.8003509640693665,9.724839210510254,-183.64442443847656,-34.256351470947266, -7.932321548461914
308,866854089,0.42979586,0.367564,-0.74233115,0.3593283,6.834953308105469,-2.26469087600708,2.501117706298828,-225.2244873046875,-78.8389892578125, -31.26381492614746
309,866870756,0.42942128,0.36313665,-0.75715595,0.3323315,10.899591445922852,-11.511139869689941,14.785364151000977,-185.52513122558594,-102.79400634765625, -17.405611038208008
310,866887423,0.42134616,0.36506405,-0.7658013,0.32053688,0.2076234668493271,-6.483089447021484,13.909314155578613,-54.46980285644531,-101.7174072265625, -3.753166437149048
311,866904090,0.41039008,0.3736844,-0.7744467,0.30359882,-2.8434090614318848,-1.4999934434890747,5.827256202697754,-55.071807861328125,-144.88198852539062, -47.757568359375
312,866920757,0.3971739,0.38336027,-0.7820429,0.28930402,1.1023650169372559,-3.745460271835327,3.330556631088257,-30.041584014892578,-149.4131317138672, -43.967445373535156
313,866937424,0.38387936,0.39424744,-0.78627235,0.28103656,0.23121735453605652,1.449142336845398,13.591458320617676,12.538654327392578,-127.19035339355469, -42.828487396240234
314,866954091,0.37519714,0.402454,-0.79104424,0.2674082,0.6505154967308044,-1.9000606536865234,12.67563533782959,-37.071903228759766,-113.31106567382812, -49.89060974121094
315,866970758,0.36264586,0.4133711,-0.7920045,0.26521945,2.3938145637512207,-7.150943279266357,11.013545036315918,49.81272888183594,-98.08370971679688, -38.5927734375
316,866987425,0.35043162,0.42397094,-0.79104567,0.26775613,3.2009403705596924,-5.042547225952148,14.390612602233887,77.17704772949219,-77.66294860839844, -31.273271560668945
317,867004092,0.34140864,0.43213052,-0.78928113,0.27154887,5.1345720291137695,-4.312152862548828,12.576845169067383,70.21527862548828,-50.50135803222656, -23.247087478637695
318,867020759,0.3361421,0.439411,-0.7854203,0.27756396,7.395352363586426,-0.8124784827232361,13.396256446838379,72.89531707763672,-17.21689224243164, -26.52020835876465
319,867037426,0.33813262,0.4432449,-0.7812631,0.2807641,6.955206394195557,0.48554304242134094,13.989229202270508,28.36285972595215,20.419086456298828, -29.099849700927734
320,867054093,0.34748027,0.44274557,-0.77640295,0.28360644,5.950881481170654,-0.7255363464355469,13.34782886505127,-4.681959629058838,68.5475845336914, -22.952362060546875
321,867070760,0.3620252,0.4386566,-0.7693363,0.29092965,5.334640026092529,-1.8195385932922363,11.302411079406738,-0.8640899062156677,121.9552001953125, -9.945794105529785
322,867087427,0.38048038,0.43076724,-0.7595033,0.30467924,5.728248119354248,-2.947890281677246,9.482268333435059,17.384429931640625,176.33839416503906, 9.953617095947266
323,867104094,0.40102515,0.4199727,-0.74602807,0.32595092,6.315752029418945,-3.2859349250793457,7.797543048858643,50.46518325805664,225.02699279785156, 29.595895767211914
324,867120761,0.42306873,0.40688646,-0.7283575,0.35348502,7.189422130584717,-2.36067533493042,5.811903953552246,81.30238342285156,267.4346618652344, 43.124847412109375
325,867137428,0.44659808,0.39177522,-0.706774,0.38410035,7.603188514709473,-0.568752646446228,3.2530946731567383,96.1676254272461,299.7793884277344, 47.6953125
326,867154095,0.4723088,0.37455925,-0.6818164,0.41443482,8.097262382507324,2.666198968887329,0.4969175457954407,91.36433410644531,325.5970764160156, 42.28215026855469
327,867170762,0.5028894,0.3522745,-0.6566929,0.43790352,8.067876815795898,5.331653594970703,-2.336921215057373,30.64037322998047,345.8616638183594, 29.564023971557617
328,867187429,0.5375148,0.32360137,-0.6340817,0.4519962,6.907305717468262,4.9313507080078125,-5.468885898590088,-51.154727935791016,352.1883850097656, 20.019174575805664
329,867204096,0.57161415,0.29275566,-0.61228985,0.46114275,5.69473123550415,2.9775774478912354,-9.263551712036133,-82.10948944091797,342.926025390625, 14.726320266723633
330,867220763,0.6010015,0.26376686,-0.590326,0.46982923,5.267849445343018,-0.2560825049877167,-15.097322463989258,-66.65967559814453,317.361083984375, 19.699480056762695
331,867237430,0.62275183,0.24263774,-0.5656431,0.48306853,4.138528347015381,-3.191270112991333,-21.340539932250977,7.064143180847168,281.04620361328125, 26.311195373535156
332,867254097,0.6354603,0.23395906,-0.53889126,0.5010487,2.4785661697387695,-3.553318977355957,-24.987930297851562,100.9745101928711,222.04098510742188, 24.6940975189209
333,867270764,0.6404402,0.23666745,-0.51614666,0.5171243,1.6895272731781006,-2.403593063354492,-26.90913963317871,139.12843322753906,136.4208526611328, 10.46336555480957
334,867287431,0.64345783,0.23486477,-0.50629485,0.52389526,-0.006702929735183716,-1.0032920837402344,-27.627685546875,43.439998626708984,74.6474380493164, 13.465594291687012
335,867304098,0.64629865,0.22625627,-0.51078737,0.51981,-1.1098785400390625,-0.3625791370868683,-27.752872467041016,-75.58927917480469,18.25394630432129, 12.779011726379395
336,867320765,0.64461094,0.22089478,-0.52414215,0.5108397,-0.8090164065361023,-0.862413763999939,-25.438159942626953,-102.43866729736328,-55.795040130615234, 9.462652206420898
337,867337432,0.63563156,0.22407602,-0.5412762,0.5027749,-0.8312411308288574,-1.7141311168670654,-21.456533432006836,-63.06300735473633,-127.04535675048828, 13.993110656738281
338,867354099,0.6188251,0.2372243,-0.5578315,0.49960417,-0.5776516795158386,-2.719674587249756,-19.12550163269043,12.994518280029297,-180.0850067138672, 24.609546661376953
339,867370766,0.594182,0.25895065,-0.57571936,0.49843708,3.0804429054260254,1.385019063949585,-33.469505310058594,65.59469604492188,-241.52236938476562, 29.48865509033203
340,867387433,0.57253945,0.27823547,-0.5990585,0.4857087,15.55588436126709,12.293525695800781,2.332170248031616,-14.244516372680664,-262.90728759765625, -7.8140788078308105
341,867404100,0.5511196,0.29473162,-0.6206393,0.47350523,4.60282039642334,6.710668087005615,9.36218547821045,-17.233783721923828,-245.21603393554688, 1.8732188940048218
342,867420767,0.52702427,0.3117838,-0.63965654,0.4646246,3.0261764526367188,-3.0832831859588623,-6.977324485778809,15.133910179138184,-244.7720489501953, 11.548715591430664
343,867437434,0.5005762,0.3335075,-0.64903563,0.4657781,8.526073455810547,2.0677051544189453,-1.4606375694274902,112.06324768066406,-213.59584045410156, 14.027509689331055
344,867454101,0.4795894,0.34819356,-0.65940106,0.46254262,4.734177589416504,1.0117723941802979,0.11645790934562683,52.52381896972656,-180.2969970703125, 15.100992202758789
345,867470768,0.46573615,0.354123,-0.6713513,0.45494428,4.863616466522217,-1.5775681734085083,0.9758687019348145,-18.294090270996094,-135.97637939453125, 21.540557861328125
346,867487435,0.4545312,0.3587421,-0.68000853,0.44977126,5.9432854652404785,-2.7457399368286133,-2.2199110984802246,-7.487256050109863,-103.42572021484375, 19.036251068115234
347,867504102,0.44627246,0.36290032,-0.686167,0.4453306,6.707659721374512,-0.4222000539302826,-0.7691395878791809,-5.073182106018066,-78.73418426513672, 8.167118072509766
348,867520769,0.44097412,0.36468926,-0.69287807,0.43870696,6.024717330932617,-2.1683080196380615,-0.8145829439163208,-31.758426666259766,-64.82290649414062, 5.008899211883545
349,867537436,0.4361022,0.36654443,-0.69955164,0.43137863,8.118205070495605,-1.2374757528305054,1.1672756671905518,-35.915164947509766,-64.797607421875, 1.1803007125854492
350,867554103,0.43256915,0.36806035,-0.7076467,0.4202995,8.49892807006836,-0.78785640001297,1.9387032985687256,-62.620582580566406,-71.28768157958984, -8.769671440124512
351,867570770,0.43278977,0.36768758,-0.71583205,0.4063047,9.54218864440918,0.20204202830791473,4.842839241027832,-92.24673461914062,-55.45099639892578, -18.7939395904541
352,867587437,0.43654883,0.36526087,-0.7241625,0.38935623,8.572549819946289,1.2469358444213867,7.1440348625183105,-122.32390594482422,-40.52375030517578, -26.87828826904297
353,867604104,0.4407998,0.3639387,-0.73302466,0.36867192,6.112699031829834,1.1230746507644653,4.677404880523682,-140.3488006591797,-52.38890075683594, -43.453094482421875
354,867620771,0.4394298,0.36716986,-0.7422219,0.34813,6.627934455871582,-2.3945436477661133,6.694549560546875,-112.65962982177734,-93.18885040283203, -50.80876541137695
355,867637438,0.43221042,0.37668914,-0.7464348,0.3378384,5.217762470245361,-1.2856779098510742,14.470685005187988,-14.719371795654297,-97.46504211425781, -50.552650451660156
356,867654105,0.42060077,0.39105532,-0.74772865,0.3332759,4.493782043457031,-1.3793717622756958,18.47469711303711,47.1533203125,-108.2481689453125, -55.796810150146484
357,867670772,0.40700862,0.4047974,-0.7527206,0.3223275,2.950000524520874,-3.047260284423828,12.725857734680176,9.290265083312988,-145.465576171875, -56.6002082824707
358,867687439,0.3855337,0.42063192,-0.7599831,0.31122088,5.363801002502441,-8.626256942749023,5.999771595001221,31.177480697631836,-198.0815887451172, -44.16156005859375
359,867704106,0.35406628,0.4421077,-0.76076335,0.3168867,10.808656692504883,-5.875276565551758,18.21882438659668,176.47300720214844,-196.89833068847656, -26.718069076538086
360,867720773,0.33290005,0.4526412,-0.7665326,0.31100076,5.628851413726807,-1.0210243463516235,24.358444213867188,47.06523132324219,-167.0260009765625, -4.909246444702148
361,867737440,0.3182472,0.4583109,-0.772197,0.30394375,5.630978584289551,-3.9897499084472656,21.01029396057129,9.61418628692627,-126.34226989746094, 3.8237500190734863
362,867754107,0.3114227,0.45978597,-0.7765612,0.2975998,4.310324192047119,-0.015488632023334503,21.359188079833984,-17.860090255737305,-71.42882537841797, 7.130424499511719
363,867770774,0.31509787,0.45521352,-0.7820535,0.28615823,3.1198086738586426,-1.0224781036376953,17.681713104248047,-93.5962905883789,-21.978626251220703, 10.555489540100098
364,867787441,0.32365602,0.44934556,-0.7850442,0.2775629,3.183979034423828,-0.7329396605491638,13.80831527709961,-91.52022552490234,20.851699829101562, 6.138307094573975
365,867804108,0.33665165,0.44288144,-0.7845055,0.2739943,3.9767065048217773,-0.30944016575813293,10.833078384399414,-72.71237182617188,69.13908386230469, 1.0678249597549438
366,867820775,0.3537089,0.43552142,-0.780165,0.27668363,4.265599727630615,0.45348677039146423,8.892807960510254,-46.23093795776367,120.47406005859375, 1.0886483192443848
367,867837442,0.376098,0.4251118,-0.7736887,0.28148907,4.67524528503418,1.0970478057861328,5.985296726226807,-54.17363739013672,166.34555053710938, 6.0125579833984375
368,867854109,0.40079314,0.41249013,-0.7644117,0.29136163,6.014969348907471,-0.7275933027267456,2.4633328914642334,-34.21967697143555,204.95947265625, 18.21440315246582
369,867870776,0.42521337,0.39988944,-0.7506786,0.30945772,6.135795593261719,-0.681144118309021,0.2770881652832031,18.790040969848633,239.16334533691406, 28.658815383911133
370,867887443,0.4497142,0.38717446,-0.7319614,0.3347917,6.072041034698486,-0.6041585206985474,-1.9726251363754272,66.22561645507812,274.4532470703125, 36.5723876953125
371,867904110,0.47581983,0.37235597,-0.70940185,0.36289898,5.690498352050781,0.6352560520172119,-3.484995126724243,78.27788543701172,306.8659362792969, 41.8756217956543
372,867920777,0.50242054,0.35554537,-0.6836714,0.39211577,5.429635047912598,0.024246864020824432,-5.948157787322998,83.84469604492188,327.74560546875, 45.96552276611328
373,867937444,0.52673984,0.3396521,-0.6541252,0.42344037,5.547847747802734,-0.2536349594593048,-8.200949668884277,112.82577514648438,333.2323303222656, 45.837799072265625
374,867954111,0.5496932,0.32436192,-0.6215896,0.454151,5.907381534576416,1.862255334854126,-9.699898719787598,124.18582153320312,335.13800048828125, 37.9675178527832
375,867970778,0.57397205,0.30435258,-0.59121406,0.47790352,6.126246452331543,2.2779433727264404,-12.093606948852539,66.92157745361328,332.29095458984375, 32.61526870727539
376,867987445,0.5973862,0.28107604,-0.56462336,0.49530464,5.8408684730529785,3.908808708190918,-15.506027221679688,17.60608673095703,311.7734069824219, 31.66217613220215
377,868004112,0.6176224,0.2619659,-0.54072994,0.50747186,4.810154914855957,1.7837966680526733,-17.8387451171875,5.700494766235352,268.71929931640625, 17.964096069335938
378,868020779,0.634358,0.24746393,-0.5188712,0.5168407,3.4454503059387207,0.7176889777183533,-18.709796905517578,13.533726692199707,226.6569366455078, 4.498062610626221
379,868037446,0.64805204,0.23632105,-0.5009871,0.52267855,2.5595409870147705,-0.016384601593017578,-20.53770637512207,6.608911037445068,180.9575958251953, -6.045949935913086
380,868054113,0.6578334,0.22705168,-0.48963755,0.52531713,0.5313130021095276,-3.0938258171081543,-22.246540069580078,-13.365859031677246,127.03478240966797, -2.3939900398254395
381,868070780,0.6618346,0.2244031,-0.48236334,0.5281513,-1.021483063697815,-2.263840913772583,-22.354446411132812,11.697600364685059,66.05890655517578, 3.0078558921813965
382,868087447,0.6612688,0.2232622,-0.48294884,0.52880836,-2.013072967529297,-2.6014084815979004,-20.206823348999023,-3.288147211074829,2.934595823287964, 10.65417766571045
383,868104114,0.6556886,0.22824168,-0.48838386,0.5286392,-1.8309262990951538,-1.6866626739501953,-20.090303421020508,12.016785621643066,-58.83531188964844, 12.15578842163086
384,868120781,0.64574826,0.23807085,-0.49818766,0.5273905,-0.8277420997619629,-1.6086243391036987,-18.754446029663086,21.353971481323242,-112.06471252441406, 13.615376472473145
385,868137448,0.6318121,0.25243658,-0.5121016,0.52425295,-0.3335530757904053,0.6756266951560974,-16.420320510864258,20.402891159057617,-158.91189575195312, 17.353469848632812
386,868154115,0.6152718,0.26776516,-0.53006333,0.5184354,0.048539042472839355,1.3325008153915405,-13.33201789855957,5.762365341186523,-193.60035705566406, 18.67458152770996
387,868170782,0.5962467,0.28466436,-0.5498067,0.51104677,0.3940550982952118,0.44817984104156494,-10.514289855957031,5.25180721282959,-218.3428497314453, 18.8535099029541
388,868187449,0.57543766,0.30113342,-0.5695185,0.50382453,1.2116636037826538,-2.9483022689819336,-21.32488441467285,8.409232139587402,-223.0920867919922, 27.35051155090332
389,868204116,0.55141085,0.3211291,-0.5864771,0.49886566,5.387155532836914,-1.1285687685012817,3.7739181518554688,48.13705825805664,-231.8405303955078, 27.851728439331055
390,868220783,0.5212113,0.3407212,-0.61157024,0.48808795,11.472250938415527,-4.624998569488525,8.379709243774414,9.442638397216797,-299.3816223144531, 46.60880661010742
391,868237450,0.49100184,0.36197424,-0.6284048,0.48270023,12.594380378723145,-0.8387277722358704,-0.07837814092636108,66.8393783569336,-263.8641357421875, 38.372684478759766
392,868254117,0.46603072,0.37595728,-0.64396787,0.47621113,8.606193542480469,5.0342698097229,0.16960766911506653,29.116411209106445,-215.65103149414062, 45.55829620361328
393,868270784,0.44779137,0.38435143,-0.6602231,0.4646101,5.915348052978516,4.572653293609619,-0.9856105446815491,-30.71188735961914,-183.31893920898438, 33.706233978271484
394,868287451,0.4319289,0.39183068,-0.6724317,0.45578712,5.9756975173950195,2.316056251525879,-2.7420451641082764,-14.087520599365234,-149.63938903808594, 29.031274795532227
395,868304118,0.4180134,0.3987985,-0.68125314,0.44957644,7.366779804229736,1.035703420639038,-1.8537349700927734,2.85845685005188,-125.82244110107422, 17.346769332885742
396,868320785,0.40655467,0.40481704,-0.6880462,0.44432983,9.279999732971191,-0.9435428977012634,-1.7369056940078735,4.152263641357422,-103.06330871582031, 11.49155330657959
397,868337452,0.400569,0.40756777,-0.69605577,0.43467158,7.605262756347656,-1.2464123964309692,1.7425379753112793,-44.839813232421875,-83.04026794433594, 1.3534622192382812
398,868354119,0.39892998,0.4082254,-0.7036017,0.4232633,9.05263614654541,-1.3802372217178345,-0.0487421415746212,-69.83795928955078,-59.86439514160156, -7.6588873863220215
399,868370786,0.40054083,0.40820423,-0.710439,0.41013774,9.215225219726562,1.1003406047821045,3.8976900577545166,-87.12078094482422,-45.2515869140625, -20.44158172607422
400,868387453,0.40657726,0.40476537,-0.7147615,0.39997023,8.314414978027344,1.8304133415222168,5.198785781860352,-87.4727783203125,0.9032889008522034, -14.985766410827637
401,868404120,0.41285142,0.4030597,-0.7201806,0.38527474,5.252251148223877,4.158697128295898,4.368644714355469,-108.61714935302734,-18.707599639892578, -33.61444091796875
402,868420787,0.4195729,0.4031774,-0.7260039,0.3665039,5.975506782531738,1.7693352699279785,0.566556990146637,-125.96826171875,-34.042118072509766, -54.1121711730957
403,868437454,0.421209,0.40507856,-0.7326,0.34898666,6.83331298828125,-6.7177228927612305,11.031495094299316,-102.43199157714844,-62.83287811279297, -44.35586166381836
404,868454121,0.4210149,0.4065978,-0.7357613,0.34070545,2.410907030105591,-6.511082172393799,15.255960464477539,-43.78483200073242,-35.920188903808594, -20.98122215270996
405,868470788,0.41338828,0.41110492,-0.74117404,0.33281237,-1.795289397239685,-4.3931779861450195,9.21468448638916,-17.78021812438965,-86.44943237304688, -11.409059524536133
406,868487455,0.4021359,0.4176326,-0.75097984,0.31606835,-0.03952859342098236,-5.2292070388793945,8.32874584197998,-57.01346969604492,-147.29759216308594, -26.262714385986328
407,868504122,0.38480952,0.4274601,-0.7609912,0.30015323,3.3234329223632812,-4.778385162353516,7.752089977264404,-26.682708740234375,-184.24462890625, -27.33810806274414
408,868520789,0.3701521,0.43448317,-0.7719354,0.27987105,6.355753421783447,0.16425010561943054,17.62500762939453,-66.7896728515625,-180.03598022460938, -27.07354736328125
409,868537456,0.36073104,0.4360385,-0.785189,0.25143945,5.959039211273193,-3.3959622383117676,17.764785766601562,-144.08815002441406,-172.5087890625, -21.955347061157227
410,868554123,0.34889317,0.43799353,-0.79578894,0.23055446,6.133640766143799,-6.870654106140137,15.996293067932129,-90.57191467285156,-157.54104614257812, -9.261696815490723
411,868570790,0.33723083,0.43939057,-0.8043429,0.21504375,5.381620407104492,-5.534657001495361,17.560020446777344,-59.89155197143555,-135.032470703125, 0.09485753625631332
412,868587457,0.32700807,0.4391408,-0.81176984,0.20310347,5.490048408508301,-6.629850387573242,15.361406326293945,-46.73897171020508,-111.66636657714844, 11.839529037475586
413,868604124,0.31595728,0.44236246,-0.8147938,0.20148881,5.787242889404297,-2.19875431060791,12.571456909179688,27.240827560424805,-80.4180679321289, 3.449087142944336
414,868620791,0.31141263,0.443939,-0.8166326,0.19761497,6.334352016448975,0.3055819869041443,12.918675422668457,-7.157857894897461,-46.277549743652344, -4.84684419631958
415,868637458,0.31314301,0.44467822,-0.81657517,0.19341163,6.489062309265137,0.7097941637039185,10.424029350280762,-27.34581756591797,-7.1512322425842285, -15.135993003845215
416,868654125,0.31833518,0.44569042,-0.8133972,0.19597928,6.975692272186279,0.556756854057312,7.836436748504639,4.874057769775391,39.104515075683594, -16.201866149902344
417,868670792,0.32700986,0.4462199,-0.8072261,0.20576315,6.5671706199646,0.9020302295684814,6.496969699859619,37.59068298339844,87.71123504638672, -11.514461517333984
418,868687459,0.34152174,0.44458786,-0.79846543,0.21944806,6.354261875152588,-0.31655770540237427,5.027182579040527,40.19462585449219,140.823486328125, -6.869653701782227
419,868704126,0.3595409,0.4414355,-0.7861243,0.24056977,5.5969624519348145,-2.07920503616333,3.1061487197875977,72.16942596435547,193.4325714111328, 2.7749831676483154
420,868720793,0.38064983,0.4361484,-0.77001756,0.26824135,5.27649450302124,-2.5277841091156006,2.4005985260009766,99.15194702148438,242.8605499267578, 14.031163215637207
421,868737460,0.40468565,0.4286344,-0.75010085,0.29975146,5.660348892211914,-2.7942371368408203,0.06399697065353394,111.888916015625,284.00201416015625, 19.115215301513672
422,868754127,0.43071413,0.41879177,-0.7261954,0.33427396,5.817714691162109,-2.139531373977661,-1.2444640398025513,123.2850112915039,319.1903381347656, 23.714252471923828
423,868770794,0.45856366,0.40523496,-0.6994556,0.36914212,5.390568256378174,-1.9457427263259888,-3.9235620498657227,115.26590728759766,346.3916015625, 31.01126480102539
424,868787461,0.48597348,0.38965943,-0.66942334,0.4048059,4.948558807373047,-1.0241180658340454,-6.287623405456543,122.3031997680664,362.2826232910156, 35.22750473022461
425,868804128,0.5136072,0.3716867,-0.63799417,0.43705833,4.220545291900635,1.2717233896255493,-7.218784809112549,101.87060546875,365.865234375, 30.541013717651367
426,868820795,0.54330117,0.34812364,-0.6097311,0.46028453,4.2426276206970215,2.1713473796844482,-8.833329200744629,27.72823143005371,357.8175354003906, 25.127174377441406
427,868837462,0.5726392,0.32094613,-0.58552396,0.4756464,4.523513317108154,1.3127079010009766,-12.376631736755371,-30.730756759643555,334.19317626953125, 21.73957633972168
428,868854129,0.5986996,0.29551262,-0.5629007,0.4872105,4.849916934967041,0.056478388607501984,-17.803115844726562,-43.43650436401367,305.59149169921875, 24.689287185668945
429,868870796,0.61895585,0.27614403,-0.5403091,0.49870273,2.876380205154419,-0.2746516466140747,-20.925539016723633,-7.344552040100098,262.8933410644531, 19.189992904663086
430,868887463,0.63325435,0.26373467,-0.5197889,0.5091688,0.6808673143386841,0.17205733060836792,-21.829669952392578,22.751632690429688,206.59886169433594, 12.090535163879395
431,868904130,0.64190304,0.2570804,-0.50460815,0.5169533,-0.8673053979873657,-0.6131913065910339,-23.358535766601562,31.05354118347168,138.0995330810547, 7.188295841217041
432,868920797,0.6461743,0.25328574,-0.4962127,0.52161103,-1.6408113241195679,-1.5572803020477295,-24.692440032958984,17.14426612854004,77.63896179199219, 10.000288009643555
433,868937464,0.64689493,0.25172096,-0.4946773,0.5229321,-1.8539974689483643,0.9276803731918335,-22.838829040527344,-2.1453497409820557,21.687694549560547, 11.579237937927246
434,868954131,0.64450353,0.25241393,-0.5004811,0.52002037,-2.497058391571045,1.4935517311096191,-23.43561553955078,-27.053630828857422,-36.56654357910156, 8.650260925292969
435,868970798,0.6376192,0.25859153,-0.5114238,0.51479894,-2.2631800174713135,1.5858441591262817,-21.813064575195312,-21.30913734436035,-97.74142456054688, 4.85610294342041
436,868987465,0.62591445,0.26878658,-0.52686054,0.5083335,-1.4985908269882202,0.3745323121547699,-18.078983306884766,-14.663714408874512,-150.61441040039062, 9.92935562133789
437,869004132,0.61007607,0.28326613,-0.5440291,0.5015976,-0.5844115018844604,1.5568565130233765,-15.143523216247559,5.081358432769775,-188.3795623779297, 10.503556251525879
438,869020799,0.59200233,0.30079636,-0.56097937,0.4943249,0.04837501049041748,4.5559258460998535,-10.680195808410645,21.526382446289062,-207.27159118652344, 3.834968090057373
439,869037466,0.57624996,0.31025228,-0.58465576,0.47943446,-0.36400794982910156,-4.332921504974365,-30.505550384521484,-68.09729766845703,-213.95233154296875, 10.07650375366211
440,869054133,0.5501476,0.32524097,-0.60910326,0.46962696,12.881526947021484,-5.278552532196045,-1.73206627368927,-6.785682678222656,-264.39794921875, 45.78974914550781
441,869070800,0.52097404,0.34109807,-0.6350644,0.45709026,16.296466827392578,-3.9754340648651123,14.025564193725586,-9.903533935546875,-294.57293701171875, 39.01246643066406
442,869087467,0.4962107,0.35887942,-0.6422364,0.46099156,8.966785430908203,-0.6625834703445435,-2.030970335006714,117.34845733642578,-176.12728881835938, 31.511911392211914
443,869104134,0.47443557,0.37183636,-0.6586523,0.450362,13.423049926757812,4.104740142822266,7.086097240447998,-0.012424198910593987,-215.19073486328125, 16.52733039855957
444,869120801,0.46093473,0.3771543,-0.67062396,0.44221872,10.642111778259277,2.098259687423706,-3.4298548698425293,-21.172170639038086,-133.6543426513672, 22.44891357421875
445,869137468,0.45007652,0.3808708,-0.684094,0.4293995,6.456398963928223,-1.1826293468475342,0.27686864137649536,-59.238895416259766,-133.58131408691406, 10.999712944030762
446,869154135,0.44406334,0.38226545,-0.6879522,0.42825547,9.799674034118652,-0.27169546484947205,-0.7015474438667297,4.146120548248291,-43.802120208740234, 18.619945526123047
447,869170802,0.44046006,0.3843641,-0.6907122,0.42564768,6.916029453277588,2.388089179992676,0.7512472867965698,-3.7581686973571777,-35.15790557861328, 0.9048815369606018
448,869187469,0.4365905,0.38706163,-0.69663256,0.41746277,5.319514274597168,0.5580241084098816,-2.999357223510742,-37.015357971191406,-62.69153594970703, -9.576348304748535
449,869204136,0.43480805,0.38929486,-0.70370024,0.40521312,8.415318489074707,2.0971288681030273,1.7545312643051147,-66.75051879882812,-65.68360137939453, -22.416889190673828
450,869220803,0.43793285,0.38734958,-0.7131544,0.38676384,7.515613555908203,0.7602477669715881,3.003826856613159,-129.08006286621094,-54.27699661254883, -27.852903366088867
451,869237470,0.44536284,0.38298205,-0.7232025,0.3632561,6.521392822265625,0.5107983350753784,6.112334251403809,-174.29367065429688,-42.266326904296875, -40.925048828125
452,869254137,0.45493898,0.37749523,-0.7332168,0.33603716,4.035245418548584,-1.5679857730865479,6.896205902099609,-201.8258056640625,-38.83823013305664, -52.03818893432617
453,869270804,0.45990846,0.37312552,-0.7431951,0.3113244,1.896723747253418,-8.644250869750977,2.8889431953430176,-173.71694946289062,-58.38031768798828, -39.22807693481445
454,869287471,0.45359588,0.3768164,-0.7499036,0.29984155,1.5214108228683472,-7.723741054534912,9.761565208435059,-44.74113464355469,-89.17147064208984, -22.968589782714844
455,869304138,0.43968445,0.3893548,-0.7542225,0.29364753,-2.2250301837921143,-4.404036045074463,9.428112983703613,34.64707946777344,-125.81380462646484, -42.77251434326172
456,869320805,0.421515,0.40454277,-0.75950736,0.28604013,0.5112611651420593,-3.2365951538085938,10.222552299499512,44.71477508544922,-160.24615478515625, -49.698585510253906
457,869337472,0.4003269,0.4187551,-0.76713276,0.27548143,3.1617531776428223,-4.074360370635986,9.294363021850586,30.214984893798828,-189.42706298828125, -40.76133728027344
458,869354139,0.3767917,0.43161413,-0.7750785,0.26644114,5.599803447723389,-5.508297443389893,16.202075958251953,40.59629821777344,-196.08546447753906, -24.123506546020508
459,869370806,0.35506183,0.4413272,-0.7832487,0.2562867,3.785898208618164,-3.0403692722320557,17.36644744873047,20.658021926879883,-185.13336181640625, -12.931967735290527
460,869387473,0.33923963,0.44688883,-0.7915733,0.2421132,4.258112907409668,-2.384192705154419,17.44683074951172,-29.375240325927734,-159.0763702392578, -10.334695816040039
461,869404140,0.3287733,0.44830897,-0.8001763,0.22504492,3.44098162651062,-3.400327682495117,16.845779418945312,-71.75469970703125,-133.05368041992188, -2.6253340244293213
462,869420807,0.32012048,0.4493292,-0.8069141,0.2109879,2.9061357975006104,-2.908594846725464,13.852675437927246,-58.84425354003906,-109.36432647705078, -2.2303597927093506
463,869437474,0.31276372,0.451327,-0.8109181,0.20222461,2.8686466217041016,-1.225483775138855,12.42631721496582,-27.395009994506836,-81.51480102539062, -6.37054443359375
464,869454141,0.30886793,0.45350048,-0.8127663,0.19582893,3.9482016563415527,-0.47287073731422424,11.369915008544922,-21.561962127685547,-50.72444152832031, -13.767264366149902
465,869470808,0.30822706,0.45618805,-0.81196123,0.19392706,5.319515705108643,-0.09025780856609344,10.213610649108887,-1.9159363508224487,-13.817464828491211, -19.741004943847656
466,869487475,0.31107134,0.4592758,-0.80835235,0.19714689,5.072587966918945,0.9447359442710876,8.713516235351562,20.365798950195312,26.876461029052734, -24.529958724975586
467,869504142,0.31876233,0.46125805,-0.8026111,0.2035858,4.90803861618042,0.595291256904602,6.6396379470825195,23.53189468383789,69.85221099853516, -24.748043060302734
468,869520809,0.33105403,0.4619967,-0.7944294,0.21411355,5.469345569610596,-1.145790934562683,5.245398044586182,32.245121002197266,115.17337036132812, -23.052738189697266
469,869537476,0.3457249,0.4624146,-0.7829621,0.23155443,4.963616847991943,-2.2622246742248535,3.978609323501587,66.58390045166016,157.9866180419922, -19.462533950805664
470,869554143,0.3630682,0.46131697,-0.76842695,0.25473166,4.708411693572998,-3.1419589519500732,2.5296735763549805,90.2625732421875,200.2786407470703, -11.62651252746582
471,869570810,0.38278994,0.45719698,-0.75138426,0.282603,4.654031753540039,-3.8244428634643555,1.633302927017212,104.3593521118164,239.3050537109375, 3.9919114112854004
472,869587477,0.40471247,0.4495153,-0.7322325,0.3130171,4.486562728881836,-2.963869333267212,0.4754638969898224,105.27129364013672,271.19061279296875, 18.218000411987305
473,869604144,0.43005997,0.4373344,-0.711368,0.34313667,4.446023941040039,-0.9883120059967041,-1.106630802154541,84.32919311523438,302.06573486328125, 27.420499801635742
474,869620811,0.45942387,0.41864958,-0.6905196,0.36992577,3.690856695175171,0.21193349361419678,-3.1665046215057373,36.6458625793457,327.1337585449219, 39.98506546020508
475,869637478,0.48847795,0.39739862,-0.66845226,0.3957717,2.981595993041992,1.8633953332901,-5.13212776184082,28.021883010864258,333.5304870605469, 46.47890853881836
476,869654145,0.51578337,0.37659195,-0.6446327,0.4202319,2.598994493484497,2.7685494422912598,-6.945754528045654,32.67481231689453,326.6429138183594, 39.775760650634766
477,869670812,0.5412459,0.3569318,-0.61985,0.4420845,2.4876530170440674,2.8887248039245605,-9.012510299682617,32.7340202331543,312.1376953125, 28.308210372924805
478,869687479,0.56447524,0.33715388,-0.59631985,0.4605406,2.5459611415863037,1.3793890476226807,-12.172745704650879,19.499752044677734,290.35101318359375, 26.055130004882812
479,869704146,0.58327425,0.3210975,-0.57290787,0.47797942,2.458071708679199,0.9068146347999573,-15.365169525146484,39.712432861328125,258.05303955078125, 21.13319969177246
480,869720813,0.5968801,0.31242317,-0.54942495,0.49422505,1.8988425731658936,-0.10902940481901169,-19.346416473388672,73.8399887084961,212.99429321289062, 8.166370391845703
481,869737480,0.60686916,0.30834803,-0.5279003,0.5078905,1.0690157413482666,0.5911675095558167,-19.94609260559082,86.13652038574219,169.6927947998047, -6.5362749099731445
482,869754147,0.6158329,0.30071777,-0.5170896,0.5127741,-0.9237655401229858,-0.7311215400695801,-20.712865829467773,5.906684875488281,114.83492279052734, -6.147026538848877
483,869770814,0.6216899,0.2927556,-0.51473397,0.512684,-1.9647274017333984,-1.5322388410568237,-22.426698684692383,-36.7326774597168,59.692771911621094, 2.7391140460968018
484,869787481,0.623131,0.28760278,-0.51921505,0.50932163,-2.7955682277679443,-1.1065545082092285,-21.558815002441406,-52.62186813354492,-0.3505389094352722, 9.537298202514648
485,869804148,0.6187943,0.28924078,-0.52789694,0.50473595,-2.9734697341918945,-1.3262144327163696,-20.825380325317383,-31.415578842163086,-64.40252685546875, 8.983991622924805
486,869820815,0.6090209,0.29775468,-0.5392214,0.49967623,-1.158595323562622,-1.0587091445922852,-18.823509216308594,-2.217313766479492,-119.58435821533203, 6.2293548583984375
487,869837482,0.5946386,0.31099477,-0.553136,0.49368802,0.2536855936050415,-0.8542713522911072,-16.430788040161133,14.71769905090332,-165.1356658935547, 6.0262603759765625
488,869854149,0.57659763,0.3269295,-0.56877905,0.48697293,0.3631817102432251,-0.03565094619989395,-12.877431869506836,25.341217041015625,-196.59996032714844, 8.42296314239502
489,869870816,0.55825865,0.33927074,-0.5876197,0.47743702,-0.2961196303367615,-2.2983455657958984,-17.297039031982422,-8.977133750915527,-205.1101531982422, 17.80695343017578
490,869887483,0.5371647,0.35320035,-0.59952843,0.47672787,5.819260120391846,-7.83855676651001,-13.183935165405273,61.035213470458984,-173.10568237304688, 39.99144744873047
491,869904150,0.51369745,0.36053902,-0.6233713,0.46640646,11.58602523803711,-7.217387676239014,8.089095115661621,-35.27873992919922,-229.23793029785156, 66.18321228027344
492,869920817,0.47939613,0.38326678,-0.6384592,0.46438763,18.418432235717773,3.4488627910614014,2.9052553176879883,108.87828063964844,-273.28271484375, 44.410667419433594
493,869937484,0.45537046,0.39884657,-0.65210027,0.45642585,4.934124946594238,9.292738914489746,-5.257094860076904,37.3531379699707,-217.58712768554688, 17.09218978881836
494,869954151,0.43877122,0.40806913,-0.66797495,0.44132653,-1.99120032787323,4.449814796447754,-2.07928204536438,-42.10210418701172,-190.8479461669922, 6.5114521980285645
495,869970818,0.4269059,0.41391328,-0.6802219,0.42863202,7.563815116882324,-2.0693256855010986,-2.9288289546966553,-43.70819854736328,-140.9090576171875, 5.660412311553955
496,869987485,0.41868785,0.41735184,-0.6884092,0.42025107,8.337103843688965,-2.1741371154785156,-1.8626536130905151,-29.061325073242188,-92.6333236694336, 7.42086124420166
497,870004152,0.4154456,0.4171441,-0.6963499,0.41047856,9.065958976745605,-1.4594546556472778,0.7736577987670898,-59.747901916503906,-61.9824104309082, 5.651545524597168
498,870020819,0.41529343,0.41434088,-0.70377105,0.40069863,13.209233283996582,0.9680361151695251,-0.778323769569397,-74.63633728027344,-38.64202880859375, 7.955688953399658
499,870037486,0.41868255,0.410411,-0.7088297,0.39220977,12.779523849487305,0.7039486169815063,3.7098028659820557,-75.21209716796875,-8.227170944213867, 0.7737560868263245
500,870054153,0.4244912,0.4073022,-0.709567,0.38784897,9.009437561035156,3.244093656539917,3.89367938041687,-47.955379486083984,25.064603805541992, -9.907032012939453
501,870070820,0.42885193,0.40779632,-0.71504486,0.37215483,4.146945476531982,6.424698829650879,5.60551118850708,-101.36896514892578,-37.507965087890625, -43.259681701660156
502,870087487,0.43852073,0.40267244,-0.7249373,0.34643996,4.779582500457764,-0.01476520299911499,9.059459686279297,-193.4385223388672,-38.47709274291992, -46.18323516845703
503,870104154,0.44340158,0.39826754,-0.735516,0.3221713,0.6905423402786255,-5.756099224090576,0.842429518699646,-172.49639892578125,-62.535491943359375, -31.999679565429688
504,870120821,0.4340599,0.4071672,-0.74121964,0.31048426,1.1283540725708008,-9.365083694458008,4.511197566986084,-18.594579696655273,-114.68743896484375, -42.841678619384766
505,870137488,0.41804114,0.4202169,-0.74695754,0.30118757,-1.6631243228912354,-4.297547817230225,4.208847522735596,24.516551971435547,-151.17344665527344, -42.658409118652344
506,870154155,0.39689195,0.43489257,-0.7544898,0.28998372,1.319366216659546,-3.643617630004883,4.44667387008667,30.457517623901367,-191.69696044921875, -40.76001739501953
507,870170822,0.37422165,0.44800052,-0.76429397,0.27405974,3.9052162170410156,-2.947042226791382,10.803117752075195,1.6649234294891357,-216.96148681640625, -35.73025894165039
508,870187489,0.35218778,0.45836008,-0.7757567,0.25312352,4.43475341796875,-4.026764392852783,13.045384407043457,-36.881797790527344,-228.54779052734375, -30.280893325805664
509,870204156,0.33133385,0.46639335,-0.7872329,0.23012972,4.936744213104248,-4.969847679138184,15.398106575012207,-57.282562255859375,-225.1663818359375, -24.886184692382812
510,870220823,0.3120199,0.47269788,-0.797515,0.20777462,5.26026725769043,-3.928759813308716,17.101511001586914,-60.86404037475586,-209.80812072753906, -20.37432289123535
511,870237490,0.2952612,0.47714126,-0.8066056,0.18586229,6.216269493103027,-3.4341695308685303,16.84542465209961,-69.06607055664062,-189.6425323486328, -16.77290153503418
512,870254157,0.28094447,0.48094958,-0.8138778,0.16541085,6.859658241271973,-3.567783832550049,17.44670867919922,-67.9612808227539,-167.28517150878906, -19.410215377807617
513,870270824,0.269189,0.483319,-0.8201557,0.14589286,6.440671443939209,-4.176462173461914,17.319091796875,-72.87104034423828,-146.7863311767578, -15.811373710632324
514,870287491,0.25780076,0.48614705,-0.82436955,0.13272095,6.110227108001709,-3.3417575359344482,15.96180534362793,-35.40236282348633,-120.69246673583984, -13.94262409210205
515,870304158,0.24963233,0.4887076,-0.82660437,0.12479574,6.6110758781433105,-2.6315412521362305,14.150419235229492,-15.099303245544434,-81.51622772216797, -12.717097282409668
516,870320825,0.24487427,0.49146384,-0.8265444,0.12379202,7.120076656341553,-2.3752543926239014,12.045628547668457,15.091544151306152,-35.429264068603516, -12.598063468933105
517,870337492,0.24361767,0.494173,-0.8242501,0.13059592,7.257277011871338,-1.621697187423706,10.327537536621094,49.465816497802734,14.369302749633789, -9.69411563873291
518,870354159,0.24749133,0.4965008,-0.81943077,0.1441124,6.625514507293701,-1.030173659324646,8.77109146118164,71.7301025390625,70.57835388183594, -9.414016723632812
519,870370826,0.2575232,0.49704224,-0.8125095,0.16266328,5.487048149108887,0.06725150346755981,7.6812334060668945,78.14517974853516,127.62417602539062, -3.973701238632202
520,870387493,0.2757465,0.4941767,-0.80404156,0.18240227,4.690131664276123,-1.0977530479431152,5.645920753479004,52.51396179199219,183.876708984375, 2.806572437286377
521,870404160,0.29846105,0.48894405,-0.7928642,0.20789677,4.3834757804870605,-2.1458346843719482,3.3386080265045166,67.98506927490234,236.33116149902344, 12.034512519836426
522,870420827,0.32495824,0.48102385,-0.7788606,0.2374757,4.265846252441406,-1.146820306777954,1.743233323097229,76.03515625,280.356689453125, 20.224063873291016
523,870437494,0.35583535,0.46939006,-0.76265186,0.2672386,3.762399435043335,-0.03573038429021835,0.0172073096036911,57.80192947387695,315.48291015625, 26.139760971069336
524,870454161,0.38995597,0.45320672,-0.7450509,0.29569808,3.347139358520508,0.10564705729484558,-2.0040783882141113,31.879966735839844,340.17340087890625, 36.398189544677734
525,870470828,0.4221254,0.43555254,-0.7244408,0.32755142,2.7475967407226562,0.5337886214256287,-4.471694469451904,57.483802795410156,351.9971008300781, 47.65367889404297
526,870487495,0.4509417,0.41896614,-0.69961876,0.36283946,3.0701823234558105,2.007460832595825,-5.730706691741943,97.19184875488281,355.6681823730469, 47.29125213623047
527,870504162,0.4776561,0.40370822,-0.67069745,0.39878473,3.708418369293213,3.248687267303467,-7.068274021148682,120.73359680175781,357.1434326171875, 36.45635223388672
528,870520829,0.5049077,0.3860096,-0.6420178,0.4288102,3.084615468978882,2.5538649559020996,-8.265984535217285,83.2218246459961,349.39202880859375, 27.543453216552734
529,870537496,0.531733,0.36579874,-0.6152635,0.45266142,2.7931838035583496,0.7519010901451111,-11.567699432373047,42.66952133178711,332.18487548828125, 23.578794479370117
530,870554163,0.5561031,0.3463664,-0.5886623,0.47355723,3.084419012069702,-0.19483661651611328,-15.232932090759277,38.73164367675781,311.8332214355469, 17.45361328125
531,870570830,0.57658213,0.3310556,-0.5617692,0.49231172,3.485185384750366,0.963222086429596,-18.042682647705078,56.10995101928711,279.2356872558594, 4.478989124298096
532,870587497,0.59492296,0.31705165,-0.5397746,0.504171,3.4222187995910645,1.1713825464248657,-20.6611270904541,23.32065773010254,231.92002868652344, -10.029322624206543
533,870604164,0.6101267,0.30256557,-0.5271609,0.50823325,1.155437707901001,-2.853961944580078,-23.500293731689453,-33.619022369384766,167.4595947265625, -8.205143928527832
534,870620831,0.61728954,0.29447222,-0.5198839,0.5118209,-0.8000651597976685,-4.433887958526611,-25.587841033935547,-10.788920402526855,93.54991149902344, 6.327284812927246
535,870637498,0.6171361,0.29402626,-0.5170675,0.5151046,-1.9527515172958374,-1.019023060798645,-23.48487663269043,20.67083168029785,21.426332473754883, 11.356512069702148
536,870654165,0.6113102,0.30042452,-0.51899844,0.5164162,-1.5307247638702393,-0.8254886865615845,-22.412961959838867,37.766109466552734,-46.551849365234375, 7.9142913818359375
537,870670832,0.6009003,0.31136748,-0.5257362,0.5153357,-0.698172926902771,-0.7399425506591797,-18.682170867919922,41.482479095458984,-103.8636245727539, 6.921580791473389
538,870687499,0.58621633,0.32547393,-0.53593665,0.5130197,-0.25762614607810974,-1.0210233926773071,-15.365965843200684,47.21527862548828,-147.11654663085938, 12.50635051727295
539,870704166,0.56864387,0.34137222,-0.54729444,0.5104686,-0.10320328176021576,0.720573902130127,-10.881933212280273,56.694942474365234,-169.34512329101562, 16.430583953857422
540,870720833,0.5500021,0.35809642,-0.55739844,0.5084994,-0.9933759570121765,2.872897148132324,-5.499083995819092,68.78694152832031,-169.79122924804688, 16.420318603515625
541,870737500,0.53380895,0.3716874,-0.567806,0.50447303,-2.708425521850586,1.8224579095840454,-3.318577766418457,42.416709899902344,-156.1376495361328, 11.610218048095703
542,870754167,0.5114849,0.38114545,-0.5844342,0.50154555,32.70798110961914,-19.54198455810547,-17.771583557128906,25.32798957824707,-185.83009338378906, 69.01718139648438
543,870770834,0.47521237,0.40970194,-0.6000378,0.49625832,11.01473331451416,19.144689559936523,12.422664642333984,123.59952545166016,-310.6786193847656, 27.22169303894043
544,870787501,0.45324165,0.41777804,-0.6234483,0.48098427,-5.144596576690674,-7.659205913543701,-16.192197799682617,-52.927345275878906,-235.03244018554688, 55.250308990478516
545,870804168,0.43685877,0.42481574,-0.6337882,0.47644377,-3.379000663757324,5.126306056976318,-5.662739276885986,17.236936569213867,-136.1488800048828, 35.53373336791992
546,870820835,0.4322167,0.42195204,-0.6493145,0.46209946,6.446183204650879,-5.069357872009277,-0.9097656011581421,-107.0316390991211,-95.94823455810547, 27.910070419311523
547,870837502,0.4232857,0.42559844,-0.6575769,0.4552889,6.23397159576416,-0.36247530579566956,-2.292699098587036,-18.903593063354492,-91.76410675048828, 15.566428184509277
548,870854169,0.41780975,0.42758036,-0.66525525,0.44726458,2.458228349685669,-0.21310949325561523,-1.0131518840789795,-37.3812141418457,-73.42969512939453, 5.6786699295043945
549,870870836,0.4165406,0.42583877,-0.67236924,0.43940297,7.395747184753418,-0.27773910760879517,-3.6744351387023926,-58.07320022583008,-40.5971565246582, 9.054950714111328
550,870887503,0.41798192,0.4220444,-0.67961866,0.43045115,11.753450393676758,-1.7684880495071411,1.632409930229187,-77.46717071533203,-25.14756965637207, 8.802840232849121
551,870904170,0.42149186,0.41608185,-0.6905509,0.4151627,13.280972480773926,2.078291177749634,5.162705421447754,-130.3857879638672,-37.85354995727539, 6.926937580108643
552,870920837,0.42557216,0.4097909,-0.7055376,0.39137787,10.444629669189453,2.6735777854919434,3.622506856918335,-185.0451202392578,-70.31524658203125, -4.268587589263916
553,870937504,0.4277522,0.40736777,-0.71837705,0.36744273,8.376341819763184,3.600808620452881,6.729260444641113,-163.21954345703125,-85.09355163574219, -26.849403381347656
554,870954171,0.43233624,0.40429118,-0.7301377,0.34136942,4.948614597320557,4.271355628967285,10.264422416687012,-179.7771453857422,-74.79347229003906, -38.80858612060547
555,870970838,0.43588153,0.399703,-0.74264544,0.31420174,1.6329039335250854,-2.6043477058410645,7.858860969543457,-188.6852569580078,-82.19451904296875, -29.789405822753906
556,870987505,0.42748848,0.4045962,-0.7536651,0.29248008,-1.0569276809692383,-10.164811134338379,0.17776164412498474,-96.47643280029297,-144.53001403808594, -40.1666145324707
557,871004172,0.40792406,0.41747254,-0.7611297,0.28283638,0.40435856580734253,-7.849254131317139,4.999521255493164,27.74935531616211,-174.45034790039062, -33.59616470336914
558,871020839,0.3854087,0.43281412,-0.7688274,0.27025294,2.2036356925964355,-1.715895414352417,7.277278423309326,27.23009490966797,-203.97470092773438, -48.446868896484375
559,871037506,0.36392462,0.44456914,-0.7799254,0.24826106,5.1451497077941895,-4.4216413497924805,10.650678634643555,-41.4399528503418,-229.15399169921875, -46.22959518432617
560,871054173,0.3422244,0.45394257,-0.7918712,0.22306678,5.163875102996826,-6.17122220993042,15.325553894042969,-65.41448974609375,-238.569091796875, -38.53904724121094
561,871070840,0.31900877,0.46286392,-0.80181015,0.20270881,4.0593953132629395,-6.655797958374023,17.916194915771484,-32.39115905761719,-226.80133056640625, -28.681795120239258
562,871087507,0.29584524,0.47077784,-0.80934006,0.18924291,3.576028823852539,-4.915655612945557,18.307188034057617,6.531735420227051,-198.38453674316406, -15.794984817504883
563,871104174,0.2768575,0.47599912,-0.8154744,0.17825934,4.256465911865234,-3.26999831199646,18.923734664916992,3.1225194931030273,-161.22442626953125, -5.732417583465576
564,871120841,0.26334214,0.47867957,-0.8208029,0.16673206,4.759398460388184,-2.994507312774658,18.720783233642578,-21.713815689086914,-128.1278839111328, -1.8742436170578003
565,871137508,0.25298247,0.4807783,-0.8245432,0.1580534,4.955628871917725,-2.4594860076904297,16.200002670288086,-15.281089782714844,-97.8350601196289, -2.292121171951294
566,871154175,0.2461809,0.48272043,-0.8265576,0.15224618,4.977780342102051,-1.3197479248046875,15.139448165893555,-9.176005363464355,-65.36504364013672, -5.991364002227783
567,871170842,0.24361937,0.48393813,-0.8274056,0.14782935,4.407911777496338,-0.32895463705062866,13.389756202697754,-15.350664138793945,-34.25212860107422, -7.833901882171631
568,871187509,0.24564485,0.48441327,-0.8268693,0.1459092,4.718145370483398,-0.5964504480361938,10.205378532409668,-16.232017517089844,2.9545373916625977, -8.699467658996582
569,871204176,0.2503135,0.4851173,-0.82426023,0.15033172,4.86882209777832,0.15824837982654572,7.466470718383789,13.503771781921387,42.16658401489258, -8.840516090393066
570,871220843,0.26068094,0.48522192,-0.81954676,0.15795071,5.830864906311035,-0.4173651337623596,5.908076763153076,13.780464172363281,89.20867156982422, -12.830097198486328
571,871237510,0.27274576,0.4862877,-0.81135875,0.1755881,5.460363388061523,-1.384277105331421,3.4863767623901367,70.0929946899414,137.2395782470703, -13.679705619812012
572,871254177,0.2894874,0.4851385,-0.80136955,0.19658214,4.621909141540527,-0.3498213291168213,4.316756725311279,71.2127685546875,180.5347900390625, -6.629909038543701
573,871270844,0.3100777,0.4810682,-0.78982675,0.2204517,4.721386909484863,-3.3532729148864746,1.4872770309448242,70.51079559326172,218.31924438476562, 4.883308410644531
574,871287511,0.33185315,0.4757183,-0.77517945,0.25032502,4.668175220489502,-2.1583495140075684,0.6682753562927246,101.14519500732422,253.20095825195312, 12.625325202941895
575,871304178,0.35720456,0.46697092,-0.7589115,0.27999374,4.040713787078857,-0.9893423914909363,-0.6622215509414673,83.35466766357422,281.1879577636719, 18.881776809692383
576,871320845,0.38542897,0.45399946,-0.74180055,0.30832,3.067150592803955,-0.3961632251739502,-2.646185874938965,58.325096130371094,302.1749572753906, 29.437891006469727
577,871337512,0.41300842,0.43928728,-0.7223666,0.33858135,2.217369318008423,0.43613871932029724,-4.273004055023193,70.47897338867188,314.953857421875, 37.592403411865234
578,871354179,0.43825522,0.42553204,-0.69917494,0.3714961,2.063039779663086,1.5081745386123657,-5.333039283752441,102.14247131347656,320.0692443847656, 34.49638748168945
579,871370846,0.46244714,0.41258052,-0.6731448,0.4034801,2.0830295085906982,3.2742650508880615,-6.208022594451904,110.40502166748047,319.04278564453125, 22.26968002319336
580,871387513,0.4868545,0.39857355,-0.6467326,0.4311022,2.261974334716797,2.7273313999176025,-7.537993907928467,87.2883071899414,312.0829162597656, 11.656274795532227
581,871404180,0.50988704,0.3847615,-0.62010646,0.45545754,2.2648086547851562,1.7277717590332031,-9.601964950561523,77.81163024902344,297.46246337890625, 3.3607571125030518
582,871420847,0.52999806,0.37322158,-0.59216833,0.47869048,2.3239145278930664,1.146836757659912,-11.861504554748535,92.85188293457031,279.8934020996094, -4.597249507904053
583,871437514,0.54750127,0.36445716,-0.5642557,0.4990279,3.0593206882476807,1.834746241569519,-14.096362113952637,98.10643768310547,252.89674377441406, -18.42940330505371
584,871454181,0.56430906,0.35538298,-0.5415167,0.51187676,3.099656105041504,0.011561527848243713,-16.938600540161133,53.06081771850586,212.9311065673828, -32.02016830444336
585,871470848,0.5794851,0.3446695,-0.52742594,0.5169353,0.6968181133270264,-4.137193202972412,-19.688777923583984,-8.594869613647461,160.60888671875, -29.182706832885742
586,871487515,0.58914155,0.33594838,-0.51987594,0.51940364,-0.8049507737159729,-5.140216827392578,-21.914348602294922,-20.26140022277832,102.07308959960938, -11.34194564819336
587,871504182,0.5926079,0.33176613,-0.51732814,0.5206907,-1.178177833557129,-3.3444409370422363,-21.940584182739258,-9.589506149291992,41.479331970214844, 1.315086007118225
588,871520849,0.5902629,0.33333546,-0.5188849,0.52080303,-1.7136657238006592,-2.3306121826171875,-21.206586837768555,7.999851703643799,-18.402347564697266, 6.596363544464111
589,871537516,0.5832642,0.33986765,-0.5244047,0.51893413,-1.9512081146240234,-2.037757635116577,-19.264968872070312,16.796491622924805,-72.4754867553711, 7.628182411193848
590,871554183,0.5713247,0.3512803,-0.53225535,0.5166185,-1.3955895900726318,-2.2832589149475098,-17.307065963745117,38.08311462402344,-117.60286712646484, 11.173218727111816
591,871570850,0.5552682,0.3657263,-0.54156584,0.51442015,-1.004451036453247,-1.3016173839569092,-14.143498420715332,57.22611999511719,-149.45480346679688, 15.403325080871582
592,871587517,0.53774905,0.38017964,-0.5526158,0.51078886,-1.0502289533615112,0.27839571237564087,-10.242294311523438,49.195125579833984,-164.84539794921875, 19.48761749267578
593,871604184,0.5220063,0.3914951,-0.56508535,0.5048957,-1.5128446817398071,1.718355417251587,-6.456846237182617,19.6090030670166,-158.3421630859375, 19.629201889038086
594,871620851,0.5148827,0.3900806,-0.5878356,0.48701385,7.701351642608643,-13.533164978027344,-8.140974998474121,-131.78123474121094,-149.701171875, 23.82498550415039
595,871637518,0.47994998,0.41601673,-0.5974176,0.48956144,42.88819885253906,4.851304531097412,3.303199529647827,164.40736389160156,-250.73184204101562, 47.718711853027344
596,871654185,0.46070814,0.4176197,-0.6337702,0.46008393,-14.601725578308105,1.5693236589431763,-3.1717705726623535,-180.8521728515625,-286.5491943359375, 59.9770393371582
597,871670852,0.43896765,0.42623127,-0.64841974,0.4529751,-3.8507442474365234,-5.095455646514893,-14.307453155517578,13.040785789489746,-184.61338806152344, 52.08640670776367
598,871687519,0.42852747,0.42525908,-0.66388327,0.4413367,1.1511317491531372,2.0417356491088867,-4.672725200653076,-71.20182800292969,-120.49444580078125, 45.464378356933594
599,871704186,0.4184929,0.42650327,-0.6736493,0.4349199,8.014694213867188,-2.4445834159851074,0.018273279070854187,-25.135669708251953,-92.48564147949219, 35.98539733886719
600,871720853,0.41065478,0.42882603,-0.68129027,0.42815247,4.989362716674805,0.19742095470428467,-0.3970595896244049,-23.61712074279785,-80.9886474609375, 15.889959335327148
601,871737520,0.40858915,0.42646432,-0.6914742,0.41598856,2.105268716812134,-1.4026684761047363,-2.748638153076172,-86.72937774658203,-63.117942810058594, 14.374100685119629
602,871754187,0.4106741,0.42135245,-0.7003378,0.4041482,6.2698798179626465,-0.4199641942977905,-1.6397504806518555,-101.25104522705078,-31.184362411499023, 11.534494400024414
603,871770854,0.41359732,0.4157458,-0.70837545,0.39280665,10.354822158813477,-2.5735936164855957,1.2572129964828491,-100.3946533203125,-22.12199592590332, 10.73725414276123
604,871787521,0.4185117,0.40852806,-0.7185497,0.37634996,12.070039749145508,0.6671702265739441,2.4963793754577637,-141.4010467529297,-29.02532386779785, 4.912140846252441
605,871804188,0.42379937,0.40128055,-0.7300449,0.3555312,9.736474990844727,1.8944282531738281,2.667475938796997,-167.55735778808594,-43.48101043701172, -4.54909086227417
606,871820855,0.42764813,0.3975395,-0.7397975,0.3343341,7.964944362640381,1.5623269081115723,3.007356643676758,-151.05343627929688,-55.54248809814453, -24.364910125732422
607,871837522,0.43067744,0.3982619,-0.74659246,0.31385374,5.446415901184082,0.5047166347503662,7.410920143127441,-125.29662322998047,-59.59980773925781, -51.0335807800293
608,871854189,0.4372064,0.3929927,-0.7570315,0.28515038,2.8343608379364014,-4.070757865905762,7.884687900543213,-202.78294372558594,-62.396915435791016, -42.10014724731445
609,871870856,0.4358398,0.39250624,-0.7663522,0.26208204,2.890233039855957,-8.94417953491211,4.432889938354492,-135.59825134277344,-94.62487030029297, -37.576690673828125
610,871887523,0.42554247,0.39932093,-0.7736635,0.24678202,-0.7223465442657471,-6.001978874206543,8.571675300598145,-45.129432678222656,-128.08343505859375, -42.17992401123047
611,871904190,0.41052362,0.41044125,-0.7802317,0.23291013,-3.706515073776245,-5.239161491394043,8.572585105895996,-10.771885871887207,-154.6946258544922, -55.00889205932617
612,871920857,0.39093894,0.42514527,-0.7868864,0.21732086,-0.3103668689727783,-4.893683433532715,7.341647148132324,2.8249480724334717,-190.2390594482422, -71.59654235839844
613,871937524,0.3627005,0.4412445,-0.7945558,0.20599242,4.068100452423096,-9.534735679626465,7.567434310913086,53.368473052978516,-229.65460205078125, -51.85440444946289
614,871954191,0.32566658,0.45896685,-0.8009642,0.2043209,6.115015983581543,-7.682597637176514,12.228238105773926,138.58740234375,-247.88926696777344, -28.099639892578125
615,871970858,0.28792015,0.47488204,-0.8057738,0.20571251,6.006180763244629,-3.8842291831970215,14.420719146728516,155.8359375,-236.471923828125, -15.36697006225586
616,871987525,0.2580365,0.48527855,-0.8113558,0.19905727,7.902285575866699,-0.38833409547805786,17.000577926635742,73.49365234375,-213.3429412841797, -9.287681579589844
617,872004192,0.23848836,0.4898679,-0.8191116,0.179469,8.36614990234375,-0.661548376083374,18.77306365966797,-46.443363189697266,-195.2660675048828, -6.671955585479736
618,872020859,0.22437394,0.49300358,-0.8256953,0.15757976,7.47826623916626,-0.9235351085662842,17.06635284423828,-78.65031433105469,-169.2318878173828, -12.896380424499512
619,872037526,0.21571644,0.49528846,-0.8304287,0.13617699,6.667747974395752,-0.6350489854812622,17.416763305664062,-93.69020080566406,-133.26695251464844, -19.525850296020508
620,872054193,0.21098791,0.49787548,-0.8328375,0.11826196,5.827563285827637,-1.1171362400054932,17.165325164794922,-84.50981140136719,-96.18687438964844, -27.721467971801758
621,872070860,0.2095972,0.5001671,-0.8334532,0.10610267,5.520899772644043,-1.6563093662261963,14.112752914428711,-61.92032241821289,-54.872432708740234, -26.589405059814453
622,872087527,0.21015038,0.50333893,-0.8316326,0.10427826,5.648857116699219,-1.1984522342681885,11.369887351989746,-6.309873104095459,-5.594674587249756, -26.572893142700195
623,872104194,0.21230517,0.5073392,-0.82742244,0.113603316,4.815219879150391,-0.4277874231338501,9.231000900268555,54.84404373168945,44.78050994873047, -24.59808921813965
624,872120861,0.21884765,0.5112377,-0.82080543,0.13046175,4.36869478225708,-1.0790681838989258,7.475111961364746,84.17411041259766,99.4504623413086, -24.77130889892578
625,872137528,0.22853743,0.51507586,-0.811007,0.15727471,3.6861133575439453,-1.0076520442962646,5.989948272705078,132.097900390625,156.9373779296875, -23.34244155883789
626,872154195,0.24508004,0.51609105,-0.79918844,0.18677129,3.0946292877197266,-2.662808418273926,4.468509674072266,120.56830596923828,210.82460021972656, -17.808698654174805
627,872170862,0.2639649,0.5155591,-0.7837397,0.22421743,3.5605361461639404,-3.7878756523132324,1.460240125656128,158.00445556640625,260.02288818359375, -11.661317825317383
628,872187529,0.28617972,0.51225597,-0.76518935,0.26491594,4.313040256500244,-1.4649443626403809,-0.2475188970565796,163.44976806640625,299.46661376953125, -6.809229373931885
629,872204196,0.31552118,0.50341594,-0.74571973,0.30153102,4.035941123962402,-0.21731656789779663,-1.7813109159469604,107.58296966552734,334.54571533203125, -1.802638053894043
630,872220863,0.35329717,0.48632792,-0.7277609,0.33019742,3.297207832336426,-0.1869482845067978,-4.240878105163574,16.51620101928711,364.2185974121094, 11.033817291259766
631,872237530,0.39303863,0.46358603,-0.7097153,0.3562483,2.574450969696045,0.040041811764240265,-6.719340801239014,-16.762462615966797,378.5527038574219, 28.179336547851562
632,872254197,0.4317031,0.4377814,-0.69089204,0.3803263,3.0854928493499756,0.7562306523323059,-7.76556921005249,-29.394922256469727,376.88330078125, 37.867427825927734
633,872270864,0.46671692,0.41144606,-0.67111427,0.4031043,4.389538288116455,0.6781370639801025,-11.206598281860352,-23.697900772094727,360.1337890625, 43.116790771484375
634,872287531,0.4959035,0.38850358,-0.64833,0.4275665,4.515714645385742,0.6430638432502747,-12.579221725463867,19.78868293762207,338.64208984375, 40.43424987792969
635,872304198,0.51909924,0.3709759,-0.62303317,0.45248502,4.253595352172852,1.4144461154937744,-13.705920219421387,63.71283721923828,306.24468994140625, 28.700937271118164
636,872320865,0.53678906,0.3599648,-0.59543526,0.47722098,4.311346530914307,2.9500174522399902,-15.863605499267578,107.45702362060547,270.6176452636719, 11.367931365966797
637,872337532,0.5530213,0.35167944,-0.5706352,0.49483794,4.073497295379639,3.8230395317077637,-17.076738357543945,82.01593780517578,228.6044921875, -12.667376518249512
638,872354199,0.56972253,0.3415129,-0.55418307,0.50166374,2.258718490600586,0.6550084352493286,-18.06439781188965,3.8765289783477783,179.2687530517578, -29.397933959960938
639,872370866,0.5838023,0.32908696,-0.54767376,0.50092936,0.32504725456237793,-4.700873851776123,-19.856481552124023,-62.56053161621094,121.18744659423828, -16.931941986083984
640,872387533,0.590767,0.32045388,-0.5475784,0.49845922,-1.217952847480774,-4.707479476928711,-21.421430587768555,-60.290409088134766,52.43153381347656, 1.4864857196807861
641,872404200,0.58882254,0.32159764,-0.5493732,0.49804825,-1.7418906688690186,-3.1119556427001953,-22.087560653686523,0.5001333355903625,-17.104000091552734, 7.55536413192749
642,872420867,0.5802618,0.32988563,-0.55444396,0.4970551,-2.028995990753174,-0.96819007396698,-19.05307960510254,31.024320602416992,-80.4962387084961, 7.662606716156006
643,872437534,0.5673781,0.34122607,-0.56423926,0.4932354,-1.4434467554092407,-1.6366850137710571,-16.173477172851562,26.49675941467285,-132.20989990234375, 9.733574867248535
644,872454201,0.55002856,0.3561935,-0.5755598,0.48920938,-0.7102562189102173,-1.4906845092773438,-12.58079719543457,45.96346664428711,-168.0806427001953, 12.258089065551758
645,872470868,0.53001434,0.37289545,-0.58694315,0.48531622,-0.7199674844741821,0.26194557547569275,-8.795836448669434,59.268802642822266,-184.03604125976562, 15.145946502685547
646,872487535,0.5109342,0.38778672,-0.5983555,0.48014438,-1.8444716930389404,3.021198272705078,-5.136364936828613,45.487823486328125,-177.68992614746094, 13.604880332946777
647,872504202,0.4963359,0.3978752,-0.61039937,0.4719732,-3.547898769378662,4.422047138214111,-2.600163459777832,2.334799289703369,-153.69557189941406, 9.257736206054688
648,872520869,0.49442273,0.38806257,-0.6377769,0.4451904,4.879456043243408,-17.84847068786621,-33.230892181396484,-228.3057861328125,-139.13548278808594, 30.260948181152344
649,872537536,0.44587618,0.43139786,-0.6311407,0.46556616,52.96889877319336,14.658172607421875,17.66929054260254,386.63690185546875,-262.836181640625, 14.656906127929688
650,872554203,0.42698583,0.43124017,-0.664549,0.43599293,-17.61699676513672,-3.7495758533477783,-9.694938659667969,-178.203369140625,-268.91156005859375, 65.73541259765625
651,872570870,0.40497085,0.44266096,-0.67374045,0.43142077,-5.106398582458496,3.4733996391296387,-3.252790927886963,51.208518981933594,-171.13185119628906, 28.082151412963867
652,872587537,0.396933,0.44259626,-0.6896859,0.41338375,5.397705078125,-0.6836421489715576,-4.569486618041992,-105.69464874267578,-132.2254638671875, 22.351791381835938
653,872604204,0.38902757,0.4446232,-0.70147,0.39863214,7.254648208618164,-3.4000132083892822,-0.6825898885726929,-73.03640747070312,-115.97801971435547, 9.588590621948242
654,872620871,0.37981272,0.44800478,-0.7113724,0.3859837,8.333231925964355,-0.6292936205863953,-1.058558702468872,-50.14337921142578,-114.86869049072266, 5.824734687805176
655,872637538,0.37313923,0.45073646,-0.71898717,0.37504828,10.842734336853027,-0.3364714980125427,0.15107671916484833,-45.26026916503906,-89.65616607666016, -0.22490030527114868
656,872654205,0.36631158,0.45412996,-0.72365284,0.3686578,11.176111221313477,-1.3286354541778564,1.7309850454330444,-12.983888626098633,-70.5838851928711, 0.49017828702926636
657,872670872,0.36167523,0.4554443,-0.729896,0.35918465,11.284581184387207,3.2001562118530273,2.873990774154663,-44.45848846435547,-68.39115142822266, 2.19419527053833
658,872687539,0.36101833,0.45372385,-0.7398537,0.34119943,7.7974348068237305,3.756859540939331,1.2206779718399048,-116.45343017578125,-77.29039001464844, -2.407195806503296
659,872704206,0.36395204,0.4514892,-0.74867284,0.32122508,5.892121315002441,3.7061007022857666,4.623841762542725,-136.3968048095703,-61.452491760253906, -16.539339065551758
660,872720873,0.37210345,0.44674966,-0.7566431,0.29907385,3.3005106449127197,0.7389469742774963,8.602377891540527,-168.22137451171875,-34.012290954589844, -23.093711853027344
661,872737540,0.38035724,0.43867686,-0.7669163,0.273369,0.3251437842845917,-4.339722156524658,-2.797410249710083,-200.33543395996094,-43.81181716918945, -7.869480133056641
662,872754207,0.37470144,0.44523576,-0.7700393,0.26154086,3.6684021949768066,-6.720781326293945,4.568963050842285,-33.51670455932617,-84.06975555419922, -44.16527557373047
663,872770874,0.3614012,0.45547074,-0.772973,0.25386754,0.5464232563972473,-5.624738693237305,5.97287130355835,21.624900817871094,-118.19575500488281, -39.82133483886719
664,872787541,0.34265837,0.46770757,-0.77662605,0.24634752,-0.45273536443710327,-4.786164283752441,4.699718475341797,43.14699935913086,-152.14320373535156, -38.390682220458984
665,872804208,0.32207054,0.47927713,-0.78173274,0.2354948,1.8434114456176758,-1.974015235900879,11.053133964538574,27.201005935668945,-175.1565704345703, -34.93220901489258
666,872820875,0.30254906,0.48806077,-0.7893032,0.21739636,3.2160348892211914,-4.154512882232666,13.415167808532715,-25.45125961303711,-194.60841369628906, -29.609891891479492
667,872837542,0.28056082,0.4958891,-0.79691344,0.20076992,4.7470879554748535,-5.4360032081604,14.551145553588867,-11.27067756652832,-202.13101196289062, -17.552030563354492
668,872854209,0.25810152,0.50224376,-0.8039753,0.18643606,4.511838912963867,-3.4068663120269775,16.293411254882812,0.7664275765419006,-194.2512664794922, -6.289741039276123
669,872870876,0.24052249,0.50553185,-0.8112252,0.16882011,5.584417343139648,-2.0168514251708984,17.0679874420166,-39.94282531738281,-175.4576416015625, -0.7689681649208069
670,872887543,0.22817713,0.50656855,-0.8182172,0.1477983,6.75571346282959,-2.4974262714385986,16.762025833129883,-80.57087707519531,-155.5255584716797, -0.8236014246940613
671,872904210,0.21897261,0.5067265,-0.8242189,0.12626351,7.297534942626953,-3.36470365524292,16.3343563079834,-94.7830581665039,-137.64877319335938, -3.365250825881958
672,872920877,0.20975651,0.5074954,-0.8284875,0.10981497,6.990382194519043,-3.4037227630615234,14.957386016845703,-63.50835037231445,-118.33930969238281, -5.2574310302734375
673,872937544,0.20239145,0.50871897,-0.83097315,0.098622985,7.305995464324951,-2.6601829528808594,13.52591323852539,-38.03474807739258,-87.59083557128906, -7.937222957611084
674,872954211,0.19746208,0.510492,-0.8315198,0.09477154,8.046623229980469,-2.1138322353363037,11.32720947265625,-2.5366504192352295,-46.00853729248047, -9.325655937194824
675,872970878,0.19588467,0.51206565,-0.83054245,0.098067954,7.549191951751709,-0.7019148468971252,10.30536937713623,27.291776657104492,0.13120780885219574, -6.015222072601318
676,872987545,0.19926557,0.5137363,-0.82764465,0.10664323,6.426715850830078,0.11263485252857208,8.246373176574707,41.429054260253906,49.28269958496094, -9.534226417541504
677,873004212,0.2072256,0.51478237,-0.8229252,0.12186514,5.3861165046691895,-0.3487081229686737,5.763181209564209,63.590606689453125,101.57791900634766, -6.607848644256592
678,873020879,0.2215833,0.51372963,-0.81671625,0.14127079,4.263039588928223,-0.06178262084722519,5.778054714202881,62.89643478393555,156.3539581298828, 0.6665796041488647
679,873037546,0.24227074,0.5094939,-0.8093429,0.16335593,3.2641971111297607,-1.409710168838501,3.3663110733032227,51.87317657470703,206.15914916992188, 12.430683135986328
680,873054213,0.2660151,0.5032046,-0.7994717,0.1920058,3.413081407546997,-1.106237769126892,1.3807299137115479,77.06382751464844,252.65142822265625, 22.673416137695312
681,873070880,0.29401237,0.49406338,-0.787248,0.22293179,3.2880232334136963,0.3048398494720459,0.6519562602043152,72.71601104736328,292.0264892578125, 28.83294105529785
682,873087547,0.32672986,0.48078793,-0.77377367,0.25172442,2.9126710891723633,0.886435329914093,-1.0615885257720947,38.645042419433594,319.2607116699219, 35.471214294433594
683,873104214,0.3597955,0.464435,-0.7581933,0.2828255,2.6023619174957275,1.069945216178894,-4.085357666015625,46.46207046508789,338.9231262207031, 49.50653076171875
684,873120881,0.3908757,0.4479889,-0.73909795,0.31663305,2.460916757583618,3.41396427154541,-4.9076056480407715,73.4766845703125,346.2984313964844, 49.36280822753906
685,873137548,0.41980767,0.432679,-0.71605283,0.35187894,3.08050537109375,4.868072032928467,-6.1395134925842285,99.03307342529297,348.1858215332031, 40.03840637207031
686,873154215,0.44887277,0.41718256,-0.6915006,0.38249034,3.5223684310913086,5.323854446411133,-6.823108196258545,78.89723205566406,340.09649658203125, 22.849525451660156
687,873170882,0.47803456,0.40074503,-0.6668708,0.40763956,4.022276878356934,2.4102673530578613,-9.701377868652344,49.9284782409668,327.85858154296875, 10.040840148925781
688,873187549,0.5048419,0.38436198,-0.6420947,0.4302502,4.007968902587891,0.3332763612270355,-12.93956470489502,45.369747161865234,310.75567626953125, 7.635093688964844
689,873204216,0.52636456,0.37181962,-0.616025,0.45299432,4.409356594085693,-0.20205917954444885,-15.958087921142578,77.12542724609375,281.3816833496094, 3.3143749237060547
690,873220883,0.54392964,0.36219427,-0.5919128,0.47179982,4.447466850280762,1.0528483390808105,-18.1679744720459,75.08407592773438,238.95384216308594, -6.02527379989624
691,873237550,0.5604578,0.34975275,-0.57811844,0.4788936,2.2323999404907227,-0.899553656578064,-22.079818725585938,-14.629884719848633,176.90484619140625, -7.971085071563721
692,873254217,0.5718412,0.33923516,-0.5722839,0.48000884,-0.47844529151916504,-3.147475481033325,-24.060123443603516,-44.83671188354492,105.8436508178711, -2.5501954555511475
693,873270884,0.576718,0.33319983,-0.57370913,0.47668883,-0.962517261505127,-2.6608147621154785,-25.30232810974121,-54.039798736572266,27.480548858642578, 1.8697192668914795
694,873287551,0.5748028,0.33394632,-0.580221,0.4705586,-0.9876948595046997,-1.646368145942688,-24.567808151245117,-39.296016693115234,-47.3252067565918, -2.0102269649505615
695,873304218,0.56756186,0.3391619,-0.59261006,0.46006137,-0.18717089295387268,-0.6602354645729065,-22.06789779663086,-45.578575134277344,-115.553466796875, -6.523077487945557
696,873320885,0.5565134,0.3461299,-0.61007714,0.44530073,1.287848711013794,-0.49910375475883484,-18.463703155517578,-63.332664489746094,-165.73097229003906, -5.8903584480285645
697,873337552,0.54184055,0.35497433,-0.62983805,0.4286095,1.3074595928192139,-0.056870341300964355,-14.450541496276855,-62.79262924194336,-199.57275390625, -3.6133954524993896
698,873354219,0.5264244,0.35816506,-0.6544789,0.40774098,0.6815651059150696,-9.717132568359375,-30.717016220092773,-112.575927734375,-214.30441284179688, 15.030517578125
