PacketCounter,SampleTimeFine,Quat_W,Quat_X,Quat_Y,Quat_Z,Acc_X,Acc_Y,Acc_Z,Gyr_X,Gyr_Y,Gyr_Z 
1,1400719704,0.6900401,0.30505672,-0.5117716,0.4109441,-0.10826277732849121,-0.01757892593741417,0.05316759645938873,-0.18629197776317596,0.4994775056838989, -0.17204342782497406
2,1400736371,0.69061834,0.30261505,-0.5108854,0.41287625,15.866450309753418,0.057509880512952805,4.638509273529053,0.13613788783550262,4.157472610473633, 1.416926622390747
3,1400753038,0.69020647,0.30294064,-0.5110304,0.4131465,16.835283279418945,0.009429971687495708,5.15421199798584,2.347743272781372,3.433926582336426, 1.543158769607544
4,1400769705,0.6901111,0.30317017,-0.51078135,0.41344523,15.579283714294434,-0.08148607611656189,4.859683990478516,-0.41714122891426086,4.036683082580566, 2.1239778995513916
5,1400786372,0.69026417,0.3030046,-0.5103047,0.4138997,16.234079360961914,0.006867974530905485,4.9042253494262695,1.557220220565796,4.172418117523193, 2.0253052711486816
6,1400803039,0.69030136,0.30303454,-0.5100431,0.414138,15.93766975402832,0.0010628518648445606,4.931670188903809,0.8911618590354919,3.5154645442962646, 1.8729478120803833
7,1400819706,0.69027436,0.3032041,-0.5096466,0.41454682,16.240528106689453,0.037470825016498566,5.032354831695557,1.6809937953948975,3.1398165225982666, 1.9166051149368286
8,1400836373,0.6905496,0.30302072,-0.5093427,0.41459587,15.887657165527344,0.047509294003248215,4.876704216003418,0.1828170269727707,3.6652989387512207, 1.8145891427993774
9,1400853040,0.6908422,0.302729,-0.50910115,0.41461855,16.032695770263672,0.08223895728588104,5.011447429656982,-0.9250540733337402,3.9335286617279053, 2.1491811275482178
10,1400869707,0.6909434,0.30273154,-0.50872004,0.4149155,15.751544952392578,-0.06321306526660919,4.751623153686523,1.450722575187683,3.310985803604126, 2.6131293773651123
11,1400886374,0.69107884,0.30252302,-0.50854033,0.4150622,16.14357566833496,0.2526279091835022,4.985215663909912,-0.5130607485771179,3.4639956951141357, 2.2528605461120605
12,1400903041,0.6911538,0.30249354,-0.5082707,0.41528922,15.814868927001953,-0.14599870145320892,4.913468837738037,0.7884037494659424,3.3021750450134277, 2.8548619747161865
13,1400919708,0.6913206,0.302169,-0.50810385,0.41545182,15.708406448364258,0.14013603329658508,4.85602331161499,-0.08561047166585922,3.719444751739502, 2.9213404655456543
14,1400936375,0.69146,0.30198735,-0.5078002,0.41572317,16.26387596130371,-0.03192976117134094,4.8563103675842285,0.11108868569135666,4.105530261993408, 2.58708119392395
15,1400953042,0.6915825,0.30167487,-0.50772643,0.4158366,15.619928359985352,0.00795036368072033,5.083703517913818,-1.0433974266052246,3.4569523334503174, 2.7045154571533203
16,1400969709,0.69175005,0.30142257,-0.5074142,0.4161218,15.911825180053711,-0.2786793112754822,4.663972854614258,0.6472521424293518,4.297920227050781, 2.6230416297912598
17,1400986376,0.69177496,0.30125347,-0.5072097,0.41645205,15.926114082336426,0.23963846266269684,5.1064066886901855,1.097369909286499,3.706088066101074, 2.4474666118621826
18,1401003043,0.6919216,0.3010501,-0.50693595,0.41668853,15.603302955627441,-0.20610612630844116,4.869664192199707,0.4574236571788788,4.021815299987793, 2.0749168395996094
19,1401019710,0.69198745,0.3009488,-0.50667,0.41697568,15.998053550720215,-0.10697677731513977,4.942315578460693,1.3137072324752808,3.4797861576080322, 1.8176499605178833
20,1401036377,0.6921414,0.30069673,-0.50657403,0.41701865,15.581592559814453,0.1406455934047699,5.034909248352051,-0.11475769430398941,2.9521901607513428, 1.3918005228042603
21,1401053044,0.69228625,0.3006046,-0.50624144,0.41724837,15.910892486572266,-0.2535718083381653,4.719889163970947,1.178997278213501,3.746708869934082, 1.2150856256484985
22,1401069711,0.69232357,0.3005267,-0.50603247,0.4174962,15.806446075439453,0.10709505528211594,5.03065299987793,1.1896778345108032,3.071763515472412, 1.503472089767456
23,1401086378,0.69236684,0.30048957,-0.50573665,0.4178095,15.85791015625,-0.13493502140045166,4.9118218421936035,2.066554546356201,3.405125379562378, 1.6986407041549683
24,1401103045,0.6925363,0.30013892,-0.50561064,0.41793314,15.56721019744873,0.10436321794986725,4.762670040130615,-0.8619954586029053,3.5793941020965576, 1.7377257347106934
25,1401119712,0.69253534,0.30011675,-0.50530356,0.41832164,16.182926177978516,-0.04918745160102844,4.995913982391357,2.5000367164611816,3.52773380279541, 2.0934994220733643
26,1401136379,0.6926339,0.2997992,-0.50518316,0.41853154,16.00916290283203,-0.001240042271092534,5.021382808685303,-0.47800979018211365,3.5038747787475586, 2.268305540084839
27,1401153046,0.6928153,0.29938227,-0.50502956,0.41871524,15.400821685791016,0.19329671561717987,4.659305095672607,-0.7319343090057373,4.1526713371276855, 2.320594310760498
28,1401169713,0.69284385,0.2992552,-0.50474226,0.41910514,16.596294403076172,-0.12920744717121124,4.9675750732421875,1.5280985832214355,3.941545009613037, 2.4349546432495117
29,1401186380,0.6929427,0.29882634,-0.5047015,0.41929665,15.378216743469238,-0.07171262055635452,4.9862871170043945,-0.9120938777923584,3.592200994491577, 2.9333395957946777
30,1401203047,0.69298816,0.29860467,-0.5043312,0.41982502,16.087873458862305,-0.04861743748188019,4.855621814727783,2.035780906677246,4.449496269226074, 2.9108643531799316
31,1401219714,0.69309783,0.2981409,-0.50411415,0.42023355,15.902518272399902,-0.17607763409614563,4.994622707366943,0.09263473004102707,3.9067623615264893, 3.102626323699951
32,1401236381,0.693242,0.29774773,-0.50384575,0.42059666,15.758197784423828,-0.10100394487380981,4.902353286743164,0.4944595396518707,3.7659823894500732, 2.377927780151367
33,1401253048,0.6933115,0.29749534,-0.5035465,0.42101857,16.034143447875977,-0.2047596573829651,4.986310005187988,1.2382906675338745,3.3131370544433594, 2.178046226501465
34,1401269715,0.69350415,0.29704705,-0.5033361,0.42126945,15.524530410766602,-0.12129680812358856,4.865871906280518,-0.45814722776412964,3.5094974040985107, 1.9690086841583252
35,1401286382,0.6935865,0.2968464,-0.5029532,0.42173257,15.974555969238281,-0.1725389063358307,4.853259086608887,1.9953511953353882,3.660151481628418, 2.0290446281433105
36,1401303049,0.69376945,0.29651272,-0.50260013,0.4220871,15.71330738067627,0.022918593138456345,4.881080627441406,0.929043173789978,4.027015209197998, 1.8185850381851196
37,1401319716,0.6939538,0.2960999,-0.5023258,0.42240015,15.879150390625,-0.19664497673511505,4.928281307220459,0.022648030892014503,3.8010976314544678, 2.0032527446746826
38,1401336383,0.694124,0.29570794,-0.50207645,0.4226917,15.504509925842285,0.1650320440530777,4.819411277770996,0.1884518563747406,3.5252492427825928, 1.9811490774154663
39,1401353050,0.694346,0.2951764,-0.50179636,0.42303076,15.212431907653809,-0.2163824886083603,4.5956621170043945,-0.4831323027610779,4.355330944061279, 2.4312918186187744
40,1401369717,0.6943949,0.29509374,-0.5012464,0.42365947,16.907459259033203,0.10203931480646133,5.3618364334106445,3.7022452354431152,4.332855701446533, 2.18558931350708
41,1401386384,0.6945781,0.29430637,-0.5013006,0.42384282,15.092938423156738,-0.44212648272514343,4.928398609161377,-3.124685764312744,3.0572280883789062, 3.3635942935943604
42,1401403051,0.6946623,0.29390985,-0.5008976,0.42445603,15.359143257141113,0.18246880173683167,4.6715803146362305,1.6214954853057861,4.62800407409668, 3.3795645236968994
43,1401419718,0.69499195,0.293157,-0.5006139,0.42477143,15.822368621826172,-0.16758108139038086,4.68358039855957,-1.8661671876907349,5.34526252746582, 2.745508909225464
44,1401436385,0.6950128,0.29291058,-0.50025266,0.42533275,15.72741985321045,-0.23668435215950012,5.38164758682251,2.232640027999878,3.674865961074829, 2.9169986248016357
45,1401453052,0.69518125,0.2923693,-0.49997652,0.42575434,15.565003395080566,-0.27326324582099915,4.916311264038086,-0.26903584599494934,4.349376201629639, 2.9788153171539307
46,1401469719,0.695451,0.29167733,-0.4997854,0.42601275,15.592196464538574,-0.11938419193029404,4.736767768859863,-1.8952503204345703,4.404507160186768, 2.627779722213745
47,1401486386,0.6955107,0.29135695,-0.4995079,0.42646003,15.57656478881836,-0.13419769704341888,5.1802825927734375,1.112250804901123,3.3931899070739746, 2.6663269996643066
48,1401503053,0.6957942,0.29073623,-0.49931806,0.42664316,15.11134147644043,-0.23879516124725342,4.605382919311523,-1.8185145854949951,4.087652683258057, 1.9975663423538208
49,1401519720,0.69585633,0.29059818,-0.49892035,0.42710125,15.928152084350586,-0.16052287817001343,5.057826995849609,2.418281078338623,3.462190866470337, 1.8655459880828857
50,1401536387,0.69594264,0.29029134,-0.49868688,0.4274417,15.182941436767578,-0.19131970405578613,4.899750709533691,0.6948277354240417,3.0204226970672607, 2.1471447944641113
51,1401553054,0.69601583,0.2900535,-0.49835038,0.42787638,15.74434757232666,-0.28011372685432434,4.915862560272217,1.7268399000167847,3.4523544311523438, 2.2125465869903564
52,1401569721,0.69620657,0.2895938,-0.49813783,0.42812485,15.743199348449707,-0.13343480229377747,4.922158241271973,-0.4927627146244049,3.5444579124450684, 2.0109617710113525
53,1401586388,0.69635546,0.28921157,-0.49792123,0.4283929,15.247288703918457,-0.26884669065475464,4.895843029022217,0.07749763131141663,3.2327775955200195, 1.9706735610961914
54,1401603055,0.6964302,0.28910503,-0.49747053,0.4288663,16.032894134521484,-0.1764637529850006,4.897069931030273,2.907022476196289,3.6970717906951904, 1.751723051071167
55,1401619722,0.6966245,0.28859344,-0.49726477,0.42913392,15.412240982055664,-0.15709815919399261,4.987756729125977,-0.7492098808288574,3.724656343460083, 2.269713878631592
56,1401636389,0.696764,0.28829318,-0.49686944,0.42956707,15.714658737182617,-0.16837340593338013,4.8874192237854,1.3849362134933472,4.1518378257751465, 2.0869035720825195
57,1401653056,0.696955,0.28785506,-0.49659872,0.42986396,15.559746742248535,-0.15898805856704712,4.932027339935303,-0.10635673254728317,3.8691506385803223, 2.040057897567749
58,1401669723,0.697128,0.2875582,-0.49615812,0.43029076,15.644438743591309,-0.21461880207061768,4.868034839630127,1.3879714012145996,4.467438220977783, 1.8388190269470215
59,1401686390,0.697289,0.2871835,-0.495857,0.43062714,15.845666885375977,-0.07392647862434387,5.1065497398376465,0.4479469060897827,3.8089096546173096, 2.0312728881835938
60,1401703057,0.6974431,0.28667277,-0.4956096,0.43100238,15.370064735412598,-0.4613613486289978,4.8159918785095215,-0.16425426304340363,4.004091262817383, 2.830376386642456
61,1401719724,0.6976199,0.28623655,-0.49528536,0.43137863,15.91851806640625,-0.0036795560736209154,5.037062644958496,0.5500263571739197,4.223233699798584, 2.4207396507263184
62,1401736391,0.6977643,0.28581244,-0.49503484,0.4317138,15.623997688293457,-0.41187581419944763,4.911280632019043,0.1730586290359497,3.6451289653778076, 2.3762118816375732
63,1401753058,0.69785935,0.28555954,-0.49468094,0.43213296,15.94794750213623,-0.17763610184192657,5.050295829772949,1.653780221939087,3.6305174827575684, 2.1248362064361572
64,1401769725,0.6980972,0.2849714,-0.4944813,0.43236554,15.229019165039062,-0.24344944953918457,4.762795925140381,-1.3989657163619995,4.007613182067871, 2.223662853240967
65,1401786392,0.69825965,0.28472236,-0.4939932,0.4328254,16.25042724609375,-0.185271754860878,5.014101028442383,2.0676941871643066,4.570810794830322, 1.843864917755127
66,1401803059,0.6984743,0.284208,-0.49373278,0.43311346,15.387947082519531,-0.38392987847328186,5.041837692260742,-0.6844226717948914,4.115865230560303, 2.168954372406006
67,1401819726,0.698573,0.28394818,-0.49328327,0.43363696,15.649680137634277,-0.33022090792655945,4.9371819496154785,2.267486095428467,4.324352264404297, 2.463487148284912
68,1401836393,0.6987629,0.28352073,-0.49294734,0.43399242,15.814815521240234,-0.19532063603401184,5.000068187713623,0.34457412362098694,4.263049125671387, 2.163306713104248
69,1401853060,0.6989221,0.28315187,-0.49262464,0.4343434,15.545910835266113,-0.2473757266998291,4.89171838760376,0.5189581513404846,3.9176228046417236, 2.019862413406372
70,1401869727,0.6991012,0.28272787,-0.49238113,0.4346071,15.613290786743164,-0.3582417368888855,5.093718528747559,-0.18821491301059723,3.596426248550415, 1.9331375360488892
71,1401886394,0.6992089,0.28246304,-0.49204904,0.43498224,15.653498649597168,-0.4365297257900238,4.927509307861328,1.22443425655365,3.52652907371521, 1.9183591604232788
72,1401903061,0.69936633,0.2822127,-0.49166712,0.43532318,15.805864334106445,-0.1877633035182953,4.936942100524902,1.1777936220169067,3.8295786380767822, 1.4377367496490479
73,1401919728,0.69955206,0.28180122,-0.49136257,0.43563515,15.634803771972656,-0.33507370948791504,5.031566143035889,0.21188747882843018,3.9754562377929688, 1.9883588552474976
74,1401936395,0.6997796,0.28148592,-0.4908648,0.4360343,15.511884689331055,-0.20111948251724243,4.9054999351501465,1.618972659111023,4.921064853668213, 1.644700527191162
75,1401953062,0.700022,0.28109753,-0.4904524,0.4363598,15.745908737182617,-0.28851518034935,4.9289422035217285,0.5288318395614624,4.648404598236084, 1.5787347555160522
76,1401969729,0.7001251,0.28088185,-0.49006224,0.43677172,15.822235107421875,-0.1926751285791397,5.137358665466309,1.94786536693573,3.720456600189209, 1.9123786687850952
77,1401986396,0.7004319,0.2802312,-0.48985574,0.4369295,15.184077262878418,-0.33805471658706665,4.850819110870361,-1.8445500135421753,4.334008693695068, 1.9423713684082031
78,1402003063,0.70059246,0.27996084,-0.48941344,0.4373406,15.83215045928955,-0.0723235234618187,4.990432262420654,1.633123517036438,4.33430290222168, 1.7869278192520142
79,1402019730,0.7007756,0.27954057,-0.4891039,0.43766242,15.681861877441406,-0.318870484828949,5.080477714538574,0.2741263508796692,4.048708915710449, 2.097264289855957
80,1402036397,0.7010644,0.27900988,-0.48876292,0.43791935,15.455324172973633,-0.21308821439743042,4.8905930519104,-0.41656503081321716,4.757040500640869, 1.8467206954956055
81,1402053064,0.7012014,0.27869332,-0.48836586,0.4383442,16.075443267822266,-0.35420849919319153,5.134869575500488,1.5277526378631592,4.203485488891602, 2.2430639266967773
82,1402069731,0.70139873,0.27828667,-0.488052,0.4386364,15.442401885986328,-0.1822592318058014,4.953571796417236,0.22480906546115875,4.028589725494385, 1.8606538772583008
83,1402086398,0.70167935,0.27780718,-0.48768756,0.43889663,15.673751831054688,-0.24361394345760345,4.9105448722839355,-0.26351624727249146,4.714305400848389, 1.5968172550201416
84,1402103065,0.701833,0.27757287,-0.4872764,0.4392555,15.812055587768555,-0.3070579469203949,5.047276973724365,1.7008306980133057,3.9648654460906982, 1.57453453540802
85,1402119732,0.7020598,0.27717745,-0.4869339,0.43952292,15.349261283874512,-0.24086414277553558,4.959575176239014,0.25645357370376587,4.194918632507324, 1.578376293182373
86,1402136399,0.7022389,0.2769226,-0.48646683,0.43991438,15.795072555541992,-0.25237253308296204,4.95726203918457,1.837666630744934,4.449663162231445, 1.624376893043518
87,1402153066,0.7024846,0.27650252,-0.48607683,0.44021723,15.681044578552246,-0.343429833650589,4.998189926147461,0.395504891872406,4.636929035186768, 1.7024697065353394
88,1402169733,0.70266306,0.27621305,-0.4857451,0.44048,15.424834251403809,-0.14060203731060028,5.094778060913086,0.900472104549408,3.660010814666748, 1.411663293838501
89,1402186400,0.7029079,0.27585062,-0.4852945,0.44081345,15.974234580993652,-0.3899751603603363,4.83053731918335,1.0534441471099854,4.810776233673096, 1.5899275541305542
90,1402203067,0.7030487,0.27558854,-0.4849797,0.4410991,15.905189514160156,-0.1593814492225647,5.188558578491211,1.08604896068573,3.42433500289917, 1.562073826789856
91,1402219734,0.7032474,0.27515253,-0.48474205,0.4413154,15.269943237304688,-0.4539022445678711,4.829588890075684,-0.2705341577529907,3.633629560470581, 1.8058428764343262
92,1402236401,0.7034959,0.27481866,-0.4842753,0.44164,15.861724853515625,-0.1050058901309967,4.824002265930176,1.140476107597351,4.802772045135498, 1.3812353610992432
93,1402253068,0.70372903,0.27439255,-0.48403937,0.441792,15.690801620483398,-0.27448612451553345,5.114115238189697,-0.6509339213371277,3.5962343215942383, 1.2971359491348267
94,1402269735,0.70399415,0.27397057,-0.4837156,0.44198614,15.472047805786133,-0.35927996039390564,4.867783546447754,-0.14273957908153534,4.182880401611328, 1.2865322828292847
95,1402286402,0.7042173,0.27348837,-0.4834796,0.4421873,15.689547538757324,-0.2442210614681244,4.969143390655518,-0.6273061633110046,3.816298723220825, 1.800002932548523
96,1402303069,0.7044121,0.27313635,-0.48312005,0.44248778,15.688063621520996,-0.2006133645772934,4.956737995147705,0.6729288101196289,4.116876125335693, 1.663999319076538
97,1402319736,0.70459384,0.27275023,-0.4828555,0.44272503,15.865701675415039,-0.28916236758232117,5.03557825088501,0.19902990758419037,3.5899598598480225, 1.765925407409668
98,1402336403,0.704743,0.27235156,-0.48263347,0.44297513,15.498538970947266,-0.30739760398864746,4.917150497436523,0.17363490164279938,3.3363938331604004, 2.076786756515503
99,1402353070,0.7049936,0.27189225,-0.48235533,0.44316152,15.641210556030273,-0.12553727626800537,4.830346584320068,-0.24828952550888062,4.004949569702148, 1.6036815643310547
100,1402369737,0.70518357,0.27148414,-0.48211205,0.4433742,15.813592910766602,-0.37715256214141846,4.924552917480469,-0.056181468069553375,3.541398286819458, 1.7469209432601929
101,1402386404,0.7053614,0.27101,-0.4818963,0.44361567,15.232932090759277,-0.2802480459213257,5.018036842346191,-0.2727240025997162,3.6224234104156494, 2.2256221771240234
102,1402403071,0.70562065,0.270571,-0.4815309,0.44386798,15.783217430114746,-0.40079256892204285,4.7205352783203125,0.21521712839603424,4.532071113586426, 1.62608003616333
103,1402419738,0.7057171,0.2703745,-0.48126733,0.4441202,15.34763240814209,-0.1911112368106842,4.949102878570557,1.4160044193267822,2.7646026611328125, 1.524397373199463
104,1402436405,0.7058855,0.2701717,-0.48098552,0.44428158,15.489546775817871,-0.25876423716545105,4.859838962554932,1.0980355739593506,2.9376931190490723, 0.8973344564437866
105,1402453072,0.7060666,0.2698723,-0.48070437,0.4444798,15.583742141723633,-0.39537903666496277,4.866136074066162,0.6130207777023315,3.3512234687805176, 1.30863618850708
106,1402469739,0.70629567,0.26951978,-0.4804673,0.44458616,15.28060531616211,-0.01430062297731638,4.938273906707764,-0.036920711398124695,3.283926248550415, 1.037769079208374
107,1402486406,0.70650715,0.26921096,-0.48010334,0.44483036,15.590412139892578,-0.4502752721309662,4.708265781402588,1.0338630676269531,3.966581106185913, 1.380838394165039
108,1402503073,0.70669717,0.26888058,-0.47985512,0.444996,15.344746589660645,-0.0003131245030090213,4.970675945281982,0.2280106395483017,3.2713241577148438, 1.2888630628585815
109,1402519740,0.70692897,0.26854873,-0.47951883,0.445191,15.662374496459961,-0.2945767045021057,4.74872350692749,0.5609500408172607,3.8949291706085205, 1.1777167320251465
110,1402536407,0.7071062,0.2682165,-0.47927862,0.44536832,15.418293952941895,-0.019712265580892563,4.987703800201416,0.44859999418258667,3.2149126529693604, 1.5080311298370361
111,1402553074,0.70732135,0.2678163,-0.47897726,0.4455915,15.510461807250977,-0.4434763789176941,4.666147232055664,0.34272995591163635,3.9360382556915283, 1.7114471197128296
112,1402569741,0.7074945,0.26749396,-0.47869962,0.44580877,15.17122745513916,0.1355242282152176,4.888648986816406,0.7472441792488098,3.4388701915740967, 1.61776864528656
113,1402586408,0.7076936,0.26716372,-0.47832248,0.4460956,15.9921293258667,-0.5168918371200562,4.7686567306518555,1.253248691558838,4.1590352058410645, 1.7589716911315918
114,1402603075,0.7078236,0.26675516,-0.4781397,0.4463295,15.36097240447998,-0.10519187152385712,5.056038856506348,-0.03008212149143219,3.160281181335449, 2.1973586082458496
115,1402619742,0.7080394,0.26634267,-0.47786844,0.44652402,15.416788101196289,-0.08632881939411163,4.7202959060668945,0.0755382552742958,3.803927421569824, 1.668750524520874
116,1402636409,0.7082839,0.26595026,-0.47754273,0.4467186,15.917130470275879,-0.3180835247039795,4.7373046875,0.2650722563266754,4.112176895141602, 1.4104208946228027
117,1402653076,0.7084592,0.2656182,-0.47732273,0.44687343,15.30148696899414,-0.0960228368639946,4.935258388519287,0.21698437631130219,3.1253066062927246, 1.4199743270874023
118,1402669743,0.7086653,0.2653903,-0.47688833,0.44714576,15.705113410949707,-0.283749520778656,4.651388645172119,1.54415762424469,4.182675361633301, 1.0848195552825928
119,1402686410,0.7088964,0.2651405,-0.47659734,0.44723773,15.798806190490723,0.04908660426735878,4.9578752517700195,0.5202771425247192,3.3039934635162354, 0.5473113656044006
120,1402703077,0.7091212,0.26486278,-0.47624344,0.44742286,15.341754913330078,-0.30022114515304565,4.710385799407959,0.8238518834114075,3.855576515197754, 0.9693448543548584
121,1402719744,0.70939714,0.2645413,-0.47587788,0.44756448,15.981490135192871,-0.013240638189017773,4.860562801361084,0.5341591835021973,4.1256232261657715, 0.7845104932785034
122,1402736411,0.7096207,0.26419425,-0.47557646,0.44773567,15.532553672790527,-0.020016653463244438,4.847347736358643,0.3126862645149231,3.7825801372528076, 1.2469608783721924
123,1402753078,0.7098184,0.26384386,-0.4752233,0.4480038,15.905628204345703,-0.18322807550430298,4.726310729980469,0.7015255093574524,4.143590927124023, 1.6578013896942139
124,1402769745,0.7099933,0.26353776,-0.4749409,0.4482061,15.93134880065918,0.2082943171262741,4.9003424644470215,0.6998093724250793,3.4552111625671387, 1.481240153312683
125,1402786412,0.7101672,0.2631502,-0.47465822,0.4484575,15.378207206726074,-0.17433705925941467,4.675679683685303,0.41143599152565,3.7969605922698975, 1.9689570665359497
126,1402803079,0.7103628,0.2628526,-0.47430983,0.4486909,16.011083602905273,0.154808908700943,4.85867166519165,0.8192670345306396,3.8901526927948, 1.327423095703125
127,1402819746,0.7105485,0.26252273,-0.47401246,0.448904,16.029315948486328,-0.2660858631134033,4.849845886230469,0.6791529059410095,3.6542348861694336, 1.5832430124282837
128,1402836413,0.7107229,0.26213133,-0.47382024,0.44905967,15.595338821411133,0.08614438772201538,4.845975399017334,-0.23157721757888794,3.2039883136749268, 1.6614124774932861
129,1402853080,0.7109536,0.2617527,-0.47349077,0.44926286,15.98429012298584,0.0014238482108339667,4.656370639801025,0.218418687582016,4.112894058227539, 1.3879969120025635
130,1402869747,0.7110779,0.26151443,-0.47320303,0.44950813,15.868607521057129,-0.029360923916101456,4.832888126373291,1.2382651567459106,3.199903726577759, 1.61747407913208
131,1402886414,0.7112564,0.26115566,-0.47294995,0.4497005,15.151344299316406,0.10083010047674179,4.653421401977539,0.2092749923467636,3.493950605392456, 1.614234209060669
132,1402903081,0.71141607,0.2609864,-0.47251764,0.45000064,16.04353141784668,0.11141569167375565,4.642255783081055,2.1466197967529297,3.912205934524536, 1.3072402477264404
133,1402919748,0.71153307,0.2607497,-0.4722568,0.45022655,16.24281883239746,-0.0404510498046875,4.911667823791504,1.095474362373352,3.0226893424987793, 1.5950500965118408
134,1402936415,0.7117131,0.26021248,-0.4721741,0.4503397,14.766894340515137,0.14302648603916168,4.5873703956604,-1.3151099681854248,3.0823416709899902, 2.1972944736480713
135,1402953082,0.7118534,0.2600906,-0.47163388,0.45075408,16.532766342163086,0.2233559638261795,4.711482048034668,2.9158334732055664,4.473405838012695, 1.4820854663848877
136,1402969749,0.71203077,0.25952896,-0.47155935,0.45087558,15.559470176696777,-0.08760154247283936,4.826703071594238,-1.4398435354232788,3.141467809677124, 2.3478970527648926
137,1402986416,0.7121845,0.25918996,-0.47125837,0.45114246,15.319592475891113,0.2621573805809021,4.640902042388916,0.8682257533073425,3.7470037937164307, 2.0107827186584473
138,1403003083,0.71238583,0.25874412,-0.4710537,0.4512944,15.934093475341797,0.10729620605707169,4.549502849578857,-0.6275752186775208,3.5847220420837402, 1.701470971107483
139,1403019750,0.7125348,0.25842398,-0.47089097,0.45141214,15.595060348510742,0.13819269835948944,4.852669715881348,0.06570298224687576,2.748044490814209, 1.502793312072754
140,1403036417,0.712701,0.25808644,-0.47065103,0.45159316,15.483528137207031,-0.015065494924783707,4.580838680267334,0.29021111130714417,3.3648877143859863, 1.623966932296753
141,1403053084,0.712806,0.25793102,-0.47041142,0.45176625,15.863158226013184,0.1897268295288086,4.747922420501709,1.1599864959716797,2.6068992614746094, 1.1273175477981567
142,1403069751,0.7128876,0.25772554,-0.47023034,0.4519431,15.31103229522705,0.026112034916877747,4.633029937744141,1.007943034172058,2.392693519592285, 1.6253114938735962
143,1403086418,0.71297413,0.257539,-0.4699502,0.45220396,15.849058151245117,0.13391686975955963,4.58565092086792,1.5113606452941895,3.0103695392608643, 1.692416787147522
144,1403103085,0.71306664,0.25725245,-0.46977553,0.45240268,15.731293678283691,0.1577594131231308,4.655951023101807,0.5732313990592957,2.717103958129883, 1.9427167177200317
145,1403119752,0.71324044,0.25680763,-0.46957827,0.45258635,15.413158416748047,0.2705131471157074,4.520264148712158,-0.3807327449321747,3.5737078189849854, 2.061188220977783
146,1403136419,0.7134156,0.25641713,-0.46928012,0.4528409,15.832043647766113,0.08779969066381454,4.478167533874512,0.45417076349258423,4.0365424156188965, 2.079206943511963
147,1403153086,0.7135826,0.2559566,-0.46903715,0.45309007,15.315592765808105,0.03753621503710747,4.5976409912109375,-0.030184566974639893,3.9604732990264893, 2.4291152954101562
148,1403169753,0.71370393,0.25562197,-0.46872526,0.45341042,15.780391693115234,0.1741921454668045,4.64319372177124,0.9573707580566406,3.912717819213867, 2.3019096851348877
149,1403186420,0.7137693,0.25528342,-0.46848768,0.45374358,15.592373847961426,0.14113715291023254,4.581787586212158,0.8721957206726074,3.413142204284668, 2.707793951034546
150,1403203087,0.71394515,0.2547082,-0.4683578,0.453924,15.597968101501465,0.020069940015673637,4.489512920379639,-1.173906922340393,3.702566146850586, 2.659078598022461
151,1403219754,0.7140613,0.25431895,-0.46815273,0.45417085,15.344541549682617,0.19766868650913239,4.442039489746094,0.22246550023555756,3.4299309253692627, 2.397393226623535
152,1403236421,0.71416754,0.2540366,-0.46788996,0.4544329,15.913761138916016,-0.03125258535146713,4.487318992614746,0.9392114281654358,3.381357192993164, 2.026278495788574
153,1403253088,0.71424276,0.2538233,-0.4677101,0.4546191,15.732277870178223,0.0832434818148613,4.552364349365234,0.7078133821487427,2.5456652641296387, 1.5918101072311401
154,1403269755,0.71433824,0.2536217,-0.4675379,0.45475858,15.48470687866211,-0.00397791201248765,4.365776062011719,0.6398756504058838,2.4429967403411865, 1.3296639919281006
155,1403286422,0.71447647,0.2536383,-0.46741033,0.45466334,15.994372367858887,0.17732329666614532,4.6216559410095215,0.7527252435684204,1.2691668272018433, -0.5755429863929749
156,1403303089,0.7146176,0.25373855,-0.4674296,0.45436552,15.898853302001953,-0.21527333557605743,4.706212520599365,0.09196880459785461,-0.062226053327322006, -1.5603256225585938
157,1403319756,0.7148664,0.25363508,-0.46741498,0.45404696,15.54602336883545,-0.32326051592826843,4.672670841217041,-0.9164351224899292,1.0305715799331665, -1.3144818544387817
158,1403336423,0.71489096,0.25401488,-0.4669408,0.45428398,15.972662925720215,-0.0043976688757538795,4.487603664398193,4.87890625,2.053440809249878, -0.3737277388572693
159,1403353090,0.71519625,0.2538763,-0.4665674,0.4542643,15.745686531066895,0.3110616207122803,4.342735767364502,0.8178582787513733,3.620335817337036, -0.5918454527854919
160,1403369757,0.71549857,0.25364727,-0.46619698,0.45429656,16.047889709472656,0.31732937693595886,4.419034957885742,0.5716819167137146,3.9715628623962402, 0.0019401622703298926
161,1403386424,0.71582705,0.25303182,-0.4659978,0.4543267,15.870646476745605,0.32129618525505066,4.588397979736328,-1.7840652465820312,4.406171798706055, 1.548409342765808
162,1403403091,0.7161235,0.25226936,-0.46585345,0.45443153,15.58850383758545,0.2795765697956085,4.348369121551514,-2.438380241394043,4.6344451904296875, 2.5552446842193604
163,1403419758,0.71596396,0.25240523,-0.46552795,0.45494074,16.27459144592285,0.27048343420028687,4.51643705368042,4.547515869140625,1.9809951782226562, 2.72428822517395
164,1403436425,0.71591777,0.25219908,-0.4654781,0.45517874,15.345693588256836,0.19616858661174774,4.446715354919434,0.9916276931762695,1.5899403095245361, 2.6542632579803467
165,1403453092,0.7158828,0.2521847,-0.46529457,0.45542932,15.873897552490234,0.0003432795638218522,4.502153396606445,2.4039759635925293,1.7061325311660767, 1.8624083995819092
166,1403469759,0.71601367,0.2518561,-0.4651997,0.45550233,15.888411521911621,-0.28982701897621155,4.779780387878418,-0.2639516592025757,2.4845597743988037, 1.6385979652404785
167,1403486426,0.7161712,0.2516739,-0.4647851,0.45577857,15.742473602294922,-0.3874179422855377,4.38809061050415,2.0144965648651123,4.049835681915283, 1.4965695142745972
168,1403503093,0.71632993,0.25155845,-0.4643055,0.45608166,15.997424125671387,-0.17129239439964294,4.631538391113281,2.5668346881866455,4.234067916870117, 1.247741937637329
169,1403519760,0.71657544,0.25133207,-0.46374762,0.456388,15.596440315246582,0.1255303919315338,4.328064918518066,2.147874355316162,5.257844924926758, 1.2283402681350708
170,1403536427,0.71683097,0.25114998,-0.4631082,0.45673618,15.5742769241333,0.23858097195625305,4.203555583953857,2.8476014137268066,5.621329307556152, 1.2115769386291504
171,1403553094,0.7169943,0.25108027,-0.46244395,0.45719108,15.396417617797852,0.3845646381378174,4.174005031585693,4.036952495574951,5.28922176361084, 1.6825690269470215
172,1403569761,0.71712077,0.2510013,-0.46182373,0.45766255,15.964642524719238,0.43034330010414124,4.599186897277832,3.8553972244262695,5.046080112457275, 1.9153625965118408
173,1403586428,0.71712756,0.25071895,-0.46135736,0.4582769,15.779035568237305,0.13619697093963623,4.554039001464844,3.0981063842773438,4.796202659606934, 3.9779794216156006
174,1403603095,0.71713895,0.2501415,-0.4610593,0.45887396,15.588357925415039,0.4846028983592987,4.416250228881836,1.0207878351211548,4.898704528808594, 5.091375827789307
175,1403619762,0.71715915,0.24940658,-0.46085963,0.4594428,15.495387077331543,0.20919157564640045,4.238041877746582,-0.25817611813545227,4.918222427368164, 5.543031692504883
176,1403636429,0.71709883,0.24901207,-0.46056068,0.46005008,15.353691101074219,0.2176179438829422,4.304955959320068,2.044719696044922,4.152657985687256, 4.788711071014404
177,1403653096,0.7169318,0.24876985,-0.4603183,0.46068388,15.160115242004395,-0.13341882824897766,4.350279331207275,2.4756786823272705,3.1866872310638428, 4.556633949279785
178,1403669763,0.71678746,0.24873304,-0.46003643,0.46120968,15.07746696472168,-0.07468721270561218,4.337547779083252,3.5826339721679688,2.570765972137451, 3.516899347305298
179,1403686430,0.716716,0.24867938,-0.45990476,0.46148074,15.348313331604004,-0.0328945554792881,4.1545634269714355,2.1824898719787598,1.677919864654541, 2.4168972969055176
180,1403703097,0.71669173,0.24867752,-0.45992613,0.46149814,15.229537010192871,-0.04427575692534447,4.325374603271484,0.6382747888565063,0.5697864890098572, 0.765582799911499
181,1403719764,0.7166017,0.24899182,-0.4599583,0.4614365,15.553410530090332,-0.1289646476507187,4.616808891296387,2.3399314880371094,-0.8813585638999939, -0.13600343465805054
182,1403736431,0.71661377,0.24891444,-0.46032843,0.46109024,14.75838851928711,0.1043199747800827,4.308854579925537,-1.735183596611023,-1.4696440696716309, -0.045885153114795685
183,1403753098,0.7166255,0.24901982,-0.46054393,0.46079975,15.591253280639648,0.1840369552373886,4.14548921585083,-0.19927962124347687,-1.1926298141479492, -0.637884259223938
184,1403769765,0.7165947,0.24901007,-0.4610246,0.46037212,15.216147422790527,0.28785619139671326,4.379303455352783,-1.8568185567855835,-2.520738124847412, -0.26169776916503906
185,1403786432,0.71658176,0.24886732,-0.46154895,0.45994395,14.623032569885254,0.1388719379901886,3.894155740737915,-3.0695157051086426,-2.19114089012146, -0.14531365036964417
186,1403803099,0.7164709,0.24924314,-0.46187,0.45959052,15.744812965393066,0.15041211247444153,4.102550506591797,0.8053849339485168,-3.0652124881744385, -1.2298321723937988
187,1403819766,0.7163564,0.2495196,-0.46244383,0.4590419,14.71777057647705,0.24952279031276703,4.304332256317139,-0.9995741844177246,-4.354415416717529, -1.3465622663497925
188,1403836433,0.7164129,0.2492998,-0.46293655,0.45857608,14.563187599182129,-0.2681184709072113,4.0267333984375,-3.309032440185547,-1.6936652660369873, -0.1136179268360138
189,1403853100,0.7163374,0.24928467,-0.4632487,0.45838714,15.24248218536377,0.1392824351787567,4.36243200302124,-0.5925881862640381,-1.4032684564590454, 0.721977174282074
190,1403869767,0.71627074,0.2489179,-0.46367142,0.45826316,14.537436485290527,-0.22014832496643066,3.9887619018554688,-2.6190011501312256,-0.6731657981872559, 2.2079875469207764
191,1403886434,0.71606356,0.24894969,-0.46370387,0.4585365,14.77407455444336,0.03212578967213631,3.8182780742645264,2.133953809738159,0.21540920436382294, 2.7078449726104736
192,1403903101,0.715821,0.24896237,-0.46363232,0.4589806,14.662686347961426,0.11440929025411606,3.7196812629699707,3.053987503051758,0.9583055377006531, 3.614957094192505
193,1403919768,0.7155336,0.2491102,-0.46352965,0.45945203,14.66354751586914,0.3554547429084778,3.8146398067474365,3.9077494144439697,0.613238513469696, 3.346959114074707
194,1403936435,0.71550477,0.24874508,-0.4638043,0.45941767,14.40078353881836,0.49901142716407776,4.051304817199707,-1.820832371711731,0.33436739444732666, 2.3705642223358154
195,1403953102,0.715536,0.24805003,-0.46426222,0.45928228,14.2393217086792,-0.07536548376083374,3.8528902530670166,-4.705565452575684,0.5490402579307556, 2.8358957767486572
196,1403969769,0.715603,0.24705279,-0.46502975,0.4589388,14.397420883178711,0.2617386281490326,3.9455108642578125,-7.771560192108154,-0.2818421721458435, 3.3009331226348877
197,1403986436,0.71592295,0.24513824,-0.46640182,0.45807317,14.151348114013672,0.16353483498096466,4.015292167663574,-16.196603775024414,-0.4566620886325836, 3.990776777267456
198,1404003103,0.7162745,0.24266338,-0.46810463,0.4571036,14.521814346313477,-0.20789115130901337,4.290919780731201,-20.745473861694336,-0.30740413069725037, 5.415820121765137
199,1404019770,0.71638095,0.2402378,-0.4700872,0.45618227,14.733351707458496,-0.7334696650505066,4.620249271392822,-20.819435119628906,-2.544459581375122, 6.732327938079834
200,1404036437,0.71627617,0.23806109,-0.47233358,0.45516667,14.53506851196289,-0.5132439732551575,4.437082767486572,-20.28912353515625,-5.483227729797363, 6.630889415740967
201,1404053104,0.7167084,0.2351511,-0.47521028,0.4529992,14.655354499816895,-0.0663524717092514,4.0628743171691895,-30.66117286682129,-6.385511875152588, 2.537644863128662
202,1404069771,0.7174351,0.23021835,-0.47902167,0.4503607,13.875168800354004,-2.526185989379883,4.721138000488281,-45.756248474121094,-4.420990467071533, 7.255838871002197
203,1404086438,0.7182545,0.22493148,-0.48236096,0.4481567,13.044236183166504,0.28127187490463257,3.505711078643799,-44.894798278808594,0.041781023144721985, 9.35542106628418
204,1404103105,0.7194396,0.21906987,-0.48567057,0.44557747,12.273101806640625,0.4680715501308441,2.8134567737579346,-49.56206130981445,2.6441309452056885, 8.171182632446289
205,1404119772,0.7203998,0.21371876,-0.4889116,0.44307324,12.517399787902832,0.5370227098464966,1.8623138666152954,-46.4763298034668,0.8909383416175842, 7.2476630210876465
206,1404136439,0.72086674,0.21059379,-0.491054,0.44143805,12.111343383789062,1.0112022161483765,1.9389312267303467,-28.517322540283203,-0.7561274766921997, 3.942849636077881
207,1404153106,0.7207296,0.20991357,-0.4921334,0.44078347,12.24039363861084,0.5251274704933167,2.626188278198242,-9.07179069519043,-3.4562554359436035, 0.8197282552719116
208,1404169773,0.7199053,0.2113741,-0.4923709,0.44116697,12.687875747680664,-0.34648096561431885,3.1770639419555664,8.575090408325195,-6.569403171539307, -0.3939874768257141
209,1404186440,0.7188828,0.21276648,-0.4928958,0.44157857,13.73420238494873,-1.3369253873825073,4.145599365234375,7.872623920440674,-8.448556900024414, 1.1122511625289917
210,1404203107,0.71817267,0.21297699,-0.49398264,0.44141805,14.159695625305176,-1.4411612749099731,4.839949607849121,-2.1745567321777344,-7.367763519287109, 2.0523011684417725
211,1404219774,0.7183995,0.2104874,-0.4960957,0.4398709,13.710508346557617,-1.2433775663375854,4.586054801940918,-24.661088943481445,-3.1135122776031494, 3.0575037002563477
212,1404236441,0.71946394,0.20550342,-0.49913797,0.4370372,12.928672790527344,-0.9013268351554871,4.1049885749816895,-45.47884750366211,0.8680463433265686, 3.9410295486450195
213,1404253108,0.7208548,0.19923238,-0.5026558,0.4336036,12.004681587219238,-0.7610316276550293,3.276578187942505,-55.84611511230469,2.6805975437164307, 5.043613433837891
214,1404269775,0.72188294,0.19356847,-0.5060125,0.43054354,11.443471908569336,-0.89447021484375,2.7027976512908936,-50.66209030151367,0.9866424202919006, 5.586175441741943
215,1404286442,0.7223666,0.19003883,-0.50843096,0.4284506,11.38413143157959,-0.49543485045433044,2.5368804931640625,-33.19499588012695,-1.2637355327606201, 3.334075450897217
216,1404303109,0.7227255,0.1875873,-0.510506,0.42645353,11.266072273254395,-0.38092586398124695,2.4648849964141846,-26.33524513244629,-3.0236761569976807, -0.02835332602262497
217,1404319776,0.72314763,0.18554679,-0.51247203,0.424267,11.05763053894043,-0.7884306907653809,2.4339802265167236,-24.769378662109375,-3.6676695346832275, -2.759646415710449
218,1404336443,0.72345954,0.18475436,-0.51380247,0.42246833,11.218855857849121,-1.6649932861328125,2.8107850551605225,-15.181391716003418,-4.038563251495361, -5.693619251251221
219,1404353110,0.72340816,0.18759485,-0.5125842,0.42278394,11.208908081054688,-2.875241994857788,2.7561490535736084,18.16854476928711,-0.4753339886665344, -10.259900093078613
220,1404369777,0.7229079,0.19029626,-0.51132154,0.4239599,10.66071891784668,-3.018505573272705,2.8029541969299316,21.237028121948242,-0.3242828845977783, -4.2896342277526855
221,1404386444,0.7223837,0.19039029,-0.5108672,0.42535645,10.327563285827637,-3.311195135116577,2.5152628421783447,6.746561050415039,3.462038040161133, 7.0503010749816895
222,1404403111,0.7217353,0.18845962,-0.51112103,0.42700896,9.682868003845215,-3.1933493614196777,1.8583160638809204,-4.308957099914551,5.785165786743164, 16.661006927490234
223,1404419778,0.7203848,0.18352139,-0.5130516,0.42911997,9.100994110107422,-5.962414741516113,-0.3702567219734192,-21.59383201599121,4.442132472991943, 33.71040725708008
224,1404436445,0.71803856,0.17920358,-0.51561296,0.43179864,8.61290168762207,-1.654451847076416,-0.29255208373069763,-17.07180404663086,-3.2197158336639404, 37.96435546875
225,1404453112,0.7155913,0.17301697,-0.52005583,0.43305454,9.0803861618042,-1.4990177154541016,-3.192089080810547,-36.75627517700195,-9.017099380493164, 40.22404479980469
226,1404469779,0.7120941,0.16739868,-0.5254596,0.4345021,9.061959266662598,-1.3247476816177368,-3.1339144706726074,-34.820701599121094,-18.847990036010742, 43.4659309387207
227,1404486446,0.7066952,0.16443948,-0.5310055,0.43769276,8.871846199035645,-2.3863816261291504,-2.518430471420288,-13.689595222473145,-32.23908233642578, 48.29354476928711
228,1404503113,0.6997503,0.16356504,-0.5362516,0.4427531,8.888967514038086,-2.72214937210083,-0.28258538246154785,5.9615864753723145,-40.490787506103516, 54.09810256958008
229,1404519780,0.691525,0.16518384,-0.540635,0.4496902,8.915068626403809,-1.7818279266357422,0.605769693851471,29.98810386657715,-47.375732421875, 57.64761734008789
230,1404536447,0.6828397,0.16749425,-0.54513717,0.45661926,9.182377815246582,-0.45797616243362427,0.7027252316474915,32.41480255126953,-50.90846252441406, 55.84476089477539
231,1404553114,0.67462856,0.16957624,-0.5498741,0.46234035,9.470866203308105,0.7377544641494751,1.1445332765579224,25.537124633789062,-50.89155197143555, 49.872650146484375
232,1404569781,0.6671563,0.17135315,-0.5551315,0.46622917,9.488972663879395,1.047130823135376,1.3509275913238525,14.698831558227539,-51.69586181640625, 40.90137481689453
233,1404586448,0.6603389,0.17314714,-0.56052864,0.46880752,9.360353469848633,0.5176306366920471,1.4959982633590698,8.591696739196777,-51.482112884521484, 33.030460357666016
234,1404603115,0.65420854,0.17440526,-0.5661409,0.47018996,9.445093154907227,0.3686645030975342,1.6837843656539917,-0.00864438433200121,-49.47045135498047, 27.775846481323242
235,1404619782,0.64840657,0.17586832,-0.5720247,0.47056046,9.315764427185059,0.39109811186790466,0.9900885820388794,-4.308628559112549,-51.29563903808594, 21.7840633392334
236,1404636449,0.6425105,0.17941108,-0.577288,0.47088292,9.176048278808594,0.026950282976031303,0.5881121754646301,7.74744176864624,-56.63555908203125, 13.549466133117676
237,1404653116,0.635797,0.18636747,-0.5813637,0.47227713,9.296073913574219,-0.9100555181503296,-0.18803247809410095,31.036848068237305,-63.3508186340332, 5.45589017868042
238,1404669783,0.62903285,0.19417246,-0.5848449,0.47388968,9.313942909240723,-0.49002605676651,1.02211332321167,37.57965850830078,-63.355037689208984, 2.44326114654541
239,1404686450,0.6228932,0.20066373,-0.58888096,0.4742967,8.870671272277832,-0.6591159701347351,0.8852324485778809,25.319299697875977,-61.64504623413086, 1.7290829420089722
240,1404703117,0.61701304,0.20714907,-0.59274095,0.47438645,8.476441383361816,-0.3856674134731293,1.3778560161590576,23.2333984375,-59.10953140258789, -1.1275638341903687
241,1404719784,0.61167455,0.2130691,-0.5962886,0.47423178,8.020559310913086,-0.6142514944076538,1.7127681970596313,21.055824279785156,-55.2701530456543, -1.6017482280731201
242,1404736451,0.6067101,0.2192198,-0.59873044,0.47472873,7.5550994873046875,-0.7946082949638367,2.0739173889160156,27.742647171020508,-48.92375183105469, -2.6343212127685547
243,1404753118,0.6023261,0.22522819,-0.6002135,0.47562522,7.301957607269287,-1.0134221315383911,2.070460796356201,31.033723831176758,-41.51899719238281, -3.717360019683838
244,1404769785,0.599,0.23029089,-0.6007881,0.47667512,7.310711860656738,-0.6689308285713196,2.7293074131011963,29.069671630859375,-30.11208152770996, -4.04785680770874
245,1404786452,0.59702456,0.23362863,-0.6012903,0.47689572,7.1537909507751465,-0.41502276062965393,2.9056811332702637,16.6176815032959,-19.96078109741211, -4.8707661628723145
246,1404803119,0.5962445,0.23591442,-0.601034,0.47706938,7.1050333976745605,-0.6960055828094482,3.2546443939208984,12.648683547973633,-8.602046012878418, -5.83610200881958
247,1404819786,0.5963964,0.23720917,-0.6003121,0.47714636,7.19155216217041,-1.0478484630584717,1.3759709596633911,6.920482158660889,1.781728744506836, -6.247451305389404
248,1404836453,0.59697247,0.23760267,-0.59949476,0.477258,8.71068000793457,-2.103443145751953,-0.3584829270839691,4.228010654449463,5.3136305809021, -3.630178213119507
249,1404853120,0.5958045,0.2389474,-0.59918404,0.4784348,9.300942420959473,-2.4583375453948975,-1.3121212720870972,12.409405708312988,-3.575829267501831, 3.0965068340301514
250,1404869787,0.5939817,0.24119289,-0.598981,0.47982654,7.672580242156982,-1.1299505233764648,0.3062421381473541,17.718103408813477,-9.228357315063477, 2.6014022827148438
251,1404886454,0.5926876,0.24282007,-0.59908503,0.48047626,6.912683486938477,-1.3399137258529663,1.398024320602417,10.183608055114746,-7.380084991455078, 0.9048394560813904
252,1404903121,0.5913344,0.24440031,-0.5987763,0.4817252,7.623756408691406,-2.066836357116699,1.4243507385253906,13.881216049194336,-4.744845867156982, 3.0635693073272705
253,1404919788,0.5896808,0.24579774,-0.59854823,0.48332188,7.595020771026611,-1.773231029510498,0.40188485383987427,14.809873580932617,-5.125515937805176, 6.367137432098389
254,1404936455,0.58786106,0.2469532,-0.59882635,0.4846035,6.695250034332275,-1.3568730354309082,-0.4983408749103546,11.117067337036133,-7.530882358551025, 7.508746147155762
255,1404953122,0.58630973,0.24850036,-0.59916884,0.48526806,6.024972438812256,-0.9385609030723572,-0.5692089200019836,9.438509941101074,-8.896883964538574, 2.637885808944702
256,1404969789,0.58513147,0.2499698,-0.5997674,0.48519644,5.747896194458008,-1.4063856601715088,-0.7606253027915955,4.622946739196777,-9.366158485412598, -0.7799581289291382
257,1404986456,0.5842246,0.25143853,-0.60036653,0.48478904,5.492076396942139,-1.5668509006500244,-0.4792911410331726,2.7689578533172607,-8.76559066772461, -3.0100181102752686
258,1405003123,0.58352125,0.2526285,-0.60110915,0.4840966,5.260226726531982,-1.7212145328521729,0.15756189823150635,-0.43432748317718506,-7.90568208694458, -3.416210174560547
259,1405019790,0.5831989,0.25276753,-0.6022617,0.48297888,5.397464275360107,-1.894284963607788,0.4842134714126587,-8.393258094787598,-5.262002944946289, -1.3189904689788818
260,1405036457,0.5829389,0.25254747,-0.6035052,0.4818545,5.195489883422852,-1.8694794178009033,-0.23674637079238892,-10.323203086853027,-4.102900505065918, 0.1130865216255188
261,1405053124,0.58218277,0.25324708,-0.604539,0.48110494,4.773928165435791,-1.7631351947784424,-0.8828078508377075,-3.5128591060638428,-7.698935508728027, -0.9053705930709839
262,1405069791,0.58077586,0.25548887,-0.6048764,0.48119578,4.288464546203613,-1.2836849689483643,-0.8675987124443054,9.592020988464355,-11.196623802185059, -2.999415397644043
263,1405086458,0.57914025,0.25831258,-0.6049501,0.48156714,4.1412458419799805,-1.0121304988861084,-0.6636070013046265,14.342290878295898,-12.45173168182373, -3.9866857528686523
264,1405103125,0.5774209,0.26190943,-0.60449964,0.48225394,4.145798206329346,-0.6026882529258728,-0.38914138078689575,20.554279327392578,-12.576181411743164, -6.568211555480957
265,1405119792,0.57583237,0.26584262,-0.60378546,0.48289546,4.54818058013916,-0.631834089756012,-0.3065711259841919,22.308917999267578,-12.116286277770996, -9.017729759216309
266,1405136459,0.5743323,0.26994824,-0.6030455,0.48332873,4.753351211547852,-0.6693795323371887,-0.11809884011745453,22.03023910522461,-12.556018829345703, -10.862797737121582
267,1405153126,0.5727074,0.27448165,-0.6023345,0.48359007,4.661950588226318,-0.976527750492096,-0.1557796746492386,23.104324340820312,-14.868295669555664, -12.806185722351074
268,1405169793,0.5708964,0.27949208,-0.6014481,0.4839646,4.250730514526367,-1.3773828744888306,-0.21683092415332794,26.410240173339844,-16.361574172973633, -14.03445816040039
269,1405186460,0.56909263,0.28423184,-0.6004274,0.48459545,4.076779842376709,-1.9681191444396973,0.021307310089468956,26.837337493896484,-14.401408195495605, -12.190781593322754
270,1405203127,0.5674369,0.28820387,-0.5994832,0.48535973,4.114980697631836,-2.1414942741394043,0.24355313181877136,23.909170150756836,-11.386590957641602, -8.883071899414062
271,1405219794,0.5662291,0.29099417,-0.5991491,0.48551777,4.349431991577148,-1.6098194122314453,0.2882441282272339,13.91344165802002,-9.245772361755371, -6.697126388549805
272,1405236461,0.56544787,0.2931079,-0.5993158,0.4849505,4.749938488006592,-0.6141387224197388,-0.1944863498210907,5.770666122436523,-8.650347709655762, -7.150992393493652
273,1405253128,0.5648863,0.29544902,-0.5993421,0.4841515,5.23618745803833,0.17840048670768738,-0.29245316982269287,5.7249603271484375,-8.42379093170166, -9.956276893615723
274,1405269795,0.5638881,0.29863313,-0.5991182,0.48363814,6.005556583404541,-0.21881286799907684,0.8727256059646606,11.876132011413574,-11.44640827178955, -11.292386054992676
275,1405286462,0.5618545,0.3027878,-0.5988558,0.48374686,3.9043526649475098,-1.338789939880371,0.5754386782646179,20.5517635345459,-17.723657608032227, -9.49350357055664
276,1405303129,0.5590074,0.3077249,-0.5976934,0.48536488,2.6665806770324707,-1.6155316829681396,-1.1805497407913208,34.50889587402344,-17.137855529785156, -6.0726237297058105
277,1405319796,0.55593055,0.31310773,-0.59569395,0.48790762,3.8033127784729004,-0.4923856854438782,-0.7403234839439392,43.458229064941406,-14.593355178833008, -5.454764366149902
278,1405336463,0.5531504,0.31828177,-0.5935741,0.49029708,4.666959285736084,-0.3170170485973358,-0.1383080929517746,42.03647994995117,-12.91684341430664, -6.5359320640563965
279,1405353130,0.5508853,0.3228707,-0.59165245,0.49216607,4.000321865081787,-0.05716690421104431,-0.4743645191192627,35.98215866088867,-10.885799407958984, -7.446764945983887
280,1405369797,0.5495885,0.3260937,-0.5903056,0.49310726,3.5138347148895264,-0.18842771649360657,-0.7664778232574463,23.08670425415039,-6.797752857208252, -7.444513320922852
281,1405386464,0.5488453,0.32865945,-0.58883774,0.49398574,3.826864004135132,-0.20420213043689728,-0.45299383997917175,19.603227615356445,-2.1255500316619873, -7.181158542633057
282,1405403131,0.5485883,0.33046654,-0.58720547,0.4950078,3.8844361305236816,-0.5750431418418884,-1.0594041347503662,16.989709854125977,3.0163791179656982, -5.676856517791748
283,1405419798,0.548667,0.33174747,-0.58530396,0.49631408,3.5087151527404785,0.33490946888923645,-0.26822492480278015,16.487548828125,7.558055400848389, -4.32515811920166
284,1405436465,0.5500033,0.33113194,-0.58395565,0.4968338,3.690647602081299,0.5236703157424927,-0.1333600878715515,1.4444358348846436,15.149906158447266, -2.6714580059051514
285,1405453132,0.5524528,0.328883,-0.58315784,0.49654707,3.8928585052490234,0.6129938364028931,0.07946084439754486,-12.350200653076172,21.20857048034668, -1.6874067783355713
286,1405469799,0.55598044,0.3251012,-0.5825011,0.49587056,3.5217206478118896,0.3738153576850891,-0.5277166962623596,-22.712736129760742,29.422006607055664, -0.2985302805900574
287,1405486466,0.56034154,0.31952643,-0.58236605,0.49474245,3.763378858566284,-0.4481377601623535,-0.7596365213394165,-35.14096450805664,36.08808517456055, 3.6029512882232666
288,1405503133,0.5652384,0.31353265,-0.5811971,0.49438116,4.6013712882995605,-0.06852926313877106,-0.6709349155426025,-31.539745330810547,45.68386459350586, 4.28859281539917
289,1405519800,0.5714447,0.3062213,-0.5802176,0.49297774,5.390221118927002,0.1999962478876114,-0.37712758779525757,-44.42151641845703,52.645294189453125, 1.5946797132492065
290,1405536467,0.57884437,0.29812452,-0.5786267,0.49117455,7.478890895843506,-1.09951651096344,0.6920582056045532,-49.62683868408203,61.756309509277344, -2.056168794631958
291,1405553134,0.5858516,0.29183188,-0.5762617,0.48942286,11.152617454528809,-1.4738420248031616,7.308469772338867,-39.02176284790039,57.56332015991211, -9.12703800201416
292,1405569801,0.59101737,0.2881624,-0.577061,0.48441887,6.392604827880859,-1.4100152254104614,3.3938820362091064,-48.294124603271484,21.770587921142578, -20.074743270874023
293,1405586468,0.5932414,0.2876615,-0.57863003,0.48010722,-2.6643033027648926,-3.384981155395508,0.25229695439338684,-29.52907943725586,-2.195683479309082, -18.428363800048828
294,1405603135,0.5927139,0.29138756,-0.57790595,0.4793832,-5.227224826812744,-3.1338510513305664,-2.922346591949463,14.956625938415527,-10.593485832214355, -16.187414169311523
295,1405619802,0.59147406,0.295123,-0.5778289,0.47872216,-1.1429824829101562,-3.022120475769043,-2.0004992485046387,14.728033065795898,-16.09559440612793, -12.629816055297852
296,1405636469,0.5887839,0.29619387,-0.5840174,0.47384223,1.48191499710083,-5.097274303436279,-2.91749906539917,-30.345806121826172,-47.30558395385742, -1.9796407222747803
297,1405653136,0.5802045,0.30180004,-0.59182197,0.4711969,-0.5113018751144409,-5.1380934715271,-3.0019912719726562,3.4722485542297363,-87.0893325805664, 11.422430038452148
298,1405669803,0.5673125,0.31119165,-0.59990543,0.4705634,-1.1961067914962769,-2.3913662433624268,-1.2924610376358032,34.86348342895508,-113.68541717529297, 18.39052963256836
299,1405686470,0.5536698,0.32038414,-0.6098509,0.4678521,-2.3366944789886475,0.5987342000007629,0.9375402927398682,21.253211975097656,-128.0026397705078, 17.30518341064453
300,1405703137,0.54108894,0.3282278,-0.62109387,0.46231148,-3.652822494506836,2.447523355484009,3.9939277172088623,-2.3555498123168945,-130.27923583984375, 11.79655647277832
301,1405719804,0.5301147,0.3349171,-0.6313789,0.45625618,-5.254156589508057,2.3160858154296875,7.337273120880127,-9.57278060913086,-117.33781433105469, 7.845907688140869
302,1405736471,0.5211485,0.34056094,-0.6372317,0.45426685,-7.515623092651367,2.82600474357605,11.74521541595459,14.264246940612793,-81.73651885986328, 9.705716133117676
303,1405753138,0.519356,0.33765036,-0.6433592,0.4498342,-6.620539665222168,1.6661611795425415,-6.501832008361816,-44.857181549072266,-30.819110870361328, 16.745025634765625
304,1405769805,0.51669425,0.33669928,-0.6485451,0.4461503,9.270809173583984,-2.315990447998047,-20.779951095581055,-29.551998138427734,-35.284141540527344, 11.274600982666016
305,1405786472,0.50878316,0.343491,-0.65167856,0.44549826,8.693768501281738,5.549631595611572,9.124899864196777,30.102529525756836,-67.22972869873047, -1.1253151893615723
306,1405803139,0.5046152,0.34386262,-0.6588302,0.43939164,8.553609848022461,-0.9102938175201416,-2.237058162689209,-38.02470016479492,-58.21795654296875, 6.943460464477539
307,1405819806,0.49684623,0.3509518,-0.6596899,0.4413457,5.259711742401123,0.5601619482040405,-0.7520879507064819,49.329097747802734,-53.89912796020508, 0.5265750288963318
308,1405836473,0.489483,0.3579104,-0.65829915,0.44603682,7.203293800354004,2.5827746391296387,-2.792234420776367,67.15095520019531,-37.386497497558594, 3.87069034576416
309,1405853140,0.48655027,0.35983127,-0.65926135,0.44627905,5.027224540710449,1.9747668504714966,-1.549859881401062,11.969819068908691,-20.6955509185791, 4.063917636871338
310,1405869807,0.4866266,0.3583663,-0.66073364,0.44519573,5.386251449584961,-1.3063279390335083,-2.1929666996002197,-14.362730026245117,-1.6482043266296387, 7.109879970550537
311,1405886474,0.4879266,0.35693878,-0.6600902,0.44587374,5.795517921447754,-0.4806896150112152,-0.8848904371261597,-2.773768424987793,15.242805480957031, 3.842094659805298
312,1405903141,0.49275362,0.3524468,-0.66065574,0.44329348,6.130704402923584,-0.2378617525100708,0.1187310516834259,-40.212223052978516,28.56294822692871, -1.0169482231140137
315,1405953142,0.5156127,0.34103972,-0.6470412,0.44628832,5.493788719177246,-0.6823574900627136,2.149702310562134,55.264442443847656,99.1948013305664, -22.992006301879883
316,1405969809,0.5202093,0.34358907,-0.6391529,0.45034727,-1.9244639873504639,0.4054969251155853,-1.1738756895065308,40.577396392822266,50.932621002197266, -28.798259735107422
317,1405986476,0.52043927,0.35012674,-0.6303744,0.45736468,-4.968079566955566,-2.852573871612549,-1.6193580627441406,80.91596221923828,29.617691040039062, -24.36715316772461
318,1406003143,0.5185573,0.35930577,-0.6201055,0.46633384,-2.620655059814453,-1.4077048301696777,-1.6122348308563232,108.112060546875,23.381710052490234, -24.84165382385254
319,1406019810,0.5196301,0.3636087,-0.6150907,0.46844092,-1.3814024925231934,1.8483887910842896,-1.4578343629837036,37.61842346191406,15.304204940795898, -25.786039352416992
320,1406036477,0.52482116,0.35758916,-0.6217935,0.45832926,-1.7616578340530396,-3.647454261779785,-4.822146892547607,-99.0086441040039,-6.337201118469238, -9.624092102050781
321,1406053144,0.5230711,0.35467076,-0.628887,0.45288688,-5.328209400177002,-7.189003944396973,-2.445286750793457,-52.470909118652344,-34.52534484863281, 17.79469108581543
322,1406069811,0.51505387,0.35821605,-0.63104,0.45627806,-10.105752944946289,-2.575580358505249,3.124518632888794,39.73321533203125,-42.50392532348633, 28.6929931640625
325,1406119812,0.5121224,0.3501207,-0.64091724,0.45207444,-9.194783210754395,3.2895896434783936,3.145700454711914,-63.23583984375,13.76437759399414, 13.414593696594238
327,1406153146,0.5240267,0.32986522,-0.65010786,0.44039184,-6.052278518676758,2.3058714866638184,-10.443848609924316,-103.27835083007812,29.739238739013672, 21.658933639526367
333,1406253148,0.5162284,0.3242542,-0.6585044,0.44129342,7.8660454750061035,1.299365758895874,-0.7423523664474487,-31.901456832885742,-16.669567108154297, -4.567406177520752
334,1406269815,0.5192909,0.32286933,-0.6598215,0.4367243,6.20131254196167,-0.841213583946228,-0.6398519277572632,-36.444026947021484,3.9185407161712646, -15.664864540100098
338,1406336483,0.5603908,0.30135387,-0.6377354,0.43409866,2.44873046875,-1.6103037595748901,3.8698744773864746,-32.85613250732422,118.66117858886719, -19.171117782592773
340,1406369817,0.5731891,0.29821426,-0.6217333,0.4426855,-5.065159320831299,-4.968323230743408,-6.978420257568359,54.83439254760742,55.65391540527344, -9.44396686553955
342,1406403151,0.5627712,0.31477666,-0.61313,0.45637295,-3.5549302101135254,-2.472165822982788,-8.776062965393066,79.2242660522461,-40.07258224487305, 5.052610874176025
343,1406419818,0.5502712,0.32601357,-0.6153144,0.4607657,-5.2935991287231445,-1.7774358987808228,-7.4861345291137695,81.1463851928711,-83.34268188476562, 16.53459930419922
345,1406453152,0.5243263,0.3448172,-0.63046473,0.45683417,-7.215317726135254,1.0676273107528687,1.211336374282837,15.649626731872559,-120.71512603759766, 10.70926570892334
347,1406486486,0.5038713,0.35785368,-0.647754,0.4454989,-8.64246654510498,2.6919023990631104,4.801877498626709,2.133915424346924,-96.3749771118164, 5.678829193115234
351,1406553154,0.48500177,0.36199275,-0.66687405,0.43475723,-3.215048313140869,2.7390973567962646,-9.308221817016602,-35.309932708740234,-22.561782836914062, 8.005217552185059
352,1406569821,0.4809156,0.36670923,-0.6661112,0.4365096,9.113340377807617,1.7473007440567017,1.6348520517349243,36.24655532836914,-24.70737075805664, -5.302735805511475
354,1406603155,0.4810162,0.3642246,-0.67431164,0.4257557,9.746503829956055,-1.4466181993484497,4.015655517578125,-34.00571823120117,-24.47185707092285, 1.2830313444137573
356,1406636489,0.47275215,0.37336475,-0.6707389,0.43268198,11.397079467773438,0.6382984519004822,1.4380805492401123,45.946041107177734,-18.332794189453125, -7.817332744598389
358,1406669823,0.47516134,0.3723154,-0.6690014,0.43363595,5.609905242919922,1.337044596672058,-2.4141552448272705,-10.885181427001953,25.12226104736328, 1.9931021928787231
359,1406686490,0.48158607,0.3671373,-0.66725004,0.43366188,5.306283473968506,2.324327230453491,-2.4238193035125732,-28.064748764038086,51.367523193359375, 0.9675891399383545
360,1406703157,0.49201056,0.35936457,-0.6639511,0.43353388,5.131178855895996,1.91748046875,-1.8510915040969849,-42.83591079711914,82.23744201660156, -3.393555164337158
361,1406719824,0.50383574,0.3526237,-0.6575958,0.4351712,3.879418134689331,1.3375366926193237,0.3549180328845978,-25.63860511779785,100.29053497314453, -13.79967975616455
362,1406736491,0.51380754,0.3458252,-0.65357774,0.43502086,2.01200795173645,-1.7665711641311646,3.713430404663086,-36.43625259399414,79.62849426269531, -8.486435890197754
363,1406753158,0.5236101,0.3382534,-0.6489478,0.43621537,-1.2205867767333984,-1.4402694702148438,-2.0213284492492676,-30.92351531982422,86.43580627441406, -1.2773048877716064
364,1406769825,0.53123355,0.33445358,-0.6425509,0.43938592,-4.450689792633057,-2.150956630706787,-7.709176540374756,1.8437366485595703,76.43524932861328, -8.646106719970703
365,1406786492,0.53493744,0.33508253,-0.63525933,0.44498026,-1.9018361568450928,-2.6772162914276123,-5.857955455780029,40.484039306640625,54.82911682128906, -9.694799423217773
366,1406803159,0.5346285,0.3365189,-0.63397014,0.44610465,-1.3647936582565308,-4.133579730987549,-8.088491439819336,14.842732429504395,2.6323280334472656, -3.6664226055145264
367,1406819826,0.5283151,0.3416549,-0.63624114,0.44648895,-4.178739547729492,-2.9112658500671387,-8.389451026916504,28.233299255371094,-49.45870590209961, 3.9960179328918457
368,1406836493,0.519235,0.34775177,-0.64317775,0.44247755,-5.285192489624023,-1.8394421339035034,-5.16403865814209,4.159334659576416,-90.28482055664062, 5.39733362197876
369,1406853160,0.50944287,0.35204124,-0.6556876,0.4319824,-5.666343688964844,-1.7885961532592773,-0.3269749879837036,-46.24901580810547,-122.9343490600586, 6.221786975860596
370,1406869827,0.49716052,0.35853478,-0.6678391,0.42222664,-6.271010875701904,-2.213581085205078,1.9751906394958496,-27.527605056762695,-139.23538208007812, 2.5323219299316406
371,1406886494,0.48268843,0.36737725,-0.675886,0.41859764,-8.271341323852539,0.8751253485679626,6.0976457595825195,25.921703338623047,-127.04549407958984, 8.844585418701172
372,1406903161,0.4714934,0.37335312,-0.6815625,0.41686237,-8.630913734436035,4.313693523406982,9.582582473754883,23.713319778442383,-91.08439636230469, 13.027770042419434
373,1406919828,0.47057086,0.36718586,-0.691863,0.4062801,-8.607914924621582,3.98366379737854,9.038536071777344,-96.77051544189453,-46.08946990966797, 23.7758731842041
374,1406936495,0.47367147,0.3588009,-0.70066077,0.39493272,-8.419106483459473,3.1262588500976562,5.517159461975098,-113.57483673095703,-18.033300399780273, 16.896638870239258
375,1406953162,0.47833803,0.35182658,-0.7045549,0.38860434,-6.483938217163086,1.3157622814178467,6.607616424560547,-75.35795593261719,13.9360933303833, 10.141785621643066
376,1406969829,0.48230222,0.34316972,-0.709313,0.38274616,-3.025304079055786,-7.3089985847473145,-23.305253982543945,-79.2468032836914,13.193305015563965, 23.81031036376953
377,1406986496,0.4806923,0.346857,-0.70582193,0.3878668,11.10555362701416,3.4314136505126953,8.168087005615234,50.182254791259766,7.471747875213623, -5.007508277893066
378,1407003163,0.48238298,0.34239733,-0.7096855,0.38264534,-1.0429683923721313,-0.25963306427001953,4.511956691741943,-54.44840621948242,-4.094477653503418, 9.27383804321289
379,1407019830,0.47869173,0.34079948,-0.71417737,0.380343,9.627349853515625,-1.9070935249328613,3.535632371902466,-19.720260620117188,-33.22060012817383, 20.630022048950195
380,1407036497,0.4752908,0.34011993,-0.7159718,0.38184,10.308353424072266,0.35415780544281006,2.8611860275268555,8.300196647644043,-16.587289810180664, 21.568288803100586
381,1407053164,0.47207528,0.3416984,-0.71680665,0.38285196,14.07865047454834,0.7112252116203308,1.685870885848999,15.36143684387207,-19.753393173217773, 6.225405216217041
382,1407069831,0.4725915,0.34260467,-0.71456474,0.38558608,11.045971870422363,1.0801807641983032,1.90045166015625,20.9898624420166,14.295418739318848, -1.8043031692504883
383,1407086498,0.47537008,0.34245855,-0.7104968,0.38979474,10.028420448303223,0.5616459250450134,0.8101025223731995,24.319067001342773,37.48777770996094, -2.038106679916382
384,1407103165,0.4791733,0.34155807,-0.7056257,0.394745,7.185042381286621,1.8097163438796997,0.5648031234741211,25.210779190063477,48.81500244140625, -0.4877478778362274
385,1407119832,0.4832397,0.34304476,-0.6999801,0.39853206,5.13271427154541,2.6336557865142822,1.0272973775863647,28.917570114135742,43.39512252807617, -18.344919204711914
386,1407136499,0.49040353,0.34337914,-0.6940447,0.39987123,3.1113362312316895,2.162965774536133,2.558518886566162,6.799726963043213,56.61474609375, -30.01028823852539
387,1407153166,0.49806038,0.33856937,-0.6890962,0.4030547,-1.8503129482269287,-2.833456516265869,3.418130874633789,-5.633584499359131,74.07418060302734, 1.7899720668792725
388,1407169833,0.5027213,0.3348721,-0.68586814,0.4058533,-5.829788684844971,-1.53980553150177,-1.6437550783157349,-1.4687222242355347,49.95783615112305, 7.397519111633301
389,1407186500,0.50346303,0.33676413,-0.68076646,0.41191253,-6.634528636932373,-3.1397593021392822,-5.749059677124023,47.48820877075195,29.982440948486328, -1.1630728244781494
390,1407203167,0.5028238,0.34161982,-0.6743461,0.41919163,-3.169360399246216,1.0552058219909668,0.6301460266113281,70.4239501953125,22.752098083496094, -10.098273277282715
391,1407219834,0.50140107,0.34454113,-0.67196286,0.42232043,-4.018991947174072,-1.6790635585784912,-1.7174421548843384,34.701568603515625,1.0076781511306763, -3.72849440574646
392,1407236501,0.49666128,0.3491828,-0.67018753,0.42690474,-6.236349582672119,-1.2189785242080688,-0.047779329121112823,53.46315002441406,-17.868541717529297, 4.333813667297363
393,1407253168,0.48963112,0.35536242,-0.66815305,0.43307105,-7.955568790435791,-1.4421048164367676,1.7981716394424438,72.26933288574219,-28.206003189086914, 8.676520347595215
394,1407269835,0.48225373,0.3620052,-0.6655003,0.43987843,-7.804610252380371,1.224724292755127,6.895927429199219,79.45799255371094,-27.53513526916504, 8.145381927490234
395,1407286502,0.47730443,0.36525798,-0.6654913,0.44259307,-6.7327165603637695,0.3034721910953522,3.3313732147216797,35.4202995300293,-25.275787353515625, 9.325297355651855
396,1407303169,0.4739306,0.36763033,-0.66508013,0.4448666,-6.776206970214844,1.6568797826766968,4.972385883331299,27.76906394958496,-15.218404769897461, 6.0767951011657715
397,1407319836,0.47258085,0.36873046,-0.66421723,0.44667757,-5.9078192710876465,1.4403184652328491,3.993511199951172,17.7572078704834,-1.8558087348937988, 3.0682320594787598
398,1407336503,0.47273672,0.3695723,-0.66294765,0.44770175,-5.162845611572266,1.681424617767334,3.97548246383667,10.366674423217773,6.994364261627197, -0.3488194942474365
399,1407353170,0.472961,0.37019676,-0.6609809,0.44985193,-4.717886924743652,0.5497716665267944,3.9830782413482666,17.128061294555664,11.138383865356445, -1.2512717247009277
400,1407369837,0.47335654,0.37053794,-0.65935445,0.4515387,-4.321645259857178,0.42538926005363464,-2.1760077476501465,12.275288581848145,12.019136428833008, 1.7710622549057007
401,1407386504,0.47171143,0.36717305,-0.66525847,0.44732928,4.823640823364258,-12.369285583496094,-41.536197662353516,-44.69053649902344,-25.033153533935547, 25.110240936279297
402,1407403171,0.457429,0.38013595,-0.6635681,0.45379817,13.228727340698242,8.823126792907715,14.18531322479248,112.65859985351562,-80.34135437011719, 4.190988540649414
403,1407419838,0.4569445,0.37290528,-0.6745888,0.44392943,3.9853124618530273,-2.3315646648406982,1.0390651226043701,-101.00332641601562,-38.68009948730469, 33.4528923034668
404,1407436505,0.44884184,0.37758103,-0.67480755,0.44789344,12.104939460754395,0.7489040493965149,-2.2996628284454346,52.82720947265625,-38.65763473510742, 21.6393985748291
405,1407453172,0.4429234,0.3808362,-0.6749612,0.45078844,11.038877487182617,4.859341144561768,-2.208768606185913,38.23371124267578,-28.702829360961914, 14.412334442138672
406,1407469839,0.44055116,0.38093632,-0.67671376,0.45040083,8.953984260559082,2.3245441913604736,-0.6368744373321533,-0.848524272441864,-15.408673286437988, 13.419812202453613
407,1407486506,0.44284925,0.37926927,-0.67919785,0.44579095,10.5685396194458,0.6004564762115479,0.8772321939468384,-40.336097717285156,-1.5097620487213135, -3.498868703842163
408,1407503173,0.44604152,0.38033655,-0.6794937,0.44122517,11.025449752807617,-0.5238562226295471,3.841870069503784,-27.461076736450195,1.147691249847412, -24.085142135620117
409,1407519840,0.454496,0.37390378,-0.6785604,0.43952832,7.8067450523376465,-3.698108434677124,6.199023246765137,-47.13071823120117,59.147342681884766, -0.1160406842827797
410,1407536507,0.4659077,0.36084586,-0.68156284,0.43381166,0.36316198110580444,-0.7354090213775635,0.3661641478538513,-106.06359100341797,68.98493194580078, 17.15151023864746
411,1407553174,0.47534195,0.35205573,-0.684957,0.42537126,-1.28170907497406,-1.9523838758468628,-0.8116512298583984,-101.4209213256836,38.95938491821289, -4.7942304611206055
412,1407569841,0.47929686,0.34875304,-0.68643564,0.42125052,-4.39870548248291,-5.472667217254639,4.146181583404541,-44.27130126953125,13.86827564239502, -5.2361979484558105
413,1407586508,0.48015565,0.34906244,-0.6845669,0.4230534,-8.873117446899414,-3.584381341934204,2.013453245162964,12.678539276123047,13.972813606262207, -1.9876501560211182
414,1407603175,0.48364314,0.34780514,-0.6809934,0.42587447,-8.456339836120605,4.854801177978516,2.348619222640991,10.941762924194336,39.00210952758789, -3.13442325592041
415,1407619842,0.4944417,0.33800995,-0.68082654,0.42160648,-8.947820663452148,2.8787808418273926,4.120171546936035,-78.09532928466797,69.94849395751953, 0.07183998823165894
416,1407636509,0.50200945,0.33048803,-0.6742384,0.42914683,-10.50753402709961,-1.453254222869873,4.88707971572876,11.019882202148438,97.45436096191406, 24.029294967651367
417,1407653176,0.5072639,0.32923314,-0.65833014,0.44820794,-10.378647804260254,-0.1633133441209793,3.1656899452209473,118.80516052246094,126.53135681152344, 20.305736541748047
418,1407669843,0.51219463,0.3301275,-0.64092684,0.466782,-7.143582820892334,4.359867572784424,0.04177787899971008,129.4348602294922,122.52484130859375, 6.446152210235596
419,1407686510,0.51727897,0.32920662,-0.63077664,0.47556975,-3.2060067653656006,0.20828142762184143,-8.26001262664795,56.286766052246094,81.29461669921875, -3.971475839614868
420,1407703177,0.52005017,0.32746243,-0.63056964,0.4740234,-4.370136260986328,-1.606113314628601,-12.467368125915527,-19.663558959960938,17.530174255371094, -3.101090908050537
421,1407719844,0.51484865,0.3311779,-0.63467544,0.47163454,-4.029151439666748,-2.3488717079162598,-12.67183780670166,0.15354321897029877,-51.64974594116211, 6.0518717765808105
422,1407736511,0.5016467,0.34022048,-0.64180535,0.4697729,-2.2701945304870605,-1.55595064163208,-9.612546920776367,30.014299392700195,-113.18061828613281, 16.932893753051758
423,1407753178,0.48451042,0.35123685,-0.65130377,0.46656826,-1.7497544288635254,0.6058332324028015,-1.6046525239944458,32.768035888671875,-148.2798614501953, 21.102481842041016
424,1407769845,0.4732445,0.3603813,-0.6555613,0.46519288,-3.2795157432556152,7.828885078430176,9.889031410217285,37.45574188232422,-94.03064727783203, 4.147249221801758
425,1407786512,0.47411892,0.35402527,-0.6673518,0.45223784,1.2229697704315186,-3.217167615890503,-9.264984130859375,-119.4185791015625,-43.028751373291016, 16.942378997802734
426,1407803179,0.46868414,0.35562322,-0.6721626,0.44951642,15.454029083251953,0.007527138572186232,4.44072151184082,-9.533470153808594,-47.97002029418945, 18.2113094329834
427,1407819846,0.46309832,0.3560583,-0.6790181,0.4446313,8.632645606994629,-0.6752774715423584,2.7917685508728027,-28.760129928588867,-59.937137603759766, 16.636293411254883
428,1407836513,0.45571956,0.36040726,-0.6821596,0.44394228,12.42308235168457,-0.8110604286193848,0.7573915719985962,19.00386619567871,-58.32098388671875, 8.177040100097656
429,1407853180,0.4518971,0.3623339,-0.6841516,0.44321534,8.162652015686035,2.168637990951538,-1.8351569175720215,5.914563179016113,-30.847312927246094, 5.795002460479736
430,1407869847,0.45317984,0.3601248,-0.6863572,0.44028625,6.553502559661865,2.1629385948181152,-2.634681224822998,-30.653244018554688,-0.3960121273994446, 3.4887752532958984
431,1407886514,0.45876673,0.35492715,-0.6885436,0.4352788,6.129401683807373,2.5953850746154785,-1.528060793876648,-60.35779571533203,23.890899658203125, -1.8745315074920654
432,1407903181,0.46772772,0.34801254,-0.689257,0.4301663,7.782339096069336,1.8033907413482666,0.46757349371910095,-70.09256744384766,49.37617111206055, -7.675276756286621
433,1407919848,0.47945386,0.3391372,-0.68858176,0.42540014,8.48314094543457,1.6043567657470703,2.0994277000427246,-77.28348541259766,73.49205017089844, -8.68466854095459
434,1407936515,0.49433106,0.33004752,-0.6824059,0.42547363,7.774606704711914,-0.47296473383903503,7.187742233276367,-46.36954116821289,118.3311996459961, -13.676023483276367
435,1407953182,0.50441873,0.32259983,-0.6798787,0.42338663,-4.42445182800293,1.0117969512939453,-1.8680830001831055,-50.79632568359375,73.4988784790039, -6.399206638336182
436,1407969849,0.51240957,0.3186441,-0.67623246,0.42262504,-6.80891752243042,-2.542996883392334,-5.872541904449463,-24.570594787597656,60.43836975097656, -14.54280948638916
437,1407986516,0.5140301,0.3226665,-0.6682717,0.4302004,-6.275504112243652,-3.4191160202026367,-6.328257083892822,68.83148956298828,41.324886322021484, -13.346282005310059
438,1408003183,0.51454794,0.32680422,-0.6629263,0.4347048,-4.007109642028809,-0.8759661912918091,-5.5503249168396,49.88150405883789,20.0839900970459, -15.81965446472168
439,1408019850,0.5125362,0.33174333,-0.6596752,0.43827116,-4.957129001617432,-0.23600880801677704,-4.8237152099609375,47.90043258666992,-3.185389280319214, -10.5986909866333
440,1408036517,0.5101062,0.33516705,-0.6587235,0.4399296,-7.908489227294922,-0.4180119037628174,-1.181268572807312,27.960424423217773,-12.828292846679688, -4.004085540771484
441,1408053184,0.50676817,0.3384872,-0.6577057,0.44275925,-9.991229057312012,-1.223560094833374,0.9680860042572021,35.201904296875,-13.656105995178223, 3.098966360092163
442,1408069851,0.5025798,0.34259853,-0.6562638,0.4464951,-9.928119659423828,0.9265459179878235,2.82371187210083,45.3232536315918,-16.338743209838867, 4.188370704650879
443,1408086518,0.49832878,0.34636393,-0.6553927,0.4496232,-7.325510025024414,0.4348434507846832,-1.5491727590560913,39.766387939453125,-19.03786849975586, 5.1552886962890625
444,1408103185,0.49509132,0.34990856,-0.65529794,0.45059228,-6.893267631530762,2.9952878952026367,-1.58353853225708,24.47663116455078,-21.539363861083984, -2.570897102355957
445,1408119852,0.49224702,0.3525163,-0.65697736,0.4492282,-6.426190376281738,1.8340481519699097,-2.674853801727295,4.340514183044434,-28.475067138671875, -3.2111122608184814
446,1408136519,0.4887508,0.35538432,-0.66051245,0.44558746,-4.919976711273193,1.7700223922729492,-3.629202365875244,-9.737321853637695,-42.13584899902344, -1.685237169265747
447,1408153186,0.48358646,0.3595282,-0.6630897,0.44406718,-3.0460219383239746,1.0716280937194824,-2.4137306213378906,11.728517532348633,-46.89475631713867, -1.3912932872772217
448,1408169853,0.48106208,0.36075157,-0.66327876,0.44553214,0.9799045920372009,-0.30525803565979004,-1.2316700220108032,16.04240608215332,-9.113718032836914, 11.006583213806152
449,1408186520,0.48015878,0.35907024,-0.666248,0.44342932,10.135621070861816,-2.6751036643981934,8.120972633361816,-22.281330108642578,-11.19313907623291, 13.696460723876953
450,1408203187,0.47762135,0.35564455,-0.6713254,0.44126785,9.296605110168457,-5.194287300109863,6.537668228149414,-30.52081298828125,-21.786771774291992, 29.557937622070312
451,1408219854,0.4714861,0.35651433,-0.67571205,0.44046775,13.511539459228516,-4.203557968139648,5.586605072021484,0.38537871837615967,-44.39775848388672, 27.129962921142578
452,1408236521,0.46718553,0.3565153,-0.6788945,0.4401556,13.277399063110352,0.26428306102752686,2.651538610458374,-0.7432839870452881,-30.026901245117188, 20.587331771850586
453,1408253188,0.46754554,0.3524289,-0.68290824,0.43684262,8.855734825134277,1.1774972677230835,-1.0074340105056763,-41.824310302734375,-6.216107368469238, 17.782766342163086
454,1408269855,0.47012597,0.34890336,-0.68424696,0.4348038,6.184818267822266,3.9756836891174316,-4.596641540527344,-31.381393432617188,14.199991226196289, 6.20839786529541
455,1408286522,0.47608602,0.34497002,-0.683304,0.43293604,6.4152398109436035,4.010786533355713,-3.0975985527038574,-33.149497985839844,39.145694732666016, -6.90405797958374
456,1408303189,0.48482314,0.34003085,-0.68056226,0.43146348,6.273172378540039,2.766819477081299,-0.9215594530105591,-35.80062484741211,62.04974365234375, -13.311963081359863
457,1408319856,0.49539167,0.3341212,-0.6769807,0.42970613,5.82989501953125,1.6986337900161743,1.9168765544891357,-42.163936614990234,75.61677551269531, -17.022951126098633
458,1408336523,0.50809366,0.32686016,-0.6728754,0.4268983,3.700932025909424,0.0009310394525527954,4.598413944244385,-55.03436279296875,88.81539154052734, -21.764970779418945
459,1408353190,0.51675075,0.32142636,-0.6698848,0.42533293,-3.1296277046203613,-2.7594878673553467,3.2590651512145996,-37.12442398071289,63.48935317993164, -11.482793807983398
460,1408369857,0.5237555,0.3173518,-0.6674817,0.4235993,-7.134503364562988,-2.541749954223633,-5.8390631675720215,-31.155017852783203,49.381378173828125, -12.307928085327148
461,1408386524,0.52375007,0.3229521,-0.66028553,0.43059352,-5.769382953643799,-3.9191346168518066,-10.269923210144043,73.04051971435547,25.56353759765625, -15.453784942626953
462,1408403191,0.51951975,0.33065805,-0.65538913,0.43729803,-2.8762857913970947,-1.8077174425125122,-8.914856910705566,81.95282745361328,-8.431750297546387, -8.614897727966309
463,1408419858,0.51219386,0.33881906,-0.6552174,0.4399426,-4.77567720413208,0.8605965375900269,-7.614481449127197,58.16925811767578,-49.583702087402344, -5.211023807525635
464,1408436525,0.5033144,0.34631974,-0.6593395,0.4381881,-6.93044900894165,0.16877026855945587,-5.3784589767456055,26.696929931640625,-79.73387908935547, -3.0601537227630615
465,1408453192,0.4929416,0.3540049,-0.665712,0.43418524,-7.255497455596924,0.10307902097702026,-0.17223525047302246,13.945558547973633,-100.05464935302734, -1.891245722770691
466,1408469859,0.4824428,0.36070344,-0.67409605,0.42747703,-7.552403926849365,-1.1812511682510376,0.5835341811180115,-7.485113143920898,-111.09291076660156, -1.3180358409881592
467,1408486526,0.4695967,0.37024462,-0.6790722,0.42574546,-6.787868976593018,0.5104362964630127,2.240237236022949,40.833621978759766,-106.68799591064453, 0.3992626965045929
468,1408503193,0.45893696,0.3779517,-0.68349046,0.42352143,-7.297613143920898,3.9466052055358887,3.1281967163085938,28.658479690551758,-90.62298583984375, -0.4664733111858368
469,1408519860,0.45367998,0.38090152,-0.6894121,0.41689286,-6.324822425842285,5.76927375793457,3.8827247619628906,-25.482173919677734,-67.64938354492188, -3.766993284225464
470,1408536527,0.45251957,0.38032153,-0.69525135,0.40890998,-4.276319980621338,1.798109769821167,3.250147581100464,-53.411651611328125,-41.510536193847656, -3.097842216491699
471,1408553194,0.4507947,0.37872177,-0.69821703,0.40724322,-0.6216168999671936,-6.7061357498168945,-9.919872283935547,-16.84938621520996,-15.970138549804688, 15.533830642700195
472,1408569861,0.4469423,0.38107058,-0.69912195,0.4077455,10.434667587280273,-1.5745090246200562,9.421590805053711,17.136507034301758,-24.91616439819336, 3.7042038440704346
473,1408586528,0.44170296,0.37920845,-0.7057543,0.40374553,5.429803848266602,-5.301699638366699,3.5220530033111572,-29.93063735961914,-49.55840301513672, 29.07867431640625
474,1408603195,0.43141124,0.38210148,-0.7111442,0.40268707,12.568264961242676,-3.438821792602539,4.506968975067139,15.360880851745605,-75.9803695678711, 25.65894889831543
475,1408619862,0.42732328,0.3805509,-0.71572655,0.40038916,10.914013862609863,-0.4109794497489929,3.0713260173797607,-17.99076271057129,-34.45055389404297, 24.444860458374023
476,1408636529,0.42719978,0.37683886,-0.71997887,0.39638802,8.96769905090332,-0.02915763109922409,-0.5457295775413513,-42.2116813659668,-12.671089172363281, 18.385026931762695
477,1408653196,0.4280993,0.37374124,-0.7220553,0.39456904,7.430190086364746,2.058091402053833,-1.7216097116470337,-26.32709503173828,2.6954057216644287, 13.391839981079102
478,1408669863,0.4311968,0.37046468,-0.7226869,0.39312744,8.03197193145752,3.3175716400146484,-1.319013237953186,-26.692033767700195,19.291927337646484, 5.809860706329346
479,1408686530,0.43633047,0.36752787,-0.721152,0.39303803,8.516799926757812,1.1176254749298096,0.8295883536338806,-18.279211044311523,38.31263732910156, -2.7665226459503174
480,1408703197,0.44391975,0.36490417,-0.71604717,0.39630395,8.204751968383789,-0.48059114813804626,2.2273480892181396,2.7310197353363037,68.72990417480469, -9.83012866973877
481,1408719864,0.45525348,0.3600378,-0.70995617,0.3988476,5.358892917633057,0.23300449550151825,2.5824801921844482,-14.4010591506958,94.34813690185547, -13.629745483398438
482,1408736531,0.46850008,0.35632375,-0.6999169,0.40454617,2.175745964050293,-1.0352166891098022,5.642695903778076,10.678017616271973,120.5962142944336, -24.364625930786133
483,1408753198,0.47950798,0.34843785,-0.6979303,0.40194127,-6.786451816558838,-0.8324480056762695,-4.798740863800049,-59.67076110839844,74.9886474609375, -5.095029830932617
484,1408769865,0.48487344,0.34710908,-0.6926723,0.40573177,-8.147586822509766,-4.376612663269043,-7.574221611022949,15.228963851928711,56.12911605834961, -7.815810203552246
485,1408786532,0.48728386,0.34983212,-0.68488747,0.4136439,-5.740299224853516,0.7408177852630615,-3.2292351722717285,62.512939453125,49.3351936340332, -11.33953857421875
486,1408803199,0.49059817,0.35165015,-0.6797987,0.41656888,-4.071854114532471,2.6801841259002686,-3.6270713806152344,26.181407928466797,35.28211212158203, -19.899860382080078
487,1408819866,0.49274585,0.35211688,-0.6783817,0.41594905,-5.900501251220703,-0.6814211010932922,-3.6805408000946045,-2.6133947372436523,12.876433372497559, -13.295745849609375
488,1408836533,0.49081954,0.353668,-0.67866033,0.41645586,-8.120330810546875,-3.1334922313690186,-1.7622084617614746,11.351795196533203,-12.096542358398438, 1.155511498451233
489,1408853200,0.48269817,0.36086968,-0.67641914,0.42335916,-10.043144226074219,-3.1700637340545654,1.8702828884124756,82.55906677246094,-33.02582550048828, 7.858651161193848
490,1408869867,0.47152057,0.37089124,-0.67308736,0.43250638,-8.12444019317627,-1.0370304584503174,-1.0405902862548828,113.10480499267578,-46.26594924926758, 8.255236625671387
491,1408886534,0.46100876,0.38092187,-0.6692451,0.44099957,-6.843918800354004,3.960313320159912,1.8618860244750977,109.93264770507812,-43.16266632080078, 2.737678050994873
492,1408903201,0.4562581,0.38525796,-0.6696948,0.44149062,-6.9608635902404785,3.3293941020965576,1.5044506788253784,26.9512882232666,-33.98925018310547, -2.5860161781311035
493,1408919868,0.4552805,0.38551134,-0.6728047,0.43753222,-6.434268474578857,2.0185465812683105,1.2781373262405396,-24.413982391357422,-24.373857498168945, -2.1005313396453857
494,1408936535,0.45591953,0.3819754,-0.67945063,0.4296265,-6.069695949554443,-2.9978930950164795,-14.565590858459473,-69.458984375,-27.034101486206055, 7.6046833992004395
495,1408953202,0.44477233,0.38776693,-0.68003684,0.43516013,6.655904293060303,-6.197269439697266,-4.67475700378418,71.48987579345703,-54.89737319946289, 24.90458869934082
496,1408969869,0.43975678,0.38801342,-0.6834553,0.43468216,5.226009368896484,0.8701540231704712,12.899832725524902,1.6051124334335327,-34.25754165649414, 21.544036865234375
497,1408986536,0.43227905,0.3884349,-0.6924565,0.4275014,8.75272274017334,-2.8786752223968506,1.0597909688949585,-39.559600830078125,-81.5509033203125, 22.835702896118164
498,1409003203,0.4255171,0.3900612,-0.6987506,0.4225339,15.56860065460205,1.3055404424667358,2.748518943786621,-19.4220027923584,-67.83011627197266, 14.360539436340332
499,1409019870,0.42057526,0.39196432,-0.7029101,0.41880533,14.596841812133789,3.543515920639038,0.5581484436988831,-11.365117073059082,-50.54975891113281, 5.8137736320495605
500,1409036537,0.41840452,0.39395064,-0.705893,0.41407222,13.20405387878418,2.483245849609375,0.11807254701852798,-20.058584213256836,-36.865604400634766, -8.442831993103027
501,1409053204,0.41760862,0.39607427,-0.7048607,0.41460806,11.31363582611084,0.9960505962371826,-0.7809158563613892,13.618071556091309,-4.8955512046813965, -8.585665702819824
502,1409069871,0.41979328,0.3972376,-0.7007132,0.4183025,9.90461254119873,2.2167556285858154,0.5061984062194824,26.93362808227539,29.752260208129883, -11.742959022521973
503,1409086538,0.42741898,0.39462602,-0.6973612,0.4186536,6.825197696685791,2.553985118865967,1.5527669191360474,-17.219818115234375,55.29337692260742, -16.56663703918457
504,1409103205,0.44002616,0.38721076,-0.69568944,0.4152844,3.3654441833496094,1.6677013635635376,1.5339112281799316,-67.53794860839844,77.87271881103516, -14.157266616821289
505,1409119872,0.45383748,0.3811684,-0.6879374,0.41890892,1.7487475872039795,-1.8764680624008179,2.965320110321045,-15.791288375854492,116.6673355102539, -19.152240753173828
506,1409136539,0.46411267,0.376337,-0.6837342,0.41890064,-5.851336479187012,-1.9394900798797607,-5.540672779083252,-30.177839279174805,75.78519439697266, -16.779787063598633
507,1409153206,0.46876675,0.37537292,-0.6777959,0.4242001,-6.693179607391357,-4.652764320373535,-4.408977031707764,26.682903289794922,57.731163024902344, -6.444323539733887
508,1409169873,0.46983278,0.3783033,-0.671044,0.43109617,-7.26949405670166,-1.867629885673523,-5.124034881591797,58.32889938354492,36.60609817504883, -11.259125709533691
509,1409186540,0.47165826,0.3809421,-0.6661432,0.4343675,-5.311750411987305,2.1879234313964844,-2.837592363357544,33.231807708740234,25.780813217163086, -19.174678802490234
510,1409203207,0.47565675,0.3799719,-0.6655826,0.43170828,-6.703902244567871,1.1559062004089355,-2.176128387451172,-24.2668514251709,17.016244888305664, -16.994915008544922
511,1409219874,0.47813994,0.37732834,-0.66728306,0.42864764,-8.532567024230957,-1.86734938621521,-1.1946749687194824,-34.313602447509766,6.7059125900268555, -0.2662707269191742
512,1409236541,0.47650114,0.37690943,-0.66761285,0.43032444,-9.800629615783691,-3.4349632263183594,0.5971358418464661,9.476970672607422,-1.876349687576294, 13.597264289855957
513,1409253208,0.46988717,0.38106912,-0.66531533,0.43743345,-9.16880989074707,-1.1866545677185059,1.2189732789993286,70.0801773071289,-15.535721778869629, 18.1456298828125
514,1409269875,0.46276745,0.3856171,-0.6631857,0.44421917,-7.208576202392578,1.760610818862915,0.24193021655082703,70.67438507080078,-20.398670196533203, 17.211650848388672
515,1409286542,0.45840955,0.38775826,-0.66332006,0.44666648,-6.724697113037109,2.9135901927948,0.5685227513313293,29.00113296508789,-19.14426612854004, 11.951831817626953
516,1409303209,0.45684123,0.38637236,-0.66693544,0.44408306,-6.083481311798096,1.929233193397522,0.22053411602973938,-22.772327423095703,-22.17053985595703, 7.900414943695068
517,1409319876,0.45637086,0.38334522,-0.67316365,0.43774733,-4.273870944976807,0.26753342151641846,-3.523111343383789,-56.17039108276367,-29.592716217041016, 8.711921691894531
518,1409336543,0.45369038,0.38000992,-0.6805218,0.4320277,-0.12391484528779984,-7.625421047210693,-16.893598556518555,-52.0621337890625,-39.42053985595703, 24.673784255981445
519,1409353210,0.44499534,0.38556764,-0.68282616,0.4325108,8.111398696899414,0.33424854278564453,10.672446250915527,35.46804428100586,-61.27937316894531, 7.422853469848633
520,1409369877,0.43801627,0.38570744,-0.69489884,0.4201038,4.190576553344727,-4.098307132720947,6.641619682312012,-75.30045318603516,-101.58100128173828, 14.334779739379883
521,1409386544,0.42566645,0.39027697,-0.70489013,0.411852,15.497055053710938,-3.462228298187256,2.1476917266845703,-21.911123275756836,-122.97515106201172, 15.659818649291992
522,1409403211,0.4171693,0.39499664,-0.7068894,0.41261947,15.625212669372559,3.7681446075439453,0.9488455653190613,34.49231719970703,-57.339576721191406, 9.026937484741211
523,1409419878,0.4139536,0.39682394,-0.71129304,0.40649164,11.778526306152344,4.198318004608154,0.21264013648033142,-28.483917236328125,-49.28727340698242, -4.936200141906738
524,1409436545,0.41227898,0.3987792,-0.7116222,0.40570316,9.755149841308594,2.0926499366760254,-2.6701860427856445,5.184751987457275,-16.082666397094727, -5.60971212387085
525,1409453212,0.4122652,0.4009545,-0.70725733,0.41116902,9.39247989654541,2.5027637481689453,-1.60286545753479,44.96570587158203,21.856966018676758, -6.35792350769043
526,1409469879,0.41642144,0.40094823,-0.7010441,0.41757753,8.06004810333252,2.2403626441955566,0.6418439149856567,37.10457229614258,56.09107208251953, -9.850341796875
527,1409486546,0.42478526,0.39814594,-0.69499975,0.42191556,6.33083963394165,1.3526798486709595,2.1069281101226807,7.027621746063232,78.11642456054688, -13.817143440246582
528,1409503213,0.4368968,0.39153546,-0.69079053,0.42264637,4.569803237915039,0.3277268707752228,2.630750894546509,-36.935611724853516,91.72997283935547, -11.940993309020996
529,1409519880,0.4492088,0.38720694,-0.68282014,0.42666042,2.4141347408294678,-1.9425760507583618,3.1519856452941895,-4.122702121734619,106.09080505371094, -23.60063934326172
530,1409536547,0.45970407,0.38141403,-0.6774942,0.42918226,-5.102745532989502,-3.9309499263763428,-3.039562225341797,-18.602109909057617,89.63671112060547, -9.005154609680176
531,1409553214,0.46416736,0.37986138,-0.6729565,0.4328784,-7.6029276847839355,-3.288639783859253,-4.31671667098999,13.77442741394043,49.77960205078125, -5.330322265625
532,1409569881,0.4638548,0.38270643,-0.6684924,0.43759885,-8.3372220993042,-2.8197834491729736,-6.361021518707275,44.82904815673828,17.242830276489258, -8.15256404876709
533,1409586548,0.46364352,0.3855585,-0.66670704,0.43804252,-4.876322269439697,2.9001195430755615,-3.832761526107788,16.90668487548828,-1.84806227684021, -15.221962928771973
534,1409603215,0.46567467,0.38443583,-0.66958517,0.4324489,-7.237656116485596,1.099351406097412,-0.3550366759300232,-43.40182113647461,-10.334901809692383, -10.620768547058105
535,1409619882,0.46650448,0.38130933,-0.6736312,0.4280164,-9.64054012298584,-2.0851924419403076,1.1359853744506836,-44.76153564453125,-10.526862144470215, 8.96253490447998
536,1409636549,0.46462485,0.38020432,-0.67395264,0.43053046,-11.865107536315918,-2.8229520320892334,3.0074429512023926,11.957266807556152,1.1762335300445557, 20.01358985900879
537,1409653216,0.4601117,0.38223934,-0.6702706,0.4392354,-10.778651237487793,-0.2468942403793335,3.2875540256500244,69.4029769897461,8.640730857849121, 22.42992401123047
538,1409669883,0.45698333,0.38333455,-0.66687673,0.44665024,-7.937992572784424,2.3718008995056152,0.9052233099937439,55.96898651123047,13.521099090576172, 19.18830108642578
539,1409686550,0.4564067,0.382452,-0.6660656,0.44919953,-6.2932047843933105,2.952584743499756,-1.122084379196167,12.79378604888916,10.369450569152832, 11.95884895324707
540,1409703217,0.45764756,0.379906,-0.6683289,0.4467289,-5.17751932144165,2.596961259841919,-2.3081443309783936,-29.46735191345215,0.09723252803087234, 4.052985668182373
541,1409719884,0.45836177,0.37650758,-0.6747751,0.43911877,-4.3927083015441895,0.224267840385437,-11.646879196166992,-67.42658996582031,-25.256444931030273, 6.65273380279541
542,1409736551,0.45262986,0.37658295,-0.6813511,0.43482444,3.7660317420959473,-6.276501178741455,-16.4278621673584,-24.729835510253906,-57.135746002197266, 20.686607360839844
543,1409753218,0.4455599,0.37873888,-0.6890566,0.42805874,7.44866418838501,1.5270482301712036,15.00632095336914,-29.671072006225586,-79.08636474609375, 10.025674819946289
544,1409769885,0.4332529,0.38290498,-0.7004954,0.4183085,2.047412872314453,-5.650244235992432,7.819092750549316,-35.10741424560547,-129.52532958984375, 16.757171630859375
545,1409786552,0.41609356,0.39099774,-0.7084059,0.41490746,16.671586990356445,-4.878164291381836,-0.2894943356513977,30.022964477539062,-137.23594665527344, 21.27556610107422
546,1409803219,0.405683,0.39674628,-0.7088406,0.4189972,15.063166618347168,5.161405563354492,0.16151341795921326,62.94703674316406,-56.303897857666016, 14.788995742797852
547,1409819886,0.40379873,0.39656848,-0.716268,0.4082159,9.002835273742676,3.526677370071411,1.5283329486846924,-69.45907592773438,-57.93130874633789, -3.058769702911377
548,1409836553,0.402523,0.3968564,-0.7181129,0.40594864,8.868488311767578,0.6929529905319214,-3.8954977989196777,-12.228021621704102,-17.678144454956055, 1.5055491924285889
549,1409853220,0.40209717,0.39847124,-0.7151249,0.4100425,8.609537124633789,4.264510631561279,-3.093902587890625,34.03793716430664,13.558857917785645, -2.9358315467834473
550,1409869887,0.40575507,0.39773053,-0.7108238,0.41461173,7.828988075256348,3.4311764240264893,-0.6545440554618835,22.401880264282227,45.1955680847168, -5.011630535125732
551,1409886554,0.41331148,0.39491963,-0.704245,0.42101192,6.823363304138184,3.3705289363861084,0.3341585397720337,21.408689498901367,81.44375610351562, -7.008194446563721
552,1409903221,0.42519197,0.38958853,-0.6984581,0.42377937,6.113951206207275,2.6171140670776367,1.8952322006225586,-17.38683319091797,97.48429107666016, -15.388193130493164
553,1409919888,0.43915397,0.3857996,-0.68754834,0.43078974,4.625603199005127,-0.8076733350753784,4.168821811676025,16.82169532775879,129.2261199951172, -30.091876983642578
554,1409936555,0.44940388,0.3813955,-0.68172467,0.43338814,-4.195745944976807,-2.93581223487854,-2.5187606811523438,-11.15593147277832,86.30856323242188, -15.992177963256836
555,1409953222,0.45406866,0.3794989,-0.67681974,0.43785566,-6.6194915771484375,-4.747265815734863,-5.222212791442871,17.26700782775879,54.8599853515625, -3.0365359783172607
556,1409969889,0.4543812,0.38228354,-0.6710611,0.44393048,-6.552200794219971,-1.1170506477355957,-7.319725513458252,53.31608200073242,27.597179412841797, -9.135835647583008
557,1409986556,0.4566159,0.38330066,-0.6692417,0.44350693,-4.717727184295654,3.5724213123321533,-3.4823989868164062,0.7795814871788025,12.743409156799316, -16.892026901245117
558,1410003223,0.46067002,0.37987202,-0.6739729,0.43501842,-6.565970420837402,-0.18122607469558716,-2.9700186252593994,-75.03429412841797,-7.0294084548950195, -10.00069522857666
559,1410019890,0.46187493,0.3767133,-0.6798977,0.42719784,-8.918715476989746,-2.5883066654205322,-1.4252748489379883,-67.18374633789062,-22.990083694458008, 2.360783576965332
560,1410036557,0.45783752,0.37820542,-0.6825137,0.42605245,-10.564786911010742,-2.9582250118255615,1.327451229095459,2.083082914352417,-33.19685363769531, 8.699471473693848
561,1410053224,0.4504615,0.38271365,-0.68330574,0.42861176,-8.891581535339355,-0.3579680621623993,-0.2834598422050476,42.980873107910156,-42.29471206665039, 11.088504791259766
562,1410069891,0.44379207,0.3867397,-0.6847785,0.42960384,-7.245157241821289,2.5528807640075684,0.0784318596124649,30.274574279785156,-43.7936897277832, 7.960770130157471
563,1410086558,0.43942636,0.38890615,-0.68850607,0.4261643,-7.136017322540283,2.326115846633911,-0.4019291400909424,-9.042569160461426,-46.11444854736328, 2.3363637924194336
564,1410103225,0.43695045,0.38997203,-0.69340354,0.41974765,-6.479371547698975,3.098655939102173,1.2595280408859253,-34.92854309082031,-45.34735870361328, -3.694585084915161
565,1410119892,0.43713316,0.3887738,-0.6997937,0.4099495,-6.501493453979492,1.6966688632965088,0.7449914216995239,-69.29271697998047,-39.690242767333984, -6.676549434661865
566,1410136559,0.43697575,0.3882263,-0.7045408,0.40243635,-5.764667987823486,0.017721064388751984,-12.479755401611328,-50.80274200439453,-32.102718353271484, -6.380974769592285
567,1410153226,0.4328665,0.38968807,-0.7079153,0.39953223,5.934389591217041,-2.1841704845428467,-6.93204402923584,-8.033392906188965,-39.99000930786133, 4.932145118713379
568,1410169893,0.4346489,0.38602224,-0.7134315,0.3912581,8.343812942504883,2.2651729583740234,12.968644142150879,-71.08444213867188,-17.879283905029297, 3.4455301761627197
569,1410186560,0.42853945,0.38207838,-0.72467655,0.3810695,4.577722072601318,-6.846960067749023,3.042252779006958,-75.83731842041016,-78.53824615478516, 35.68326950073242
570,1410203227,0.4165417,0.385561,-0.7311475,0.37849602,16.932003021240234,-5.423744201660156,4.556642532348633,11.919682502746582,-93.39766693115234, 23.900665283203125
571,1410219894,0.40873232,0.3880693,-0.73314315,0.38058046,14.583651542663574,-0.7689189910888672,3.1923987865448,33.02524948120117,-44.96379852294922, 19.386945724487305
572,1410236561,0.4071151,0.3877339,-0.7362175,0.37670094,12.842204093933105,2.2379581928253174,1.238753318786621,-24.40497398376465,-25.518800735473633, 3.7327795028686523
573,1410253228,0.40904117,0.3863769,-0.7381322,0.37223554,8.767434120178223,1.0760077238082886,-0.8991745114326477,-36.677921295166016,-3.4451169967651367, -4.86944580078125
574,1410269895,0.4116041,0.38650006,-0.7336998,0.3780004,6.7283220291137695,2.0347976684570312,-2.6582443714141846,33.957916259765625,40.95223617553711, -2.028148651123047
575,1410286562,0.4167503,0.3860971,-0.72730976,0.38505697,4.187292098999023,4.326595306396484,-1.1601741313934326,37.222930908203125,64.32878875732422, -7.55958366394043
576,1410303229,0.4260424,0.38370955,-0.72046274,0.39011335,3.503718376159668,2.1876583099365234,0.18430152535438538,11.753049850463867,86.307373046875, -15.448969841003418
577,1410319896,0.43710282,0.3837832,-0.70835733,0.39985198,1.4706438779830933,0.44399750232696533,3.213472843170166,51.59092330932617,116.19667053222656, -32.48326873779297
578,1410336563,0.44779265,0.37698963,-0.70281065,0.40424985,-3.4965391159057617,-3.867539167404175,-0.4680491089820862,-12.140874862670898,99.37980651855469, 3.2519736289978027
579,1410353230,0.45392254,0.37323102,-0.6981199,0.40900108,-6.00205659866333,-4.086893558502197,-8.450557708740234,8.339751243591309,67.26625061035156, 4.442178249359131
580,1410369897,0.45425105,0.37629852,-0.69141096,0.41714072,-3.8393189907073975,-0.28949102759361267,-6.125347137451172,66.51074981689453,35.54077911376953, -6.776233196258545
581,1410386564,0.45502594,0.37920076,-0.68795717,0.4193725,-4.40517520904541,2.673779010772705,-3.4081900119781494,27.452699661254883,12.898822784423828, -17.3576717376709
582,1410403231,0.45509166,0.380721,-0.68832,0.41732326,-6.363143444061279,-0.9976025223731995,-3.429898500442505,-6.252192974090576,-9.450593948364258, -12.206036567687988
583,1410419898,0.45205358,0.382783,-0.6895085,0.41677678,-8.217802047729492,-2.0806329250335693,-1.7489497661590576,8.328877449035645,-24.20139503479004, 0.9224883317947388
584,1410436565,0.44504705,0.38815677,-0.6884276,0.42111194,-9.456808090209961,-2.0698890686035156,0.2439032793045044,58.72278594970703,-32.496604919433594, 5.685309886932373
585,1410453232,0.43599167,0.39541495,-0.68553394,0.42848772,-9.211885452270508,0.6483557820320129,4.253760814666748,89.59981536865234,-33.93871307373047, 7.041153430938721
586,1410469899,0.42974567,0.3990002,-0.6854814,0.43154687,-7.431677341461182,0.968186616897583,2.184799909591675,42.21833801269531,-30.1925106048584, 10.837846755981445
587,1410486566,0.42571044,0.40065017,-0.6864383,0.432496,-6.375268936157227,2.8194541931152344,2.3150997161865234,17.490375518798828,-22.81947898864746, 9.922847747802734
588,1410503233,0.4242615,0.4002467,-0.6893057,0.42972368,-5.891976833343506,0.8701313734054565,1.3045724630355835,-18.890867233276367,-20.384206771850586, 6.323518753051758
589,1410519900,0.4229685,0.3993733,-0.69293,0.4259657,-4.986879348754883,0.19554471969604492,-1.2168502807617188,-27.59992790222168,-23.175018310546875, 7.293243408203125
590,1410536567,0.4228339,0.3976904,-0.6972997,0.42050803,-2.5448288917541504,-0.7145829200744629,-14.581926345825195,-43.40755844116211,-22.054874420166016, 4.837095737457275
591,1410553234,0.42178115,0.3978951,-0.70077854,0.41555953,7.818523406982422,1.3031457662582397,0.5934402942657471,-30.322622299194336,-27.51654052734375, -2.5669071674346924
592,1410569901,0.42355725,0.39366543,-0.7118926,0.39854217,2.8368804454803467,0.2161892056465149,9.909444808959961,-130.907958984375,-56.50352478027344, -3.300830125808716
593,1410586568,0.41731593,0.39384136,-0.721697,0.38715637,6.3656086921691895,-4.9101152420043945,3.387061834335327,-65.27495574951172,-89.0829849243164, 10.032563209533691
594,1410603235,0.40713254,0.39820635,-0.72601044,0.38546562,15.478131294250488,-3.424009323120117,1.60072922706604,20.100976943969727,-77.94647216796875, 12.64208984375
595,1410619902,0.40053567,0.40201548,-0.72494256,0.39040118,12.827997207641602,3.639718770980835,0.7880477905273438,56.02782440185547,-25.58564567565918, 9.766647338867188
596,1410636569,0.40124494,0.4013206,-0.7268534,0.38681844,9.556988716125488,3.7610323429107666,1.2774436473846436,-27.02107810974121,-9.010163307189941, -2.44884991645813
597,1410653236,0.40440512,0.3988964,-0.72687334,0.3859971,7.971777439117432,1.2153087854385376,-0.6416957974433899,-19.723203659057617,20.5197811126709, 2.2194809913635254
598,1410669903,0.4059185,0.39938325,-0.72209454,0.39281398,7.812552452087402,1.999779462814331,-0.7672029137611389,43.79471969604492,38.78654098510742, 0.1902342289686203
599,1410686570,0.40884894,0.39999756,-0.7160833,0.4000869,5.730844020843506,3.194971799850464,0.2814546525478363,45.85364532470703,50.1114387512207, -6.291452407836914
600,1410703237,0.41383606,0.40038797,-0.71024704,0.4049424,3.0187580585479736,1.7753636837005615,0.36112353205680847,27.185331344604492,53.65275573730469, -17.05946159362793
601,1410719904,0.41907656,0.40558338,-0.69892794,0.41397685,1.0578017234802246,1.3253062963485718,1.8874742984771729,75.831298828125,68.59616088867188, -44.38210678100586
602,1410736571,0.42704135,0.40080455,-0.6948868,0.41728166,-3.1706044673919678,-5.315492630004883,1.4089977741241455,-8.769148826599121,73.08572387695312, -0.3893332779407501
603,1410753238,0.43113807,0.39772427,-0.69118655,0.42213365,-6.219834327697754,-4.432107448577881,-8.849392890930176,13.267093658447266,53.02201843261719, 7.923457622528076
604,1410769905,0.4306912,0.3999039,-0.68508285,0.4303994,-3.384448766708374,-0.3795143663883209,-3.493163824081421,64.52024841308594,32.961814880371094, -0.5198577642440796
605,1410786572,0.43252087,0.39863428,-0.6842536,0.43106127,-5.625524997711182,1.3785661458969116,-2.0568413734436035,-3.3583409786224365,17.502065658569336, 0.9222951531410217
606,1410803239,0.43373546,0.3970675,-0.68633586,0.42796528,-6.540625095367432,-0.2785073220729828,-3.0963973999023438,-28.847129821777344,-3.365633726119995, 0.9288408756256104
607,1410819906,0.4336199,0.39551967,-0.6899619,0.4236633,-7.543105602264404,-0.6134769916534424,-1.3157193660736084,-35.371849060058594,-17.454282760620117, 5.3050665855407715
608,1410836573,0.43081203,0.3959717,-0.6926383,0.42173427,-8.261434555053711,-1.1900590658187866,-0.10999394208192825,-8.054667472839355,-26.661937713623047, 8.106231689453125
609,1410853240,0.42596105,0.3980409,-0.69411385,0.4222874,-8.726009368896484,-0.1156458705663681,2.273042917251587,17.60555648803711,-30.7071475982666, 10.301803588867188
610,1410869907,0.42103034,0.39979428,-0.69572085,0.42293096,-7.723820686340332,0.01862306147813797,1.8508870601654053,16.94281005859375,-30.317861557006836, 12.579207420349121
611,1410886574,0.4162259,0.4012768,-0.69672966,0.4246186,-6.339037895202637,1.6998910903930664,1.662819504737854,22.541732788085938,-24.305707931518555, 14.875253677368164
612,1410903241,0.41391617,0.4010189,-0.6990434,0.42331532,-5.862035751342773,2.3079774379730225,1.9360917806625366,-7.457304954528809,-19.256689071655273, 10.998851776123047
613,1410919908,0.4131171,0.39980978,-0.70216084,0.42006737,-5.530895709991455,1.9744937419891357,-0.08087345957756042,-26.0153865814209,-16.893428802490234, 7.871304035186768
614,1410936575,0.41340128,0.3957641,-0.7082265,0.41338304,-3.8067309856414795,-5.606052875518799,-16.07554817199707,-62.14326095581055,-21.251161575317383, 16.797557830810547
615,1410953242,0.40530935,0.39925286,-0.7102358,0.41459218,9.764617919921875,-3.510319709777832,3.476912021636963,32.10444641113281,-49.98515701293945, 15.046906471252441
616,1410969909,0.39758205,0.40021852,-0.7144818,0.4138472,4.068720817565918,-2.7352535724639893,7.269105434417725,8.102123260498047,-52.81235122680664, 27.087045669555664
617,1410986576,0.38804707,0.40232617,-0.7220115,0.40774086,10.518142700195312,-2.697322130203247,2.697289228439331,-19.540746688842773,-88.92913818359375, 21.014699935913086
618,1411003243,0.3827433,0.40305728,-0.7257096,0.40546048,13.60578727722168,0.8239402174949646,2.84647274017334,-5.22323751449585,-43.452674865722656, 15.655983924865723
619,1411019910,0.3807603,0.4020251,-0.7296046,0.40134117,11.89187240600586,2.9104793071746826,0.6125771999359131,-28.819276809692383,-27.835474014282227, 11.03214168548584
620,1411036577,0.38179716,0.40024245,-0.7317082,0.39829668,9.508186340332031,2.6177358627319336,0.3400651812553406,-28.799135208129883,-3.1247589588165283, 4.487890243530273
621,1411053244,0.38425076,0.3985565,-0.7301886,0.40041092,8.140449523925781,3.534452199935913,-0.6618741154670715,3.4313108921051025,27.317934036254883, 3.824838161468506
622,1411069911,0.38869104,0.39638343,-0.72750163,0.40316358,6.069590091705322,5.476947784423828,0.010772047564387321,3.128221273422241,43.38683319091797, -0.5787612199783325
623,1411086578,0.39665553,0.39214855,-0.7257191,0.40276024,3.8846869468688965,4.509975910186768,0.8248425126075745,-30.268882751464844,55.63896560668945, -5.850331783294678
624,1411103245,0.40608576,0.38880688,-0.7212752,0.404581,2.468813896179199,1.4176596403121948,1.435897707939148,-13.317534446716309,73.66966247558594, -15.364620208740234
625,1411119912,0.41420245,0.38741586,-0.713585,0.41126847,-2.1761667728424072,-1.4207366704940796,0.055914461612701416,28.788490295410156,83.75338745117188, -16.440134048461914
626,1411136579,0.41819623,0.38677374,-0.7091495,0.41548184,-5.336993217468262,-3.5192394256591797,-2.0184082984924316,20.55219078063965,45.59910202026367, -6.896844387054443
627,1411153246,0.41715214,0.39094266,-0.70248747,0.4238627,-7.6138434410095215,-2.9048030376434326,-4.154661178588867,74.470458984375,24.92136573791504, -10.042692184448242
628,1411169913,0.4156207,0.3962627,-0.69612837,0.4308604,-6.314502239227295,0.9963234663009644,-3.417311429977417,71.54501342773438,14.842130661010742, -17.495025634765625
629,1411186580,0.41908193,0.39737162,-0.69493145,0.4284117,-5.683837413787842,3.4294638633728027,-1.5527604818344116,-14.566667556762695,10.887616157531738, -25.107927322387695
630,1411203247,0.4232039,0.39503008,-0.6982001,0.42114925,-6.800716876983643,-1.5249654054641724,-1.9059302806854248,-62.446083068847656,-1.7131681442260742, -12.191997528076172
631,1411219914,0.42274958,0.39437842,-0.7004488,0.41847375,-8.489078521728516,-4.12044620513916,-1.132932186126709,-20.108327865600586,-13.027413368225098, 3.4304754734039307
632,1411236581,0.41637328,0.3982779,-0.69865716,0.42413008,-9.515869140625,-3.678027629852295,1.2359435558319092,60.92780685424805,-20.225704193115234, 11.520644187927246
633,1411253248,0.4077138,0.4036966,-0.69575346,0.4321179,-7.552070140838623,-0.2597096562385559,0.4256279170513153,85.9566421508789,-25.943988800048828, 14.507437705993652
634,1411269915,0.40025926,0.4080017,-0.6942456,0.43743595,-6.13662576675415,2.3374035358428955,0.011744242161512375,62.5816650390625,-28.13776206970215, 12.615425109863281
635,1411286582,0.3971279,0.40877903,-0.69683313,0.43544582,-5.628953456878662,2.7488694190979004,0.15677481889724731,-6.442818641662598,-28.64385223388672, 7.790249347686768
636,1411303249,0.39673337,0.40738073,-0.702238,0.4283754,-5.063122749328613,1.452117681503296,-1.059762954711914,-52.838340759277344,-30.945146560668945, 4.125524044036865
637,1411319916,0.39643192,0.40566984,-0.7076273,0.42135203,-3.7073333263397217,-3.594038248062134,-11.73902416229248,-53.66706466674805,-29.361328125, 5.381779670715332
638,1411336583,0.39033276,0.40752414,-0.7094803,0.4221402,6.469459533691406,-1.4935171604156494,-2.8806676864624023,20.527999877929688,-36.104400634765625, 16.127490997314453
639,1411353250,0.38771635,0.40652525,-0.7145216,0.4169801,6.470489025115967,0.5108718872070312,10.67853832244873,-35.16553497314453,-36.104393005371094, 12.859049797058105
640,1411369917,0.38003308,0.40620375,-0.72375935,0.40834522,6.744163990020752,-4.272348403930664,2.807978868484497,-48.36726379394531,-84.23003387451172, 26.679903030395508
641,1411386584,0.3709369,0.40810916,-0.7301167,0.4034628,15.418331146240234,-0.923621654510498,2.997799873352051,-11.88878345489502,-79.65824890136719, 21.33809471130371
642,1411403251,0.36445516,0.4096485,-0.7340247,0.40070966,11.625641822814941,2.0708260536193848,0.06742414832115173,-2.7159361839294434,-53.58320999145508, 14.619830131530762
643,1411419918,0.36271128,0.4095573,-0.738199,0.39467162,9.835840225219727,3.137737274169922,-0.14601507782936096,-37.458988189697266,-35.261539459228516, 2.4654436111450195
644,1411436585,0.36304504,0.40908065,-0.7399174,0.39162967,8.578774452209473,1.4246704578399658,-0.7406373023986816,-22.391733169555664,-9.244462966918945, -0.5096426010131836
645,1411453252,0.3646283,0.4092513,-0.7368192,0.39579934,7.748816967010498,1.4552606344223022,-0.31397733092308044,25.368324279785156,27.581462860107422, -2.6179895401000977
646,1411469919,0.36981007,0.4082884,-0.7319514,0.40098417,5.7867817878723145,2.1411702632904053,1.187233805656433,22.356687545776367,56.10305404663086, -9.012138366699219
647,1411486586,0.38001388,0.4040636,-0.72778606,0.4032983,3.0038082599639893,1.8958410024642944,1.2729425430297852,-16.427997589111328,80.42738342285156, -11.68333625793457
648,1411503253,0.391536,0.40064844,-0.72238135,0.40539572,-0.12364740669727325,1.2606966495513916,0.3465644121170044,-15.6337890625,87.35662078857422, -23.348716735839844
649,1411519920,0.40348065,0.39731377,-0.7154428,0.4092518,-2.446284532546997,-2.1339731216430664,1.690564751625061,-3.5761609077453613,98.21602630615234, -24.411832809448242
650,1411536587,0.41032785,0.3922017,-0.71255666,0.41239807,-6.9864888191223145,-4.949301719665527,-6.559305191040039,-9.49842357635498,64.96714782714844, 7.6913743019104
651,1411553254,0.41029024,0.39396065,-0.7066859,0.4207755,-7.4141645431518555,-1.7177742719650269,-5.622135639190674,62.57267379760742,34.58428192138672, 0.061734117567539215
652,1411569921,0.40888658,0.3984748,-0.70067173,0.42788878,-5.025160312652588,0.92896968126297,-3.7183592319488525,68.35395050048828,17.238805770874023, -13.385017395019531
653,1411586588,0.40957263,0.4012201,-0.697637,0.42962253,-6.646718978881836,2.4488155841827393,-0.7077239155769348,23.00453758239746,9.537233352661133, -18.061418533325195
654,1411603255,0.41119885,0.40082285,-0.6981943,0.42752936,-8.005350112915039,-1.031675934791565,-0.45413073897361755,-17.387420654296875,2.724074125289917, -6.66653299331665
655,1411619922,0.41116762,0.40002036,-0.6987685,0.4273727,-8.967766761779785,-2.392179012298584,0.2263006567955017,-4.710970401763916,1.3412926197052002, 5.588852405548096
656,1411636589,0.4065899,0.40256393,-0.6958793,0.43402675,-9.436745643615723,-2.182035207748413,2.008680582046509,60.154815673828125,-1.7380750179290771, 12.454045295715332
657,1411653256,0.40102795,0.40521625,-0.6937627,0.44007927,-7.760039329528809,0.01980981044471264,0.09252793341875076,57.993858337402344,-10.59156608581543, 15.153701782226562
658,1411669923,0.39548314,0.40736377,-0.69315046,0.4440613,-5.9624409675598145,0.6266685724258423,-2.018021821975708,42.13331604003906,-18.80345344543457, 16.024621963500977
659,1411686590,0.39125422,0.40882817,-0.694847,0.44381025,-5.696874141693115,1.549288272857666,-1.4391260147094727,9.38641357421875,-28.486019134521484, 10.167054176330566
660,1411703257,0.3880198,0.40876585,-0.6998253,0.4388574,-5.127992630004883,0.38858675956726074,-2.6683566570281982,-29.97687339782715,-41.042564392089844, 10.995284080505371
661,1411719924,0.3848985,0.40765995,-0.70589304,0.43287614,-4.025662899017334,-1.434324860572815,-7.086160659790039,-41.295379638671875,-43.03268814086914, 15.966484069824219
662,1411736591,0.37853563,0.40912545,-0.7075787,0.43434936,1.4403407573699951,-2.4576575756073,-3.350938320159912,23.85786247253418,-33.69191360473633, 20.521759033203125
663,1411753258,0.37180352,0.41121924,-0.7125937,0.42996675,9.80484390258789,-1.631781816482544,9.775350570678711,-11.896775245666504,-62.461849212646484, 12.627676963806152
664,1411769925,0.36322084,0.41200674,-0.7221745,0.42045814,9.614350318908691,-2.327181339263916,4.020411014556885,-48.70949935913086,-94.26336669921875, 24.396507263183594
665,1411786592,0.3531511,0.41555053,-0.72824216,0.41504872,17.49803924560547,1.1531938314437866,2.354921340942383,-7.155437469482422,-89.4579849243164, 15.405895233154297
666,1411803259,0.34858927,0.41650662,-0.7318718,0.41154748,12.104466438293457,4.320883274078369,-0.20678697526454926,-12.699026107788086,-43.44041061401367, 10.520962715148926
667,1411819926,0.34815627,0.41586256,-0.73514265,0.40670756,9.58533763885498,2.824526786804199,-2.3174140453338623,-34.07156753540039,-21.293622970581055, 2.850255250930786
668,1411836593,0.3499661,0.41438255,-0.73491114,0.40708315,10.2122163772583,1.5706743001937866,-1.364099144935608,-6.312154293060303,15.601871490478516, 3.4228403568267822
669,1411853260,0.35612434,0.4114528,-0.731195,0.41138336,10.217452049255371,1.3322900533676147,1.1038525104522705,7.394607067108154,61.09489440917969, -1.7833209037780762
670,1411869927,0.3666391,0.40629798,-0.7268712,0.4149173,7.811171531677246,0.5379146337509155,2.9878625869750977,-12.535323143005371,88.44636535644531, -6.399231433868408
671,1411886594,0.38097715,0.39938295,-0.72206086,0.41710657,4.394179344177246,-0.16834451258182526,4.2023138999938965,-33.02506637573242,109.87892150878906, -13.170169830322266
672,1411903261,0.39522743,0.3923904,-0.7162201,0.42054,-1.5937331914901733,-2.009477376937866,3.937861919403076,-23.9040584564209,115.61531066894531, -12.121708869934082
673,1411919928,0.40661308,0.38605565,-0.71532977,0.41704965,-8.532729148864746,-3.456166982650757,-7.578713417053223,-62.83203125,67.44229888916016, -12.522558212280273
674,1411936595,0.40808555,0.3888479,-0.70884913,0.42402416,-8.050276756286621,-4.823298454284668,-7.19398832321167,56.55145263671875,36.240901947021484, -14.871377944946289
675,1411953262,0.41135797,0.39176297,-0.70469415,0.4251031,-3.5011250972747803,5.215360164642334,-4.795032024383545,16.620187759399414,22.661108016967773, -31.347946166992188
676,1411969929,0.41626444,0.39069155,-0.7073733,0.41678187,-6.667876243591309,0.780061662197113,-4.411234378814697,-64.5290756225586,-2.2060461044311523, -24.80579376220703
677,1411986596,0.41661072,0.38856554,-0.7135688,0.40776458,-7.356977462768555,-3.3682334423065186,-5.018304347991943,-68.72230529785156,-33.053611755371094, 0.9331856966018677
678,1412003263,0.40890226,0.39239815,-0.71564823,0.40825278,-10.260794639587402,-4.346777439117432,-3.1481785774230957,28.06884002685547,-51.90199661254883, 10.237658500671387
679,1412019930,0.3945592,0.40266186,-0.71128076,0.41984066,-10.217337608337402,-1.4774335622787476,-0.10438749194145203,136.78225708007812,-54.333126068115234, 10.829360008239746
680,1412036597,0.38204825,0.4110662,-0.70722204,0.43000096,-9.271834373474121,3.7174203395843506,2.3665640354156494,118.78450775146484,-44.90145492553711, 10.976766586303711
681,1412053264,0.37607023,0.41469753,-0.70683444,0.43241468,-8.51573657989502,4.433197498321533,3.760782241821289,39.27124786376953,-30.31960678100586, 5.528581619262695
682,1412069931,0.37561136,0.4141069,-0.71088284,0.42670527,-7.123592853546143,2.867692232131958,1.9430030584335327,-40.05325698852539,-25.68108558654785, 1.1830281019210815
683,1412086598,0.37557736,0.4125322,-0.7162847,0.41916007,-5.398449420928955,0.43109533190727234,-0.051191963255405426,-56.7462272644043,-29.47599220275879, 3.7757952213287354
684,1412103265,0.37282285,0.41269782,-0.720482,0.41423377,-4.26608419418335,-1.4281437397003174,-0.09482690691947937,-28.16103744506836,-37.27794647216797, 6.428562164306641
685,1412119932,0.36569536,0.41524395,-0.7223667,0.41476005,-3.713128089904785,-2.9965157508850098,-12.546055793762207,23.941967010498047,-44.241886138916016, 14.557419776916504
686,1412136599,0.35681233,0.41931957,-0.7218825,0.4192159,4.161375045776367,-1.3263028860092163,-4.895391941070557,59.13026809692383,-39.77783203125, 14.914098739624023
687,1412153266,0.35018986,0.42044893,-0.73175234,0.40636003,10.418094635009766,-1.6353946924209595,12.075772285461426,-70.38529968261719,-95.37079620361328, 10.314638137817383
688,1412169933,0.34094533,0.42052707,-0.7430328,0.39346611,11.067459106445312,-6.61118221282959,4.901764392852783,-69.56708526611328,-109.6091079711914, 27.135498046875
689,1412186600,0.33413535,0.42152852,-0.7471531,0.3904222,19.220115661621094,-1.7792794704437256,2.200012445449829,-4.836835861206055,-54.70624542236328, 18.204343795776367
690,1412203267,0.33295232,0.4202742,-0.7481352,0.3909043,12.0040922164917,3.8634581565856934,-0.9593542814254761,0.16278798878192902,-2.6908586025238037, 13.858392715454102
691,1412219934,0.3361055,0.41801146,-0.74795544,0.39097598,10.754849433898926,4.73612642288208,-1.9074217081069946,-13.64466381072998,23.62442970275879, 3.3065249919891357
692,1412236601,0.34104353,0.41718632,-0.74048704,0.4016518,9.398002624511719,4.623850345611572,-2.8051810264587402,58.702880859375,76.13976287841797, -5.1161627769470215
693,1412253268,0.34616292,0.41648027,-0.7340131,0.40980527,5.703150749206543,4.29782247543335,-1.6447875499725342,42.901206970214844,67.10645294189453, -9.093609809875488
694,1412269935,0.3538327,0.41378143,-0.73031646,0.41258407,6.539732456207275,1.9124888181686401,1.8323113918304443,-4.077165603637695,63.5623893737793, -10.920723915100098
695,1412286602,0.36521333,0.4081173,-0.7277495,0.4128441,5.37530517578125,-0.22164243459701538,3.8750410079956055,-37.723690032958984,80.558349609375, -9.379404067993164
696,1412303269,0.38076058,0.3999168,-0.7256442,0.41052228,1.4981129169464111,-1.6638610363006592,3.725693464279175,-70.06204223632812,100.03169250488281, -13.682032585144043
697,1412319936,0.39627603,0.39178982,-0.72156334,0.41086796,-2.3104493618011475,-5.674344062805176,4.901533603668213,-50.942352294921875,112.06481170654297, -12.466079711914062
698,1412336603,0.40604675,0.38708952,-0.7179005,0.41219762,-9.9608736038208,-3.942249298095703,-10.46920108795166,-22.47908592224121,75.32088470458984, -9.59125804901123
699,1412353270,0.40745872,0.38945994,-0.71251947,0.41786897,-7.962819576263428,-4.122157573699951,-11.20838451385498,45.881065368652344,30.844707489013672, -13.485893249511719
700,1412369937,0.40541127,0.3944171,-0.7085796,0.4218909,-4.623457431793213,0.6790264248847961,-6.507861137390137,50.24365234375,-1.5247774124145508, -17.141889572143555
701,1412386604,0.40256074,0.3979793,-0.7086859,0.42109588,-8.106675148010254,1.2020460367202759,-5.020307540893555,13.377114295959473,-25.515520095825195, -10.593305587768555
702,1412403271,0.3961497,0.40144643,-0.71038395,0.42102373,-8.858465194702148,-1.8075240850448608,-3.7441487312316895,21.80760955810547,-44.754493713378906, 6.57401180267334
703,1412419938,0.38607943,0.4063827,-0.71133834,0.42402083,-9.88607120513916,-2.8041608333587646,-2.062863826751709,53.080711364746094,-56.18568801879883, 16.172666549682617
704,1412436605,0.37218934,0.41477215,-0.7081804,0.43349722,-9.387078285217285,0.24844655394554138,1.109543800354004,116.60359954833984,-55.84685516357422, 15.771919250488281
705,1412453272,0.3605746,0.42231485,-0.70459807,0.44178945,-9.159845352172852,3.841301918029785,3.780256748199463,103.4511489868164,-44.221519470214844, 9.44095230102539
706,1412469939,0.35562235,0.42574418,-0.7038199,0.44374803,-8.122540473937988,5.244519233703613,7.37042236328125,34.700252532958984,-25.08193588256836, 1.0251485109329224
707,1412486606,0.35527375,0.42385387,-0.7064115,0.44171405,-6.270462512969971,1.894018292427063,2.183192729949951,-22.01844596862793,-13.113001823425293, -0.7901023626327515
708,1412503273,0.35585952,0.4225033,-0.70816034,0.4397317,-5.172711372375488,2.258049964904785,2.473147392272949,-20.380054473876953,-5.4536943435668945, -3.2694919109344482
709,1412519940,0.35564494,0.42031983,-0.7112108,0.43706673,-4.710578441619873,-1.5257723331451416,-9.980043411254883,-27.362926483154297,-11.92835807800293, 5.422001361846924
710,1412536607,0.34861174,0.41984022,-0.71274865,0.4406741,3.0915534496307373,-8.827486991882324,-16.230669021606445,32.212425231933594,-24.429418563842773, 36.79566192626953
711,1412553274,0.34178773,0.4223454,-0.71392745,0.44171605,14.510693550109863,1.8788772821426392,19.22452735900879,27.347789764404297,-38.600242614746094, 14.11107063293457
712,1412569941,0.33515477,0.42063183,-0.7256191,0.42920548,5.2031331062316895,-7.255962371826172,10.296548843383789,-82.28484344482422,-92.44036865234375, 27.224374771118164
713,1412586608,0.31475848,0.4304064,-0.73034245,0.42693958,26.271896362304688,1.7113736867904663,-0.3467038869857788,56.089195251464844,-146.99862670898438, 19.763851165771484
714,1412603275,0.30529281,0.4357371,-0.73137474,0.4266386,14.72236156463623,7.085382461547852,0.8904640674591064,34.81757736206055,-65.56317901611328, 3.834238052368164
715,1412619942,0.30261734,0.43488985,-0.73910695,0.41595015,0.8276248574256897,-3.2215144634246826,-3.542586326599121,-71.42340087890625,-61.4716911315918, 7.785628795623779
716,1412636609,0.30279464,0.43230966,-0.7435875,0.41048947,8.0121488571167,1.7040891647338867,-3.241257905960083,-46.61896896362305,-16.79851531982422, 15.274822235107422
