PacketCounter,SampleTimeFine,Quat_W,Quat_X,Quat_Y,Quat_Z,Acc_X,Acc_Y,Acc_Z,Gyr_X,Gyr_Y,Gyr_Z 
1,1916047434,0.70682585,0.1907441,-0.6254533,0.26985607,-0.11877384781837463,-0.07273262739181519,0.010167662054300308,-0.19775138795375824,0.38747504353523254, -0.2025550901889801
2,1916064101,0.70811045,0.1911371,-0.62400925,0.26955333,16.445541381835938,-1.1986356973648071,2.4764130115509033,2.4831323623657227,3.1081717014312744, 0.8727079629898071
3,1916080768,0.7087888,0.19088769,-0.62314266,0.26995155,16.23170280456543,-0.8253931403160095,2.53550386428833,3.2624754905700684,3.8283112049102783, -0.7320109605789185
4,1916097435,0.709841,0.19173759,-0.62186974,0.26951924,15.97722339630127,-1.075740098953247,2.3675432205200195,4.228189468383789,4.297996997833252, -1.1054697036743164
5,1916114102,0.7104307,0.19181347,-0.62137467,0.26905343,15.964900016784668,-1.0480841398239136,2.3663456439971924,3.5711729526519775,4.2028326988220215, -0.8789127469062805
6,1916130769,0.71078175,0.19154726,-0.6212607,0.26857832,16.065561294555664,-0.9186826944351196,2.459301471710205,2.5874528884887695,3.7445454597473145, -0.38419052958488464
7,1916147436,0.71103776,0.19151075,-0.62110263,0.26829204,16.19769859313965,-0.6859877109527588,2.57157564163208,1.1633350849151611,3.294337272644043, -0.07907920330762863
8,1916164103,0.71151364,0.19147506,-0.6208288,0.26768902,16.158239364624023,-0.8819198608398438,2.555823802947998,0.3162464201450348,3.264857053756714, 0.473354697227478
9,1916180770,0.71199214,0.19126719,-0.62058413,0.26713228,16.06488800048828,-0.6458056569099426,2.483487606048584,0.25856661796569824,3.0950193405151367, 0.9074002504348755
10,1916197437,0.7123904,0.19121471,-0.62032104,0.26671857,15.783591270446777,-0.7021169662475586,2.427036762237549,0.00598696805536747,3.058802843093872, 1.6768442392349243
11,1916214104,0.7127598,0.19107032,-0.6201435,0.26624778,15.677769660949707,-0.801095724105835,2.2364604473114014,0.8350956439971924,2.729321241378784, 2.1160123348236084
12,1916230771,0.7129692,0.19097874,-0.6200724,0.26591834,15.744982719421387,-0.6539613604545593,2.5178961753845215,0.8694166541099548,2.538109540939331, 2.2020838260650635
13,1916247438,0.71327716,0.19076033,-0.61997426,0.26547736,15.860135078430176,-0.829460859298706,2.4265925884246826,0.8330081701278687,2.65126633644104, 2.2005085945129395
14,1916264105,0.7135259,0.19058737,-0.6198572,0.2652066,15.951228141784668,-0.7153011560440063,2.455819845199585,0.8361074328422546,2.7326126098632812, 2.1616289615631104
15,1916280772,0.7138193,0.19031866,-0.61974025,0.26488277,15.7344331741333,-0.6656283140182495,2.5211338996887207,0.3889736533164978,2.9879708290100098, 2.146209716796875
16,1916297439,0.7141726,0.18990108,-0.61965555,0.26442835,15.538661003112793,-0.8183795213699341,2.4512460231781006,0.7958442568778992,2.834000587463379, 2.3198766708374023
17,1916314106,0.7144371,0.18968953,-0.61946905,0.26430243,15.437026023864746,-0.6541426777839661,2.4134645462036133,0.30740997195243835,3.106339931488037, 2.1543033123016357
18,1916330773,0.7147607,0.18934856,-0.61934423,0.26396438,15.420592308044434,-0.6288842558860779,2.4634971618652344,0.7902478575706482,2.8648126125335693, 1.9622594118118286
19,1916347440,0.7149856,0.18922475,-0.6191484,0.2639034,15.41062068939209,-0.8461631536483765,2.2978320121765137,0.7625221014022827,2.8118457794189453, 2.05999755859375
20,1916364107,0.7151144,0.18923476,-0.61897486,0.26395437,15.462502479553223,-0.674196183681488,2.415334463119507,1.0856646299362183,2.4159624576568604, 1.7496737241744995
21,1916380774,0.7153385,0.18901432,-0.61885875,0.26377735,15.350513458251953,-0.5890165567398071,2.615817070007324,1.0598982572555542,2.5165820121765137, 1.8408678770065308
22,1916397441,0.7155708,0.18876459,-0.6187285,0.2636314,15.272299766540527,-0.6630290746688843,2.2706031799316406,0.8291791081428528,2.4681613445281982, 2.088658094406128
23,1916414108,0.71571326,0.18858127,-0.6186117,0.26365015,15.264927864074707,-0.631187915802002,2.37237811088562,0.6573948264122009,2.3355391025543213, 2.514533281326294
24,1916430775,0.71589154,0.18840826,-0.61847436,0.26361167,15.142147064208984,-0.48008573055267334,2.4649784564971924,1.1975666284561157,2.4719905853271484, 2.1888420581817627
25,1916447442,0.7160002,0.1883243,-0.61831516,0.2637506,15.1787691116333,-0.8411885499954224,2.192298173904419,1.2663750648498535,2.341071128845215, 2.6662113666534424
26,1916464109,0.71609396,0.18819156,-0.61815727,0.26396066,15.13918399810791,-0.6425474286079407,2.5282013416290283,1.0981764793395996,2.6251542568206787, 2.9827332496643066
27,1916480776,0.7162357,0.18790896,-0.6180246,0.26408768,15.202191352844238,-0.8075495958328247,2.357912063598633,0.31821855902671814,2.7208690643310547, 3.188748836517334
28,1916497443,0.71637845,0.18756357,-0.61793214,0.26416233,15.290266036987305,-0.7533868551254272,2.3222246170043945,0.31008654832839966,2.5631330013275146, 3.202310800552368
29,1916514110,0.7165152,0.18731575,-0.61779845,0.26428023,15.177138328552246,-0.6174300909042358,2.506741523742676,0.6529766917228699,2.6952953338623047, 2.8077991008758545
30,1916530777,0.71661043,0.18713124,-0.6176284,0.26454997,15.13963508605957,-0.8745508790016174,2.3187718391418457,1.8617422580718994,2.370781660079956, 2.8226797580718994
31,1916547444,0.71674913,0.18676795,-0.617446,0.2648562,15.145000457763672,-0.6786945462226868,2.346160650253296,0.9964556694030762,2.6684653759002686, 3.0587902069091797
32,1916564111,0.71688914,0.18639527,-0.6172315,0.26523972,15.078451156616211,-0.6815264225006104,2.4907965660095215,0.4586402177810669,2.8754420280456543, 3.1215157508850098
33,1916580778,0.7169877,0.1860401,-0.617055,0.2656331,15.173293113708496,-0.8672770857810974,2.282006025314331,1.0179959535598755,2.4170384407043457, 3.2475297451019287
34,1916597445,0.71711767,0.18573014,-0.61682725,0.26602787,15.007838249206543,-0.6908830404281616,2.5196471214294434,1.8500118255615234,2.6807339191436768, 3.012303113937378
35,1916614112,0.71725607,0.1854383,-0.6165608,0.2664756,14.772852897644043,-0.6660306453704834,2.287544012069702,1.609086036682129,2.9697482585906982, 3.023381233215332
36,1916630779,0.7173479,0.18502483,-0.61636215,0.26697487,14.94857406616211,-0.8839955925941467,2.049546241760254,0.7918486595153809,2.7508487701416016, 3.9004106521606445
37,1916647446,0.7175089,0.18449059,-0.6161479,0.2674059,14.966739654541016,-0.566674530506134,2.580629825592041,0.6488017439842224,3.2082533836364746, 4.065049648284912
38,1916664113,0.71762794,0.18394013,-0.6159674,0.2678813,15.094600677490234,-0.7797464728355408,2.151405096054077,0.45128944516181946,2.9618852138519287, 4.42622709274292
39,1916680780,0.7177304,0.18349051,-0.6157192,0.26848543,14.959575653076172,-0.551030695438385,2.48907208442688,1.0014886856079102,3.249605178833008, 4.465811252593994
40,1916697447,0.71784836,0.18300633,-0.61546683,0.2690786,14.680954933166504,-0.8207452297210693,2.33370304107666,0.7867133021354675,3.381100654602051, 4.531277656555176
41,1916714114,0.71791315,0.18248196,-0.61526114,0.26973122,14.914579391479492,-1.2339972257614136,2.059957504272461,1.0329538583755493,3.0602118968963623, 5.18773078918457
42,1916730781,0.71803725,0.18209662,-0.6149759,0.27031097,14.920419692993164,-0.6316758990287781,2.5570061206817627,1.6840671300888062,3.345921754837036, 4.058159828186035
43,1916747448,0.718177,0.18180856,-0.6146525,0.2708687,14.732699394226074,-0.9737836122512817,2.2797718048095703,2.4042835235595703,3.366053342819214, 3.519537925720215
44,1916764115,0.7183119,0.18156837,-0.6143231,0.27141875,14.727093696594238,-1.0238232612609863,2.290799379348755,2.1876001358032227,3.309718370437622, 3.2000577449798584
45,1916780782,0.7184571,0.18128893,-0.6140427,0.27185604,14.721717834472656,-1.0122978687286377,2.43554949760437,1.7099361419677734,3.0225613117218018, 2.903987407684326
46,1916797449,0.71857,0.18107784,-0.61375594,0.27234542,14.802446365356445,-1.1118910312652588,2.365722179412842,2.021092176437378,2.8747634887695312, 2.8702428340911865
47,1916814116,0.71875584,0.18078427,-0.61344814,0.27274254,14.818885803222656,-0.7266131043434143,2.4202754497528076,1.0971009731292725,3.3334226608276367, 2.583956718444824
48,1916830783,0.7189247,0.18052693,-0.61314726,0.27314427,14.810776710510254,-0.8691665530204773,2.39390230178833,1.2592929601669312,3.167989730834961, 2.4931461811065674
49,1916847450,0.71915126,0.18022884,-0.6128452,0.2734225,14.767393112182617,-0.753835141658783,2.3721184730529785,1.0145511627197266,3.2992169857025146, 2.0492148399353027
50,1916864117,0.7193166,0.18010315,-0.6124801,0.27388805,14.749702453613281,-0.7245933413505554,2.3122706413269043,2.4388351440429688,3.294222593307495, 2.2127647399902344
51,1916880784,0.7195103,0.18000126,-0.6120321,0.27444726,14.656913757324219,-0.7423225045204163,2.2817721366882324,2.9550979137420654,3.905533790588379, 2.401376724243164
52,1916897451,0.71968234,0.17991324,-0.61157066,0.27508226,14.657755851745605,-0.9088956117630005,2.2447855472564697,3.782323122024536,3.9206063747406006, 2.8186838626861572
53,1916914118,0.7198529,0.17965406,-0.61117697,0.2756798,14.69547176361084,-0.7479317784309387,2.397132158279419,2.545729637145996,3.8672804832458496, 3.418571710586548
54,1916930785,0.7200283,0.17929505,-0.6108401,0.27620092,14.546588897705078,-0.7842508554458618,2.378476142883301,1.4578173160552979,3.7123115062713623, 3.4941043853759766
55,1916947452,0.7201251,0.1788631,-0.61060584,0.2767462,14.674237251281738,-1.1872633695602417,2.251640558242798,1.3638701438903809,3.0213959217071533, 4.248769760131836
56,1916964119,0.7202428,0.17847787,-0.6103588,0.2772335,14.722992897033691,-0.8075085878372192,2.6551716327667236,1.2438230514526367,3.0238542556762695, 3.683791399002075
57,1916980786,0.72038394,0.17793205,-0.6101805,0.27760932,14.70518970489502,-1.0435655117034912,2.290057897567749,0.17705419659614563,2.9159741401672363, 3.9195821285247803
58,1916997453,0.72052157,0.17734663,-0.61001617,0.2779879,14.705792427062988,-0.895952582359314,2.356229782104492,-0.06012580916285515,2.9166653156280518, 4.116389274597168
59,1917014120,0.72061914,0.17693327,-0.60982114,0.2784258,14.731842994689941,-0.8796277642250061,2.410250186920166,0.8612847328186035,2.669631004333496, 3.6742634773254395
60,1917030787,0.7207154,0.17660703,-0.6095922,0.27888465,14.618083000183105,-0.9745925664901733,2.3802995681762695,1.249048113822937,2.707204818725586, 3.336303949356079
61,1917047454,0.7207611,0.17630139,-0.60938066,0.27942163,14.557382583618164,-1.0286859273910522,2.3111815452575684,1.633110761642456,2.4691736698150635, 3.7391281127929688
62,1917064121,0.720809,0.17593437,-0.6091878,0.27994978,14.64738941192627,-0.9102708101272583,2.353914260864258,1.2322334051132202,2.494196891784668, 3.9647886753082275
63,1917080788,0.7208748,0.17543256,-0.6090167,0.28046677,14.679509162902832,-1.1452445983886719,2.4089748859405518,0.6385695338249207,2.6893017292022705, 4.504563808441162
64,1917097455,0.7209201,0.1749628,-0.6088399,0.28102767,14.66365909576416,-1.0684353113174438,2.434695243835449,0.7969968318939209,2.6412394046783447, 4.573884010314941
65,1917114122,0.72096217,0.17445938,-0.60870236,0.2815302,14.656523704528809,-1.1299432516098022,2.18513560295105,0.6003552675247192,2.400057315826416, 4.537450313568115
66,1917130789,0.72095776,0.17394914,-0.6086083,0.28206018,14.71575927734375,-1.2264399528503418,2.3571689128875732,0.5588883757591248,2.0479724407196045, 4.824453353881836
67,1917147456,0.72099304,0.17348102,-0.60847706,0.2825403,14.675315856933594,-1.028537392616272,2.450424909591675,0.19924764335155487,2.294635772705078, 4.198966026306152
68,1917164123,0.7210464,0.17306061,-0.60830367,0.28303507,14.685694694519043,-1.2048922777175903,2.1224379539489746,0.598357617855072,2.4982824325561523, 3.9981751441955566
69,1917180790,0.7211045,0.17256668,-0.6081452,0.2835291,14.674695014953613,-1.2328838109970093,2.360931634902954,0.4119482934474945,2.5696005821228027, 4.354793071746826
70,1917197457,0.721222,0.17197329,-0.607984,0.28393602,14.636509895324707,-1.0835283994674683,2.4167544841766357,-0.205849289894104,2.8900794982910156, 4.283462047576904
71,1917214124,0.72127324,0.17137837,-0.6078736,0.2844012,14.722023963928223,-1.3033902645111084,2.1449291706085205,-0.08995182067155838,2.4433047771453857, 4.750125885009766
72,1917230791,0.72135025,0.1707597,-0.60771525,0.28491607,14.760675430297852,-1.144391655921936,2.4281058311462402,-0.17818757891654968,2.9220571517944336, 4.9374823570251465
73,1917247458,0.72145206,0.17009573,-0.6075508,0.28540584,14.770135879516602,-1.1791276931762695,2.3689370155334473,-0.2669227719306946,3.087233304977417, 5.003281593322754
74,1917264125,0.72153425,0.16948329,-0.6073599,0.28596804,14.806790351867676,-1.148974061012268,2.4083759784698486,-0.30576440691947937,3.1923351287841797, 5.014333248138428
75,1917280792,0.72163105,0.16885377,-0.60719734,0.28644145,14.704670906066895,-1.27333402633667,2.3860535621643066,-0.20047059655189514,2.975574493408203, 4.787250518798828
76,1917297459,0.7217368,0.16832365,-0.60699,0.28692567,14.679737091064453,-1.253444790840149,2.2997446060180664,0.31691238284111023,3.063131809234619, 4.3359293937683105
77,1917314126,0.72182447,0.1678655,-0.60679024,0.28739566,14.608729362487793,-1.369786024093628,2.209895610809326,0.6501464247703552,2.7908177375793457, 4.016436576843262
78,1917330793,0.72191215,0.1673792,-0.6065928,0.2878759,14.653257369995117,-1.3675284385681152,2.2577548027038574,0.3038114607334137,2.8771708011627197, 4.133998870849609
79,1917347460,0.7220313,0.1668639,-0.6063777,0.28832904,14.747883796691895,-1.319671630859375,2.435434341430664,0.20148873329162598,3.1064939498901367, 4.07215690612793
80,1917364127,0.7221558,0.16645136,-0.6060964,0.2888465,14.711244583129883,-1.423370599746704,2.3020970821380615,0.8022730946540833,3.363581895828247, 3.811624765396118
81,1917380794,0.7222815,0.1660913,-0.6058008,0.28935906,14.822932243347168,-1.4181824922561646,2.309100866317749,1.0948084592819214,3.329414129257202, 3.5554590225219727
82,1917397461,0.722454,0.16570765,-0.605483,0.28981292,14.738268852233887,-1.3104870319366455,2.4573378562927246,0.689077615737915,3.6221795082092285, 3.2361321449279785
83,1917414128,0.7226459,0.16531649,-0.6051648,0.29022235,14.761781692504883,-1.4523552656173706,2.2387731075286865,0.540639340877533,3.658076524734497, 3.0313079357147217
84,1917430795,0.7228268,0.16507964,-0.6047949,0.29067758,14.73567008972168,-1.3464250564575195,2.557490825653076,1.5251660346984863,3.628852128982544, 2.560520887374878
85,1917447462,0.7230085,0.1649107,-0.60441196,0.29111817,14.714653968811035,-1.4187952280044556,2.244002342224121,1.9914324283599854,3.523404836654663, 2.2286059856414795
86,1917464129,0.7232308,0.1647446,-0.6040114,0.2914909,14.581351280212402,-1.2676187753677368,2.391993999481201,1.7077460289001465,3.702540159225464, 1.7782834768295288
87,1917480796,0.7234538,0.16450326,-0.6036181,0.2918881,14.512164115905762,-1.4936648607254028,2.3481814861297607,1.4115865230560303,3.8519647121429443, 2.220345973968506
88,1917497463,0.72362465,0.16426232,-0.603285,0.29228872,14.623985290527344,-1.5207552909851074,2.3296031951904297,1.4074883460998535,3.3367395401000977, 2.4173583984375
89,1917514130,0.7238268,0.1639445,-0.60297364,0.29260847,14.6472806930542,-1.3683652877807617,2.4060099124908447,0.5328273773193359,3.4346821308135986, 2.276975393295288
90,1917530797,0.7239995,0.16363877,-0.6026865,0.2929438,14.83149528503418,-1.3624190092086792,2.3466763496398926,0.9271733164787292,3.1495869159698486, 2.459068536758423
91,1917547464,0.7241922,0.16332957,-0.6023721,0.29328644,14.814138412475586,-1.2402735948562622,2.4360618591308594,0.7833580374717712,3.408109188079834, 2.396343231201172
92,1917564131,0.72435266,0.16314588,-0.60199946,0.29375765,14.650803565979004,-1.2863163948059082,2.3732826709747314,2.0688469409942627,3.4564406871795654, 2.513662815093994
93,1917580798,0.72457004,0.16280179,-0.60161936,0.29419065,14.622814178466797,-1.09140145778656,2.242924690246582,1.0841920375823975,4.005781650543213, 2.870370626449585
94,1917597465,0.7248094,0.16231552,-0.6012461,0.29463258,14.485129356384277,-1.4355806112289429,2.265345573425293,0.676565945148468,4.322470188140869, 3.542383909225464
95,1917614132,0.72501636,0.16192877,-0.60081536,0.29521424,14.543069839477539,-1.4425345659255981,2.3240933418273926,1.5086076259613037,4.479629993438721, 3.7329938411712646
96,1917630799,0.72528493,0.16149737,-0.6003982,0.29563898,14.593852996826172,-1.4595626592636108,2.3055474758148193,0.820470929145813,4.546773433685303, 3.091229200363159
97,1917647466,0.7255254,0.16118392,-0.59996754,0.29609388,14.603178024291992,-1.6189216375350952,2.4891507625579834,1.3508330583572388,4.3241095542907715, 2.7383244037628174
98,1917664133,0.72582126,0.16084914,-0.59954196,0.2964129,14.651928901672363,-1.516131043434143,2.4856488704681396,0.9831113815307617,4.369251251220703, 2.1298303604125977
99,1917680800,0.7261065,0.16063021,-0.5991238,0.29667827,14.614439010620117,-1.4599170684814453,2.493973731994629,1.128745198249817,4.021379470825195, 1.363818645477295
100,1917697467,0.72639626,0.16041227,-0.59871894,0.29690444,14.582525253295898,-1.5166963338851929,2.3166112899780273,0.9252651333808899,3.931081771850586, 1.1674076318740845
101,1917714134,0.7267157,0.16024081,-0.59830534,0.29704908,14.523064613342285,-1.3401747941970825,2.4298484325408936,0.8953111171722412,3.9034206867218018, 0.521224856376648
102,1917730801,0.7270115,0.16014475,-0.5978831,0.29722717,14.519750595092773,-1.3270304203033447,2.3619887828826904,1.2755062580108643,3.758593797683716, 0.3756295144557953
103,1917747468,0.72732013,0.1600509,-0.5974725,0.2973483,14.60765552520752,-1.3188761472702026,2.2895870208740234,1.1629383563995361,3.6690773963928223, 0.10903967916965485
104,1917764135,0.7276628,0.15997836,-0.5970266,0.29744434,14.620559692382812,-1.181166648864746,2.431427001953125,1.1193454265594482,3.93030047416687, -0.2296946793794632
105,1917780802,0.7280322,0.15996544,-0.59650123,0.29760155,14.575929641723633,-0.9969969987869263,2.4256722927093506,2.009476661682129,4.357444763183594, -0.25229793787002563
106,1917797469,0.7283447,0.15989082,-0.59603107,0.29781917,14.687566757202148,-1.217870831489563,2.2571747303009033,1.746421217918396,4.064088821411133, 0.44931721687316895
107,1917814136,0.7286506,0.15979092,-0.59558076,0.29802486,14.715264320373535,-0.9337632060050964,2.664681911468506,1.6136579513549805,3.9724466800689697, 0.5513454675674438
108,1917830803,0.7289898,0.15950678,-0.5951658,0.29817674,14.6771240234375,-1.1084606647491455,2.3177313804626465,0.6338311433792114,4.211733341217041, 1.0865997076034546
109,1917847470,0.7292913,0.15934813,-0.5947227,0.29840827,14.765766143798828,-1.0868775844573975,2.3994088172912598,1.6553936004638672,4.039347171783447, 1.0146406888961792
110,1917864137,0.7296438,0.15918931,-0.5942037,0.29866505,14.701419830322266,-0.9620586633682251,2.634575605392456,1.757716417312622,4.67506742477417, 0.9327312707901001
111,1917880804,0.7299858,0.15908255,-0.59364146,0.29900405,14.738174438476562,-1.1714529991149902,2.3142263889312744,2.485053062438965,4.829524517059326, 1.121407389640808
112,1917897471,0.73031586,0.15902054,-0.5930409,0.29942265,14.728097915649414,-0.9334201216697693,2.588649034500122,3.1408281326293945,4.973058700561523, 1.3277945518493652
113,1917914138,0.73064715,0.15891777,-0.592438,0.29986206,14.62161922454834,-0.9977712035179138,2.4733519554138184,2.922825336456299,5.1123270988464355, 1.5733562707901
114,1917930805,0.7309569,0.1587195,-0.5919041,0.3002662,14.682341575622559,-1.092252492904663,2.3796446323394775,2.0990443229675293,4.853305816650391, 1.887380599975586
115,1917947472,0.7312716,0.15840861,-0.5914285,0.30060118,14.76848316192627,-0.8953433036804199,2.659777879714966,1.3340953588485718,4.7150492668151855, 2.1123247146606445
116,1917964139,0.73156744,0.15814242,-0.59095997,0.30094287,14.656563758850098,-1.1202514171600342,2.5139482021331787,1.638822317123413,4.512657165527344, 2.031695604324341
117,1917980806,0.7318215,0.15800704,-0.5904398,0.30141655,14.715496063232422,-1.2688215970993042,2.4377031326293945,2.955456018447876,4.484789848327637, 2.1893415451049805
118,1917997473,0.73209596,0.15789527,-0.5899156,0.30183506,14.731011390686035,-1.0111726522445679,2.5586342811584473,2.837343215942383,4.486481189727783, 1.7696137428283691
119,1918014140,0.73237175,0.15783165,-0.58937836,0.30224887,14.65074634552002,-1.06928288936615,2.5559139251708984,3.180143356323242,4.444296360015869, 1.5665944814682007
120,1918030807,0.73262304,0.15775934,-0.5888751,0.30265734,14.776718139648438,-1.1511136293411255,2.3547158241271973,3.0559346675872803,4.191307544708252, 1.6619890928268433
121,1918047474,0.73286957,0.1577295,-0.5883551,0.3030878,14.687370300292969,-0.9802313446998596,2.604644536972046,3.432466983795166,4.191588878631592, 1.601568579673767
122,1918064141,0.73311865,0.15764631,-0.5878372,0.30353326,14.578088760375977,-1.0279704332351685,2.4590749740600586,3.0718016624450684,4.3370819091796875, 1.8509212732315063
123,1918080808,0.73337406,0.15749821,-0.5873685,0.30389997,14.562129974365234,-1.0338982343673706,2.37630295753479,2.5558979511260986,4.129273891448975, 1.8260897397994995
124,1918097475,0.73360306,0.15730661,-0.58697647,0.30420417,14.722677230834961,-1.0900371074676514,2.432812452316284,1.9201263189315796,3.6645946502685547, 1.8158700466156006
125,1918114142,0.7338709,0.15701842,-0.58661747,0.30439898,14.822413444519043,-0.7873285412788391,2.614520311355591,0.8466597199440002,3.7440707683563232, 1.5983155965805054
126,1918130809,0.7341334,0.15663196,-0.58631384,0.30455008,14.766926765441895,-0.9141834378242493,2.4933924674987793,-0.0721125677227974,3.6202597618103027, 1.8107478618621826
127,1918147476,0.7343931,0.15619777,-0.58601284,0.30472624,14.698843002319336,-0.9856458306312561,2.4507761001586914,-0.0887480080127716,3.704281806945801, 2.179314374923706
128,1918164143,0.73465025,0.15580116,-0.58569545,0.30491945,14.61673355102539,-0.9237743020057678,2.4449071884155273,0.17675964534282684,3.7228894233703613, 2.0947282314300537
129,1918180810,0.7348989,0.155411,-0.5853892,0.3051074,14.641319274902344,-0.9523115754127502,2.369798421859741,0.28232237696647644,3.5991156101226807, 2.1077394485473633
130,1918197477,0.7351306,0.15492259,-0.5851186,0.3053172,14.701871871948242,-1.0050965547561646,2.542285442352295,-0.10341127961874008,3.572261095046997, 2.714299440383911
131,1918214144,0.73536646,0.15442528,-0.5848506,0.3055144,14.836122512817383,-0.9804813861846924,2.4783084392547607,-0.3818725645542145,3.6092073917388916, 2.6304690837860107
132,1918230811,0.735618,0.1539091,-0.58457327,0.30570024,14.838201522827148,-1.007623553276062,2.587986469268799,-0.46312886476516724,3.7429826259613037, 2.626845121383667
133,1918247478,0.7358669,0.15342885,-0.5842966,0.30587095,14.754638671875,-1.0398225784301758,2.537257671356201,-0.23260174691677094,3.6228976249694824, 2.449387311935425
134,1918264145,0.73606455,0.15310621,-0.58400536,0.30611318,14.727093696594238,-1.0757194757461548,2.3980114459991455,0.781373143196106,3.262847423553467, 2.2254557609558105
135,1918280812,0.7363023,0.15279242,-0.5837157,0.30625084,14.644664764404297,-0.8638023734092712,2.5228521823883057,0.43291229009628296,3.281428813934326, 1.6031821966171265
136,1918297479,0.73650444,0.15254419,-0.58341694,0.30645764,14.622688293457031,-1.0036779642105103,2.3679888248443604,1.1236612796783447,3.1190569400787354, 1.7701386213302612
137,1918314146,0.73668927,0.15232657,-0.5831062,0.30671296,14.689125061035156,-0.9868409633636475,2.367962598800659,1.3123116493225098,3.1363589763641357, 1.8563638925552368
138,1918330813,0.73688906,0.15203817,-0.5828258,0.30690897,14.693706512451172,-0.8902758359909058,2.531136989593506,0.7878658771514893,3.113896369934082, 1.89211905002594
139,1918347480,0.7370494,0.15179226,-0.58255196,0.30716565,14.742050170898438,-1.1281254291534424,2.362109899520874,1.3074709177017212,2.8952152729034424, 2.1368613243103027
140,1918364147,0.7372146,0.1515088,-0.58229303,0.30739978,14.761022567749023,-0.9782942533493042,2.418093204498291,1.1179368495941162,2.883254051208496, 2.2211272716522217
141,1918380814,0.7374291,0.15117645,-0.58201224,0.30758065,14.72683048248291,-0.8959736227989197,2.5548176765441895,0.6599113345146179,3.244898796081543, 2.028590202331543
142,1918397481,0.7376375,0.15086079,-0.5817224,0.30778444,14.713000297546387,-0.9942021369934082,2.3548805713653564,0.5785077214241028,3.3066961765289307, 1.9971569776535034
143,1918414148,0.73784786,0.15054344,-0.5814277,0.30799216,14.68995475769043,-1.0639564990997314,2.4178965091705322,0.7992252111434937,3.32169246673584, 2.0867502689361572
144,1918430815,0.7380345,0.15030493,-0.58111644,0.30824906,14.611513137817383,-0.8183531165122986,2.500769853591919,1.3884069919586182,3.2141828536987305, 2.0363569259643555
145,1918447482,0.73823315,0.14998825,-0.58085996,0.30841073,14.752250671386719,-0.8132568001747131,2.207366466522217,0.516857922077179,3.0521950721740723, 1.9169121980667114
146,1918464149,0.7384198,0.14967391,-0.5805975,0.30861092,14.601958274841309,-0.8920238018035889,2.4516313076019287,0.5670075416564941,3.1062119007110596, 2.0849313735961914
147,1918480816,0.7386358,0.1493312,-0.580313,0.30879515,14.430813789367676,-0.8982304930686951,2.4152450561523438,0.4268549084663391,3.3777713775634766, 2.0569496154785156
148,1918497483,0.73881364,0.14899708,-0.58003867,0.309046,14.432136535644531,-1.027890920639038,2.219975709915161,0.7734586596488953,3.228435754776001, 2.4652798175811768
149,1918514150,0.73899674,0.14859635,-0.57978153,0.3092837,14.462886810302734,-0.8337745666503906,2.4181911945343018,0.2056763619184494,3.3254952430725098, 2.629380464553833
150,1918530817,0.7391535,0.14821929,-0.5795379,0.3095465,14.658392906188965,-1.169986605644226,2.347654104232788,0.5767659544944763,3.105802297592163, 2.791201591491699
151,1918547484,0.73933774,0.14793327,-0.5792608,0.30976203,14.63941478729248,-0.8370650410652161,2.501288890838623,0.9344346523284912,3.140815258026123, 2.1068177223205566
152,1918564151,0.73952794,0.14764959,-0.5789566,0.3100118,14.64256477355957,-1.062036395072937,2.2929327487945557,1.058066964149475,3.34373140335083, 2.2094345092773438
153,1918580818,0.73970604,0.1474018,-0.5786334,0.3103084,14.695390701293945,-0.9211061000823975,2.258059501647949,0.8342888355255127,3.4772887229919434, 2.0879666805267334
154,1918597485,0.7398739,0.14717788,-0.578325,0.31058922,14.55837631225586,-0.8739193081855774,2.4231865406036377,0.8716259598731995,3.296815872192383, 1.9498566389083862
155,1918614152,0.74005604,0.14688024,-0.57801276,0.31087717,14.53803825378418,-1.0627140998840332,2.2125723361968994,0.518253743648529,3.535980224609375, 2.2456893920898438
156,1918630819,0.74022174,0.14655946,-0.5777239,0.31117082,14.50626277923584,-0.8630988001823425,2.280578136444092,0.390997052192688,3.41005539894104, 2.4230575561523438
157,1918647486,0.7404166,0.14612064,-0.5774612,0.31140116,14.49731159210205,-0.9261557459831238,2.3996753692626953,0.08199266344308853,3.471116542816162, 2.7563042640686035
158,1918664153,0.7405492,0.14576992,-0.5771942,0.311745,14.662829399108887,-1.0359269380569458,2.2026100158691406,0.4281482696533203,3.282248020172119, 2.895265817642212
159,1918680820,0.74064845,0.14550634,-0.5769628,0.31206053,14.641255378723145,-0.7883263230323792,2.4301257133483887,0.7177127003669739,2.759634256362915, 2.5130608081817627
160,1918697487,0.74075544,0.14523861,-0.5767365,0.3123497,14.518418312072754,-1.028868556022644,2.2465755939483643,0.571925163269043,2.748863697052002, 2.3885443210601807
161,1918714154,0.74082875,0.14505121,-0.5765008,0.3126979,14.583483695983887,-1.0801749229431152,2.250427484512329,1.2696150541305542,2.555436849594116, 2.4342501163482666
162,1918730821,0.740936,0.14485423,-0.57626295,0.31297356,14.578163146972656,-1.0252739191055298,2.332526683807373,0.9046213030815125,2.654660224914551, 2.0283398628234863
163,1918747488,0.74101377,0.1448158,-0.5760201,0.31325376,14.799933433532715,-1.0675849914550781,2.1812660694122314,1.7707016468048096,2.232511520385742, 1.4836987257003784
164,1918764155,0.74120265,0.14466888,-0.57577205,0.31333113,14.722156524658203,-0.8855063915252686,2.365415334701538,1.0117594003677368,2.6114134788513184, 0.8899964690208435
165,1918780822,0.741368,0.14458239,-0.5755055,0.31346953,14.5824613571167,-1.09954833984375,2.248795509338379,0.9328721761703491,2.6780319213867188, 0.7496132850646973
166,1918797489,0.7414999,0.14455971,-0.5752503,0.313636,14.63253116607666,-1.063312292098999,2.1442596912384033,1.378507375717163,2.385573148727417, 0.7256270051002502
167,1918814156,0.7416114,0.14460354,-0.57499063,0.31382865,14.755252838134766,-1.0590481758117676,2.20446515083313,1.8518431186676025,2.2223308086395264, 0.6380443572998047
168,1918830823,0.74175805,0.14455995,-0.5747193,0.31399882,14.928330421447754,-0.8799329996109009,2.209096908569336,1.3078805208206177,2.5974156856536865, 0.7853814363479614
169,1918847490,0.7419484,0.14453357,-0.5744013,0.31414333,14.902433395385742,-0.759994626045227,2.34605073928833,1.3507047891616821,2.95695424079895, 0.45392748713493347
170,1918864157,0.74212515,0.1444377,-0.57412016,0.31428388,14.887804985046387,-0.9429535269737244,2.1925742626190186,0.9128173589706421,2.871561288833618, 0.783921480178833
171,1918880824,0.7422621,0.14433312,-0.57384723,0.3145067,14.998056411743164,-0.9025405645370483,2.281825304031372,1.2146117687225342,2.7854771614074707, 1.3384877443313599
172,1918897491,0.74235713,0.14426167,-0.57360315,0.31476033,15.084378242492676,-0.8733235001564026,2.294618844985962,1.4837883710861206,2.4437010288238525, 1.4915106296539307
173,1918914158,0.7424551,0.14413665,-0.57333887,0.31506756,15.086143493652344,-0.8644680380821228,2.2907698154449463,1.4620434045791626,2.740078926086426, 1.9586739540100098
174,1918930825,0.74257255,0.14387316,-0.5730739,0.3153935,15.01842975616455,-0.9001851081848145,2.133744955062866,0.8105970621109009,3.151392698287964, 2.565988779067993
175,1918947492,0.7426775,0.14356163,-0.57284963,0.3156956,14.900712966918945,-0.884277880191803,2.1697311401367188,0.39546650648117065,2.9915573596954346, 2.708242654800415
176,1918964159,0.7427411,0.14329258,-0.5726496,0.31603083,15.012974739074707,-0.9837827682495117,2.099449396133423,0.7306087613105774,2.659527063369751, 2.831977367401123
177,1918980826,0.7427746,0.14302175,-0.57250464,0.31633717,15.031635284423828,-0.8139247894287109,2.2136542797088623,0.5189965963363647,2.2532711029052734, 2.8175570964813232
178,1918997493,0.742829,0.14268318,-0.5723706,0.31660497,15.060380935668945,-0.9924317598342896,2.141322374343872,-0.023922262713313103,2.404309034347534, 2.8635189533233643
179,1919014160,0.7429014,0.14224339,-0.57229555,0.3167687,15.180845260620117,-1.019853949546814,2.205087184906006,-1.0957368612289429,2.309234380722046, 2.7565603256225586
180,1919030827,0.7429906,0.14184795,-0.57222915,0.31685644,15.06721305847168,-0.9191079139709473,2.309002161026001,-1.2031437158584595,2.17352557182312, 2.1711435317993164
181,1919047494,0.74303174,0.14171669,-0.5721487,0.31696424,14.921164512634277,-0.9587624073028564,2.1817822456359863,0.3021594285964966,1.5046885013580322, 1.3301891088485718
182,1919064161,0.7430815,0.1415816,-0.572029,0.3171236,14.707988739013672,-1.1949031352996826,2.0901803970336914,0.5624485015869141,1.800553798675537, 1.552891492843628
183,1919080828,0.7430285,0.14156364,-0.5719455,0.31740618,14.880221366882324,-1.2459497451782227,2.0769057273864746,1.668789029121399,1.0780448913574219, 1.9752448797225952
184,1919097495,0.742927,0.1415802,-0.5718681,0.31777588,15.123952865600586,-1.027202844619751,2.359605550765991,2.223560094833374,0.8674061298370361, 2.3902859687805176
185,1919114162,0.74278724,0.14175089,-0.5718061,0.318138,15.33602523803711,-0.8316321969032288,2.2615180015563965,2.9848718643188477,0.2914276719093323, 1.844120740890503
186,1919130829,0.74266255,0.14191529,-0.57176834,0.3184235,15.385909080505371,-0.8717809915542603,2.1202752590179443,2.582355499267578,0.16706524789333344, 1.4729416370391846
187,1919147496,0.74260676,0.14198677,-0.57175887,0.3185386,15.096415519714355,-0.7872066497802734,2.1651978492736816,1.3086488246917725,0.33557116985321045, 0.8487215638160706
188,1919164163,0.7425893,0.1420172,-0.5717194,0.31863663,14.910574913024902,-0.8710612654685974,2.059706211090088,1.0590530633926392,0.7148056030273438, 0.8143877983093262
189,1919180830,0.74258476,0.14203966,-0.5716328,0.3187927,14.704984664916992,-0.7671488523483276,1.894702672958374,1.3369635343551636,1.0838204622268677, 1.0700665712356567
190,1919197497,0.74262595,0.14211008,-0.5714723,0.31895262,14.673428535461426,-0.6199051737785339,2.0859408378601074,1.7139825820922852,1.546168327331543, 0.7329266667366028
191,1919214164,0.742661,0.14210184,-0.57135266,0.31908917,14.899033546447754,-0.8332237005233765,1.8411047458648682,1.1347771883010864,1.4647456407546997, 0.9834316968917847
192,1919230831,0.74268967,0.14207909,-0.5712533,0.3192108,14.90433406829834,-0.6346856951713562,2.1958866119384766,0.9645422697067261,1.3642797470092773, 1.0017063617706299
193,1919247498,0.7427088,0.14196526,-0.57117164,0.31936255,14.912284851074219,-0.7190006375312805,2.0355842113494873,0.5859866142272949,1.4689843654632568, 1.5598454475402832
194,1919264165,0.74269867,0.14185706,-0.57109296,0.31957474,14.779415130615234,-0.6781123876571655,1.9985830783843994,0.8735914826393127,1.3932474851608276, 1.9202033281326294
195,1919280832,0.7426782,0.14178333,-0.57098734,0.31984383,14.576956748962402,-0.6807669401168823,2.1119887828826904,1.341305136680603,1.4785634279251099, 2.0787715911865234
196,1919297499,0.7426013,0.14171857,-0.5708881,0.32022822,14.403450012207031,-0.8818255662918091,1.9485373497009277,1.8799402713775635,1.3232353925704956, 2.769110918045044
197,1919314166,0.7425025,0.14163208,-0.57083744,0.32058582,14.37785816192627,-0.8109839558601379,1.8383108377456665,1.579246997833252,1.01957106590271, 2.8156745433807373
198,1919330833,0.7423783,0.14152277,-0.5708928,0.32082292,14.502876281738281,-0.8005370497703552,1.9442806243896484,0.7814626097679138,0.3233667314052582, 2.4537413120269775
199,1919347500,0.74225163,0.14147936,-0.5709852,0.3209706,14.521689414978027,-0.7675669193267822,2.1943137645721436,0.6877073049545288,-0.09671354293823242, 1.7856723070144653
200,1919364167,0.7421294,0.14144105,-0.5711422,0.32099095,14.384868621826172,-0.9088114500045776,2.1053659915924072,0.06609997898340225,-0.5379819869995117, 1.1763721704483032
201,1919380834,0.7419506,0.1415383,-0.5713172,0.32104984,14.133867263793945,-0.8161801099777222,2.066406011581421,0.9245607852935791,-1.1059690713882446, 0.9871325492858887
202,1919397501,0.7417287,0.14168371,-0.5715004,0.32117248,13.892180442810059,-0.9645583033561707,1.7959493398666382,1.4439480304718018,-1.3532086610794067, 1.2317724227905273
203,1919414168,0.7414574,0.14188103,-0.57171774,0.32132453,13.740572929382324,-1.0261338949203491,1.8867268562316895,1.7984917163848877,-1.7958085536956787, 1.3222875595092773
204,1919430835,0.74109066,0.14226876,-0.57188576,0.32170036,13.795415878295898,-1.1201756000518799,1.9130752086639404,3.852451801300049,-2.1111397743225098, 1.877814531326294
205,1919447502,0.74070066,0.14268403,-0.5720623,0.32210013,14.071511268615723,-0.8523969650268555,1.875471591949463,4.092813968658447,-2.2722818851470947, 1.9505671262741089
206,1919464169,0.7403634,0.14308654,-0.5722509,0.32236215,14.082470893859863,-0.4126006066799164,2.0101561546325684,3.408198595046997,-2.220057249069214, 1.20193350315094
207,1919480836,0.74008507,0.14332676,-0.57251036,0.3224337,13.919658660888672,-0.547673225402832,1.8174835443496704,1.6141700744628906,-2.165208101272583, 0.8273735046386719
208,1919497503,0.7398065,0.14340113,-0.5728547,0.32242832,13.741984367370605,-0.9271772503852844,2.0039451122283936,0.277788907289505,-2.2915937900543213, 1.1866682767868042
209,1919514170,0.73943734,0.14321235,-0.5733298,0.32251456,13.858154296875,-1.3807560205459595,2.2760376930236816,-0.8997101187705994,-2.630526304244995, 3.0236878395080566
210,1919530837,0.7392598,0.14183839,-0.57417226,0.3220297,13.940662384033203,-1.2536451816558838,2.413590669631958,-10.17634105682373,-1.6769412755966187, 4.723208427429199
211,1919547504,0.73947996,0.13900016,-0.5752369,0.32085937,13.861018180847168,-1.8521379232406616,2.362924098968506,-21.20358657836914,1.3290003538131714, 6.353400707244873
212,1919564171,0.73976856,0.13567828,-0.5762714,0.31975806,13.458064079284668,-1.538025975227356,2.258472204208374,-23.382843017578125,2.87624192237854, 8.421621322631836
213,1919580838,0.74021655,0.1318572,-0.57733303,0.31840244,13.442427635192871,-1.1374884843826294,2.1229519844055176,-27.13443374633789,4.218020915985107, 8.772932052612305
214,1919597505,0.7407121,0.12715706,-0.5787615,0.31656283,13.636381149291992,-1.743632197380066,2.506662607192993,-34.3758659362793,4.015327453613281, 10.031176567077637
215,1919614172,0.74106795,0.12156132,-0.580732,0.3143111,14.0747709274292,-1.7217493057250977,2.450976848602295,-41.6314697265625,2.270613193511963, 12.266304969787598
216,1919630839,0.741608,0.11597832,-0.5826274,0.31162772,14.393670082092285,-1.3854172229766846,2.438354969024658,-43.279335021972656,2.9880170822143555, 9.553839683532715
217,1919647506,0.74272645,0.11020664,-0.58427113,0.30795977,13.760049819946289,-1.8622348308563232,2.2916159629821777,-48.10869598388672,6.198894023895264, 3.8595521450042725
218,1919664173,0.7439029,0.10373951,-0.58584195,0.30436116,12.89406967163086,-2.563260555267334,2.4328954219818115,-51.26958465576172,8.319692611694336, 6.827444076538086
219,1919680840,0.7451979,0.095585294,-0.587624,0.3004022,12.48220157623291,-2.9522006511688232,2.494467258453369,-61.87135696411133,10.972453117370605, 11.66365909576416
220,1919697507,0.746593,0.08696188,-0.5886614,0.2975137,11.866665840148926,-2.7710983753204346,1.8754913806915283,-58.47072982788086,16.8458194732666, 18.32319450378418
221,1919714174,0.7479932,0.07663616,-0.58984303,0.2944799,11.023374557495117,-1.9965012073516846,1.4490612745285034,-68.08731842041016,19.513927459716797, 24.525279998779297
222,1919730841,0.7493252,0.064996734,-0.59116715,0.29121917,10.48980712890625,-1.0580915212631226,0.7091631293296814,-76.01216888427734,21.042312622070312, 28.900405883789062
223,1919747508,0.7503812,0.05298279,-0.5927087,0.28778014,9.881348609924316,-0.32319337129592896,-0.04147877171635628,-78.9759750366211,19.4818115234375, 30.17806053161621
224,1919764175,0.75079584,0.041851945,-0.5944855,0.28485325,9.890690803527832,0.38742974400520325,-0.9954660534858704,-72.56268310546875,14.116520881652832, 30.614748001098633
225,1919780842,0.7500995,0.033854634,-0.5962516,0.2840577,10.156996726989746,0.711783766746521,-3.0420069694519043,-47.330501556396484,4.150361061096191, 31.034866333007812
226,1919797509,0.7476517,0.030166686,-0.5982247,0.28676575,10.274718284606934,0.13775025308132172,-4.7974324226379395,-10.722721099853516,-11.607797622680664, 34.96310806274414
227,1919814176,0.7432404,0.03229999,-0.5997091,0.2947872,9.824352264404297,-1.3580703735351562,-3.3909265995025635,42.46226501464844,-27.420089721679688, 42.138427734375
228,1919830843,0.73726404,0.039484136,-0.6005352,0.30698574,9.508363723754883,-1.2668514251708984,-1.9302784204483032,87.21831512451172,-39.73043441772461, 45.67129135131836
229,1919847510,0.73036844,0.047070272,-0.60187155,0.31952646,9.277372360229492,-0.4889301359653473,-0.7546010613441467,89.86882781982422,-46.817291259765625, 47.80677795410156
230,1919864177,0.7226786,0.054066543,-0.60401356,0.33163276,9.505669593811035,-0.9019359946250916,-0.7009640336036682,83.609619140625,-52.97493362426758, 50.07331466674805
231,1919880844,0.714446,0.061791264,-0.6060846,0.34410822,9.812211036682129,-0.8894436955451965,0.17590907216072083,89.1428451538086,-56.38189697265625, 50.09022521972656
232,1919897511,0.7061098,0.069395505,-0.6079598,0.35633993,9.904434204101562,-0.8558695912361145,0.850387454032898,88.05024719238281,-55.67073059082031, 49.557830810546875
233,1919914178,0.6979779,0.07704414,-0.60943156,0.3680821,9.950580596923828,-1.1427226066589355,1.6018829345703125,87.11172485351562,-53.215423583984375, 46.30910873413086
234,1919930845,0.6904354,0.08381035,-0.61076766,0.3784678,10.835708618164062,-2.2305312156677246,2.0843045711517334,77.21880340576172,-48.61088562011719, 41.938316345214844
235,1919947512,0.68371594,0.09491083,-0.6094607,0.38997737,11.731643676757812,1.4558056592941284,3.3523855209350586,108.91300201416016,-43.27214050292969, 25.397165298461914
236,1919964179,0.68006504,0.09758116,-0.6115613,0.39240572,12.433547973632812,-1.1530615091323853,5.700589656829834,20.046964645385742,-29.807878494262695, 12.121841430664062
237,1919980846,0.67695016,0.10484876,-0.6104272,0.3976479,11.980673789978027,-0.44634079933166504,5.420026779174805,61.69482421875,-23.05073356628418, 2.3740711212158203
238,1919997513,0.67518586,0.11062027,-0.60921943,0.40092286,11.989931106567383,-2.2034201622009277,5.479999542236328,45.65530776977539,-14.459087371826172, -4.196238994598389
239,1920014180,0.673129,0.115865506,-0.6082175,0.40440607,11.818964004516602,-6.733757495880127,1.4268913269042969,43.70461654663086,-15.118779182434082, -0.05248081311583519
240,1920030847,0.67081517,0.122836396,-0.60658187,0.40862778,10.99850082397461,-4.080020427703857,2.156921148300171,56.7725715637207,-17.454837799072266, -3.7456865310668945
241,1920047514,0.6697406,0.12601803,-0.6066064,0.40938455,10.471174240112305,-2.880449056625366,3.4979190826416016,19.137378692626953,-12.23375129699707, -6.0418171882629395
242,1920064181,0.6694567,0.12541243,-0.60811013,0.4078011,10.044944763183594,-3.0838356018066406,1.1415678262710571,-12.924960136413574,-7.164466381072998, -1.973716378211975
243,1920080848,0.66979885,0.123683505,-0.6100117,0.4049172,9.14586353302002,-1.6805716753005981,-0.49966907501220703,-25.181718826293945,-4.343449592590332, -4.687723636627197
244,1920097515,0.6705653,0.121662594,-0.61209667,0.40109596,8.344377517700195,-1.2519041299819946,-0.8672813177108765,-31.318330764770508,-3.3515625, -8.787455558776855
245,1920114182,0.67112994,0.12150625,-0.61349285,0.39805445,8.12845516204834,-1.4502696990966797,-1.6052335500717163,-17.362022399902344,-5.471676349639893, -13.037847518920898
246,1920130849,0.6711742,0.123831235,-0.61408246,0.3963508,8.674577713012695,-0.9331367611885071,-1.738900065422058,2.3890085220336914,-9.555880546569824, -16.56970977783203
247,1920147516,0.67071396,0.12769768,-0.61389697,0.39619032,8.824389457702637,-0.7454689145088196,-0.1868741363286972,18.573060989379883,-10.927236557006836, -15.216348648071289
248,1920164183,0.66982937,0.13246602,-0.6130379,0.39744952,8.675189971923828,-1.1497126817703247,-0.37330538034439087,30.930648803710938,-10.795260429382324, -11.883984565734863
249,1920180850,0.6686685,0.13796377,-0.611776,0.39947295,8.685013771057129,-1.3998955488204956,-0.3401636481285095,38.86652374267578,-11.369215965270996, -11.039092063903809
250,1920197517,0.66763437,0.14335145,-0.6103971,0.40141028,8.770620346069336,-1.836743712425232,0.29611146450042725,38.20329284667969,-10.045706748962402, -11.428352355957031
251,1920214184,0.66661835,0.14886719,-0.60885,0.40343562,8.441985130310059,-2.2035021781921387,0.2466089427471161,39.6083869934082,-9.45017147064209, -11.78641128540039
252,1920230851,0.66549695,0.15420106,-0.60752016,0.40528405,7.873459815979004,-2.145042657852173,-0.06738205254077911,37.542938232421875,-10.548498153686523, -11.344033241271973
253,1920247518,0.66411376,0.1590397,-0.6063487,0.40743166,7.970701217651367,-2.3863370418548584,0.5615758299827576,36.36901092529297,-10.650238990783691, -7.034282684326172
254,1920264185,0.6620089,0.16434865,-0.6051546,0.4105143,7.967353343963623,-1.714217185974121,-1.1522656679153442,43.27081298828125,-13.84791374206543, -2.7602109909057617
255,1920280852,0.65896463,0.17092036,-0.60419995,0.41411877,8.035387992858887,-0.676173210144043,-2.8032188415527344,51.58941650390625,-21.767154693603516, -2.7304847240448
256,1920297519,0.6553139,0.17810938,-0.60340816,0.41801843,7.800952911376953,-1.596124529838562,-1.4416331052780151,55.88323211669922,-26.33265495300293, -2.023993730545044
257,1920314186,0.64976174,0.18682884,-0.60229135,0.42444092,7.295770168304443,-3.880620002746582,-1.2792248725891113,76.525634765625,-34.00837326049805, 8.040788650512695
258,1920330853,0.6434077,0.1949703,-0.6020332,0.4307774,7.311182975769043,-2.8230419158935547,-1.1787019968032837,72.14131927490234,-39.54111862182617, 13.397313117980957
259,1920347520,0.6384129,0.19759871,-0.60517746,0.43260175,7.207150459289551,-1.957313895225525,-0.06625264883041382,17.19944190979004,-38.64679718017578, 16.7402286529541
260,1920364187,0.63468915,0.1964783,-0.6102524,0.43146044,6.274271011352539,-1.6253771781921387,0.4339398145675659,-19.056203842163086,-34.71228790283203, 18.15376853942871
261,1920380854,0.6320762,0.19301483,-0.6161524,0.42846373,5.132364273071289,-1.344230055809021,1.699244737625122,-41.013633728027344,-29.234668731689453, 17.71053123474121
262,1920397521,0.63054436,0.18914257,-0.621368,0.42490098,4.125147342681885,-0.410444438457489,2.763906478881836,-44.61920166015625,-21.300662994384766, 12.894813537597656
263,1920414188,0.6305639,0.18596907,-0.6241574,0.42217556,4.7003936767578125,-0.4947407841682434,4.107467174530029,-32.971405029296875,-5.2172393798828125, 5.876736164093018
264,1920430855,0.6315944,0.1849516,-0.62329215,0.42236042,6.514813423156738,-0.05890711769461632,4.630886077880859,-1.8626716136932373,12.283158302307129, 1.6563291549682617
265,1920447522,0.6320113,0.18314347,-0.62387264,0.42166716,8.837756156921387,-4.321483612060547,-4.042376518249512,-12.525578498840332,4.408915042877197, 4.903855800628662
266,1920464189,0.6307629,0.18578807,-0.6233471,0.4231543,8.816848754882812,1.3152118921279907,-1.4041804075241089,21.53220558166504,-7.930985927581787, -1.3506752252578735
267,1920480856,0.6305503,0.18684383,-0.62427044,0.4216423,7.547734260559082,1.609688639640808,1.8570237159729004,-3.749573230743408,-8.917400360107422, -8.588340759277344
268,1920497523,0.63016886,0.18834661,-0.62517184,0.42020613,6.616392135620117,-2.0315845012664795,0.0571846179664135,-1.236799716949463,-10.798514366149902, -9.600582122802734
269,1920514190,0.629655,0.19009595,-0.62585545,0.41916966,5.353751182556152,-1.9611525535583496,-0.06750159710645676,2.3530850410461426,-10.611656188964844, -8.848015785217285
270,1920530857,0.62929714,0.19175126,-0.626306,0.41827935,4.8525710105896,-1.6638151407241821,-0.5881505012512207,3.0462288856506348,-8.4644136428833, -8.595678329467773
271,1920547524,0.629023,0.19350427,-0.626405,0.41773564,4.657177925109863,-1.4256186485290527,-1.0320050716400146,5.869325637817383,-6.385952949523926, -8.245423316955566
272,1920564191,0.6288381,0.19518776,-0.62632275,0.41735405,5.206679344177246,-1.0107232332229614,-0.6720974445343018,6.677521705627441,-4.767396450042725, -7.760523319244385
273,1920580858,0.62875706,0.19666792,-0.62632895,0.41677153,6.139431476593018,-0.7186974883079529,0.06509312242269516,4.543970108032227,-4.363138198852539, -7.9298095703125
274,1920597525,0.62859565,0.19803867,-0.62653506,0.4160556,6.093405246734619,-0.6531737446784973,0.2866043746471405,3.0279407501220703,-5.437424182891846, -7.511234283447266
275,1920614192,0.6282762,0.19930129,-0.6268922,0.41539636,5.421091556549072,-0.9471482038497925,-0.03823584318161011,2.5819592475891113,-6.3891282081604, -6.11786413192749
276,1920630859,0.62777895,0.20043045,-0.62740314,0.41483337,4.833251953125,-1.292311429977417,-0.16903828084468842,2.223407030105591,-7.302988529205322, -4.401939868927002
277,1920647526,0.6270979,0.20156123,-0.62791675,0.4145382,4.475690841674805,-1.4055496454238892,-0.35475459694862366,3.6341934204101562,-7.735805988311768, -2.737563133239746
278,1920664193,0.6262403,0.20303527,-0.62822855,0.41464317,4.523594379425049,-1.0769447088241577,-0.5681378245353699,7.6668009757995605,-8.039177894592285, -2.2913005352020264
279,1920680860,0.62540746,0.20456073,-0.6285249,0.41470116,4.844672679901123,-0.6098409295082092,-0.4184929430484772,7.699597358703613,-8.056375503540039, -2.8153491020202637
280,1920697527,0.6246902,0.20591775,-0.62888217,0.41456914,4.769753456115723,-0.6972674131393433,-0.18780390918254852,5.8192138671875,-7.589262962341309, -3.13379168510437
281,1920714194,0.62396246,0.20718306,-0.62927794,0.41443408,4.668607234954834,-1.0628595352172852,-0.23651133477687836,5.317242622375488,-7.535719394683838, -2.6551666259765625
282,1920730861,0.6231283,0.20841071,-0.62968415,0.4144565,4.1723222732543945,-0.8354713916778564,-0.17469553649425507,5.960813045501709,-7.699666500091553, -1.503158450126648
283,1920747528,0.622219,0.20962457,-0.6300563,0.4146448,4.048427581787109,-0.8561428189277649,-0.22279265522956848,6.825498104095459,-7.597112655639648, -0.5688326358795166
284,1920764195,0.62125486,0.21089797,-0.6303185,0.4150461,4.3769426345825195,-0.7072818875312805,-0.3487061858177185,8.396890640258789,-7.220569610595703, 0.07945702970027924
285,1920780862,0.62034506,0.21207693,-0.63055325,0.41544944,4.3315887451171875,-0.5220462679862976,-0.5923992395401001,8.003503799438477,-6.581249237060547, 0.3091389834880829
286,1920797529,0.61950564,0.21304409,-0.63088065,0.41570997,3.970698833465576,-0.5706990957260132,-0.34404855966567993,6.119034767150879,-6.2516632080078125, 0.5673917531967163
287,1920814196,0.6186708,0.21379842,-0.6312524,0.4160013,3.759378433227539,-1.04966402053833,-0.2595977187156677,5.2142534255981445,-5.754969596862793, 1.6818773746490479
288,1920830863,0.6178648,0.21456657,-0.63150966,0.41641295,3.9381208419799805,-0.8937795162200928,-0.4155047535896301,6.081985950469971,-4.998242378234863, 1.8696569204330444
289,1920847530,0.61711174,0.21526934,-0.6317672,0.4167762,3.898862361907959,-0.7650421857833862,-0.2767677307128906,5.519429683685303,-4.638115406036377, 1.7930110692977905
290,1920864197,0.61642027,0.2158503,-0.63202655,0.41710612,3.6406259536743164,-0.4510495066642761,-0.29295897483825684,4.76375150680542,-4.069333076477051, 2.0086312294006348
291,1920880864,0.6158804,0.21615581,-0.6323246,0.41729337,3.828458309173584,-0.323714017868042,-0.5409952998161316,2.6404201984405518,-2.9877216815948486, 2.236546039581299
292,1920897531,0.6155394,0.21615104,-0.63263917,0.41732216,4.017983436584473,-0.5005761384963989,-0.301310658454895,0.29826632142066956,-1.5180774927139282, 2.390772581100464
293,1920914198,0.6153635,0.21597265,-0.63291985,0.41724834,3.4350597858428955,-0.589754045009613,-0.4389483332633972,-1.030808687210083,-0.2989514470100403, 2.2042994499206543
294,1920930865,0.6152451,0.21571913,-0.63312423,0.41724393,3.3464090824127197,-0.6359508633613586,-0.2937208414077759,-0.9097375869750977,0.6078597903251648, 2.553234100341797
295,1920947532,0.6153489,0.21510567,-0.6332746,0.41717973,3.389481544494629,-0.7354004979133606,-0.17460176348686218,-2.8656387329101562,2.755779504776001, 3.1539673805236816
296,1920964199,0.61575574,0.21410556,-0.63332677,0.41701448,3.34572172164917,-0.5135785341262817,-0.01755870133638382,-5.10780143737793,5.454539775848389, 3.396033763885498
297,1920980866,0.6164488,0.21285139,-0.63319665,0.4168301,3.1494951248168945,-0.6635617017745972,-0.16104067862033844,-6.16771936416626,8.169116020202637, 3.3445138931274414
298,1920997533,0.61734563,0.21152453,-0.63286036,0.41668898,3.2528178691864014,-0.8468644618988037,-0.1275792121887207,-5.99459171295166,10.204994201660156, 2.9615020751953125
299,1921014200,0.61846954,0.21015736,-0.632359,0.41647506,3.018328905105591,-0.7340577840805054,-0.020780520513653755,-6.340428352355957,11.907256126403809, 1.933497667312622
300,1921030867,0.61990833,0.2084342,-0.63178104,0.41607893,3.051213026046753,-0.7553549408912659,0.2870274782180786,-8.887680053710938,14.350624084472656, 1.690164566040039
301,1921047534,0.6215691,0.20620964,-0.6312002,0.4155909,3.1371500492095947,-0.6952688097953796,0.423464298248291,-11.740174293518066,16.597036361694336, 2.8291893005371094
302,1921064201,0.6236921,0.20317228,-0.63057256,0.41485843,3.1954586505889893,-0.2280782014131546,0.8335089683532715,-16.810794830322266,20.735675811767578, 3.9159157276153564
303,1921080868,0.62634176,0.19950621,-0.62985104,0.41374055,3.15566349029541,-0.6403297185897827,-0.07030343264341354,-21.667247772216797,24.608829498291016, 3.3677561283111572
304,1921097535,0.629064,0.19538057,-0.6293433,0.4123494,2.640469789505005,-0.6843261122703552,0.03249285742640495,-25.540462493896484,24.904720306396484, 4.259047031402588
305,1921114202,0.6315869,0.19139004,-0.6286941,0.4113535,3.016906499862671,-0.7896643280982971,0.05132194980978966,-22.586240768432617,24.765039443969727, 5.739016056060791
306,1921130869,0.63393956,0.18760471,-0.6277206,0.4109651,3.8419318199157715,-0.21340312063694,2.2747514247894287,-17.93489646911621,25.62103271484375, 7.523033618927002
307,1921147536,0.63613206,0.18444656,-0.6263656,0.41107383,5.744752407073975,0.08542679250240326,0.42576923966407776,-11.803107261657715,25.334495544433594, 6.95559024810791
308,1921164203,0.63932806,0.18009786,-0.6253557,0.40957892,5.981224536895752,2.257373571395874,1.1033624410629272,-26.179574966430664,29.451967239379883, 2.716939687728882
309,1921180870,0.643901,0.17534865,-0.6242673,0.40612164,8.963761329650879,0.8907022476196289,1.105072021484375,-37.90068435668945,34.361507415771484, -8.027518272399902
310,1921197537,0.6497097,0.1723706,-0.6206456,0.40368915,7.894820213317871,-2.2046220302581787,6.010873794555664,-20.106788635253906,47.14052963256836, -17.497238159179688
311,1921214204,0.6537023,0.16837478,-0.6192198,0.40111142,-0.017227957025170326,-3.239076852798462,-0.01028226874768734,-29.270078659057617,32.01126480102539, -6.210954666137695
312,1921230871,0.654013,0.1670151,-0.62123847,0.3980401,-3.3593790531158447,-5.710984706878662,-4.392920017242432,-24.737918853759766,-7.003477096557617, -5.686788558959961
313,1921247538,0.6513365,0.16846862,-0.62548006,0.39516327,-3.861896276473999,-4.714609622955322,-2.743231773376465,-13.826776504516602,-37.1009407043457, -6.389150142669678
314,1921264205,0.6467359,0.16736473,-0.634211,0.38922793,-3.561964511871338,-4.937815189361572,-2.3493645191192627,-48.35154342651367,-62.01839828491211, 1.1106741428375244
315,1921280872,0.640185,0.16592403,-0.6445755,0.38360798,-5.486793041229248,-3.3635265827178955,-0.5595643520355225,-50.56623840332031,-76.47824096679688, 10.869172096252441
316,1921297539,0.63273126,0.16399497,-0.6547796,0.3795006,-6.467358112335205,-1.5139756202697754,1.6018942594528198,-44.55740737915039,-76.79077911376953, 21.732227325439453
317,1921314206,0.62507343,0.16412368,-0.66289926,0.37803608,-5.678774833679199,0.15162713825702667,4.299109935760498,-18.066957473754883,-71.13536834716797, 22.055688858032227
318,1921330873,0.61946946,0.16453202,-0.6689249,0.37646565,-1.749625325202942,3.1073269844055176,1.8594247102737427,-14.280559539794922,-53.808082580566406, 12.605337142944336
319,1921347540,0.6128292,0.16721913,-0.67499226,0.3753178,7.642441272735596,-0.31562918424606323,-6.465818881988525,-1.600253701210022,-64.2476806640625, 6.781810283660889
320,1921364207,0.60421014,0.17583203,-0.6798182,0.3766436,6.851003646850586,6.148082733154297,2.368070363998413,40.38044357299805,-80.41765594482422, -6.517107963562012
321,1921380874,0.59610695,0.18310241,-0.6852326,0.37627974,5.985794544219971,2.873081684112549,-2.3038084506988525,24.72812271118164,-79.11370086669922, -7.5852837562561035
322,1921397541,0.58860743,0.19139487,-0.6890095,0.37706175,0.8341967463493347,2.7124435901641846,-1.3369220495224,37.813941955566406,-70.69222259521484, -11.170608520507812
323,1921414208,0.5834086,0.19839379,-0.6906771,0.37847024,0.15636831521987915,-0.1793249249458313,-3.1477088928222656,38.000389099121094,-47.04732894897461, -11.16286849975586
324,1921430875,0.580899,0.20340715,-0.6903161,0.38032317,0.7646792531013489,-1.2969545125961304,-2.158642292022705,33.77930450439453,-20.275423049926758, -9.740361213684082
325,1921447542,0.5810345,0.2061942,-0.6883586,0.382159,2.8606674671173096,-2.2980594635009766,-0.9237662553787231,25.29123878479004,4.5021281242370605, -8.442721366882324
326,1921464209,0.5832481,0.20689361,-0.68527853,0.3839403,5.051459789276123,-1.742876410484314,0.5156306028366089,16.693199157714844,24.2344970703125, -5.891374588012695
327,1921480876,0.5872621,0.20574413,-0.6814332,0.38528097,5.577914237976074,-0.35825464129447937,0.15930624306201935,6.6482954025268555,39.993865966796875, -4.80311393737793
328,1921497543,0.5927489,0.20359278,-0.67662925,0.38648644,4.906862735748291,1.226614236831665,-0.7438228130340576,2.4163966178894043,53.19718551635742, -5.875471591949463
329,1921514210,0.59941816,0.20124932,-0.67067724,0.38779998,4.411182880401611,1.7739267349243164,-1.7978278398513794,3.5291552543640137,64.04315948486328, -9.210846900939941
330,1921530877,0.6066016,0.19863471,-0.6642636,0.38901523,3.142148494720459,1.1016173362731934,-1.0079045295715332,-1.3579585552215576,70.36100769042969, -10.543863296508789
331,1921547544,0.6148087,0.19316937,-0.6586042,0.38850546,2.9174764156341553,0.868181049823761,-0.46905919909477234,-20.722856521606445,75.75572967529297, -6.125141620635986
332,1921564211,0.6237782,0.18479683,-0.65411675,0.3858527,2.8911705017089844,1.2578977346420288,-0.18571895360946655,-46.87123489379883,79.1664047241211, -2.463413715362549
333,1921580878,0.6331709,0.1790783,-0.6473708,0.38462567,4.185084819793701,-1.1873722076416016,2.3535351753234863,-23.6387939453125,85.5089340209961, -12.231765747070312
334,1921597545,0.6392892,0.176395,-0.64166915,0.38529888,-2.125579595565796,-1.2662084102630615,-1.7691233158111572,-0.724772036075592,60.61386489868164, -7.55197811126709
335,1921614212,0.6408207,0.17893043,-0.63806117,0.38757035,-3.5995938777923584,-0.7601436376571655,-4.759676933288574,29.293336868286133,19.321701049804688, -8.94503402709961
336,1921630879,0.6387956,0.18607242,-0.63602394,0.3908847,-1.5331493616104126,-1.5376887321472168,-3.9959347248077393,54.385066986083984,-14.075894355773926, -13.229512214660645
337,1921647546,0.6320353,0.19327061,-0.63927776,0.3930676,-0.6177287101745605,-4.312498092651367,-6.6688761711120605,41.55050277709961,-59.52656173706055, 0.9679026007652283
338,1921664213,0.61986226,0.19922905,-0.6488574,0.39378023,-1.2679719924926758,-5.792706489562988,-3.8275671005249023,19.87220573425293,-109.25152587890625, 22.911352157592773
339,1921680880,0.60626554,0.20559597,-0.6590916,0.39467797,-8.162306785583496,-0.7740390300750732,7.076474666595459,18.015384674072266,-117.51911926269531, 25.97443389892578
340,1921697547,0.5988262,0.20596248,-0.6677542,0.39126855,-12.036666870117188,3.6786770820617676,12.909107208251953,-30.759157180786133,-73.2125473022461, 16.349790573120117
341,1921714214,0.59852856,0.20127466,-0.6723369,0.38628426,-10.382048606872559,1.9421659708023071,10.759989738464355,-57.898189544677734,-12.721080780029297, 8.188105583190918
342,1921730881,0.5974973,0.19516788,-0.67628765,0.38411185,-0.30409812927246094,-8.98810863494873,-18.35814094543457,-43.96452713012695,-7.713441371917725, 27.58933448791504
343,1921747548,0.5904536,0.20370917,-0.6772824,0.38878796,9.224853515625,5.879300117492676,2.655539035797119,64.06999206542969,-52.457332611083984, -0.7199775576591492
344,1921764215,0.5860838,0.20536712,-0.6810386,0.38796476,9.46467399597168,3.9398117065429688,6.091286659240723,-0.6352115273475647,-40.61650085449219, 6.011227607727051
345,1921780882,0.57857656,0.20985916,-0.68643266,0.38732225,9.61451530456543,1.1147691011428833,3.1346397399902344,11.646087646484375,-69.40533447265625, 4.361861705780029
346,1921797549,0.5710899,0.21640207,-0.6896269,0.3891546,6.510833740234375,3.1626157760620117,-0.5424508452415466,37.292572021484375,-62.54351043701172, 1.4173628091812134
347,1921814216,0.566086,0.22060105,-0.6922624,0.38942876,3.4531214237213135,0.2601490616798401,-1.5770264863967896,18.516193389892578,-44.60771560668945, -0.9174802303314209
348,1921830883,0.56369686,0.22099182,-0.69441956,0.38883147,2.2576141357421875,-1.7015100717544556,-1.2902092933654785,-3.1225132942199707,-21.378368377685547, 6.11393404006958
349,1921847550,0.5643734,0.21981215,-0.6946071,0.3881835,-0.1797885298728943,-1.9652507305145264,-3.3592007160186768,-8.83655071258545,5.0507683753967285, 2.182567834854126
350,1921864217,0.5687152,0.21825984,-0.6916362,0.38802746,-0.38449588418006897,-0.8991373777389526,-5.009930610656738,-5.023097991943359,36.647979736328125, -8.753567695617676
351,1921880884,0.576262,0.21665177,-0.68572736,0.38828117,1.637266993522644,0.05016906186938286,-2.6327669620513916,-0.2320547252893448,64.28453826904297, -19.880496978759766
352,1921897551,0.58648306,0.21415673,-0.67762715,0.38858244,5.2172417640686035,0.9375573992729187,-1.9258811473846436,-1.6438720226287842,88.07757568359375, -25.90268898010254
353,1921914218,0.5980501,0.20827247,-0.6697746,0.38776407,6.774724006652832,3.0920724868774414,2.0456836223602295,-28.465219497680664,102.73542785644531, -17.947071075439453
354,1921930885,0.6103532,0.1986173,-0.66357327,0.38430566,7.557497978210449,3.5959270000457764,2.1526191234588623,-61.01681900024414,105.2876205444336, -10.996930122375488
355,1921947552,0.62238544,0.18976358,-0.6573013,0.38023856,5.752523422241211,1.868499755859375,4.669994354248047,-59.255184173583984,101.07054138183594, -16.4964656829834
356,1921964219,0.6322896,0.1825645,-0.65157795,0.37726194,-1.1149572134017944,-3.7004523277282715,2.10036301612854,-41.95845413208008,84.61602020263672, -12.64655876159668
357,1921980886,0.6362033,0.18249096,-0.64739287,0.3779221,-5.076374530792236,-4.1449785232543945,-7.0081400871276855,8.833337783813477,37.105506896972656, -11.435173034667969
358,1921997553,0.634325,0.19079478,-0.6444086,0.3820563,-4.0110697746276855,-4.326333045959473,-7.674500942230225,65.12409973144531,-11.126493453979492, -17.157499313354492
359,1922014220,0.62708426,0.20043537,-0.64571637,0.38683528,-3.3411364555358887,-7.476113319396973,-6.406436920166016,69.7237548828125,-56.088382720947266, -0.7181234955787659
360,1922030887,0.6165837,0.20457163,-0.6550325,0.3858856,-4.172540187835693,-7.125243186950684,-4.978421211242676,3.7367231845855713,-98.15836334228516, 18.46137809753418
361,1922047554,0.60457057,0.20780748,-0.6668781,0.38286352,-7.9467597007751465,-2.6153247356414795,2.3515923023223877,-18.772274017333984,-114.43225860595703, 20.755863189697266
362,1922064221,0.59601665,0.20673457,-0.6791132,0.3752735,-10.750750541687012,2.0191385746002197,9.035436630249023,-58.80956268310547,-97.16343688964844, 13.170804023742676
363,1922080888,0.59042454,0.20275003,-0.6892546,0.36772245,-10.23476791381836,0.6779934167861938,6.1095662117004395,-69.47750854492188,-67.46488189697266, 16.313634872436523
364,1922097555,0.5861715,0.20153278,-0.69444555,0.3654218,-9.158928871154785,2.3336195945739746,5.757484436035156,-22.76555061340332,-40.87858200073242, 14.195347785949707
365,1922114222,0.58240354,0.20277639,-0.6959358,0.36791503,-5.116091728210449,4.307492733001709,3.276270866394043,18.62327766418457,-23.34954071044922, 15.446203231811523
366,1922130889,0.5788945,0.20043212,-0.7003779,0.36630479,4.840655326843262,-0.3589893877506256,-14.767355918884277,-23.223405838012695,-30.65864372253418, 19.759296417236328
367,1922147556,0.5705188,0.21007264,-0.7029834,0.36904243,12.388843536376953,7.529263496398926,5.604546546936035,56.8554573059082,-70.54019165039062, -10.863547325134277
368,1922164223,0.5638697,0.2124817,-0.7095454,0.3653052,8.151827812194824,0.6933876276016235,8.372644424438477,-15.366839408874512,-68.92586517333984, 0.3696041405200958
369,1922180890,0.55256593,0.21908511,-0.7168396,0.3644362,10.267009735107422,-1.9873859882354736,4.417363166809082,19.79015350341797,-101.08699798583984, 3.878695011138916
370,1922197557,0.54195416,0.22675344,-0.72223824,0.36502144,5.963802337646484,2.1901443004608154,0.7311955094337463,34.678672790527344,-91.0999755859375, -0.4048350155353546
371,1922214224,0.53441226,0.23051962,-0.7271322,0.36406484,-0.5602414011955261,-0.8831972479820251,-3.375786781311035,8.975749015808105,-66.60863494873047, 4.848747253417969
372,1922230891,0.53156924,0.23238516,-0.7283809,0.3645445,-2.8718631267547607,1.4376717805862427,-7.618714809417725,10.876513481140137,-22.563722610473633, 2.04960298538208
373,1922247558,0.53394014,0.2323764,-0.72633106,0.36517447,-0.24796243011951447,0.3917817175388336,-5.746955871582031,4.781534671783447,20.790088653564453, -6.34344482421875
374,1922264225,0.5392567,0.23230514,-0.7211907,0.36758766,4.782285213470459,-0.5497976541519165,-1.7731815576553345,16.550962448120117,50.0214958190918, -11.817410469055176
375,1922280892,0.5471082,0.22988786,-0.7154709,0.3686813,7.209716796875,-0.7455549836158752,-0.28119367361068726,-1.270129919052124,68.5819091796875, -12.392622947692871
376,1922297559,0.55747896,0.22351609,-0.70987684,0.3678761,7.591956615447998,-0.2885693609714508,0.5050645470619202,-29.79651641845703,87.49423217773438, -6.23994255065918
377,1922314226,0.569604,0.21499816,-0.70335215,0.36691,5.35734748840332,1.36823570728302,-0.22546344995498657,-39.165157318115234,104.75386810302734, -2.204287528991699
378,1922330893,0.58226603,0.20651717,-0.6959218,0.36607376,3.9867100715637207,2.182225227355957,0.5334749817848206,-36.909523010253906,110.97972869873047, -4.496756076812744
379,1922347560,0.5957403,0.1995689,-0.68694943,0.36519417,3.0612335205078125,0.9717863202095032,1.947539210319519,-28.26667594909668,117.0896224975586, -16.159574508666992
380,1922364227,0.6072868,0.19329381,-0.6801438,0.36227736,-1.6982135772705078,-2.699232339859009,0.2963617146015167,-37.95395278930664,94.55493927001953, -19.839685440063477
381,1922380894,0.61324275,0.19355403,-0.67394006,0.36369658,-3.8118441104888916,-4.521892070770264,-8.705097198486328,15.532564163208008,55.37403869628906, -17.6853084564209
382,1922397561,0.6117703,0.20098794,-0.66941375,0.37044093,-2.0956737995147705,-7.7171854972839355,-8.774269104003906,76.2032470703125,3.292484760284424, -7.845627307891846
383,1922414228,0.6025011,0.21283123,-0.6681041,0.38122517,-3.7466087341308594,-5.785462856292725,-6.178911209106445,115.98959350585938,-51.5238151550293, 12.89314079284668
384,1922430895,0.5888477,0.2224606,-0.6738194,0.3869593,-2.6124091148376465,-2.791966676712036,-5.993879318237305,66.33686828613281,-100.3363265991211, 23.625062942504883
385,1922447562,0.5740711,0.2259241,-0.6866083,0.38466865,-4.870742321014404,-0.9340267777442932,0.13369768857955933,-13.02285385131836,-129.80789184570312, 33.57759475708008
386,1922464229,0.5609308,0.22367305,-0.70261997,0.37636763,-8.997858047485352,0.5846433639526367,7.564798355102539,-69.5739517211914,-131.03042602539062, 37.3707389831543
387,1922480896,0.550042,0.2207317,-0.71516293,0.37050462,-11.171210289001465,1.933860421180725,8.870524406433105,-55.05957794189453,-101.45014190673828, 38.918235778808594
388,1922497563,0.5433131,0.21723647,-0.72270596,0.36785305,-10.928020477294922,4.196685791015625,10.141904830932617,-35.0078010559082,-56.042633056640625, 35.584449768066406
389,1922514230,0.53992546,0.2133682,-0.7268742,0.36689076,-8.383828163146973,4.632643222808838,7.832430839538574,-24.531818389892578,-23.63066864013672, 30.304176330566406
390,1922530897,0.5387948,0.21024215,-0.72880316,0.36653078,-5.8327226638793945,4.704738616943359,6.116828441619873,-16.47372817993164,-5.218125820159912, 19.92955207824707
391,1922547564,0.5381804,0.20133218,-0.7353396,0.35930952,1.9064052104949951,-4.76696252822876,-20.49032211303711,-84.66747283935547,-15.180102348327637, 28.949176788330078
392,1922564231,0.5277886,0.21362625,-0.73458415,0.36903864,9.851298332214355,3.1296627521514893,1.8118797540664673,111.20110321044922,-65.93901824951172, -1.5745822191238403
393,1922580898,0.5216925,0.2156818,-0.73846394,0.3687676,7.1999006271362305,1.154226303100586,8.370494842529297,5.462861061096191,-49.89289474487305, 9.960670471191406
394,1922597565,0.5114804,0.21957763,-0.7447145,0.36820382,11.898058891296387,-3.2782175540924072,3.50070858001709,10.60204792022705,-84.6903305053711, 13.632916450500488
395,1922614232,0.50182015,0.22417559,-0.74917793,0.36966795,9.313382148742676,3.3196535110473633,2.329840898513794,27.09876823425293,-74.46260833740234, 13.10500431060791
396,1922630899,0.49367106,0.22783543,-0.7536895,0.3692322,6.2411370277404785,1.3050917387008667,-0.9748905897140503,11.634065628051758,-67.50145721435547, 7.810410022735596
397,1922647566,0.4880811,0.23033257,-0.7567835,0.36878616,0.909339427947998,1.109001636505127,-3.9198386669158936,7.251530647277832,-46.48619079589844, 5.177603244781494
398,1922664233,0.48661506,0.23158485,-0.75690746,0.36968303,-1.834031581878662,0.9195454120635986,-5.766391754150391,11.110727310180664,-9.650335311889648, 1.0310462713241577
399,1922680900,0.48966056,0.23073287,-0.7544705,0.3711731,-1.0777020454406738,-0.6782724857330322,-4.362229347229004,6.543085098266602,28.88486671447754, -1.5835613012313843
400,1922697567,0.49671838,0.22767298,-0.75016433,0.37241074,1.500231385231018,-1.438090205192566,-2.357719659805298,-3.765411615371704,61.363521575927734, -4.22698450088501
401,1922714234,0.50681776,0.22140284,-0.7458033,0.37134132,3.916442632675171,-0.7783628106117249,0.16415150463581085,-31.2453670501709,81.90184783935547, -3.4566423892974854
402,1922730901,0.51754034,0.21284096,-0.7428227,0.36751282,5.8182196617126465,0.41336336731910706,1.884097933769226,-57.86772537231445,81.8996810913086, -0.7996567487716675
403,1922747568,0.52770793,0.20418788,-0.74068296,0.36224437,7.815742492675781,1.5218405723571777,2.9003570079803467,-66.88172912597656,74.09723663330078, -2.7665631771087646
404,1922764235,0.5382232,0.196269,-0.73798,0.35662332,7.278066635131836,1.8803431987762451,3.7308709621429443,-65.12529754638672,75.4532470703125, -9.338644027709961
405,1922780902,0.5489572,0.19360764,-0.7309421,0.3562109,5.878445625305176,-1.1865086555480957,5.200019836425781,-8.93824291229248,86.59690856933594, -23.025529861450195
406,1922797569,0.55701727,0.19465359,-0.72211975,0.36108908,-3.871823787689209,-2.2284440994262695,1.7211339473724365,39.51819610595703,77.69380187988281, -17.517677307128906
407,1922814236,0.55913514,0.19689184,-0.71961284,0.36160657,-4.552810192108154,-3.1966476440429688,-4.730504512786865,14.68655776977539,15.201322555541992, -17.05467987060547
408,1922830903,0.5567511,0.20346777,-0.7181866,0.3644687,-5.022599220275879,-3.728217363357544,-3.055783987045288,46.40536117553711,-18.654529571533203, -16.994897842407227
409,1922847570,0.55314004,0.20759614,-0.71957386,0.36490244,-5.295322418212891,-3.5143468379974365,-1.1021054983139038,19.728729248046875,-32.6204833984375, -7.355751037597656
410,1922864237,0.55004495,0.2087747,-0.7214651,0.36517426,-9.10854434967041,-0.6957957148551941,3.3176472187042236,5.7072858810424805,-24.753007888793945, 5.8957953453063965
411,1922880904,0.54972905,0.20689048,-0.7208713,0.3678846,-12.214066505432129,-0.4913199841976166,6.254025936126709,8.443697929382324,9.563715934753418, 19.668880462646484
412,1922897571,0.5533915,0.20200868,-0.71810526,0.37050712,-12.63956069946289,1.2149986028671265,10.240199089050293,-3.5331616401672363,44.82249069213867, 20.922561645507812
413,1922914238,0.5578862,0.19622508,-0.71488446,0.37309456,-8.14252758026123,0.2863825261592865,1.9351094961166382,-7.20610237121582,52.66897964477539, 22.417160034179688
414,1922930905,0.56176186,0.19205512,-0.71178627,0.3753658,-5.907780170440674,1.1513803005218506,-0.3853185772895813,-2.051029682159424,44.58744430541992, 14.9716157913208
415,1922947572,0.56390786,0.18452866,-0.71375304,0.372175,-2.388712167739868,-0.29451876878738403,-14.616315841674805,-52.5162239074707,18.069080352783203, 21.444992065429688
416,1922964239,0.5553191,0.18855403,-0.7170233,0.37675768,8.163308143615723,-6.139062404632568,-16.955108642578125,40.83528518676758,-58.89366149902344, 24.00847625732422
417,1922980906,0.54652447,0.19187851,-0.7218223,0.37877035,4.999759674072266,4.114383220672607,16.285919189453125,21.927705764770508,-66.7803955078125, 20.0870418548584
418,1922997573,0.53590745,0.19288501,-0.72987986,0.37798774,10.234941482543945,-4.559250354766846,3.276750087738037,-6.887612342834473,-86.24883270263672, 30.32944107055664
419,1923014240,0.5230212,0.20240194,-0.7339872,0.38307396,8.823404312133789,4.7588582038879395,0.6437187194824219,67.14444732666016,-97.55776977539062, 9.901036262512207
420,1923030907,0.5130865,0.20722052,-0.74014753,0.38207895,7.05705451965332,2.977292060852051,-1.7185064554214478,10.05899715423584,-86.18644714355469, 7.083298206329346
421,1923047574,0.5051968,0.21021822,-0.7457667,0.3800224,2.1890437602996826,2.2235612869262695,-2.649313449859619,-3.2218401432037354,-70.57563781738281, 6.634421348571777
422,1923064241,0.5011853,0.21142659,-0.74906844,0.37816563,-0.14231646060943604,1.0013184547424316,-5.479219436645508,-7.918654918670654,-37.60157012939453, 3.106894016265869
423,1923080908,0.5011972,0.21090385,-0.7498571,0.37687656,0.5771967768669128,1.237934947013855,-4.5672125816345215,-10.212875366210938,-2.724308490753174, -0.11461687088012695
424,1923097575,0.5045334,0.21065114,-0.7474332,0.37738094,3.725672483444214,0.9278445839881897,-1.5471655130386353,3.517165422439575,27.514429092407227, -8.563196182250977
425,1923114242,0.5105928,0.2109991,-0.74243695,0.37889636,4.259608745574951,2.621893882751465,-2.2134549617767334,13.539102554321289,50.351417541503906, -18.875062942504883
426,1923130909,0.5188835,0.20899077,-0.7371098,0.3791473,4.700039863586426,2.746920347213745,-1.7429916858673096,-3.53859543800354,67.23734283447266, -17.467262268066406
427,1923147576,0.5289973,0.2043809,-0.73203367,0.37751514,4.846878528594971,4.246492385864258,-1.0133612155914307,-25.625288009643555,79.67131042480469, -15.276801109313965
428,1923164243,0.5400393,0.19754109,-0.7284086,0.37250102,4.40102481842041,4.023036479949951,0.8302934169769287,-55.82339859008789,80.08739471435547, -16.56766128540039
429,1923180910,0.5509756,0.19099198,-0.72528577,0.36593604,3.4680137634277344,1.0915191173553467,4.0689568519592285,-63.67220687866211,74.7724380493164, -22.69352149963379
430,1923197577,0.5589073,0.18776491,-0.72193897,0.362177,-1.4742846488952637,-1.7743521928787231,0.5400550961494446,-32.63917922973633,55.809391021728516, -21.33627700805664
431,1923214244,0.5610867,0.19173184,-0.7187513,0.3630679,-4.080330848693848,-4.667952060699463,-2.440765857696533,25.09540367126465,14.72583293914795, -24.754119873046875
432,1923230911,0.5584481,0.20177849,-0.71520936,0.36864305,-3.7752773761749268,-4.6240715980529785,-2.2588961124420166,78.93891143798828,-16.6187801361084, -25.381629943847656
433,1923247578,0.5527488,0.21102421,-0.71547437,0.37153068,-1.7793176174163818,-3.185798406600952,-2.6706714630126953,57.25054168701172,-47.89930725097656, -18.922788619995117
434,1923264245,0.54665065,0.21174385,-0.72361785,0.364302,-2.2165942192077637,-2.8078341484069824,-0.2302839457988739,-44.45167922973633,-72.62010955810547, -3.1035315990448
435,1923280912,0.5390151,0.21052364,-0.7326504,0.35828358,-7.072125434875488,-3.8511853218078613,4.238402843475342,-45.721405029296875,-76.98321533203125, 16.13190460205078
436,1923297579,0.53144634,0.21266395,-0.73634565,0.36074206,-11.507566452026367,-2.7818288803100586,9.19438362121582,22.432987213134766,-52.978172302246094, 22.54729652404785
437,1923314246,0.52746415,0.21357036,-0.736416,0.36587116,-11.834562301635742,-0.11492953449487686,10.544194221496582,35.099491119384766,-14.82912826538086, 24.173355102539062
438,1923330913,0.52680224,0.21350327,-0.7337117,0.37224182,-8.951169967651367,2.349600076675415,6.564180850982666,39.874515533447266,16.070404052734375, 21.077688217163086
439,1923347580,0.5298033,0.21019241,-0.73084044,0.37550107,-6.741969108581543,2.42315673828125,3.2548158168792725,7.443937301635742,38.756507873535156, 16.551589965820312
440,1923364247,0.53345877,0.20449902,-0.7305244,0.37408167,-1.6800843477249146,0.10978914797306061,-8.930937767028809,-32.29216003417969,32.0883903503418, 13.502182006835938
441,1923380914,0.52806467,0.20353206,-0.7354155,0.37267637,13.83625602722168,-11.94490909576416,-31.001054763793945,-15.467011451721191,-44.296630859375, 20.41495132446289
442,1923397581,0.5206021,0.21240397,-0.7369928,0.375101,5.387977600097656,11.584558486938477,17.649417877197266,51.229881286621094,-61.710758209228516, -14.953338623046875
443,1923414248,0.51608396,0.2104261,-0.74431914,0.36792484,10.084250450134277,-2.0118517875671387,3.540234327316284,-55.494789123535156,-53.996646881103516, 6.879518032073975
444,1923430915,0.5058438,0.21883538,-0.74833095,0.3691005,7.463326454162598,-0.6588127613067627,-0.07112229615449905,40.72378921508789,-85.88116455078125, -6.909132480621338
445,1923447582,0.49745697,0.22636773,-0.75087106,0.37079382,4.477440357208252,5.928666114807129,-1.8905256986618042,41.28232192993164,-68.26573181152344, -7.448700428009033
446,1923464249,0.4918238,0.23157384,-0.7530483,0.37067813,0.8235135674476624,0.11324072629213333,-3.005704164505005,20.685806274414062,-49.66347122192383, -8.988115310668945
447,1923480916,0.4897738,0.23368528,-0.75375915,0.37062258,-2.350719928741455,-1.0068519115447998,-3.5820658206939697,8.594437599182129,-18.08047866821289, -4.224218845367432
448,1923497583,0.49171433,0.23293294,-0.7524855,0.37111473,-2.287447690963745,-0.7403808832168579,-5.13689661026001,0.45812198519706726,17.586490631103516, -0.9559950232505798
449,1923514250,0.49759337,0.22928567,-0.7495006,0.37159023,-0.30936574935913086,0.7386660575866699,-3.522451639175415,-11.319284439086914,51.27583312988281, 1.1268094778060913
450,1923530917,0.5064991,0.22376299,-0.7450384,0.37189773,2.2911553382873535,1.010041356086731,-1.9904124736785889,-19.567533493041992,76.55049133300781, 0.17540603876113892
451,1923547584,0.5175136,0.21617386,-0.7398009,0.37167802,4.492921829223633,1.5463429689407349,-1.003444790840149,-30.7120304107666,94.55316925048828, 2.3971056938171387
452,1923564251,0.5299953,0.2078161,-0.73357934,0.37118736,5.762304782867432,2.3426928520202637,0.6358622312545776,-34.4870491027832,107.06094360351562, 0.22410184144973755
453,1923580918,0.54285747,0.19878528,-0.7274303,0.36964393,6.382509231567383,1.182397484779358,2.536836862564087,-42.992366790771484,108.85499572753906, -0.9581659436225891
454,1923597585,0.5546157,0.19053973,-0.7219577,0.36725262,4.863980293273926,0.5035077333450317,4.59223747253418,-44.55108642578125,97.52385711669922, -4.231337547302246
455,1923614252,0.56305337,0.18351832,-0.7190801,0.36361665,-0.15048162639141083,-0.3984234631061554,-0.2066052109003067,-48.31745147705078,66.24772644042969, -3.226572275161743
456,1923630919,0.5676171,0.18111174,-0.71619034,0.36343116,-2.7838807106018066,-1.3300580978393555,-4.24384069442749,-8.4833984375,39.9608154296875, -3.0515661239624023
457,1923647586,0.5681737,0.18223964,-0.71471876,0.36489138,-3.910680055618286,-2.0924360752105713,-5.1359100341796875,14.889952659606934,8.052980422973633, -2.3438589572906494
458,1923664253,0.56421334,0.18494052,-0.71623224,0.36670566,-3.6830434799194336,-3.899017810821533,-5.664602279663086,20.984113693237305,-29.140254974365234, 6.260125160217285
459,1923680920,0.5565334,0.18860021,-0.7207532,0.3677184,-5.179170608520508,-2.3739800453186035,-2.5627198219299316,17.941816329956055,-62.38808059692383, 11.461280822753906
460,1923697587,0.54784304,0.19329108,-0.72519976,0.36958545,-8.43254566192627,-0.34413018822669983,1.7743959426879883,27.630329132080078,-68.53677368164062, 11.945212364196777
461,1923714254,0.5421518,0.19514488,-0.72912794,0.36927485,-9.97520923614502,2.0894711017608643,5.771571159362793,3.394190788269043,-47.36249542236328, 9.48068904876709
462,1923730921,0.5401976,0.1940544,-0.7326595,0.3657064,-9.504044532775879,3.3962643146514893,4.6306281089782715,-27.969940185546875,-24.20046615600586, 2.043435573577881
463,1923747588,0.54041433,0.19275136,-0.73507106,0.3612085,-7.766627311706543,2.6881370544433594,2.9045588970184326,-33.55308151245117,-9.921137809753418, -7.278304100036621
464,1923764255,0.5405967,0.19005558,-0.737336,0.35773063,-3.820134162902832,0.5258127450942993,-1.5406405925750732,-33.1800537109375,-4.798084735870361, 3.450319766998291
465,1923780922,0.534387,0.19314596,-0.7378114,0.3643642,4.130788326263428,-7.775784492492676,-9.840380668640137,52.35442352294922,-31.512157440185547, 25.067617416381836
466,1923797589,0.5283617,0.19761053,-0.7385728,0.36918277,7.049925327301025,1.355570912361145,10.658563613891602,47.28651428222656,-37.218990325927734, 11.160861015319824
467,1923814256,0.5217988,0.1978421,-0.7431813,0.3691446,9.501931190490723,-3.37433123588562,5.954381465911865,-1.8855369091033936,-50.161216735839844, 21.732717514038086
468,1923830923,0.51314193,0.19932513,-0.7491186,0.3684805,8.149149894714355,0.09192491322755814,4.963361740112305,-1.1934844255447388,-69.89264678955078, 20.229652404785156
469,1923847590,0.50342953,0.2009552,-0.75566614,0.36762214,5.290383338928223,2.191037178039551,0.0011302046477794647,-1.8212465047836304,-78.31382751464844, 22.399988174438477
470,1923864257,0.4950054,0.2034574,-0.7602704,0.36819193,0.5497575998306274,3.390739917755127,-5.402623176574707,11.765571594238281,-65.14680480957031, 17.000995635986328
471,1923880924,0.4905212,0.2042078,-0.76231503,0.36954775,-1.4877744913101196,2.673039436340332,-6.4782586097717285,10.960715293884277,-30.135868072509766, 15.383587837219238
472,1923897591,0.49071202,0.20197344,-0.76232326,0.37050408,-0.34446024894714355,0.9962005019187927,-4.008752822875977,-2.5049498081207275,8.466421127319336, 14.998087882995605
473,1923914258,0.49393997,0.19771506,-0.7608129,0.3716146,1.5114021301269531,-1.6333082914352417,-2.343796968460083,-8.830679893493652,34.996826171875, 16.300018310546875
474,1923930925,0.49976268,0.19279578,-0.7578354,0.37249726,3.4701123237609863,-1.0861642360687256,-0.7633007764816284,-12.038324356079102,54.98119354248047, 10.324706077575684
475,1923947592,0.50801164,0.18661503,-0.7541639,0.37193745,4.557088851928711,0.16624200344085693,-0.06388889998197556,-25.334033966064453,71.31391906738281, 4.814062118530273
476,1923964259,0.51825786,0.1780915,-0.75066996,0.3690372,4.8652167320251465,0.8718566298484802,-0.06915555149316788,-48.67782211303711,83.99948120117188, 3.962538242340088
477,1923980926,0.52995324,0.16859914,-0.746356,0.36562032,4.456577301025391,1.4674758911132812,-0.37812015414237976,-54.49769973754883,96.18733215332031, 2.5189318656921387
478,1923997593,0.5428017,0.159448,-0.7411457,0.36145204,4.142706871032715,1.446785569190979,0.18711870908737183,-56.19791030883789,103.61597442626953, -5.820362567901611
479,1924014260,0.55604,0.1499042,-0.73638797,0.35508144,2.586992025375366,0.9963408708572388,1.5066945552825928,-70.45270538330078,102.43687438964844, -12.43272876739502
480,1924030927,0.5667937,0.14246842,-0.7327942,0.348514,0.6521874070167542,-1.606027364730835,4.090916156768799,-63.6983528137207,79.98677825927734, -16.55120849609375
481,1924047594,0.5736658,0.14057639,-0.730025,0.34381837,-3.138902425765991,-0.29350876808166504,-1.123897910118103,-30.88945198059082,45.63246154785156, -27.142274856567383
482,1924064261,0.57729125,0.14291729,-0.7276934,0.341722,-3.498176336288452,-3.3614351749420166,-4.445143222808838,0.96487957239151,20.16733169555664, -30.100399017333984
483,1924080928,0.5766774,0.14918387,-0.72577155,0.3441581,-3.1855180263519287,-4.569685935974121,-4.221562385559082,42.46071243286133,-7.281620979309082, -21.54408073425293
484,1924097595,0.57017785,0.15874594,-0.72613126,0.349903,-2.5956666469573975,-5.176455497741699,-5.669679164886475,72.70657348632812,-49.9614143371582, -8.786795616149902
485,1924114262,0.557955,0.16727054,-0.7324803,0.35239336,-2.4141361713409424,-4.5775346755981445,-6.37476110458374,44.264225006103516,-102.89830017089844, 3.7473807334899902
486,1924130929,0.5419151,0.17734227,-0.7407341,0.3552355,-5.3571672439575195,-1.0728399753570557,-0.21788820624351501,51.77940368652344,-132.5915985107422, 8.577366828918457
487,1924147596,0.5280445,0.18587124,-0.7484528,0.35558516,-10.012189865112305,4.524070739746094,7.951122760772705,31.977054595947266,-118.81454467773438, 1.1111829280853271
488,1924164263,0.5192531,0.19025657,-0.7546335,0.35314077,-9.544320106506348,4.178681373596191,6.596762657165527,-0.24397940933704376,-80.74053955078125, -2.049959659576416
489,1924180930,0.51503843,0.19152969,-0.7583741,0.35060263,-7.73781681060791,2.0508954524993896,6.951038837432861,-11.947977066040039,-40.99973678588867, -0.5043684840202332
490,1924197597,0.51311,0.18941297,-0.760719,0.34949803,-3.160065174102783,1.3086885213851929,0.4379054605960846,-16.17595863342285,-14.238991737365723, 14.889959335327148
491,1924214264,0.50500274,0.19672185,-0.7607095,0.35720512,10.622411727905273,-6.342637538909912,-14.419293403625488,76.8731918334961,-49.41765594482422, 8.47886848449707
492,1924230931,0.49824873,0.20311011,-0.76141363,0.36158675,5.6089372634887695,4.544930458068848,11.516813278198242,52.79201889038086,-46.71196365356445, -0.6704626083374023
493,1924247598,0.49226806,0.20304103,-0.76699716,0.35799876,9.687909126281738,-4.54839563369751,5.912813186645508,-24.343639373779297,-54.8582763671875, 10.933314323425293
494,1924264265,0.48256654,0.20648,-0.7723044,0.35783046,6.763032913208008,-2.8038065433502197,3.464425563812256,11.348015785217285,-77.65835571289062, 12.766120910644531
495,1924280932,0.47452465,0.20941384,-0.77648026,0.35784352,3.638212203979492,0.8471618294715881,-3.5537853240966797,11.01030445098877,-63.739627838134766, 10.367980003356934
496,1924297599,0.46992302,0.2119274,-0.7791728,0.35658133,0.5307090878486633,2.7273809909820557,-2.8042845726013184,1.5755555629730225,-41.24736404418945, -2.07259202003479
497,1924314266,0.46722785,0.21409185,-0.7802141,0.35655335,-0.6529903411865234,2.042428731918335,-5.3086419105529785,8.386736869812012,-22.9534854888916, -3.2060253620147705
498,1924330933,0.46804538,0.21548119,-0.77892745,0.35745585,0.11150077730417252,1.2896409034729004,-3.813666343688965,11.496661186218262,6.8075737953186035, -8.04455852508545
499,1924347600,0.47170597,0.21521981,-0.7761317,0.35887986,1.8526321649551392,0.30613020062446594,-2.129490375518799,8.523012161254883,31.831478118896484, -6.712449073791504
500,1924364267,0.47837055,0.21285395,-0.7721873,0.35997626,3.41957426071167,0.5745729207992554,-1.9731792211532593,-1.6411138772964478,56.33767318725586, -5.630183696746826
501,1924380934,0.48838267,0.20725311,-0.76774323,0.35930532,4.451361179351807,1.146557092666626,-0.9985824227333069,-25.3088321685791,81.19557189941406, -3.231764554977417
502,1924397601,0.50064135,0.19947067,-0.76312256,0.3566723,5.023197174072266,1.577018141746521,-0.29963234066963196,-45.74823760986328,96.22515106201172, -4.027105331420898
503,1924414268,0.51344234,0.19215603,-0.75833076,0.3526878,5.350883960723877,1.1072429418563843,2.451352834701538,-51.55250930786133,96.6183853149414, -12.60445785522461
504,1924430935,0.5237772,0.18969588,-0.7528361,0.35058787,3.1699719429016113,-0.6632608771324158,2.2063276767730713,-19.65547752380371,76.83827209472656, -26.133705139160156
505,1924447602,0.5320158,0.1866068,-0.74890184,0.34825942,-1.4539262056350708,-1.370030164718628,-0.7508388757705688,-24.163002014160156,61.498321533203125, -16.616008758544922
506,1924464269,0.5353428,0.18877625,-0.74521035,0.34990668,-3.3644070625305176,-2.3252756595611572,-4.70014762878418,21.25827407836914,27.867847442626953, -17.14845848083496
507,1924480936,0.53490114,0.19311307,-0.743152,0.3525831,-2.050447940826416,-3.242398977279663,-4.955621242523193,35.49888610839844,-1.1587755680084229, -13.395355224609375
508,1924497603,0.52968925,0.1992799,-0.74357057,0.35611925,-1.8192667961120605,-3.2617835998535156,-3.2848927974700928,46.97376251220703,-37.769290924072266, -4.8593034744262695
509,1924514270,0.52036273,0.20378871,-0.7486299,0.3567177,-2.7647745609283447,-4.107125759124756,-2.457575798034668,20.208599090576172,-75.57042694091797, 9.226990699768066
510,1924530937,0.5089655,0.20807332,-0.7548234,0.35763466,-5.836141586303711,-2.023371934890747,1.767435908317566,21.130647659301758,-89.19770050048828, 18.04399299621582
511,1924547604,0.49859422,0.21186902,-0.7602161,0.35859182,-8.765658378601074,1.6319153308868408,6.880491733551025,20.12800407409668,-79.85348510742188, 16.926387786865234
512,1924564271,0.49130782,0.21282622,-0.7656579,0.35649824,-9.419824600219727,1.9123116731643677,6.1008148193359375,-10.231999397277832,-61.4923095703125, 13.740151405334473
513,1924580938,0.48788628,0.21284577,-0.7686647,0.3547104,-9.943479537963867,3.281367778778076,7.3992018699646,-11.518983840942383,-30.288311004638672, 6.639970302581787
514,1924597605,0.4873064,0.21238707,-0.76879376,0.35550195,-7.254951477050781,2.207412004470825,5.6913228034973145,3.3271994590759277,-0.8123326301574707, 6.6803507804870605
515,1924614272,0.48587993,0.20629534,-0.7729621,0.3519855,2.844146728515625,-6.840534687042236,-22.73065757751465,-46.98729705810547,-11.441605567932129, 29.98867416381836
516,1924630939,0.476176,0.21608552,-0.77239263,0.36051968,6.533293724060059,2.325085401535034,7.311192035675049,93.48299407958984,-60.298126220703125, -0.9968258738517761
517,1924647606,0.4694248,0.21777874,-0.7753053,0.3620996,8.124890327453613,-2.6858296394348145,5.706496715545654,16.96609878540039,-46.58155059814453, 17.246395111083984
518,1924664273,0.459741,0.22323549,-0.7782641,0.36484298,10.753905296325684,0.3176366686820984,1.6188031435012817,39.510650634765625,-70.24769592285156, 8.341975212097168
519,1924680940,0.45133165,0.22740784,-0.78173137,0.36535284,8.220179557800293,3.0207982063293457,0.4994431138038635,20.256250381469727,-65.39558410644531, 5.8880791664123535
520,1924697607,0.44426224,0.23032352,-0.78547144,0.3641676,5.853804111480713,1.7411251068115234,-1.728432536125183,4.494372367858887,-58.62543487548828, 4.633310317993164
521,1924714274,0.4398979,0.23032825,-0.7892836,0.36120826,4.258620738983154,1.7712910175323486,-2.3365304470062256,-18.402942657470703,-39.76034164428711, 8.392515182495117
522,1924730941,0.43815205,0.23015906,-0.79126936,0.35908705,3.9260706901550293,0.4585884213447571,-1.8739949464797974,-13.946141242980957,-18.238327026367188, 2.5679149627685547
523,1924747608,0.43980277,0.22998941,-0.79096127,0.35785428,4.722700119018555,0.18299023807048798,-1.6005436182022095,-8.801260948181152,8.57412052154541, -6.720047950744629
524,1924764275,0.4447937,0.22834124,-0.7895787,0.35578877,5.110594749450684,0.7011232376098633,-0.034738510847091675,-20.42229461669922,32.308223724365234, -11.067947387695312
525,1924780942,0.4518387,0.2232825,-0.7890904,0.35117593,5.264136791229248,-0.09943088889122009,1.2206275463104248,-50.09075927734375,45.01604080200195, -3.9022467136383057
526,1924797609,0.46026555,0.21897699,-0.7865967,0.34852827,6.56544303894043,-1.5302680730819702,2.615478992462158,-34.387718200683594,59.85435485839844, -8.26375675201416
527,1924814276,0.47006568,0.21806806,-0.77944845,0.35206,3.9087862968444824,-2.128291368484497,4.191232681274414,18.821460723876953,83.04412841796875, -17.367511749267578
528,1924830943,0.47502857,0.21638936,-0.7772373,0.35132197,-1.7806509733200073,-2.044858455657959,0.9279152750968933,-11.306300163269043,36.48513412475586, -7.966987133026123
529,1924847610,0.47578514,0.21602578,-0.77771765,0.34945387,-3.569671630859375,-2.3626554012298584,0.8052874207496643,-13.3158597946167,0.37587299942970276, -4.616666793823242
530,1924864277,0.47434527,0.2169884,-0.7786451,0.3487488,-6.367822647094727,-2.71823787689209,-1.3092429637908936,-0.591961145401001,-14.253042221069336, -2.0800600051879883
531,1924880944,0.4756157,0.21544066,-0.7801364,0.34462082,-6.65406608581543,2.842986822128296,4.993655681610107,-32.50343322753906,-0.5432090163230896, -5.615182876586914
532,1924897611,0.48236623,0.20782487,-0.7816825,0.3363114,-7.992350101470947,2.240790605545044,6.881523132324219,-83.03890991210938,36.79570770263672, 0.3538689613342285
533,1924914278,0.4891015,0.20133018,-0.7785893,0.3377068,-8.47101879119873,-0.38444340229034424,6.892128944396973,-16.449708938598633,63.27592468261719, 19.88730239868164
534,1924930945,0.49462998,0.2005842,-0.7693931,0.35091713,-9.795397758483887,-0.4548344016075134,6.992021560668945,81.91424560546875,80.25497436523438, 23.101816177368164
535,1924947612,0.49888313,0.20170477,-0.7600709,0.3643139,-6.009755611419678,0.7605903744697571,1.7828963994979858,91.25650787353516,69.59811401367188, 16.664724349975586
536,1924964279,0.50138164,0.20399325,-0.7529387,0.37428308,-3.605635404586792,3.214834213256836,-3.813232660293579,74.29901123046875,45.25874710083008, 6.2134552001953125
537,1924980946,0.5039922,0.20230219,-0.7523294,0.37291747,-3.822984218597412,2.1342945098876953,-6.430507183074951,-14.973624229431152,17.863901138305664, -3.3346524238586426
538,1924997613,0.50398445,0.19917563,-0.7563956,0.3663273,-3.6750380992889404,-0.684802234172821,-9.148061752319336,-55.23429489135742,-15.225146293640137, -0.7758176326751709
539,1925014280,0.49552026,0.19901328,-0.76342237,0.3633743,3.873065948486328,-12.043416976928711,-25.109355926513672,-21.8376407623291,-71.63001251220703, 21.709705352783203
540,1925030947,0.4831664,0.20799534,-0.7667677,0.3679088,5.32851505279541,4.864331245422363,6.845666885375977,63.30095672607422,-91.38702392578125, 3.600950002670288
541,1925047614,0.47646016,0.20570104,-0.7742887,0.36214817,8.777545928955078,-2.0984315872192383,3.219709873199463,-47.11811828613281,-61.95573806762695, 20.750736236572266
542,1925064281,0.46691406,0.20809156,-0.7802366,0.36044654,8.426881790161133,0.9402958750724792,1.1482036113739014,-2.2801573276519775,-78.03278350830078, 14.006802558898926
543,1925080948,0.45800367,0.21162955,-0.78461754,0.3603086,6.59550142288208,3.5256173610687256,-2.5660927295684814,12.757259368896484,-70.32023620605469, 9.187987327575684
544,1925097615,0.45105377,0.21550968,-0.78752,0.36044377,3.660788059234619,0.9509508013725281,-2.6410887241363525,16.1761531829834,-55.536006927490234, 1.3738749027252197
545,1925114282,0.44761527,0.21727431,-0.7887854,0.36090353,1.4023653268814087,-0.9214823246002197,-3.6208767890930176,10.260929107666016,-25.689285278320312, 2.7733826637268066
546,1925130949,0.4477447,0.21750724,-0.78838694,0.36147293,0.7783091068267822,-1.150483250617981,-3.497892141342163,4.965693950653076,2.8293259143829346, 0.06425586342811584
547,1925147616,0.4511062,0.21623802,-0.78676116,0.3615976,2.301348924636841,-1.0409495830535889,-2.210937261581421,-3.8323991298675537,27.27781867980957, -3.057088613510132
548,1925164283,0.45792606,0.21400216,-0.7830719,0.36236292,4.378625869750977,0.8899976015090942,-1.7740147113800049,-3.3711557388305664,55.767738342285156, -7.50963830947876
549,1925180950,0.46811432,0.20909455,-0.77852845,0.36199915,5.334100246429443,2.311643123626709,-0.8786771893501282,-20.67501449584961,81.5788803100586, -6.251973628997803
550,1925197617,0.48004338,0.20121889,-0.7745385,0.3593895,6.0338311195373535,1.913636326789856,0.4330701231956482,-46.112606048583984,93.22990417480469, -1.0058107376098633
551,1925214284,0.49329942,0.19552024,-0.76783043,0.35897797,7.34023380279541,1.1926229000091553,2.4947714805603027,-22.356060028076172,106.84905242919922, -12.265007972717285
552,1925230951,0.5055952,0.19356151,-0.75856507,0.3626122,1.273491621017456,0.6347787976264954,1.2728190422058105,19.25445556640625,106.5157699584961, -19.252717971801758
553,1925247618,0.5139543,0.19053558,-0.7542413,0.36148098,-0.9277500510215759,-0.15745264291763306,0.5634959936141968,-16.418371200561523,65.0746841430664, -13.846878051757812
554,1925264285,0.518416,0.18977827,-0.7513425,0.36154565,-2.9656729698181152,-1.9208623170852661,0.041840385645627975,-0.6543947458267212,35.74805450439453, -9.867749214172363
555,1925280952,0.5184549,0.1911084,-0.75064856,0.3622295,-4.0611443519592285,-2.740846633911133,-2.2521133422851562,10.259535789489746,0.6824313998222351, -4.679673194885254
556,1925297619,0.5152125,0.19366796,-0.75224125,0.36219227,-4.572791576385498,-1.9728116989135742,-3.7134926319122314,9.545543670654297,-28.318603515625, -2.5571160316467285
557,1925314286,0.51122123,0.19616446,-0.7544421,0.36192676,-7.001474857330322,1.3479030132293701,-0.686636209487915,7.645340919494629,-34.353057861328125, -0.481905072927475
558,1925330953,0.5088008,0.19611712,-0.7566687,0.36071298,-9.482166290283203,0.6500366926193237,1.6823874711990356,-8.385190963745117,-21.184125900268555, 5.462757110595703
559,1925347620,0.5078137,0.19628984,-0.7568311,0.36166793,-11.338919639587402,2.121415615081787,5.568800926208496,6.841609001159668,-4.122582912445068, 5.478436470031738
560,1925364287,0.50718045,0.1965872,-0.7567139,0.36263853,-9.529977798461914,0.012746543623507023,2.3697147369384766,7.537261486053467,-1.688094973564148, 3.5632970333099365
561,1925380954,0.50544703,0.199677,-0.75542647,0.36603904,-6.5777587890625,1.3421434164047241,-0.3085971474647522,34.29746627807617,-7.017115592956543, -1.4315894842147827
562,1925397621,0.5027002,0.20225807,-0.7558274,0.3675742,-4.979154586791992,0.7775657176971436,-3.26247501373291,19.991783142089844,-19.379222869873047, -0.433047890663147
563,1925414288,0.49832165,0.2037598,-0.7583933,0.3674213,-1.7738145589828491,0.32412299513816833,-6.585483551025391,4.314343452453613,-34.83610153198242, 6.450682640075684
564,1925430955,0.48972133,0.20833048,-0.76160324,0.36977458,8.140741348266602,-6.458901405334473,-7.359041213989258,32.25461196899414,-63.11101531982422, 10.591856002807617
565,1925447622,0.4810319,0.21298964,-0.7648031,0.37191564,6.16058874130249,1.2565466165542603,7.825982570648193,31.612611770629883,-63.9421272277832, 9.535058975219727
566,1925464289,0.47426134,0.21279678,-0.7704224,0.3691127,7.596672534942627,-2.3641366958618164,3.8930752277374268,-19.500757217407227,-56.991886138916016, 17.447345733642578
567,1925480956,0.4660913,0.21464282,-0.77556735,0.3676738,8.516115188598633,0.9737481474876404,3.1960878372192383,-2.437023401260376,-66.22711944580078, 13.981537818908691
568,1925497623,0.45769945,0.2165402,-0.78071684,0.3662025,7.253663063049316,2.3135547637939453,-0.36690640449523926,-2.1474053859710693,-67.78418731689453, 14.299665451049805
569,1925514290,0.4507273,0.21904597,-0.7843377,0.3656218,3.250429153442383,3.1016428470611572,-3.045354127883911,6.324275970458984,-55.629642486572266, 8.129158973693848
570,1925530957,0.44714576,0.21947308,-0.7864512,0.36522344,0.422961950302124,0.9880709648132324,-4.73845100402832,-0.41213515400886536,-27.108444213867188, 9.238186836242676
571,1925547624,0.44764936,0.21823779,-0.78613067,0.36603585,-0.0756712332367897,-0.12054452300071716,-4.137545585632324,1.0247453451156616,8.595426559448242, 8.044049263000488
572,1925564291,0.4524991,0.21503666,-0.78375554,0.36705893,1.7920401096343994,-1.492021918296814,-3.1540894508361816,-5.192523956298828,43.78032684326172, 5.282162666320801
573,1925580958,0.46159637,0.21004355,-0.77968764,0.36728606,3.935189723968506,-0.9803896546363831,-1.385707974433899,-17.091806411743164,75.3621597290039, -0.7686917185783386
574,1925597625,0.47428244,0.20257053,-0.7751043,0.36501512,5.359450817108154,-0.2537851631641388,0.14495182037353516,-42.234214782714844,98.87533569335938, -5.195221900939941
575,1925614292,0.48873636,0.19275159,-0.77106905,0.35977402,5.675103187561035,1.082283616065979,1.3024197816848755,-69.58998107910156,108.20024871826172, -5.990442752838135
576,1925630959,0.50342613,0.18182628,-0.76761836,0.3525117,5.565450191497803,1.6419464349746704,1.6337400674819946,-85.75160217285156,107.41325378417969, -6.654571533203125
577,1925647626,0.5175613,0.1730188,-0.7628472,0.34678543,4.257174491882324,0.315912127494812,4.249667644500732,-66.46986389160156,105.74807739257812, -12.716168403625488
578,1925664293,0.52652866,0.16695954,-0.75880224,0.34512657,-0.8140354156494141,-0.7958955764770508,0.6594788432121277,-30.99256706237793,74.17557525634766, 0.5646511316299438
579,1925680960,0.5338344,0.16274963,-0.75608605,0.3418608,-3.1106655597686768,-0.3814256191253662,-5.775664806365967,-33.94742202758789,54.4536018371582, -9.485482215881348
580,1925697627,0.53621536,0.16595052,-0.7531007,0.34318262,-3.625821828842163,-2.1308705806732178,-6.4601945877075195,23.291852951049805,17.752235412597656, -19.958772659301758
581,1925714294,0.53392506,0.17034017,-0.7532828,0.34420198,-1.8718849420547485,-4.855459213256836,-8.148600578308105,24.010948181152344,-21.04605484008789, -12.709022521972656
582,1925730961,0.52604204,0.1768583,-0.75696623,0.34497,-2.7816309928894043,-1.764846920967102,-5.910495281219482,28.8343448638916,-67.95055389404297, -7.494510650634766
583,1925747628,0.5141728,0.1831155,-0.7638924,0.34433246,-4.642658710479736,-2.804797887802124,-3.312424898147583,17.768672943115234,-101.34245300292969, 2.0856363773345947
584,1925764295,0.5005672,0.1895991,-0.7716756,0.34351546,-7.777115821838379,0.029240429401397705,2.6717424392700195,17.788415908813477,-114.15037536621094, 5.313636779785156
585,1925780962,0.48767486,0.1938616,-0.78071773,0.33922297,-8.623400688171387,0.5760128498077393,3.4552128314971924,-12.234421730041504,-114.02909851074219, 5.011606216430664
586,1925797629,0.47625038,0.19997306,-0.78683764,0.33776397,-9.075316429138184,2.223550796508789,5.292835235595703,13.992415428161621,-96.93429565429688, -2.802175283432007
587,1925814296,0.46832573,0.20404023,-0.79172176,0.33498734,-8.519742965698242,5.008946418762207,4.730589389801025,-1.813501238822937,-71.10419464111328, -5.911043643951416
588,1925830963,0.46417126,0.205684,-0.7956994,0.33030754,-6.09827184677124,4.316184043884277,4.401083946228027,-23.18482780456543,-44.81478500366211, -8.743870735168457
589,1925847630,0.46160448,0.20501749,-0.79774356,0.32938707,-3.6188886165618896,-1.184560775756836,-2.3420498371124268,-7.850039005279541,-19.46967124938965, 9.616415023803711
590,1925864297,0.4558416,0.20942657,-0.79790574,0.33421075,11.927299499511719,-7.039642810821533,-10.778264045715332,48.53717803955078,-34.33586502075195, 4.527772903442383
591,1925880964,0.4510439,0.21341047,-0.79877335,0.33612174,4.676412582397461,3.250027656555176,13.081672668457031,28.23844337463379,-34.328128814697266, -3.5326571464538574
592,1925897631,0.4445012,0.21447438,-0.80318946,0.33362788,11.859225273132324,-4.0226593017578125,4.568428993225098,-10.738923072814941,-55.07225036621094, 8.227333068847656
593,1925914298,0.4342088,0.21883725,-0.80705476,0.33501798,8.685079574584961,-1.4741489887237549,4.7465386390686035,27.502138137817383,-76.21209716796875, 9.692694664001465
594,1925930965,0.42482272,0.22206575,-0.81086427,0.33572745,4.1645331382751465,1.7278376817703247,-1.4843387603759766,19.04623794555664,-69.6627426147461, 11.845975875854492
595,1925947632,0.41846907,0.22388612,-0.8134144,0.3363292,0.07497723400592804,3.160728693008423,-6.0953497886657715,12.646090507507324,-45.99473190307617, 10.555896759033203
596,1925964299,0.41745028,0.22312558,-0.8140591,0.33654043,-1.8585649728775024,2.937775135040283,-6.4752583503723145,-0.6713474988937378,-5.138113975524902, 8.681281089782715
597,1925980966,0.42066172,0.22150299,-0.8123946,0.33763385,-0.7590434551239014,0.9918769598007202,-4.263312816619873,0.7396137714385986,28.715734481811523, 2.7620115280151367
598,1925997633,0.4268721,0.21929175,-0.80888575,0.33970073,1.8615580797195435,-1.4964337348937988,-3.161141872406006,4.235269546508789,53.77186965942383, -0.8895765542984009
599,1926014300,0.43595174,0.2161909,-0.8040057,0.34173632,3.890639543533325,-0.21725936233997345,-0.4737234115600586,0.33323442935943604,75.83792114257812, -4.823238372802734
600,1926030967,0.44791755,0.21130222,-0.7986439,0.34189278,5.487509727478027,-0.5997624397277832,0.26829954981803894,-18.580089569091797,94.60025024414062, -8.033175468444824
601,1926047634,0.46229982,0.20348224,-0.7935072,0.33944285,5.437461853027344,1.0624711513519287,0.28672847151756287,-45.98005676269531,110.19876861572266, -5.274266719818115
602,1926064301,0.47845197,0.19572017,-0.7871294,0.33646098,5.312000751495361,1.6371058225631714,0.40584930777549744,-48.28615951538086,122.84432983398438, -13.063619613647461
603,1926080968,0.49244103,0.18965589,-0.78154737,0.33274224,3.126750946044922,0.48649266362190247,2.520937442779541,-45.62556076049805,103.52411651611328, -18.507606506347656
604,1926097635,0.5036353,0.18394777,-0.77706856,0.32966706,-1.0986229181289673,1.5557066202163696,-2.5398919582366943,-39.87424850463867,84.68611907958984, -10.378026962280273
605,1926114302,0.51139456,0.18247014,-0.7723479,0.32963648,-2.5123751163482666,-0.28757748007774353,-5.1838531494140625,-4.044980525970459,61.51874923706055, -14.939369201660156
606,1926130969,0.5141625,0.1855,-0.76801425,0.33373967,-1.6935065984725952,-4.067322731018066,-5.514394283294678,39.17295837402344,28.800418853759766, -12.591326713562012
607,1926147636,0.5099386,0.19326691,-0.7656029,0.34126836,-2.0196871757507324,-4.6686930656433105,-5.346142292022705,78.52436828613281,-21.23602867126465, -7.151644229888916
608,1926164303,0.49975228,0.20097291,-0.7691546,0.34388983,-1.2482391595840454,-4.697729110717773,-6.773558616638184,46.42705154418945,-79.74319458007812, -2.2959144115448
609,1926180970,0.48500144,0.2072598,-0.77838767,0.34048635,-2.860222578048706,-3.4609925746917725,-2.0174028873443604,2.5669445991516113,-128.17919921875, 2.9971988201141357
610,1926197637,0.46881375,0.21348926,-0.7887417,0.335446,-7.313379287719727,-0.14379966259002686,5.775137901306152,-6.920593738555908,-141.77479553222656, 2.654195547103882
611,1926214304,0.45591617,0.21882345,-0.7958901,0.33289197,-11.609137535095215,3.0306100845336914,11.38105583190918,6.133450508117676,-107.97935485839844, 3.1714887619018555
612,1926230971,0.45084104,0.22081791,-0.79890925,0.33125108,-11.467844009399414,6.208866119384766,13.350634574890137,-1.7399846315383911,-43.422523498535156, 0.16660532355308533
613,1926247638,0.45282003,0.21716622,-0.79973316,0.32896975,-8.044156074523926,2.993173837661743,9.373647689819336,-28.525789260864258,13.763965606689453, 9.85713005065918
614,1926264305,0.45572522,0.20626912,-0.80377316,0.32205233,3.694798707962036,-8.939102172851562,-26.20819091796875,-85.2813949584961,18.143802642822266, 37.97507858276367
615,1926280972,0.44757947,0.21803574,-0.79990536,0.33509073,8.676473617553711,5.095315933227539,8.72793960571289,129.3454132080078,-39.34318161010742, -11.68416976928711
616,1926297639,0.4441984,0.21795003,-0.80175096,0.33523473,8.489999771118164,-0.6687247157096863,8.5059814453125,1.6152622699737549,-23.120498657226562, 11.646333694458008
617,1926314306,0.43469542,0.22034164,-0.8062219,0.33540586,10.279022216796875,-5.263649940490723,6.124641418457031,12.368425369262695,-70.90753173828125, 16.19640350341797
618,1926330973,0.42452627,0.22384292,-0.8093253,0.33862382,7.540502071380615,1.866170883178711,2.394641637802124,36.62441635131836,-68.75370025634766, 18.594846725463867
619,1926347640,0.41642848,0.2269742,-0.81229293,0.33948746,4.677188873291016,1.4990559816360474,-3.333801507949829,19.575685501098633,-59.744102478027344, 8.895281791687012
620,1926364307,0.41147092,0.22931485,-0.8141424,0.33952868,1.219685435295105,2.2020394802093506,-3.4355549812316895,10.485718727111816,-38.39637756347656, 1.9781438112258911
621,1926380974,0.4100357,0.23124178,-0.81407773,0.34011245,-0.3034164607524872,0.7206453084945679,-4.495153903961182,11.332651138305664,-11.349830627441406, -5.340586185455322
622,1926397641,0.41230083,0.23044394,-0.8128085,0.3409507,0.9725492596626282,-0.431257963180542,-2.344635009765625,2.0634195804595947,19.67348289489746, 0.07074877619743347
623,1926414308,0.41815373,0.22722766,-0.81049824,0.34148085,2.799970865249634,0.2960088551044464,-2.1170787811279297,-9.741604804992676,47.913753509521484, 2.6468067169189453
624,1926430975,0.42795774,0.2203286,-0.80794716,0.33989704,4.728275299072266,0.5505974292755127,-1.1076927185058594,-37.69806671142578,75.99244689941406, 7.472997188568115
625,1926447642,0.44005734,0.21222623,-0.80469793,0.33730143,5.77325963973999,1.5313471555709839,-0.032286323606967926,-48.6961555480957,92.04750061035156, 4.8186187744140625
626,1926464309,0.45091414,0.2101065,-0.79960495,0.33640015,6.3535847663879395,1.8980190753936768,2.0690481662750244,-15.122906684875488,79.27537536621094, -22.866405487060547
627,1926480976,0.46073815,0.2081861,-0.79590243,0.33304644,3.926201343536377,-1.4197826385498047,5.602052688598633,-29.72097396850586,65.15116882324219, -27.059619903564453
628,1926497643,0.46742517,0.2057728,-0.7929815,0.33219418,-0.7385286092758179,-2.8950014114379883,-0.989000678062439,-14.964776039123535,50.01872253417969, -8.153858184814453
629,1926514310,0.4705499,0.20652284,-0.79036963,0.33353955,-2.809157609939575,-1.6365838050842285,-0.8742299675941467,11.496800422668457,25.544652938842773, -9.869614601135254
630,1926530977,0.47050774,0.20854716,-0.7896082,0.33414197,-4.222836017608643,-2.3755266666412354,-0.9860113859176636,11.832056045532227,-1.5525404214859009, -9.395129203796387
631,1926547644,0.46746805,0.21135682,-0.79068786,0.33408996,-5.176286220550537,-2.9214706420898438,0.014583440497517586,10.878033638000488,-26.43128204345703, -6.369410037994385
632,1926564311,0.46329078,0.21430255,-0.7922531,0.33432436,-6.039114952087402,-1.1755448579788208,2.925225019454956,13.39992904663086,-34.00859832763672, -3.017279624938965
633,1926580978,0.4606253,0.21492745,-0.7933024,0.33511704,-7.978118896484375,-0.10177288949489594,4.827686786651611,7.915865898132324,-17.952632904052734, 7.096232891082764
634,1926597645,0.45949757,0.21541013,-0.7911256,0.341441,-10.009562492370605,0.564334511756897,7.450919151306152,42.8144645690918,9.085862159729004, 16.96921730041504
635,1926614312,0.46008405,0.21695182,-0.78556794,0.35233334,-10.730661392211914,1.1533838510513306,9.016411781311035,76.31770324707031,33.294342041015625, 16.54258155822754
636,1926630979,0.4622379,0.21689993,-0.7803352,0.36106637,-6.393563270568848,-0.2246921807527542,3.6238527297973633,56.76468276977539,41.07141876220703, 14.794515609741211
637,1926647646,0.46404946,0.21727768,-0.7760079,0.36777914,-2.894465923309326,0.755030632019043,-3.677828550338745,45.175052642822266,32.431495666503906, 8.351351737976074
638,1926664313,0.4612112,0.21249603,-0.7817387,0.36196077,5.166932106018066,-11.283575057983398,-32.80071258544922,-56.558433532714844,-29.98996353149414, 22.673582077026367
639,1926680980,0.44476,0.2264374,-0.78295374,0.37134823,7.651908874511719,3.5169413089752197,7.236754894256592,115.83043670654297,-112.2561264038086, -2.6714062690734863
640,1926697647,0.43444636,0.22695428,-0.7900339,0.36823413,5.029374122619629,-0.9884100556373596,12.88542366027832,-17.136016845703125,-82.63804626464844, 25.052560806274414
641,1926714314,0.4188647,0.23519646,-0.7937837,0.37301975,7.939049243927002,-3.653676748275757,-3.604296922683716,65.76565551757812,-109.20319366455078, 14.697310447692871
642,1926730981,0.40644327,0.24222487,-0.7958537,0.37782174,3.07383394241333,4.723530292510986,-2.138075828552246,61.745155334472656,-84.08232116699219, 10.46578598022461
643,1926747648,0.39744246,0.2462523,-0.7977041,0.3808791,1.3908032178878784,1.2990769147872925,-5.641443252563477,38.214393615722656,-59.51551055908203, 13.221537590026855
644,1926764315,0.39258152,0.24832636,-0.7979814,0.38398045,3.3294107913970947,4.587464809417725,-5.410524368286133,30.34873390197754,-27.19744873046875, 10.59342098236084
645,1926780982,0.39194357,0.24773939,-0.7977647,0.38545883,5.178497314453125,2.1462879180908203,-3.3297512531280518,8.525055885314941,1.6336748600006104, 8.96385383605957
646,1926797649,0.3939828,0.2458463,-0.7970534,0.38606274,7.4348673820495605,2.2458441257476807,-1.7981526851654053,-2.9959475994110107,19.654029846191406, 5.9700927734375
647,1926814316,0.3976519,0.24332692,-0.7970537,0.38389024,7.83565616607666,1.252446174621582,0.7317293882369995,-24.58651351928711,23.620506286621094, -1.0478711128234863
648,1926830983,0.40373164,0.24085438,-0.79617584,0.3809138,10.317704200744629,0.6974709630012512,3.995568037033081,-30.584136962890625,37.633995056152344, -11.209022521972656
649,1926847650,0.41382033,0.23884386,-0.7917722,0.38053215,8.27173900604248,0.4971230924129486,4.029594421386719,-12.48391342163086,72.16661071777344, -22.770263671875
650,1926864317,0.42121327,0.23725046,-0.7911282,0.37471208,1.9334666728973389,0.6392444372177124,0.0751417800784111,-46.39162826538086,36.57571792602539, -27.179872512817383
651,1926880984,0.42351314,0.23826817,-0.791853,0.36991274,0.0067427754402160645,-1.8057373762130737,0.19945760071277618,-28.54292869567871,-0.13845010101795197, -23.037424087524414
652,1926897651,0.42398372,0.23866719,-0.7933373,0.3659141,-3.6956143379211426,-1.0306415557861328,2.58876371383667,-24.23712158203125,-9.788969993591309, -11.851949691772461
653,1926914318,0.4245511,0.2368733,-0.7955829,0.36152002,-5.994937419891357,-1.469857096672058,1.9861252307891846,-35.5405387878418,-6.282325267791748, 0.15954864025115967
654,1926930985,0.43015525,0.23179662,-0.7959734,0.3573015,-9.992387771606445,2.1896650791168213,11.522533416748047,-49.82358169555664,36.23182678222656, 3.9358725547790527
655,1926947652,0.44124016,0.22380507,-0.7926407,0.3562868,-10.968133926391602,0.6881520748138428,11.112554550170898,-38.89810562133789,88.42633819580078, 9.05595874786377
656,1926964319,0.45575705,0.21598963,-0.78578454,0.35801962,-10.847233772277832,0.988987147808075,9.086342811584473,-19.086145401000977,120.91325378417969, 1.980741024017334
657,1926980986,0.46937913,0.20738,-0.78058165,0.35689,-5.218447685241699,-1.4711061716079712,-0.6302961111068726,-40.807777404785156,108.9652328491211, 2.230018377304077
658,1926997653,0.47861305,0.20046808,-0.7781129,0.35395417,-2.8167881965637207,-0.9131944179534912,-7.8409271240234375,-45.161949157714844,69.80709075927734, 1.708414912223816
659,1927014320,0.48234794,0.19428097,-0.7803198,0.34741583,-2.0250964164733887,0.07632354646921158,-11.14363956451416,-65.84615325927734,18.610065460205078, 5.764649391174316
660,1927030987,0.47905672,0.18968794,-0.7880976,0.33678877,-1.0988922119140625,-0.46735745668411255,-11.509246826171875,-86.29495239257812,-46.4493293762207, 7.855138778686523
661,1927047654,0.46915758,0.18939921,-0.7975691,0.32848725,-1.4865888357162476,-1.0434341430664062,-7.828398704528809,-54.71219253540039,-94.394775390625, 9.687100410461426
662,1927064321,0.45846844,0.19290753,-0.80359524,0.3268476,-2.896530866622925,2.5371570587158203,0.8765766024589539,2.9422554969787598,-87.2630386352539, 7.614419460296631
663,1927080988,0.44851372,0.1970702,-0.80838114,0.32637444,5.078003406524658,-2.986362934112549,-8.353798866271973,13.274194717407227,-79.22482299804688, 4.425457000732422
664,1927097655,0.43739933,0.2038522,-0.81198686,0.3283369,6.0881757736206055,-2.1266872882843018,2.8886990547180176,39.152774810791016,-84.44400024414062, -1.644193410873413
665,1927114322,0.42834494,0.20688234,-0.81631035,0.32765722,7.38985538482666,-3.099719524383545,3.1908469200134277,8.550114631652832,-70.52381134033203, 7.7259602546691895
666,1927130989,0.41878372,0.21077049,-0.82006836,0.32815447,7.495334148406982,-1.5724525451660156,0.6400827169418335,19.603891372680664,-72.1738052368164, 6.719336986541748
667,1927147656,0.4107882,0.21534017,-0.82246166,0.32930225,4.3613786697387695,1.386183261871338,-2.20843243598938,26.01797103881836,-60.146488189697266, -0.7085604071617126
668,1927164323,0.4058929,0.21951039,-0.8232109,0.3307436,1.6965066194534302,1.4230104684829712,-3.5606141090393066,25.72378158569336,-36.637874603271484, -6.977949142456055
669,1927180990,0.40529516,0.22082698,-0.8227124,0.33183846,0.32911965250968933,1.292346715927124,-4.51254415512085,12.207001686096191,-2.7935404777526855, -3.3884215354919434
670,1927197657,0.40888137,0.21992055,-0.8208541,0.33264259,0.5614209175109863,2.120897054672241,-4.270114421844482,1.1798205375671387,29.411067962646484, -3.195180892944336
671,1927214324,0.4163137,0.21663874,-0.8181276,0.33229417,2.392467975616455,2.8517236709594727,-3.7002718448638916,-15.767181396484375,57.351097106933594, -3.0717692375183105
672,1927230991,0.4266902,0.21069837,-0.8152721,0.32996133,4.523201942443848,3.474994659423828,-1.3749408721923828,-38.56686782836914,77.45449829101562, -0.6059228181838989
673,1927247658,0.43865395,0.20300063,-0.81266797,0.3254927,6.4896440505981445,2.7391746044158936,0.504001796245575,-58.52628707885742,86.46105194091797, -0.10584854334592819
674,1927264325,0.45107934,0.19846007,-0.80701315,0.32538027,6.286418437957764,1.0543988943099976,1.727477788925171,-18.477312088012695,97.13055419921875, -9.753564834594727
675,1927280992,0.4607767,0.19795072,-0.8011212,0.32665986,0.8993557691574097,1.3280268907546997,-0.8334391117095947,5.969983100891113,75.46685028076172, -21.937271118164062
676,1927297659,0.4678418,0.1980438,-0.79619354,0.32860333,-2.4463937282562256,-1.5425770282745361,-3.0092246532440186,12.950943946838379,57.47747802734375, -15.898472785949707
677,1927314326,0.47057375,0.20178568,-0.7913582,0.33406052,-3.835451364517212,-2.6280884742736816,-5.695370197296143,49.610443115234375,30.124361038208008, -14.748847961425781
678,1927330993,0.4690953,0.20777832,-0.78823197,0.33980796,-2.79211163520813,-1.9779940843582153,-6.8766961097717285,60.403480529785156,-2.863013744354248, -14.15804672241211
679,1927347660,0.46450838,0.2115996,-0.7899753,0.33970302,-3.6300153732299805,-2.526291847229004,-4.528750896453857,14.784540176391602,-38.471317291259766, -7.1584343910217285
680,1927364327,0.4567804,0.21413949,-0.79517317,0.3364477,-5.180750846862793,-2.0937087535858154,-2.6529150009155273,-9.906119346618652,-68.00072479248047, 1.9719351530075073
681,1927380994,0.44793507,0.2159112,-0.8015339,0.33208644,-7.253297805786133,-1.3466057777404785,1.135175347328186,-19.406261444091797,-77.50363159179688, 6.865134239196777
682,1927397661,0.4392734,0.2177102,-0.80704176,0.32912934,-8.630112648010254,0.39063939452171326,5.168603420257568,-9.953935623168945,-71.81358337402344, 9.23477554321289
683,1927414328,0.4319253,0.21905503,-0.81101424,0.32819626,-8.487846374511719,1.3785643577575684,5.209903240203857,1.3559328317642212,-55.89900207519531, 12.51162052154541
684,1927430995,0.4269181,0.22034183,-0.8129446,0.32910967,-8.422999382019043,2.492943286895752,5.570905685424805,12.520963668823242,-33.935035705566406, 9.904191970825195
685,1927447662,0.4242194,0.22184414,-0.8127383,0.33208555,-6.054875373840332,2.331338405609131,3.2685787677764893,25.987960815429688,-12.19462776184082, 6.268247127532959
686,1927464329,0.42438278,0.22056346,-0.81291646,0.3322942,-2.8105533123016357,1.567652940750122,-4.563775539398193,-2.8458404541015625,4.778517246246338, 7.802212238311768
687,1927480996,0.4196302,0.22330892,-0.812636,0.33714673,10.181076049804688,-6.033229827880859,-8.26851749420166,43.416969299316406,-23.36515235900879, 9.40279483795166
688,1927497663,0.41617063,0.22491246,-0.8131722,0.33907065,4.807403087615967,1.4642893075942993,11.601736068725586,19.887544631958008,-20.2858943939209, 5.542278289794922
689,1927514330,0.41129062,0.22357135,-0.8171272,0.336393,10.41557502746582,-6.232591152191162,7.508581638336182,-20.147502899169922,-38.69810485839844, 17.541576385498047
690,1927530997,0.40142006,0.22501598,-0.8211856,0.33746904,8.26097583770752,-2.1052088737487793,3.8275036811828613,16.096067428588867,-68.09300231933594, 24.161327362060547
691,1927547664,0.39408433,0.22474267,-0.82517475,0.33656576,5.224316596984863,0.7583296895027161,-1.7750753164291382,-3.6522858142852783,-52.903533935546875, 22.463403701782227
692,1927564331,0.39042646,0.22273353,-0.82863504,0.3336503,1.5891731977462769,3.0630745887756348,-4.43599796295166,-24.196239471435547,-29.723527908325195, 17.624177932739258
693,1927580998,0.38911065,0.22029752,-0.83130646,0.33014056,1.2132230997085571,2.3402764797210693,-4.241392612457275,-30.40906524658203,-14.08837890625, 11.986123085021973
