PacketCounter,SampleTimeFine,Quat_W,Quat_X,Quat_Y,Quat_Z,Acc_X,Acc_Y,Acc_Z,Gyr_X,Gyr_Y,Gyr_Z 
1,412458312,0.7569151,0.1903981,-0.58635545,0.21683054,-0.06726408004760742,-0.04542621225118637,0.025477763265371323,-0.194580078125,0.4366285502910614, -0.1369737684726715
2,412474979,0.7563305,0.19089864,-0.58694077,0.21684657,16.31883430480957,0.7292023301124573,3.9499154090881348,-0.3371143341064453,3.7289209365844727, 1.6134141683578491
3,412491646,0.75620437,0.19192791,-0.5869293,0.21640857,16.252389907836914,0.5805293917655945,3.8498761653900146,0.3871936500072479,3.6601901054382324, 1.507813572883606
4,412508313,0.75595915,0.19235425,-0.58714724,0.21629584,16.327985763549805,0.6394189596176147,4.026319980621338,1.5021783113479614,3.630042791366577, 1.1089723110198975
5,412524980,0.7560788,0.19252001,-0.5868841,0.21644472,16.307233810424805,0.6580488085746765,3.992936611175537,0.6030189990997314,3.599154472351074, 1.1088571548461914
6,412541647,0.7563622,0.19251744,-0.58649504,0.21651171,16.292560577392578,0.6615453958511353,4.005008220672607,0.6338055729866028,3.889756441116333, 0.9894891977310181
7,412558314,0.75672007,0.19245975,-0.5860574,0.21649653,16.399700164794922,0.7073019742965698,4.068260669708252,0.13401205837726593,3.9005520343780518, 0.43466681241989136
8,412574981,0.7571369,0.19232905,-0.58559644,0.21640322,16.28220558166504,0.5182555913925171,3.9141733646392822,-0.26875412464141846,3.875016450881958, 0.49789175391197205
9,412591648,0.7573584,0.19234502,-0.5852206,0.2166306,16.191242218017578,0.7496328353881836,3.96842885017395,1.7318986654281616,3.752701997756958, 0.459856778383255
10,412608315,0.7576051,0.19218703,-0.5849352,0.21667838,16.327016830444336,0.729067325592041,3.924349784851074,0.013158525340259075,3.4945521354675293, 1.072730302810669
11,412624982,0.7577664,0.19219922,-0.5846494,0.2168746,16.272836685180664,0.9413727521896362,4.0509185791015625,1.2345515489578247,3.5608253479003906, 1.438159704208374
12,412641649,0.7579873,0.19207339,-0.58435196,0.21701598,16.385295867919922,0.6961162686347961,3.959838628768921,-0.2875153422355652,3.701335906982422, 2.5172224044799805
13,412658316,0.7581559,0.19183592,-0.5841449,0.21719535,16.48271942138672,0.6883441805839539,4.070113658905029,-1.0447421073913574,3.4903900623321533, 2.956493616104126
14,412674983,0.75834143,0.19148707,-0.58398306,0.21729,16.224790573120117,0.8135733604431152,4.061224460601807,-0.21988506615161896,3.3713550567626953, 3.189223289489746
15,412691650,0.75854427,0.1910822,-0.58385736,0.21727607,16.133556365966797,0.6040350794792175,3.7540676593780518,-0.8636347055435181,3.0189626216888428, 3.0955443382263184
16,412708317,0.7586728,0.19089913,-0.5836451,0.21755837,16.137287139892578,0.6331530213356018,3.9006762504577637,0.2818101644515991,3.693934440612793, 3.021806001663208
17,412724984,0.75885797,0.19057025,-0.5834755,0.21765608,16.332975387573242,0.47140324115753174,3.9163055419921875,-0.4107765555381775,3.781658172607422, 2.6610639095306396
18,412741651,0.75903445,0.1902739,-0.58328164,0.21781905,16.31629180908203,0.7665623426437378,4.1174421310424805,-0.17124652862548828,4.0073442459106445, 2.3478715419769287
19,412758318,0.7592122,0.18991819,-0.583078,0.21805553,16.188570022583008,0.7497236132621765,3.960171937942505,-1.0367380380630493,3.9835362434387207, 2.9015791416168213
20,412774985,0.7593371,0.1895002,-0.58291286,0.21842547,16.18512725830078,0.6096934676170349,3.9664459228515625,-0.5137779712677002,3.8543081283569336, 4.1654767990112305
21,412791652,0.7594954,0.18893337,-0.58270645,0.21891655,16.249523162841797,1.0824609994888306,3.9451467990875244,-1.3123438358306885,4.562768936157227, 5.063574314117432
22,412808319,0.7596251,0.18830316,-0.5825645,0.21938623,16.349323272705078,0.5332890748977661,3.8790743350982666,-1.229256272315979,4.246554374694824, 5.981380462646484
23,412824986,0.75971,0.18789446,-0.5823199,0.2200908,16.067092895507812,0.790151059627533,4.184196949005127,0.13672703504562378,4.6741461753845215, 5.815717697143555
24,412841653,0.75978583,0.18741672,-0.5821454,0.2206968,16.023269653320312,0.4167177677154541,3.8364124298095703,0.1913973093032837,4.035351276397705, 6.03821325302124
25,412858320,0.7598056,0.18707709,-0.5820039,0.22128956,16.07701873779297,0.4345511198043823,4.1117048263549805,0.9983638525009155,3.51073956489563, 5.34878396987915
26,412874987,0.7598755,0.1866175,-0.5818862,0.22174682,15.774853706359863,0.40125781297683716,4.012936592102051,-0.9493860602378845,3.4528167247772217, 4.742825984954834
27,412891654,0.7599249,0.18637064,-0.5817512,0.22213891,16.10703468322754,0.163394033908844,3.980748414993286,0.691178023815155,2.9879202842712402, 3.62046480178833
28,412908321,0.7600468,0.18619367,-0.58154714,0.22240491,15.909958839416504,0.5207081437110901,4.080532073974609,0.2852678894996643,3.3742239475250244, 2.135913848876953
29,412924988,0.76018906,0.18622209,-0.581257,0.2226532,15.847612380981445,0.11390431225299835,3.817176103591919,1.6136963367462158,3.492349863052368, 1.1579952239990234
30,412941655,0.760312,0.18656752,-0.5808384,0.22303677,15.991212844848633,0.3440170884132385,3.98323392868042,3.90458607673645,3.3887717723846436, 0.09543933719396591
31,412958322,0.7605554,0.18671593,-0.580402,0.22321838,15.945963859558105,0.6445353031158447,4.03075647354126,2.439014196395874,3.543036699295044, -0.37773609161376953
32,412974989,0.76075274,0.18737379,-0.57973635,0.2237237,16.08664321899414,0.4583720862865448,3.9584248065948486,6.880090236663818,4.020752906799316, -0.9260273575782776
33,412991656,0.7610104,0.18854749,-0.5787132,0.22450869,15.9315824508667,0.8375235795974731,3.9994451999664307,10.701483726501465,5.64105224609375, -2.2172539234161377
34,413008323,0.7614493,0.18942896,-0.57758987,0.22517063,15.744067192077637,0.49095281958580017,3.825664758682251,9.14045238494873,7.175252914428711, -1.9552104473114014
35,413024990,0.7618299,0.19032188,-0.57651454,0.22588465,15.664813041687012,0.3907414376735687,3.972999095916748,9.177937507629395,6.733447551727295, -1.6469742059707642
36,413041657,0.76219743,0.19116002,-0.57551116,0.226495,15.693058013916016,0.5926044583320618,4.080674171447754,8.810112953186035,6.263133525848389, -1.7479779720306396
37,413058324,0.762522,0.19184855,-0.5746679,0.22696094,15.595297813415527,0.5191020965576172,4.01222038269043,7.245288848876953,5.294165134429932, -1.6370103359222412
38,413074991,0.7628897,0.19218986,-0.5739782,0.22718224,15.810745239257812,0.6991132497787476,4.015583515167236,4.197056770324707,4.879917621612549, -1.4023722410202026
39,413091658,0.76328623,0.19267866,-0.57313037,0.22757623,15.76688289642334,0.8222172856330872,4.158910274505615,5.909804821014404,5.825334072113037, -1.3150458335876465
40,413108325,0.7637376,0.193531,-0.5719979,0.22818694,15.647053718566895,0.7673261165618896,3.888371229171753,8.875848770141602,7.247072219848633, -2.115046739578247
41,413124992,0.7640407,0.19499701,-0.57072276,0.22911513,15.884800910949707,0.8071264624595642,4.002289295196533,14.005758285522461,6.887087345123291, -2.7486929893493652
42,413141659,0.76432,0.19641767,-0.56952155,0.22995739,15.585553169250488,1.1539679765701294,4.082569599151611,13.295428276062012,6.363793849945068, -2.8972725868225098
43,413158326,0.7645354,0.19725847,-0.568682,0.23059866,15.521838188171387,0.7929278612136841,3.886375904083252,9.25011157989502,4.870262622833252, -1.006361722946167
44,413174993,0.7647142,0.19771951,-0.5680511,0.23116499,15.66689395904541,0.8932375311851501,4.060202121734619,6.846358299255371,4.141516208648682, 0.47229185700416565
45,413191660,0.7648776,0.19797416,-0.56752974,0.23168689,15.61108684539795,1.0501197576522827,4.187405109405518,5.339710712432861,3.77051043510437, 1.192002296447754
46,413208327,0.7650741,0.19800405,-0.56704843,0.23218992,15.472954750061035,0.7795364856719971,3.9239137172698975,3.9586803913116455,4.018754959106445, 1.9714032411575317
47,413224994,0.7652578,0.19803588,-0.5665659,0.23273459,15.623869895935059,0.8208135962486267,4.115011692047119,4.039333820343018,4.0267839431762695, 2.167865037918091
48,413241661,0.7655204,0.19809923,-0.56596375,0.23328164,15.495057106018066,0.9255659580230713,3.9860575199127197,4.385976791381836,4.9201812744140625, 1.7946373224258423
49,413258328,0.76579905,0.19820522,-0.56534636,0.23377363,15.52835464477539,0.7736838459968567,4.039751052856445,4.382314205169678,4.920501708984375, 1.2913604974746704
50,413274995,0.7660218,0.1983958,-0.56477696,0.23425819,15.441473007202148,0.7761008143424988,4.124393939971924,4.944576740264893,4.313018798828125, 1.1219323873519897
51,413291662,0.7662093,0.19860369,-0.56425834,0.23471835,15.380334854125977,0.9370421171188354,4.119499683380127,4.765364646911621,3.8410658836364746, 1.0107988119125366
52,413308329,0.7663921,0.19862658,-0.56388,0.23501086,15.251861572265625,0.8206696510314941,4.033658504486084,2.9882912635803223,3.15645170211792, 1.0687220096588135
53,413324996,0.7665438,0.198501,-0.5636283,0.23522598,15.405888557434082,0.706139326095581,4.023357391357422,1.7370595932006836,2.503570795059204, 1.45863676071167
54,413341663,0.76665246,0.19838153,-0.56346494,0.23536362,15.56861686706543,0.8414227366447449,4.2092695236206055,1.5070446729660034,1.7628772258758545, 1.2522497177124023
55,413358330,0.7668676,0.19808316,-0.5632834,0.23534864,15.37287712097168,1.0213289260864258,4.041301727294922,-0.21800248324871063,2.348498821258545, 0.9231008291244507
56,413374997,0.76705337,0.1978948,-0.56305915,0.23543844,15.481958389282227,0.6876078844070435,3.8987298011779785,0.9286845326423645,2.428410530090332, 1.060372233390808
57,413391664,0.7672583,0.19774415,-0.56281465,0.23548171,15.294651985168457,1.0379047393798828,4.162779331207275,0.9553664326667786,2.4911935329437256, 0.6085705161094666
58,413408331,0.76746905,0.19753951,-0.56260717,0.23546267,15.43773078918457,0.9189763069152832,3.8639039993286133,0.41169214248657227,2.3214006423950195, 0.5510124564170837
59,413424998,0.767648,0.19755626,-0.5622912,0.23562017,15.456696510314941,1.0165594816207886,4.09628438949585,2.496079206466675,2.6585662364959717, 0.5375529527664185
60,413441665,0.7678746,0.19738992,-0.5619797,0.23576464,15.423408508300781,1.151490330696106,4.02409029006958,1.1257230043411255,3.0850305557250977, 1.022017240524292
61,413458332,0.7681343,0.19698218,-0.5617185,0.23588161,15.348299980163574,1.025799036026001,4.03443717956543,-0.14907875657081604,3.3081560134887695, 1.9000976085662842
62,413474999,0.7683712,0.19643381,-0.56148624,0.23612054,15.160843849182129,0.9012346863746643,3.8756773471832275,-0.5390833616256714,3.4545841217041016, 3.1319150924682617
63,413491666,0.76857346,0.19597788,-0.56120574,0.23650749,15.270386695861816,1.0136460065841675,4.0344343185424805,0.7530710101127625,3.6283912658691406, 3.581007957458496
64,413508333,0.76880795,0.1953268,-0.5609888,0.23679805,15.217373847961426,1.0010950565338135,4.036862850189209,-0.8097328543663025,3.601792335510254, 3.8555893898010254
65,413525000,0.7690268,0.19459964,-0.56081283,0.2371031,15.121087074279785,0.7834790349006653,4.0192952156066895,-1.35124933719635,3.4601030349731445, 4.261256217956543
66,413541667,0.7692091,0.19391122,-0.5606862,0.2373747,15.08123779296875,0.763580322265625,4.0753350257873535,-1.1305960416793823,2.9555585384368896, 4.114930152893066
67,413558334,0.7693801,0.19343743,-0.5605485,0.2375321,15.28979206085205,0.8772355914115906,3.988981008529663,-0.37070539593696594,2.467008352279663, 2.697138786315918
68,413575001,0.76951396,0.1932767,-0.56033915,0.23772405,15.275093078613281,0.8687288761138916,4.142361640930176,1.4604426622390747,2.2350988388061523, 1.6009539365768433
69,413591668,0.7696956,0.19324341,-0.5599931,0.2379785,15.034608840942383,0.8557345271110535,3.943819999694824,2.676456928253174,3.021331548690796, 1.2279815673828125
70,413608335,0.76993704,0.19318956,-0.5595387,0.23830923,15.150059700012207,0.7629433870315552,3.8022990226745605,2.8715360164642334,3.958692789077759, 1.443615198135376
71,413625002,0.77022606,0.19299227,-0.55911696,0.23852526,15.054579734802246,0.9657144546508789,4.09975004196167,1.5274838209152222,4.055789947509766, 1.3452749252319336
72,413641669,0.7705094,0.192784,-0.5586966,0.2387632,15.011570930480957,0.8123517632484436,3.8901846408843994,1.4618897438049316,4.069403648376465, 1.4875280857086182
73,413658336,0.77070117,0.19272831,-0.5582884,0.2391439,15.023378372192383,0.815761387348175,4.057969570159912,3.184177875518799,3.603111743927002, 1.9117770195007324
74,413675003,0.77089685,0.19271998,-0.5579063,0.23941134,14.996907234191895,0.9520161151885986,4.07330322265625,2.935913562774658,3.251577377319336, 1.1543323993682861
75,413691670,0.77104944,0.19278209,-0.5575533,0.23969221,15.008437156677246,0.7428491115570068,3.9273245334625244,3.1447978019714355,2.8273026943206787, 0.9945346713066101
76,413708337,0.77125525,0.19278307,-0.557195,0.23986247,14.91758918762207,1.0148131847381592,3.997345447540283,2.6025643348693848,3.0249178409576416, 0.6362516283988953
77,413725004,0.77151793,0.19257998,-0.5568421,0.2400001,14.727410316467285,0.9486451745033264,3.9123756885528564,1.2529029846191406,3.5075125694274902, 1.1441643238067627
78,413741671,0.7717607,0.19223273,-0.55656856,0.24013259,15.062220573425293,0.8102666139602661,3.9425711631774902,0.4535304307937622,3.2462880611419678, 1.840112328529358
79,413758338,0.7719601,0.19204877,-0.556262,0.24034934,14.935624122619629,1.112407922744751,4.115427494049072,1.7643119096755981,3.100053071975708, 1.6947606801986694
80,413775005,0.77223,0.19168343,-0.5559333,0.24053402,14.937265396118164,1.0244015455245972,3.8062312602996826,0.7220156788825989,3.7474136352539062, 2.112823724746704
81,413791672,0.7724579,0.19126141,-0.55564415,0.24080609,15.152365684509277,0.978740930557251,4.024855613708496,0.6309240460395813,3.587141990661621, 2.8808975219726562
82,413808339,0.7727208,0.19058622,-0.55543005,0.24099188,14.790873527526855,1.0620445013046265,4.097768783569336,-1.2173715829849243,3.62941575050354, 3.432774305343628
83,413825006,0.7729345,0.19003634,-0.55519915,0.24127239,15.142743110656738,0.8115656971931458,3.8688242435455322,-0.007786260452121496,3.4479238986968994, 3.5528206825256348
84,413841673,0.77315956,0.18965386,-0.55493915,0.24145041,14.942083358764648,1.2571743726730347,4.13994026184082,0.4270598292350769,3.2371959686279297, 2.279383659362793
85,413858340,0.7734203,0.18935724,-0.55456847,0.24170028,14.654195785522461,0.7006393074989319,3.8425939083099365,1.408628225326538,3.915497303009033, 2.1784563064575195
86,413875007,0.77359825,0.18933943,-0.5541595,0.24208225,14.918787956237793,0.7732642889022827,3.9043710231781006,3.5805084705352783,3.515695333480835, 1.9092669486999512
87,413891674,0.773835,0.18919793,-0.5537695,0.24232855,14.866960525512695,1.0878536701202393,4.163537502288818,2.250978708267212,3.6712543964385986, 1.5697705745697021
88,413908341,0.77410424,0.18891457,-0.55343324,0.24245825,14.876053810119629,0.8055097460746765,3.9331352710723877,0.9717907905578613,3.5948259830474854, 1.5302244424819946
89,413925008,0.77432495,0.18866035,-0.5531176,0.24267131,14.91124153137207,1.0301858186721802,4.0337748527526855,1.3939005136489868,3.3626205921173096, 1.9436259269714355
90,413941675,0.77462566,0.18826923,-0.5528043,0.24272877,14.711905479431152,1.1734132766723633,4.029079914093018,-0.045193616300821304,3.6805777549743652, 1.5063790082931519
91,413958342,0.77485996,0.18813482,-0.55243516,0.2429258,14.843379020690918,0.764137864112854,3.861208915710449,2.102450132369995,3.47682785987854, 1.3431363105773926
92,413975009,0.77505267,0.18835662,-0.55197436,0.24318667,14.865421295166016,1.2687156200408936,4.113280773162842,4.4907708168029785,3.2970526218414307, 0.2920039892196655
93,413991676,0.7753115,0.18837394,-0.55149335,0.2434388,14.603128433227539,0.9361509084701538,3.8531103134155273,3.232252597808838,3.982077121734619, 0.8601961731910706
94,414008343,0.7755401,0.18834883,-0.55107176,0.24368468,14.9013671875,1.023486852645874,3.998506546020508,3.0228939056396484,3.615494966506958, 1.1513997316360474
95,414025010,0.77573925,0.18843037,-0.55057955,0.24409992,14.843765258789062,1.1201525926589966,4.08071231842041,4.293911933898926,3.9189934730529785, 1.574649691581726
96,414041677,0.7759772,0.18825638,-0.55017585,0.24438831,14.711048126220703,1.085133671760559,3.872130870819092,2.4013633728027344,3.860787868499756, 1.9727349281311035
97,414058344,0.7761785,0.18803051,-0.5498456,0.24466586,14.673605918884277,1.1469260454177856,3.9537103176116943,1.8819124698638916,3.402282476425171, 2.2245078086853027
98,414075011,0.77638793,0.18764351,-0.54960734,0.24483399,14.644668579101562,1.0589958429336548,4.029074192047119,0.6184507012367249,3.076169013977051, 2.423454761505127
99,414091678,0.77656394,0.18733558,-0.54936916,0.2450461,14.850553512573242,1.068509817123413,4.02256441116333,1.3183050155639648,2.8739824295043945, 2.4433047771453857
100,414108345,0.7767145,0.18715878,-0.5491033,0.24529904,14.862078666687012,1.1567186117172241,4.075372695922852,2.1566338539123535,2.7570340633392334, 2.1404595375061035
101,414125012,0.77695286,0.18684712,-0.5487863,0.24549125,14.512842178344727,1.0895109176635742,3.932448148727417,1.1534870862960815,3.5113537311553955, 2.1057543754577637
102,414141679,0.7771753,0.18664771,-0.5483852,0.2458351,14.614383697509766,0.8061734437942505,3.8391644954681396,2.5624163150787354,3.908888816833496, 2.442843437194824
103,414158346,0.77732813,0.18657911,-0.5480813,0.24608171,14.606218338012695,1.2291063070297241,4.0634565353393555,2.5832390785217285,2.7811481952667236, 1.5819746255874634
104,414175013,0.7775071,0.18637843,-0.5478739,0.24613014,14.282934188842773,1.1746479272842407,3.8845064640045166,0.9849939942359924,2.334130048751831, 1.1261711120605469
105,414191680,0.77767223,0.18627384,-0.5476039,0.24628867,14.705848693847656,0.8483597040176392,3.8190081119537354,2.273453712463379,2.602090358734131, 1.3912371397018433
106,414208347,0.7778337,0.18623775,-0.54731035,0.2464588,14.494552612304688,1.3638137578964233,4.163325786590576,2.7471354007720947,2.619084596633911, 1.178177833557129
107,414225014,0.77805775,0.18588796,-0.54706645,0.24655679,14.269783973693848,1.0853825807571411,3.8494269847869873,0.42230862379074097,3.023752212524414, 1.8583614826202393
108,414241681,0.7782044,0.18553127,-0.54689205,0.24674971,14.547237396240234,0.928691029548645,3.8330395221710205,0.792232871055603,2.4976799488067627, 2.642122983932495
109,414258348,0.778354,0.185268,-0.5467126,0.24687287,14.406414985656738,1.4700466394424438,4.054299831390381,1.1159261465072632,2.295314073562622, 1.9385420083999634
110,414275015,0.7785307,0.18489496,-0.5465605,0.24693227,14.279708862304688,0.9419929385185242,3.685514211654663,0.21743261814117432,2.35625958442688, 2.013946056365967
111,414291682,0.7786838,0.18469374,-0.54633266,0.24710461,14.391485214233398,1.2308554649353027,3.8237321376800537,1.7453711032867432,2.5317068099975586, 1.9272212982177734
112,414308349,0.7788473,0.18432753,-0.54615015,0.24726596,14.305416107177734,1.1191946268081665,3.926281452178955,0.7385613918304443,2.5986835956573486, 2.538084030151367
113,414325016,0.77898586,0.18399915,-0.54596895,0.24747412,14.386672019958496,1.0499846935272217,3.899553060531616,1.1634889841079712,2.4958746433258057, 2.7019546031951904
114,414341683,0.779069,0.18374911,-0.5457993,0.24777173,14.481986045837402,1.2600756883621216,3.824366569519043,1.8292269706726074,2.2074496746063232, 2.9437379837036133
115,414358350,0.7792572,0.18315816,-0.5456637,0.24791633,14.282493591308594,1.1680046319961548,3.7477593421936035,-0.6189308762550354,2.813023805618286, 3.332192897796631
116,414375017,0.77940816,0.1826364,-0.54552025,0.24814291,14.203569412231445,1.0702425241470337,3.8077893257141113,0.05406200885772705,2.7054247856140137, 3.5451624393463135
117,414391684,0.779591,0.18208484,-0.54537684,0.24828826,14.189908981323242,1.1699579954147339,3.757204294204712,-0.433315634727478,2.7768325805664062, 3.178683042526245
118,414408351,0.7797445,0.18154465,-0.5452517,0.24847683,14.242330551147461,0.8980662226676941,3.749934196472168,-0.3681057393550873,2.606419086456299, 3.381331205368042
119,414425018,0.7799071,0.18108232,-0.5450749,0.24869199,14.305026054382324,0.9689728021621704,3.857776165008545,0.25947585701942444,2.8239219188690186, 3.16644024848938
120,414441685,0.78008205,0.18066242,-0.5448789,0.24887773,14.432668685913086,1.1168098449707031,3.8782827854156494,0.48267778754234314,2.865952730178833, 2.8431320190429688
121,414458352,0.7802431,0.18028535,-0.54470426,0.24902868,14.360955238342285,1.1080037355422974,3.9025609493255615,0.7046374082565308,2.58273983001709, 2.607238292694092
122,414475019,0.7804041,0.17987315,-0.54452294,0.24921905,14.175369262695312,1.0879558324813843,3.691175699234009,0.30131426453590393,2.7231104373931885, 2.789191246032715
123,414491686,0.7805574,0.17953879,-0.54430866,0.24944806,14.255305290222168,1.0525233745574951,3.718785524368286,1.144919753074646,2.7862579822540283, 2.7673943042755127
124,414508353,0.78071004,0.17917612,-0.5441316,0.24961747,14.253171920776367,1.0781195163726807,3.7621517181396484,0.7823333740234375,2.5576775074005127, 2.632364273071289
125,414525020,0.78086805,0.1787571,-0.54396856,0.2497783,14.357872009277344,0.9229893088340759,3.7628066539764404,0.3317933976650238,2.5880935192108154, 2.7703022956848145
126,414541687,0.78101873,0.17840755,-0.54376066,0.25000983,14.315719604492188,1.2098782062530518,3.8402347564697266,1.0561460256576538,2.7681756019592285, 2.8466784954071045
127,414558354,0.7812441,0.17783664,-0.54355514,0.2501589,14.219168663024902,1.0814064741134644,3.6884000301361084,-0.5437192320823669,3.3131120204925537, 3.1078133583068848
128,414575021,0.7814088,0.17745762,-0.5433035,0.25046042,14.210176467895508,1.0745580196380615,3.7724435329437256,1.1906129121780396,3.1914772987365723, 3.2520642280578613
129,414591688,0.78153914,0.17703961,-0.5430997,0.25079125,14.178281784057617,1.0934793949127197,3.7597360610961914,0.9025212526321411,2.9111719131469727, 3.6122684478759766
130,414608355,0.7816799,0.1765511,-0.5429437,0.25103465,14.282306671142578,1.0723447799682617,3.706023931503296,0.28204065561294556,2.7071664333343506, 3.5273876190185547
131,414625022,0.7817871,0.17614464,-0.54281044,0.25127462,14.24188232421875,1.1280484199523926,3.7326865196228027,0.5229793787002563,2.319748878479004, 3.209495782852173
132,414641689,0.78193897,0.17559291,-0.5426934,0.2514413,14.044586181640625,0.9084962606430054,3.6993722915649414,-0.412057101726532,2.5610711574554443, 3.3934969902038574
133,414658356,0.78208333,0.17513125,-0.5425225,0.2516829,14.198151588439941,1.0095933675765991,3.6152381896972656,0.15902285277843475,2.7639753818511963, 3.2803401947021484
134,414675023,0.7822252,0.17462167,-0.54236704,0.25193077,14.171058654785156,0.9340605139732361,3.7106287479400635,0.12841568887233734,2.7631301879882812, 3.6196446418762207
135,414691690,0.78242093,0.1740475,-0.5422169,0.25204343,13.970580101013184,1.1279137134552002,3.6729938983917236,-0.7618625164031982,2.887927770614624, 3.065103530883789
136,414708357,0.7825381,0.17368212,-0.542003,0.25239146,14.280418395996094,0.8766142129898071,3.5952816009521484,1.245949149131775,2.865338087081909, 3.53206205368042
137,414725024,0.78268063,0.17326532,-0.54184574,0.25257364,14.182854652404785,1.1875362396240234,3.861733913421631,0.4202212393283844,2.5482654571533203, 2.94600510597229
138,414741691,0.78284514,0.17266403,-0.5417376,0.25270745,13.95161247253418,0.8887509107589722,3.55346941947937,-0.8259838819503784,2.6288039684295654, 3.419954776763916
139,414758358,0.7829681,0.172078,-0.5416467,0.25292125,14.09526538848877,0.9467925429344177,3.6574809551239014,-0.6096078753471375,2.4605419635772705, 3.806271553039551
140,414775025,0.7830737,0.17141946,-0.54164714,0.2530404,14.194276809692383,1.1273733377456665,3.7341365814208984,-1.313457727432251,1.9186664819717407, 3.7907376289367676
141,414791692,0.7831441,0.17086872,-0.541663,0.25316125,14.145707130432129,0.8627329468727112,3.6463449001312256,-0.8583585619926453,1.5274264812469482, 3.419987678527832
142,414808359,0.7832076,0.17043266,-0.5416404,0.2533071,14.112585067749023,0.9508055448532104,3.626955032348633,-0.015764614567160606,1.5425951480865479, 3.1240897178649902
143,414825026,0.78329355,0.17003423,-0.5415278,0.2535491,14.060220718383789,0.8534008860588074,3.585359573364258,0.5356448888778687,2.170029878616333, 3.297987937927246
144,414841693,0.78338605,0.16964659,-0.5413783,0.25384226,14.100101470947266,0.8846234083175659,3.602620840072632,1.0024232864379883,2.4343395233154297, 3.5584425926208496
145,414858360,0.78352076,0.16914898,-0.5412275,0.25408012,13.901976585388184,0.9289108514785767,3.562084197998047,-0.020528579130768776,2.7393102645874023, 3.5169761180877686
146,414875027,0.78366286,0.16868839,-0.54103726,0.25435328,13.844297409057617,0.9669948220252991,3.5154287815093994,0.4528709948062897,2.9586129188537598, 3.5563879013061523
147,414891694,0.78382593,0.16814543,-0.54083467,0.25464094,13.805294036865234,0.8091089129447937,3.5563371181488037,0.16847392916679382,3.2670342922210693, 3.948857307434082
148,414908361,0.78396034,0.16766176,-0.540648,0.25494254,13.865076065063477,0.8608008027076721,3.57839298248291,0.2861899435520172,3.00534987449646, 3.7543036937713623
149,414925028,0.7841055,0.16718607,-0.54047227,0.25518116,13.991059303283691,0.8245394825935364,3.532047748565674,0.17031805217266083,2.900888204574585, 3.436743974685669
150,414941695,0.784276,0.16675521,-0.5402586,0.25539112,13.986832618713379,0.8618597388267517,3.546436309814453,0.4426579177379608,3.0897178649902344, 3.079549551010132
151,414958362,0.7844279,0.1664089,-0.5400374,0.2556184,13.941580772399902,0.9626913666725159,3.502507448196411,0.7584367990493774,2.948309898376465, 2.7696995735168457
152,414975029,0.7846172,0.16600825,-0.5398018,0.25579578,13.75513744354248,0.9316355586051941,3.4816486835479736,0.5104931592941284,3.1897354125976562, 2.74517560005188
153,414991696,0.7847902,0.16552702,-0.53960514,0.2559912,13.671419143676758,0.6853823065757751,3.4114296436309814,-0.08532870560884476,3.0907676219940186, 3.129481315612793
154,415008363,0.78492415,0.16507371,-0.5394372,0.2562272,13.770479202270508,0.825892984867096,3.5585949420928955,0.25202253460884094,2.7839787006378174, 3.3632097244262695
155,415025030,0.7850462,0.16463365,-0.53929585,0.2564338,13.871349334716797,0.9255852103233337,3.475511312484741,0.01496422290802002,2.5475101470947266, 3.1238341331481934
156,415041697,0.78515077,0.16424158,-0.53917044,0.2566286,13.942839622497559,1.0635292530059814,3.553072214126587,0.4133826196193695,2.2864270210266113, 3.029515266418457
157,415058364,0.7852821,0.16363381,-0.53910273,0.2567574,13.695470809936523,0.8768885731697083,3.4551360607147217,-1.0480844974517822,2.373049020767212, 3.5375559329986572
158,415075031,0.7854039,0.16324131,-0.5389276,0.25700244,13.722616195678711,0.9614852070808411,3.398852825164795,0.5712464451789856,2.6817970275878906, 3.1770060062408447
159,415091698,0.78551877,0.16283593,-0.53879344,0.25718945,13.605280876159668,0.9194462299346924,3.4008266925811768,0.24477419257164001,2.3925018310546875, 2.985717296600342
160,415108365,0.7856016,0.16244943,-0.53865635,0.257468,13.593022346496582,0.7740312814712524,3.4738223552703857,0.549834132194519,2.375366449356079, 3.3755807876586914
161,415125032,0.7856802,0.1621233,-0.53851104,0.25773776,13.771173477172852,1.0311322212219238,3.445425510406494,1.0772829055786133,2.2708218097686768, 3.2154181003570557
162,415141699,0.78579795,0.16152728,-0.5384552,0.2578695,13.709052085876465,0.8167702555656433,3.3886587619781494,-1.2957465648651123,2.2778592109680176, 3.401923894882202
163,415158366,0.7859005,0.16091128,-0.538403,0.25805098,13.676675796508789,0.7824186086654663,3.4615325927734375,-1.158488154411316,2.2925994396209717, 3.8048627376556396
164,415175033,0.7860268,0.16024901,-0.5383265,0.25823814,13.740911483764648,0.8998621106147766,3.3371543884277344,-1.4860488176345825,2.61435866355896, 3.879946231842041
165,415191700,0.78613913,0.15967894,-0.5382262,0.25845867,13.623008728027344,0.886410653591156,3.3028745651245117,-0.664585530757904,2.558100700378418, 3.7994203567504883
166,415208367,0.78624314,0.15906803,-0.53815705,0.2586624,13.471846580505371,0.8545636534690857,3.216775894165039,-1.009076476097107,2.4217002391815186, 3.906852960586548
167,415225034,0.7863162,0.15842915,-0.53811777,0.2589137,13.635293960571289,0.73492431640625,3.3315954208374023,-1.1570537090301514,2.270726203918457, 4.27871036529541
168,415241701,0.7863216,0.15782158,-0.5381458,0.25921002,13.728516578674316,1.004069209098816,3.5318570137023926,-0.9264626502990723,1.6640379428863525, 4.57151460647583
169,415258368,0.7863524,0.1569811,-0.53827775,0.25935352,13.488409996032715,0.9432722330093384,3.2955124378204346,-2.811788320541382,1.4325889348983765, 4.768131256103516
170,415275035,0.7863326,0.15599547,-0.5385458,0.25945127,13.48402214050293,0.6564658880233765,3.227530002593994,-4.027303218841553,0.734732449054718, 5.264275074005127
171,415291702,0.78628606,0.15504667,-0.5388886,0.25944948,13.459451675415039,0.858119010925293,3.364422559738159,-4.2912163734436035,0.06718851625919342, 4.7266130447387695
172,415308369,0.7861988,0.154385,-0.53913033,0.25960615,13.518019676208496,0.7009910345077515,3.2329275608062744,-2.021482229232788,0.1370343267917633, 4.4416961669921875
173,415325036,0.7861626,0.1541544,-0.5390955,0.25992516,13.512845993041992,0.7696090340614319,3.1974973678588867,1.4148904085159302,1.2264834642410278, 3.378347396850586
174,415341703,0.78617626,0.1539092,-0.53897756,0.26027352,13.463040351867676,0.6200582385063171,3.1615610122680664,1.4706873893737793,1.9379785060882568, 3.3821120262145996
175,415358370,0.78618705,0.15374255,-0.5387844,0.2607388,13.76977825164795,0.6667502522468567,3.2451584339141846,2.3470771312713623,2.3455276489257812, 3.5851693153381348
176,415375037,0.78629875,0.15343969,-0.5385613,0.26104116,13.492246627807617,0.9638071060180664,3.239346742630005,1.1106499433517456,2.9436228275299072, 3.0918948650360107
177,415391704,0.7863603,0.15308693,-0.53841233,0.2613695,13.296867370605469,0.6273136138916016,3.1313581466674805,0.8110581040382385,2.4908158779144287, 3.5731570720672607
178,415408371,0.78634757,0.15263617,-0.5383774,0.26174316,13.555158615112305,0.6973599195480347,3.2764642238616943,0.32285448908805847,1.83395254611969, 4.44057035446167
179,415425038,0.7862124,0.15212378,-0.5385282,0.26213723,13.65359115600586,0.8262238502502441,3.747333288192749,-0.21255983412265778,0.5316364765167236, 5.160300254821777
180,415441705,0.7860552,0.15116563,-0.5389196,0.2623587,13.747782707214355,0.4941374659538269,4.202375411987305,-3.6286537647247314,-0.23526549339294434, 6.2043890953063965
181,415458372,0.7856571,0.14972785,-0.53987163,0.26241794,13.82186222076416,0.4849308431148529,3.423379898071289,-7.82130241394043,-3.433908700942993, 7.981888294219971
182,415475039,0.7851641,0.14777079,-0.5412432,0.2621778,13.86943244934082,0.8994117975234985,2.9850385189056396,-12.328991889953613,-5.430896282196045, 8.933486938476562
183,415491706,0.78466445,0.14486662,-0.54328585,0.26106656,14.169296264648438,0.497251957654953,3.772224187850952,-22.03814697265625,-8.218196868896484, 8.369792938232422
184,415508373,0.783919,0.14271449,-0.54521155,0.26047677,14.58173656463623,-0.8209991455078125,4.921098709106445,-15.755147933959961,-9.306078910827637, 8.59619140625
185,415525040,0.78398764,0.13935325,-0.5464514,0.2594903,15.511028289794922,-0.16417117416858673,4.768823146820068,-23.43906593322754,-0.7799596786499023, 8.766241073608398
186,415541707,0.78477293,0.13448258,-0.54717684,0.25815436,15.332568168640137,-0.4513222575187683,3.6444525718688965,-32.8339958190918,7.074284076690674, 10.671449661254883
187,415558374,0.7859618,0.12887754,-0.54771405,0.25625032,15.177206039428711,0.8260936737060547,3.9099693298339844,-39.05024337768555,10.424413681030273, 9.42080020904541
188,415575041,0.78774744,0.1260508,-0.5458255,0.25620297,14.399730682373047,0.45366284251213074,3.2545437812805176,-13.39273452758789,22.563365936279297, 5.7548747062683105
189,415591708,0.78994673,0.12721269,-0.54141295,0.2582116,13.567054748535156,0.7405953407287598,2.352268695831299,20.03742027282715,32.55263137817383, -0.9800237417221069
190,415608375,0.79070896,0.12920204,-0.5390576,0.2598138,10.551033020019531,2.00641131401062,0.35262271761894226,20.82344627380371,14.180815696716309, -1.790062665939331
191,415625042,0.79050153,0.13029775,-0.5381728,0.26172513,10.46826171875,1.8931230306625366,0.1779918223619461,15.343950271606445,4.505131244659424, 6.270219802856445
192,415641709,0.790085,0.13158655,-0.5375027,0.26370806,10.947705268859863,2.49812912940979,0.30545562505722046,16.589651107788086,2.288080930709839, 6.622574329376221
193,415658376,0.789382,0.13361391,-0.536981,0.26584768,11.495887756347656,1.790927529335022,0.35342442989349365,21.029245376586914,-0.6966153383255005, 5.346282005310059
194,415675043,0.7883897,0.136394,-0.5365727,0.26819453,11.812652587890625,1.3537843227386475,1.6315579414367676,26.150766372680664,-3.5826878547668457, 4.481971263885498
195,415691710,0.78734785,0.13930684,-0.53612614,0.2706399,12.351314544677734,0.5782591104507446,3.0019514560699463,27.49927520751953,-3.7351486682891846, 4.687643051147461
196,415708377,0.7861323,0.14248288,-0.53563875,0.27346998,13.326173782348633,-0.44371646642684937,3.6947951316833496,30.613433837890625,-4.2892327308654785, 6.094326019287109
197,415725044,0.7848316,0.14516081,-0.53538054,0.27628872,14.01773738861084,-0.9199674129486084,4.835339546203613,27.77442741394043,-4.993826389312744, 8.382466316223145
198,415741711,0.7835379,0.14710826,-0.53529227,0.27908736,14.24743938446045,-1.075036644935608,5.331948757171631,23.518503189086914,-4.565026760101318, 11.141801834106445
199,415758378,0.78255016,0.14800316,-0.5354452,0.2810852,14.329708099365234,-0.39160898327827454,4.7859039306640625,14.044702529907227,-3.534006118774414, 10.266849517822266
200,415775045,0.78201276,0.14764056,-0.53585815,0.28198275,13.889543533325195,-0.3085925579071045,3.862943172454834,2.454228639602661,-2.0363380908966064, 8.485599517822266
201,415791712,0.7817992,0.146628,-0.5361616,0.28252602,13.127944946289062,0.3410678803920746,3.039886474609375,-2.501695394515991,0.6580352783203125, 8.202425003051758
202,415808379,0.7816471,0.14513578,-0.53666854,0.28275514,12.38111686706543,0.9613280296325684,2.3849854469299316,-6.73148250579834,0.42717525362968445, 8.354207992553711
203,415825046,0.7813333,0.14389226,-0.53727794,0.28310075,12.213194847106934,1.0172349214553833,2.0021374225616455,-5.080369472503662,-1.045433759689331, 8.451303482055664
204,415841713,0.78064704,0.14366108,-0.537884,0.28395873,12.319299697875977,0.8835906386375427,1.9700982570648193,2.605062246322632,-3.8369882106781006, 8.198250770568848
205,415858380,0.7796256,0.14442046,-0.5384427,0.28531778,12.644756317138672,0.7842260599136353,2.17736554145813,10.113481521606445,-6.206127166748047, 7.793802738189697
206,415875047,0.7785694,0.14534715,-0.53908044,0.28652453,12.823070526123047,0.9126424193382263,2.6687309741973877,10.34439468383789,-7.220789909362793, 6.536397933959961
207,415891714,0.777731,0.1452128,-0.54005563,0.28703272,12.862677574157715,0.373672217130661,2.9974868297576904,1.1966320276260376,-6.816553115844727, 6.6636643409729
208,415908381,0.77688974,0.14413197,-0.54143316,0.28726038,13.032480239868164,-0.693838894367218,3.8125760555267334,-5.783632755279541,-7.352616786956787, 9.03376579284668
209,415925048,0.77606606,0.14217389,-0.5432526,0.28702787,13.282471656799316,-0.824580729007721,4.587248802185059,-13.071085929870605,-8.378667831420898, 10.228129386901855
210,415941715,0.7754006,0.13901344,-0.5455427,0.28602892,13.57168197631836,-0.07430025190114975,3.7968380451202393,-23.503271102905273,-8.673672676086426, 10.711718559265137
211,415958382,0.77503836,0.13557775,-0.54784495,0.284254,13.452552795410156,0.2972799837589264,2.9320967197418213,-28.359407424926758,-7.741515159606934, 6.914355754852295
212,415975049,0.77483416,0.13496736,-0.5489438,0.28297883,12.682442665100098,0.18078827857971191,2.283290147781372,-9.450142860412598,-5.683934688568115, -2.6402862071990967
213,415991716,0.77447265,0.13509983,-0.55007476,0.28170568,11.685728073120117,-0.13788415491580963,2.0909836292266846,-5.312883377075195,-7.915468692779541, -5.028774261474609
214,416008383,0.7738416,0.13587587,-0.5513249,0.28062075,11.392593383789062,0.07548560947179794,1.819629430770874,-1.2179359197616577,-10.605341911315918, -5.877119541168213
215,416025050,0.77318573,0.1368173,-0.55258787,0.2794846,11.46040153503418,0.17110943794250488,1.632157802581787,-0.5764526128768921,-11.106979370117188, -6.746504783630371
216,416041717,0.7725202,0.13780749,-0.55387056,0.27829698,11.571502685546875,-0.006042796652764082,1.8367365598678589,-0.5342300534248352,-11.383034706115723, -7.161034107208252
217,416058384,0.77193195,0.13884822,-0.55494386,0.27727246,11.853694915771484,-0.37350696325302124,2.1554877758026123,0.5826315879821777,-9.867105484008789, -6.902613639831543
218,416075051,0.77145267,0.13952793,-0.55586594,0.27641645,12.545393943786621,-1.0091394186019897,3.3921096324920654,-0.5961485505104065,-7.755270957946777, -5.0542826652526855
219,416091718,0.7709879,0.14055379,-0.55659264,0.27573043,12.3300142288208,-0.11246694624423981,3.005405902862549,2.3231687545776367,-7.213153839111328, -5.663328170776367
220,416108385,0.77050537,0.14261982,-0.55708027,0.27503225,12.189803123474121,0.19552062451839447,2.3328652381896973,8.217155456542969,-7.99079704284668, -9.932828903198242
221,416125052,0.77010494,0.14554422,-0.5568599,0.27506804,12.307560920715332,-0.04823807626962662,2.9602184295654297,16.81453514099121,-4.8207902908325195, -10.186326026916504
222,416141719,0.76979804,0.1486966,-0.5561912,0.27559388,11.03914737701416,0.10806193202733994,2.0165326595306396,20.68091583251953,-2.0562424659729004, -9.072457313537598
223,416158386,0.769214,0.15132156,-0.55617476,0.27582857,10.51101303100586,0.9574568867683411,0.5606155395507812,16.022769927978516,-5.958187103271484, -7.2763848304748535
224,416175053,0.7685953,0.15313166,-0.55679595,0.27530068,10.732498168945312,1.211236834526062,0.830705463886261,7.5992865562438965,-8.672069549560547, -7.458921909332275
225,416191720,0.7679469,0.15459976,-0.5576124,0.27463642,11.67577075958252,0.3539745509624481,2.005120038986206,4.9072489738464355,-9.282675743103027, -6.5955939292907715
226,416208387,0.767141,0.15673785,-0.55812985,0.27462512,12.567486763000488,0.3268256187438965,3.1608505249023438,11.559296607971191,-8.820765495300293, -5.808465957641602
227,416225054,0.7661999,0.159802,-0.55860716,0.27451664,12.167363166809082,1.2515435218811035,2.0006840229034424,16.351604461669922,-11.026966094970703, -9.618494033813477
228,416241721,0.7652037,0.16307779,-0.55907065,0.2744247,10.968441009521484,1.0524705648422241,0.9655884504318237,17.5336856842041,-11.505566596984863, -10.277472496032715
229,416258388,0.7642235,0.16601487,-0.55940896,0.2747054,9.883838653564453,0.695219874382019,0.762868344783783,17.61036491394043,-9.803544998168945, -7.039071559906006
230,416275055,0.7632152,0.16945304,-0.5591789,0.27587536,10.066882133483887,0.07347971200942993,0.5151740312576294,24.794414520263672,-6.852080345153809, -4.870445728302002
231,416291722,0.7622057,0.17350715,-0.55842376,0.27767006,10.643636703491211,0.7516604661941528,1.03642737865448,31.393230438232422,-4.5013322830200195, -4.6053972244262695
232,416308389,0.7614542,0.1770954,-0.5576641,0.27899075,11.542299270629883,1.4459810256958008,1.3085983991622925,27.079580307006836,-3.2580337524414062, -5.647205829620361
233,416325056,0.76070243,0.1804835,-0.55708754,0.28001982,11.346161842346191,0.7377501726150513,1.8548240661621094,24.70917320251465,-4.238245487213135, -6.07136344909668
234,416341723,0.75979894,0.18391006,-0.5566825,0.28104734,10.53724193572998,0.9050604104995728,1.0079708099365234,24.880611419677734,-5.840221405029297, -5.649355411529541
235,416358390,0.7588039,0.18720946,-0.55647475,0.28196687,10.414514541625977,1.3745976686477661,0.9971964359283447,23.33710479736328,-7.009929180145264, -5.410745143890381
236,416375057,0.75786823,0.18988566,-0.5566793,0.28228962,10.493824005126953,1.3152936697006226,1.2261191606521606,17.14858055114746,-8.572839736938477, -5.580209255218506
237,416391724,0.756945,0.19217323,-0.55706775,0.2824524,10.376208305358887,1.2357834577560425,1.5959258079528809,14.202646255493164,-8.954758644104004, -4.657404899597168
238,416408391,0.75597507,0.19398408,-0.55770224,0.2825602,10.257184028625488,1.0452040433883667,1.5072004795074463,10.963313102722168,-9.508554458618164, -2.76254940032959
239,416425058,0.7547813,0.19603093,-0.558475,0.28281215,10.148970603942871,1.4869107007980347,1.037611722946167,12.917709350585938,-11.407959938049316, -2.2139387130737305
240,416441725,0.75330347,0.1982782,-0.55941886,0.28331977,9.972277641296387,1.2136287689208984,0.9734181761741638,14.918079376220703,-13.39022159576416, -0.8945503234863281
241,416458392,0.7515769,0.20065466,-0.56058425,0.2839283,9.925735473632812,1.2657583951950073,0.6166859865188599,16.03923225402832,-15.65471363067627, 0.0075493562035262585
242,416475059,0.74955374,0.20328778,-0.5619735,0.2846563,9.870661735534668,0.7787320017814636,0.11284937709569931,17.67575454711914,-18.22223472595215, 0.4682844579219818
243,416491726,0.7473572,0.20660202,-0.5631436,0.2857309,9.37377643585205,0.31894928216934204,0.83990478515625,23.29153823852539,-18.61051368713379, -0.3044719099998474
244,416508393,0.7453106,0.2099672,-0.56400084,0.28693038,8.946297645568848,0.6344017386436462,1.6167306900024414,24.609277725219727,-16.39435577392578, -0.5382909774780273
245,416525060,0.74374634,0.21260792,-0.56460613,0.28785294,9.051119804382324,1.0549418926239014,1.4908441305160522,19.54180145263672,-12.185877799987793, -0.5156358480453491
246,416541727,0.74233836,0.21509832,-0.5650403,0.28878376,9.578165054321289,1.1491867303848267,0.640677809715271,18.878467559814453,-10.39074420928955, -0.4644486606121063
247,416558394,0.7412021,0.21674065,-0.5655154,0.28954312,9.085183143615723,1.2366873025894165,1.1499894857406616,13.59628963470459,-8.163658142089844, 1.569951057434082
248,416575061,0.74046874,0.21721694,-0.5660305,0.2900559,9.211467742919922,1.167148232460022,0.9847641587257385,5.909306049346924,-4.812128067016602, 4.065934181213379
249,416591728,0.73996186,0.21694958,-0.56664026,0.29035938,8.699841499328613,0.9627466201782227,2.0722925662994385,0.6997454762458801,-3.209092617034912, 5.557054042816162
250,416608395,0.73988795,0.21619852,-0.5670447,0.29031786,7.5798726081848145,1.2515217065811157,2.540456533432007,-3.3144500255584717,-0.06659302115440369, 4.530098915100098
251,416625062,0.740509,0.21512529,-0.5666651,0.290273,8.135181427001953,0.7131853103637695,1.5836424827575684,-4.316637992858887,7.176827430725098, 3.278663396835327
252,416641729,0.7410435,0.214235,-0.5661488,0.2905745,9.053121566772461,1.3757015466690063,-0.4439260959625244,-1.7689160108566284,7.714118003845215, 4.2433013916015625
253,416658396,0.74164546,0.21269669,-0.5658918,0.2906693,8.374210357666016,1.0107226371765137,0.6232371926307678,-6.5149641036987305,7.705282688140869, 5.9732232093811035
254,416675063,0.74229294,0.21132669,-0.5653517,0.29106647,8.286208152770996,0.7519598007202148,0.7520539164543152,-4.0264458656311035,9.461648941040039, 6.347771167755127
255,416691730,0.7432192,0.20901667,-0.5648293,0.29138488,8.026063919067383,-0.004163102246820927,1.6362665891647339,-9.7357177734375,12.289453506469727, 9.00966739654541
256,416708397,0.743659,0.20770565,-0.56447804,0.29188064,8.03701114654541,0.4081198573112488,-0.9120548367500305,-3.5948081016540527,7.7684431076049805, 7.233700752258301
257,416725064,0.7441727,0.2067513,-0.56393445,0.2922994,7.525418281555176,0.6302750706672668,0.6389433145523071,-1.5061042308807373,8.17947769165039, 5.128042697906494
258,416741731,0.744864,0.20586684,-0.5631909,0.29259637,7.79429817199707,0.8058068156242371,0.996476948261261,-1.7297799587249756,9.67860221862793, 3.509127378463745
259,416758398,0.7459431,0.20445785,-0.5622038,0.29273346,7.533048629760742,0.5080689191818237,1.6846479177474976,-5.080129623413086,13.25460147857666, 3.6107594966888428
260,416775065,0.74785256,0.20065412,-0.5610588,0.2926901,7.272152900695801,-0.48335230350494385,3.4953196048736572,-18.672653198242188,21.73769187927246, 10.129682540893555
261,416791732,0.7495736,0.19713072,-0.5598177,0.29305887,7.564535140991211,-0.6645665764808655,1.5338844060897827,-15.374131202697754,21.501415252685547, 11.325193405151367
262,416808399,0.7509714,0.19478151,-0.55868214,0.29321763,7.654786109924316,0.6151357889175415,1.437353491783142,-9.988981246948242,17.090259552001953, 6.456452369689941
263,416825066,0.7526431,0.19110349,-0.55886155,0.29100165,9.70700454711914,0.31771475076675415,2.9093737602233887,-28.914575576782227,10.82259750366211, 0.5481967329978943
264,416841733,0.75380176,0.18728419,-0.560004,0.28827608,9.0963773727417,-0.9647102952003479,1.5700268745422363,-33.096527099609375,3.5436651706695557, 0.6783358454704285
265,416858400,0.75465745,0.18437645,-0.5616499,0.2846874,11.042577743530273,1.2569355964660645,1.799912929534912,-32.47260665893555,-3.0697832107543945, -6.142909049987793
266,416875067,0.75604,0.17901972,-0.5648641,0.27800053,11.57033920288086,0.9854887127876282,4.227080345153809,-60.98823547363281,-8.246354103088379, -11.780303001403809
267,416891734,0.75767654,0.17236793,-0.5690217,0.26912794,11.24697208404541,-1.6884037256240845,4.772087574005127,-78.61886596679688,-12.327437400817871, -17.466989517211914
268,416908401,0.75926495,0.17462514,-0.56892335,0.26334238,12.579442977905273,-1.3845648765563965,7.939181804656982,-12.428464889526367,-3.158386707305908, -41.304744720458984
269,416925068,0.76026225,0.17421724,-0.5694942,0.25947353,4.636516571044922,-4.093498229980469,2.035837411880493,-19.257020950317383,-2.037175416946411, -19.01564598083496
270,416941735,0.759714,0.16975434,-0.57335806,0.2554972,3.479440450668335,-6.7366461753845215,-1.5595756769180298,-44.991973876953125,-18.18450164794922, 2.8291125297546387
271,416958402,0.7575537,0.16480933,-0.5767825,0.2574343,1.5389888286590576,-10.869608879089355,-1.4594987630844116,-21.592945098876953,-14.363194465637207, 37.68465805053711
272,416975069,0.7520361,0.16518396,-0.57728773,0.27183604,3.380598545074463,-12.17676830291748,-0.5947337746620178,64.65291595458984,-7.701289176940918, 83.77371215820312
273,416991736,0.7491424,0.15757081,-0.57753956,0.28355837,3.06154727935791,0.0917215570807457,3.6541616916656494,10.409255981445312,15.938365936279297, 96.02747344970703
274,417008403,0.7479865,0.14453489,-0.5770899,0.2942676,2.671224355697632,-1.7270290851593018,1.9195234775543213,-22.106718063354492,35.864986419677734, 108.22673797607422
275,417025070,0.74739957,0.13482939,-0.5732622,0.30754757,2.6992127895355225,2.688615560531616,5.368118762969971,11.561822891235352,51.27653884887695, 103.70418548583984
276,417041737,0.7485056,0.11977094,-0.5693996,0.31808603,2.608243703842163,-0.008101491257548332,4.481925964355469,-28.278884887695312,66.76970672607422, 107.23545837402344
277,417058404,0.7499891,0.10913172,-0.56211793,0.33110437,3.0218729972839355,2.46616530418396,0.8974032402038574,12.201125144958496,77.56771850585938, 99.32886505126953
278,417075071,0.75228953,0.1021492,-0.5520787,0.34472492,2.4082674980163574,5.567361831665039,0.5992916822433472,39.013633728027344,87.07376098632812, 84.50907897949219
279,417091738,0.75514597,0.10025734,-0.5394869,0.3586881,3.6406478881835938,5.497655868530273,-1.994131088256836,72.22041320800781,90.5719985961914, 64.08644104003906
280,417108405,0.75914717,0.09994824,-0.5266919,0.3691907,4.976431846618652,7.468855857849121,-1.4728244543075562,67.24315643310547,89.71379089355469, 37.52074432373047
281,417125072,0.76366925,0.09957396,-0.5158368,0.3752423,5.987575531005859,6.110260009765625,-2.8848865032196045,45.38169860839844,78.72014617919922, 14.843225479125977
282,417141739,0.7677608,0.09968868,-0.50761276,0.3780675,6.152297019958496,3.7934179306030273,-3.9403698444366455,29.920148849487305,60.11726379394531, -0.660510778427124
283,417158406,0.770661,0.09707502,-0.5037211,0.37805188,5.507014751434326,2.6057167053222656,-4.300224781036377,-4.884418487548828,38.48265838623047, 0.1056465283036232
284,417175073,0.771808,0.09250454,-0.5034034,0.37728038,4.435667037963867,1.3864341974258423,-4.952390670776367,-26.00343132019043,18.295345306396484, 9.947954177856445
285,417191740,0.77146393,0.08826655,-0.50527704,0.376494,4.13109016418457,1.5382585525512695,-4.688944339752197,-29.001737594604492,0.8702011108398438, 14.05974006652832
286,417208407,0.77019924,0.08216911,-0.50927705,0.37507096,4.6314167976379395,1.1502118110656738,-4.0347185134887695,-45.995853424072266,-8.966001510620117, 20.904979705810547
287,417225074,0.7681936,0.07530688,-0.51455045,0.37342423,4.53142786026001,0.9969686269760132,-3.2224700450897217,-53.660030364990234,-16.265600204467773, 25.117155075073242
288,417241741,0.7654784,0.0688411,-0.5210439,0.3712377,4.696989059448242,1.1784132719039917,-2.8032355308532715,-56.20586395263672,-26.363880157470703, 23.406259536743164
289,417258408,0.7606892,0.06431615,-0.53046966,0.36853442,6.176204681396484,-2.960428476333618,-8.742792129516602,-54.3111457824707,-54.288333892822266, 20.51811981201172
290,417275075,0.7496656,0.07119369,-0.5463497,0.36665407,12.756994247436523,-7.422112464904785,-22.17519187927246,-5.068382263183594,-138.9174041748047, 1.8358961343765259
291,417291742,0.7352991,0.07996392,-0.5650756,0.36555508,6.072920799255371,0.14863327145576477,-7.492786407470703,2.5374772548675537,-169.48741149902344, 8.400883674621582
292,417308409,0.71689236,0.08363138,-0.5909606,0.36032885,12.470544815063477,-5.547471046447754,-5.784343719482422,-54.92851257324219,-210.5205841064453, 21.506591796875
293,417325076,0.7023549,0.089770526,-0.60759366,0.35981792,1.487545132637024,-0.07328973710536957,10.594923973083496,-2.675762891769409,-152.25527954101562, 19.701417922973633
294,417341743,0.68771446,0.10144457,-0.6207138,0.3625915,7.591034889221191,-2.1385788917541504,-1.2936756610870361,46.42097473144531,-147.90489196777344, 10.464924812316895
295,417358410,0.6768988,0.112783425,-0.6283306,0.36645418,3.168571710586548,-2.0911850929260254,-1.213088870048523,60.58892822265625,-103.87948608398438, 3.584622859954834
296,417375077,0.66546285,0.122250825,-0.63732076,0.3688311,1.0060904026031494,-1.538961410522461,-4.613240718841553,42.51851272583008,-109.3658676147461, 7.24018669128418
297,417391744,0.65503013,0.13314125,-0.64441496,0.37140083,1.2471035718917847,3.3854098320007324,-4.137573719024658,53.34785079956055,-98.6735610961914, -2.6191811561584473
298,417408411,0.6468332,0.13948995,-0.65167904,0.37076148,3.8481216430664062,1.8238346576690674,-2.693455934524536,16.145517349243164,-80.6176986694336, -2.402592420578003
299,417425078,0.6399097,0.1441608,-0.6575681,0.37059093,5.886123180389404,-1.4138835668563843,-0.5342594981193542,13.112600326538086,-64.0287857055664, 2.767167329788208
300,417441745,0.6328308,0.1499426,-0.6621772,0.37224162,8.330629348754883,-2.1565399169921875,1.5809202194213867,29.625873565673828,-60.1098518371582, 4.866214275360107
301,417458412,0.62587154,0.15424415,-0.66723603,0.37321538,6.765286445617676,-0.02306102216243744,0.15516245365142822,18.72849464416504,-58.474063873291016, 8.784282684326172
302,417475079,0.61954117,0.15630846,-0.6729119,0.37272814,5.037765979766846,1.1828144788742065,-1.3760273456573486,0.13914890587329865,-54.214111328125, 11.88244342803955
303,417491746,0.6139178,0.15697588,-0.679058,0.3705991,3.541635036468506,-1.3588086366653442,-0.3523799479007721,-15.41386890411377,-51.16987609863281, 10.164485931396484
304,417508413,0.60819817,0.15960096,-0.6844032,0.3690731,2.5578722953796387,-1.4660470485687256,-0.5932968854904175,-2.1911749839782715,-52.79532241821289, 2.9307940006256104
305,417525080,0.60229343,0.16291639,-0.68972164,0.36740333,1.3807796239852905,-2.322970151901245,-0.5599995851516724,0.2346981316804886,-55.591278076171875, -0.5308417677879333
306,417541747,0.595866,0.16576566,-0.69588745,0.36497408,2.159282922744751,-1.4609044790267944,0.8746278882026672,-6.288236141204834,-62.6456413269043, 0.6672266125679016
307,417558414,0.587839,0.16845357,-0.7035001,0.36215505,4.039742946624756,-1.1434212923049927,1.6209607124328613,-10.686931610107422,-76.50404357910156, 5.427886486053467
308,417575081,0.5786206,0.17199442,-0.71185106,0.35900462,6.728708267211914,-1.5302332639694214,1.5079330205917358,-9.371343612670898,-88.02108001708984, 3.751192092895508
309,417591748,0.5693189,0.17486352,-0.7203858,0.35544753,6.348155498504639,-0.32089897990226746,1.0731977224349976,-14.455018043518066,-88.2333984375, 5.832637310028076
310,417608415,0.5609495,0.17519033,-0.72884893,0.3513167,4.633551120758057,1.3212696313858032,-0.9996402859687805,-28.243818283081055,-78.03507232666016, 13.854107856750488
311,417625082,0.5535654,0.17475373,-0.7365838,0.34708944,3.4202818870544434,2.8630785942077637,-2.733856678009033,-31.112382888793945,-68.6846694946289, 14.133938789367676
312,417641749,0.5468469,0.17447467,-0.7434738,0.34316742,3.4623801708221436,2.35518479347229,-2.2439498901367188,-27.7335262298584,-62.15269470214844, 12.013577461242676
313,417658416,0.5401054,0.17373803,-0.7508138,0.33820114,5.009589672088623,1.2441706657409668,-0.9059242010116577,-35.817955017089844,-64.20227813720703, 11.109105110168457
314,417675083,0.53289217,0.17188184,-0.75966847,0.3307364,6.495720386505127,-0.29618608951568604,2.5282673835754395,-55.843963623046875,-72.77294921875, 10.576987266540527
315,417691750,0.5241458,0.16876924,-0.7707889,0.3204261,7.719491958618164,-2.388644218444824,5.718959808349609,-78.70748901367188,-89.85283660888672, 12.895017623901367
316,417708417,0.5134896,0.16436553,-0.7840852,0.30744588,7.779992580413818,-1.729968547821045,6.46271276473999,-100.18978881835938,-108.4445571899414, 16.799144744873047
317,417725084,0.50139713,0.15841065,-0.7992012,0.2911779,8.405099868774414,-0.3337023854255676,4.813394069671631,-125.71116638183594,-123.4303970336914, 18.6184024810791
318,417741751,0.48765486,0.15064542,-0.816255,0.27060422,10.047024726867676,-0.28097185492515564,7.344245910644531,-157.75413513183594,-140.56008911132812, 19.15606689453125
319,417758418,0.47157153,0.14399107,-0.8336673,0.24876884,13.016631126403809,-1.1224948167800903,11.236495018005371,-159.41986083984375,-158.6826171875, 13.431174278259277
320,417775085,0.45485285,0.14018662,-0.84907335,0.22919677,17.812393188476562,-4.038114547729492,16.011383056640625,-133.23802185058594,-158.99427795410156, 3.523913860321045
321,417791752,0.44263786,0.1389987,-0.85961586,0.21403722,16.427751541137695,-4.65054988861084,18.250110626220703,-96.13362121582031,-118.07976531982422, -9.809470176696777
322,417808419,0.42683807,0.13533047,-0.8744002,0.18686754,11.032890319824219,-9.991222381591797,10.261713981628418,-177.6844940185547,-160.75653076171875, -22.514034271240234
323,417825086,0.40997276,0.13722032,-0.8851193,0.17221174,11.907840728759766,-15.098677635192871,4.867781639099121,-80.09799194335938,-151.05723571777344, -21.94022560119629
324,417841753,0.39534587,0.1470334,-0.88780355,0.18408667,7.784692287445068,-6.205592632293701,21.036794662475586,110.83517456054688,-99.32433319091797, -5.917636394500732
325,417858420,0.3891207,0.15538207,-0.88587356,0.19917226,6.394205093383789,-2.2149739265441895,16.458866119384766,123.60591125488281,-30.928260803222656, -3.534383535385132
326,417875087,0.3920572,0.16129032,-0.8793845,0.21670146,4.04885196685791,-3.808657646179199,16.51494789123535,128.33460998535156,42.68507766723633, 0.5726408362388611
327,417891754,0.40571344,0.16376768,-0.8681669,0.23422937,0.5780276656150818,0.7913890480995178,17.767051696777344,114.11932373046875,125.09120178222656, 0.1343073546886444
328,417908421,0.43066618,0.1588972,-0.8543219,0.2437467,1.2954833507537842,2.1940884590148926,12.778186798095703,37.26259994506836,202.45455932617188, 0.5474187731742859
329,417925088,0.46265146,0.15138386,-0.8357806,0.2539834,1.4297049045562744,2.3984248638153076,8.587082862854004,33.85502243041992,262.807861328125, 1.3102539777755737
330,417941755,0.49809784,0.14313167,-0.8127138,0.26628628,1.5847865343093872,2.574639081954956,4.062359809875488,47.71508026123047,300.5713806152344, 1.4024779796600342
331,417958422,0.53500205,0.13599354,-0.78426373,0.2832123,1.8930350542068481,0.48670828342437744,-0.3998919725418091,85.85977935791016,329.84405517578125, 3.1065497398376465
332,417975089,0.57264173,0.12936297,-0.75082856,0.30266058,2.40962290763855,-0.4661054015159607,-1.8848826885223389,110.42517852783203,353.8287658691406, 3.5864076614379883
333,417991756,0.6087091,0.126559,-0.7120731,0.32620302,3.049325704574585,-2.3118250370025635,-5.310993671417236,159.1922149658203,362.6800842285156, -1.4747496843338013
334,418008423,0.64315724,0.12509388,-0.6699135,0.3491655,4.699772357940674,-1.3337113857269287,-8.09984302520752,171.10165405273438,365.9112548828125, -9.788224220275879
335,418025090,0.67721826,0.12053047,-0.62686586,0.365906,5.4680705070495605,0.7995272874832153,-10.522515296936035,131.2959747314453,370.6119689941406, -22.849172592163086
336,418041757,0.7099414,0.11169909,-0.5855517,0.37501487,6.650738716125488,0.38203755021095276,-14.811187744140625,75.35759735107422,361.6927185058594, -35.1431884765625
337,418058424,0.7386241,0.10369198,-0.54651064,0.38080055,7.6789984703063965,-2.4144279956817627,-18.404050827026367,63.36509323120117,330.251220703125, -42.50218963623047
338,418075091,0.7607796,0.09884005,-0.5118912,0.38653952,7.578076362609863,-6.680659294128418,-19.308422088623047,72.45721435546875,275.63671875, -34.40134811401367
339,418091758,0.7757726,0.09827425,-0.48246512,0.3946476,7.730445384979248,-7.495152950286865,-19.7769718170166,94.50675964355469,214.13087463378906, -14.682830810546875
340,418108425,0.7849436,0.09932491,-0.45916563,0.4039374,6.5844221115112305,-5.915477752685547,-19.702985763549805,94.59407806396484,159.1756134033203, 6.028299808502197
341,418125092,0.7889957,0.10217111,-0.44340423,0.4128436,4.770686626434326,-3.7838470935821533,-19.787273406982422,85.83617401123047,97.63929748535156, 17.519180297851562
342,418141759,0.78878397,0.10442986,-0.43739563,0.41904604,3.8420138359069824,-4.255936622619629,-18.03615951538086,49.87514877319336,31.986087799072266, 23.505502700805664
343,418158426,0.78468215,0.10786969,-0.43935627,0.42379776,4.034324645996094,-4.311300277709961,-16.141143798828125,31.89826011657715,-26.98573112487793, 28.914939880371094
344,418175093,0.7771966,0.115242705,-0.44579592,0.4288949,4.624789237976074,-2.383024215698242,-12.893550872802734,43.74777603149414,-72.25794982910156, 31.97564697265625
345,418191760,0.76753074,0.12327936,-0.45523727,0.43411738,3.441453456878662,-1.6245510578155518,-9.032480239868164,40.6191520690918,-96.6083984375, 39.355506896972656
346,418208427,0.75729376,0.1295616,-0.46685228,0.43791482,2.7432265281677246,-1.2545125484466553,-6.454762935638428,20.924333572387695,-105.73274230957031, 40.83134078979492
347,418225094,0.7469222,0.13406166,-0.4799693,0.44018677,2.770617723464966,-1.141454815864563,-5.644911289215088,2.3523006439208984,-109.94727325439453, 40.33216094970703
348,418241761,0.7367446,0.13771224,-0.49283293,0.44199386,1.5485740900039673,-0.7127463817596436,-4.7421183586120605,-2.956120729446411,-105.8477554321289, 39.921043395996094
349,418258428,0.7274015,0.14245562,-0.50265354,0.44489694,0.3194354176521301,-0.28862932324409485,-4.870901584625244,14.741534233093262,-89.91109466552734, 36.34794998168945
350,418275095,0.7190324,0.14897195,-0.50940645,0.44867027,1.6428388357162476,0.786073625087738,-3.357865571975708,35.03237533569336,-75.8086166381836, 28.577762603759766
351,418291762,0.7131176,0.1521913,-0.51468664,0.45099807,7.485846042633057,3.0298850536346436,9.90554141998291,15.662083625793457,-51.288856506347656, 23.930795669555664
352,418308429,0.7069027,0.14961456,-0.5268597,0.44757482,12.734148025512695,4.728758335113525,1.3231316804885864,-54.3163948059082,-74.50521087646484, 24.559274673461914
353,418325096,0.69704807,0.14781848,-0.54304093,0.4442753,8.326655387878418,2.919830322265625,0.6510030031204224,-58.7713737487793,-109.45384216308594, 37.915584564208984
354,418341763,0.68490237,0.14816341,-0.5593067,0.4428687,4.7692461013793945,-2.5866355895996094,0.3443223237991333,-39.42652893066406,-123.07929992675781, 46.24186325073242
355,418358430,0.672072,0.15414238,-0.5712916,0.44518018,0.058466821908950806,-3.58331298828125,-1.5312665700912476,15.153474807739258,-118.99910736083984, 39.7686653137207
356,418375097,0.6625168,0.1584368,-0.5807034,0.44581747,-0.5961204171180725,-5.523574352264404,-3.6916778087615967,5.2285685539245605,-90.92960357666016, 25.781448364257812
357,418391764,0.6566446,0.16052237,-0.58744913,0.44492072,0.5219830274581909,-2.0355374813079834,-1.6186150312423706,-6.746345043182373,-58.98343276977539, 13.258810043334961
358,418408431,0.6527058,0.16020952,-0.5937287,0.4424867,2.290437698364258,-0.1697220355272293,-0.7090315222740173,-24.494707107543945,-43.47809982299805, 9.541359901428223
359,418425098,0.6481545,0.16161598,-0.5986651,0.44201407,1.9727253913879395,0.38212910294532776,-0.32454895973205566,-4.0380754470825195,-43.079593658447266, 11.744331359863281
360,418441765,0.64292216,0.16509606,-0.60258424,0.44304287,1.404701828956604,-0.27526620030403137,-0.09766603261232376,15.198610305786133,-46.05595779418945, 10.876046180725098
361,418458432,0.63788664,0.16845049,-0.6067081,0.44343024,0.7146762013435364,-0.41645777225494385,-0.7813350558280945,11.10860824584961,-46.57502365112305, 8.201644897460938
362,418475099,0.63367105,0.16984196,-0.6118026,0.44194168,0.2152695655822754,-0.6514075398445129,-1.3128812313079834,-9.257264137268066,-43.66632843017578, 6.790838718414307
363,418491766,0.62981033,0.17091927,-0.616695,0.440242,0.6660674810409546,0.5364825129508972,-0.9424508213996887,-11.331079483032227,-40.637664794921875, 5.87721061706543
364,418508433,0.625773,0.17169257,-0.6217762,0.4385481,1.314355492591858,1.170710802078247,-0.24329409003257751,-13.01395320892334,-41.337615966796875, 7.98508882522583
365,418525100,0.6208786,0.17257485,-0.62726074,0.43734655,1.1867480278015137,1.1522341966629028,0.3099660873413086,-10.678027153015137,-46.55971145629883, 12.757097244262695
366,418541767,0.6149934,0.1740956,-0.633034,0.43674028,1.0371192693710327,-0.2655832767486572,-0.1412578523159027,-5.110507011413574,-53.36681365966797, 15.918386459350586
367,418558434,0.60836864,0.17621413,-0.63889205,0.4366388,1.1201039552688599,-0.38903170824050903,0.14615142345428467,0.22533708810806274,-58.20795822143555, 17.779678344726562
368,418575101,0.60143906,0.17811744,-0.6453255,0.4360052,1.7519114017486572,0.04575161263346672,1.1600697040557861,-4.390439987182617,-62.02729034423828, 18.11391830444336
369,418591768,0.59458804,0.17802636,-0.6536869,0.43297306,1.8158955574035645,-1.3727400302886963,2.0443880558013916,-29.184818267822266,-66.70901489257812, 19.19658088684082
370,418608435,0.5871521,0.177376,-0.6633908,0.42860562,1.4831054210662842,-1.6539900302886963,1.8851929903030396,-40.78464889526367,-74.91352844238281, 19.626909255981445
371,418625102,0.57851106,0.1782759,-0.6734673,0.424246,2.162759780883789,0.4005058705806732,1.2622028589248657,-34.14690017700195,-86.57992553710938, 16.573108673095703
372,418641769,0.56877184,0.17961459,-0.68397504,0.4200186,2.408874034881592,1.2704412937164307,0.26752182841300964,-31.729217529296875,-94.58209991455078, 18.84202003479004
373,418658436,0.55805004,0.18192117,-0.69466925,0.41583636,3.058335065841675,1.5528136491775513,-0.4918614625930786,-27.809001922607422,-98.65470123291016, 18.892515182495117
374,418675103,0.54685456,0.18438919,-0.7053995,0.41153675,2.6206281185150146,1.4180076122283936,1.0416760444641113,-27.151138305664062,-102.0416030883789, 19.101015090942383
375,418691770,0.535287,0.18624906,-0.71635693,0.406955,2.6950905323028564,1.0610097646713257,1.1682647466659546,-30.39058494567871,-107.1254653930664, 21.150421142578125
376,418708437,0.52353126,0.18786214,-0.7277011,0.40134025,3.069605827331543,0.2176489233970642,2.26715087890625,-37.2413330078125,-110.18385314941406, 19.637699127197266
377,418725104,0.5122608,0.18792477,-0.73967475,0.393897,3.807741641998291,-0.15284126996994019,2.3266923427581787,-54.358734130859375,-108.21141052246094, 20.317745208740234
378,418741771,0.50179905,0.18616225,-0.7525088,0.3837607,3.5697991847991943,0.4927085041999817,2.136317729949951,-77.8826675415039,-105.7776870727539, 19.0665283203125
379,418758438,0.4916792,0.18254934,-0.76685435,0.36994845,3.5121383666992188,1.092389464378357,2.783627510070801,-107.73198699951172,-109.15168762207031, 17.03330421447754
380,418775105,0.47985634,0.17964381,-0.7823574,0.35409492,5.010928153991699,0.8035791516304016,5.747076034545898,-116.92815399169922,-126.53071594238281, 12.239950180053711
381,418791772,0.4649604,0.1775114,-0.7992998,0.3367814,6.706053256988525,0.8050369620323181,8.090848922729492,-121.98234558105469,-151.7172088623047, 12.574828147888184
382,418808439,0.447157,0.17501675,-0.8172105,0.31872743,7.484421253204346,0.06980055570602417,9.893056869506836,-125.95856475830078,-171.15521240234375, 20.169443130493164
383,418825106,0.42812148,0.1728801,-0.8344708,0.3008048,7.532068252563477,2.281601905822754,9.130106925964355,-121.27876281738281,-177.04742431640625, 20.50859832763672
384,418841773,0.41148764,0.16846903,-0.8508521,0.27990565,5.777411937713623,2.800166606903076,9.499588966369629,-146.12071228027344,-159.8297882080078, 18.852991104125977
385,418858440,0.39945567,0.1593623,-0.865272,0.25757262,7.234466552734375,-0.9374680519104004,10.174141883850098,-169.3758087158203,-120.27458953857422, 31.174381256103516
386,418875107,0.38813126,0.14907154,-0.88066983,0.22705224,4.262074947357178,-1.313565731048584,8.519010543823242,-223.94737243652344,-125.96597290039062, 15.46883487701416
387,418891774,0.37301317,0.13984597,-0.89681154,0.19244084,2.6946868896484375,-9.113663673400879,4.624204158782959,-243.22860717773438,-157.01763916015625, 4.63946533203125
388,418908441,0.35597888,0.13568388,-0.90976673,0.16490552,10.077359199523926,-9.147150039672852,-0.01809331774711609,-180.6810302734375,-160.6177978515625, -9.28266429901123
389,418925108,0.33874285,0.14101008,-0.9168358,0.157423,16.234010696411133,-10.461868286132812,11.889993667602539,-25.265369415283203,-139.62057495117188, -24.99949073791504
390,418941775,0.3232476,0.1494103,-0.9198536,0.16449082,6.075185775756836,-4.649482727050781,10.99205493927002,76.10176086425781,-108.95191192626953, -16.39888572692871
391,418958442,0.31218544,0.15737133,-0.92033434,0.17538357,7.186208724975586,-3.6774744987487793,9.081755638122559,97.53539276123047,-71.09745788574219, -12.708398818969727
392,418975109,0.30723652,0.16261157,-0.9183533,0.18918382,1.55694580078125,-2.8681161403656006,9.751092910766602,106.37913513183594,-20.914993286132812, 0.7863937020301819
393,418991776,0.3119042,0.1658062,-0.9145066,0.19723597,-0.7440346479415894,4.951657772064209,11.197840690612793,57.38145065307617,39.90414810180664, -13.01230239868164
394,419008443,0.32728666,0.16311522,-0.91093224,0.19099677,-0.6295165419578552,1.4166877269744873,5.841961860656738,-57.584869384765625,98.3408432006836, -20.798585891723633
395,419025110,0.3468629,0.16121037,-0.90373766,0.19223915,0.30536746978759766,1.9828206300735474,2.0076537132263184,-8.842910766601562,140.1775360107422, -18.489349365234375
396,419041777,0.36785036,0.16057587,-0.8937438,0.20030923,0.28310564160346985,2.41310453414917,1.477531909942627,38.8417854309082,161.63198852539062, -15.037196159362793
397,419058444,0.38890722,0.16057743,-0.881385,0.21477184,-0.17398324608802795,0.18971474468708038,0.5796029567718506,83.00431060791016,174.35116577148438, -5.405054569244385
398,419075111,0.4104141,0.15985462,-0.867275,0.2320375,-0.3765014410018921,-0.30357399582862854,1.0918118953704834,100.18362426757812,186.07861328125, 3.926398277282715
399,419091778,0.4332023,0.15671065,-0.85217154,0.24815631,-0.869466245174408,-0.8459376096725464,1.4411298036575317,86.70379638671875,199.259521484375, 12.016983032226562
400,419108445,0.45713192,0.15123689,-0.8359563,0.26331577,-1.349472999572754,0.2841489911079407,0.8984374403953552,74.80933380126953,212.32640075683594, 19.655887603759766
401,419125112,0.4824159,0.14388485,-0.8182847,0.27745765,-1.8137413263320923,1.82467782497406,-0.058366261422634125,64.29765319824219,227.1706085205078, 23.290307998657227
402,419141779,0.50831074,0.13624047,-0.7988663,0.29132813,-2.424171209335327,2.304760456085205,-1.354825496673584,64.56018829345703,236.85009765625, 21.173011779785156
403,419158446,0.5345324,0.12849821,-0.7779321,0.30427888,-2.307192325592041,2.678356170654297,-2.3658463954925537,61.93433380126953,243.4648895263672, 16.45522117614746
404,419175113,0.5614284,0.12054802,-0.75534713,0.31578058,-1.7718442678451538,2.470186710357666,-3.7077713012695312,56.31917953491211,252.49395751953125, 9.411232948303223
405,419191780,0.58935386,0.11130949,-0.7315945,0.3241026,-0.9417272806167603,1.8911460638046265,-3.733936309814453,36.55675506591797,262.728515625, 0.6537277698516846
406,419208447,0.6177592,0.10052562,-0.7066949,0.3299258,0.8552745580673218,0.046124812215566635,-4.478094577789307,19.947628021240234,271.5213928222656, -3.6352767944335938
407,419225114,0.64522153,0.091279425,-0.6795137,0.33707404,3.1501123905181885,-0.8744124174118042,-5.452881813049316,38.79011917114258,274.26104736328125, -4.93622350692749
408,419241781,0.6708331,0.08454655,-0.650551,0.34585932,5.3309431076049805,-1.0446841716766357,-7.048628807067871,62.93233871459961,268.9405517578125, -6.260518550872803
409,419258448,0.69348687,0.08231984,-0.62033004,0.35705808,7.0233154296875,-2.2956559658050537,-9.975446701049805,99.28949737548828,252.4690704345703, -8.976880073547363
410,419275115,0.7127057,0.084948465,-0.59048635,0.36899984,7.790379524230957,-2.231715679168701,-11.243717193603516,126.72032165527344,224.87509155273438, -17.513551712036133
411,419291782,0.72800446,0.09046966,-0.5636118,0.37969363,7.301634788513184,-2.8605616092681885,-12.80596923828125,130.6739959716797,186.7288818359375, -23.711898803710938
412,419308449,0.7386272,0.09681368,-0.5417941,0.3892515,5.795302391052246,-4.21102237701416,-14.4751558303833,120.19977569580078,140.8589324951172, -17.28643798828125
413,419325116,0.74379444,0.104652435,-0.5259751,0.39895937,4.383768081665039,-5.3007330894470215,-17.08064842224121,116.06010437011719,86.60641479492188, -3.6154611110687256
414,419341783,0.7440516,0.11352771,-0.51630884,0.4085639,2.6160495281219482,-4.813580513000488,-16.64701271057129,107.8123779296875,34.937259674072266, 9.8355131149292
415,419358450,0.7400608,0.12362503,-0.51207685,0.41809672,1.3898452520370483,-4.8911051750183105,-15.878969192504883,102.0173568725586,-11.022005081176758, 21.12687873840332
416,419375117,0.7324706,0.13347383,-0.51325864,0.42689323,0.4758850336074829,-3.9915518760681152,-14.025954246520996,85.80622100830078,-50.80540084838867, 33.013771057128906
417,419391784,0.7233508,0.13997914,-0.5190558,0.43330267,-0.8323372006416321,-1.8225849866867065,-11.094462394714355,48.51829147338867,-71.55249786376953, 41.355377197265625
418,419408451,0.7145206,0.14308323,-0.5274235,0.43682098,-1.870950698852539,0.19367848336696625,-8.410457611083984,13.41268539428711,-75.78288269042969, 40.64385223388672
419,419425118,0.7070173,0.14408173,-0.5361537,0.43807176,-2.362208843231201,2.1622960567474365,-6.134085655212402,-7.5298285484313965,-68.57210540771484, 33.502445220947266
420,419441785,0.70099694,0.14526798,-0.5434222,0.4383988,-1.5329601764678955,2.355196475982666,-5.22722053527832,-7.1138434410095215,-57.4637336730957, 22.4609432220459
421,419458452,0.6953933,0.14711846,-0.549608,0.43899438,2.7725706100463867,-2.5432608127593994,4.564514636993408,-0.09691952168941498,-52.42176818847656, 19.001956939697266
422,419475119,0.69167787,0.14257796,-0.5564833,0.43769863,7.371803283691406,1.8162243366241455,16.931926727294922,-41.824310302734375,-31.43268394470215, 29.110511779785156
423,419491786,0.6839952,0.1373,-0.57145125,0.43213823,12.59648323059082,1.7990245819091797,-0.273858904838562,-82.2904052734375,-87.58460998535156, 31.72040367126465
424,419508453,0.6698488,0.1371094,-0.58969116,0.42984715,8.640946388244629,-3.401291608810425,1.6958117485046387,-49.197975158691406,-140.36767578125, 49.59797286987305
425,419525120,0.65220374,0.14519899,-0.60461533,0.43357626,2.261225461959839,1.1357218027114868,1.402030348777771,26.444692611694336,-158.1577911376953, 50.95362854003906
426,419541787,0.6380731,0.14985862,-0.6182508,0.4337877,0.11087106168270111,-4.433486461639404,-6.5448808670043945,-3.2710206508636475,-131.1779022216797, 37.715431213378906
427,419558454,0.6278876,0.15663455,-0.6252093,0.43627602,-0.8031243681907654,-3.444312810897827,-5.740914344787598,31.603435516357422,-88.97745513916016, 19.91971778869629
428,419575121,0.6232622,0.15793432,-0.63055974,0.43473637,1.7075307369232178,-2.0263891220092773,-2.4559552669525146,-10.480196952819824,-45.977237701416016, 7.553801536560059
429,419591788,0.6208579,0.15713196,-0.63488257,0.4321686,1.8832712173461914,-1.53857421875,-0.9921314716339111,-23.29022216796875,-26.793258666992188, 4.496233940124512
430,419608455,0.61786306,0.15767135,-0.63820213,0.43137437,2.084355354309082,0.02668827958405018,-0.4798617959022522,-6.221343040466309,-27.2163028717041, 6.887851715087891
431,419625122,0.6134616,0.16008615,-0.6417125,0.4315587,0.9178650975227356,0.006962290033698082,-0.0030893185175955296,6.965842247009277,-38.77340316772461, 7.2385029792785645
432,419641789,0.60779786,0.1640662,-0.64555866,0.4323407,0.28081879019737244,-0.9651805758476257,-0.1500900685787201,16.563573837280273,-49.83377456665039, 6.990337371826172
433,419658456,0.60143083,0.16848429,-0.6505744,0.43202737,0.2524081766605377,-0.8985930681228638,-0.6525132656097412,9.300580024719238,-54.29341506958008, 6.642605304718018
434,419675123,0.5956603,0.17103915,-0.6560973,0.4306638,0.5793984532356262,-0.2840553820133209,-0.4779790937900543,-3.8108527660369873,-55.63351058959961, 6.665388107299805
435,419691790,0.58957684,0.17328613,-0.66256535,0.4282277,0.9101688861846924,0.47403526306152344,0.2712649703025818,-13.818519592285156,-54.940826416015625, 8.655008316040039
436,419708457,0.58415323,0.1727408,-0.6696274,0.4248825,0.9923834800720215,-0.3768298327922821,-0.44932886958122253,-30.40433120727539,-53.665077209472656, 13.56937026977539
437,419725124,0.5784072,0.17223303,-0.67689323,0.42142272,1.3230143785476685,0.14146463572978973,0.16462069749832153,-31.01221466064453,-56.26264572143555, 14.145936965942383
438,419741791,0.5718164,0.1724296,-0.6847619,0.4176073,1.378416895866394,-0.6945655345916748,1.1080248355865479,-30.63756561279297,-65.11883544921875, 12.658041000366211
439,419758458,0.56370574,0.17390904,-0.6933554,0.41382456,2.200192451477051,0.14971454441547394,2.083430528640747,-25.74995231628418,-78.85932922363281, 11.987174034118652
440,419775125,0.55417925,0.17566459,-0.70293653,0.40976623,2.817577600479126,0.9705449938774109,1.3688621520996094,-27.150375366210938,-90.66785430908203, 14.859245300292969
441,419791792,0.54354966,0.17797469,-0.7130695,0.40547666,3.1282219886779785,2.0628654956817627,0.3833565413951874,-26.408824920654297,-100.03672790527344, 15.146352767944336
442,419808459,0.53214526,0.18025476,-0.7235546,0.4009975,3.2058043479919434,2.8719449043273926,-0.28378400206565857,-27.503376007080078,-105.36302947998047, 17.27872657775879
443,419825126,0.5208851,0.1818378,-0.73425645,0.39557782,3.12214732170105,2.6787381172180176,0.19340932369232178,-35.51560592651367,-104.72673797607422, 17.298809051513672
444,419841793,0.5099429,0.18304414,-0.74497455,0.38918725,3.2276504039764404,0.05443929508328438,1.1391476392745972,-42.212257385253906,-103.43009185791016, 14.9916353225708
445,419858460,0.49934933,0.18323895,-0.7561024,0.38129202,3.095097064971924,-1.398406744003296,2.7074413299560547,-55.01713180541992,-102.35501861572266, 14.51791000366211
446,419875127,0.48902822,0.18151604,-0.76845866,0.3706418,2.766366481781006,-2.1669187545776367,2.8758373260498047,-79.52083587646484,-103.73320770263672, 15.860640525817871
447,419891794,0.47872305,0.1787744,-0.7815135,0.35791212,2.7192893028259277,-0.183760866522789,2.7542877197265625,-95.77303314208984,-106.12953186035156, 15.05700397491455
448,419908461,0.46801698,0.1755249,-0.7952019,0.3432284,3.714200258255005,2.4359476566314697,2.6101081371307373,-109.0386734008789,-111.64939880371094, 13.146489143371582
449,419925128,0.4565464,0.17182544,-0.8095945,0.32649478,5.090275287628174,3.889110565185547,3.2222790718078613,-122.44058227539062,-119.64397430419922, 11.769327163696289
450,419941795,0.44347507,0.16881691,-0.8240832,0.30938357,5.476175785064697,3.046123743057251,4.026466369628906,-120.68794250488281,-131.02613830566406, 10.592366218566895
451,419958462,0.42790532,0.16820703,-0.8380697,0.2936722,6.457816123962402,1.3349885940551758,6.5101318359375,-101.46459197998047,-147.33055114746094, 6.111771106719971
452,419975129,0.41063264,0.1686598,-0.8515104,0.2790443,7.24020528793335,-0.22851058840751648,9.855634689331055,-89.04180908203125,-156.7078399658203, 6.043580055236816
453,419991796,0.39233258,0.16778813,-0.8653364,0.26289913,8.059183120727539,-2.334512233734131,10.908509254455566,-101.27247619628906,-163.40313720703125, 11.941492080688477
454,420008463,0.37528992,0.16435298,-0.87871933,0.2449466,8.022871017456055,-3.156839609146118,14.435735702514648,-119.68404388427734,-152.57522583007812, 19.48140525817871
455,420025130,0.3627553,0.15807126,-0.8919762,0.21863522,5.9039459228515625,-3.669137477874756,12.039433479309082,-182.55734252929688,-130.13804626464844, 7.266042232513428
456,420041797,0.34951726,0.15124075,-0.90627855,0.1833685,6.641260147094727,-10.707511901855469,3.912964105606079,-239.79908752441406,-146.32862854003906, -9.698579788208008
457,420058464,0.33437255,0.14809924,-0.9176712,0.15537766,8.960165977478027,-9.964929580688477,0.577842652797699,-180.09046936035156,-148.4267120361328, -16.15390968322754
458,420075131,0.32367915,0.14738323,-0.92510176,0.13303328,11.511537551879883,-6.262784004211426,13.194673538208008,-139.31634521484375,-108.1625747680664, -27.519453048706055
459,420091798,0.31704116,0.14633656,-0.92944586,0.11917094,2.796292543411255,-3.528348207473755,11.803651809692383,-87.4988784790039,-67.02579498291016, -13.529778480529785
460,420108465,0.31481963,0.1452948,-0.9316078,0.109022476,4.564004421234131,-2.372760772705078,7.846699237823486,-66.46925354003906,-30.480695724487305, -11.386293411254883
461,420125132,0.31514743,0.14453237,-0.9318168,0.10728807,1.9536134004592896,-5.883945941925049,5.694931983947754,-13.072973251342773,-1.855359673500061, 1.1297065019607544
462,420141799,0.3179989,0.14736685,-0.9289588,0.11914835,1.3262100219726562,-1.8719959259033203,6.3134565353393555,81.48989868164062,31.78816795349121, 2.5665063858032227
463,420158466,0.32570302,0.1472955,-0.92494166,0.12924926,1.1738349199295044,-0.13459911942481995,7.86649751663208,59.93046569824219,65.88532257080078, 12.17314624786377
464,420175133,0.3369821,0.14656508,-0.9191223,0.1420455,-0.12536540627479553,-0.3857136070728302,6.624713897705078,73.601806640625,95.91863250732422, 17.46558380126953
465,420191800,0.3510149,0.1456809,-0.9113474,0.15815395,-0.08730822801589966,0.6517911553382874,3.7568647861480713,93.33110809326172,121.34247589111328, 21.514732360839844
466,420208467,0.3672092,0.1451372,-0.90101105,0.17964533,-0.40776199102401733,0.39259955286979675,3.2578179836273193,128.54782104492188,146.1512908935547, 27.562063217163086
467,420225134,0.38591284,0.14334382,-0.8887464,0.20163004,-0.45801329612731934,1.9649548530578613,3.1970694065093994,128.3535919189453,168.67333984375, 31.626344680786133
468,420241801,0.40772644,0.13936578,-0.87487274,0.22121193,-0.16751882433891296,1.6403237581253052,2.36681866645813,107.07593536376953,192.6789093017578, 32.82132339477539
469,420258468,0.4323075,0.13318612,-0.8594523,0.23814824,-0.12836866080760956,1.6859040260314941,2.079158067703247,84.7157211303711,214.55870056152344, 33.040802001953125
470,420275135,0.45928028,0.124587215,-0.8424484,0.25262898,-0.3042120635509491,2.079573392868042,1.2589879035949707,63.43462371826172,235.19668579101562, 34.7332763671875
471,420291802,0.48839322,0.114580825,-0.8231401,0.26605374,-0.5407572984695435,3.0187394618988037,0.7500272989273071,55.063899993896484,256.5188293457031, 33.91355514526367
472,420308469,0.5195753,0.10332806,-0.8013922,0.2777346,-0.053106531500816345,3.520814895629883,-0.15370696783065796,43.86384582519531,277.4486083984375, 29.46614646911621
473,420325136,0.5512898,0.09253122,-0.7770726,0.28926906,1.2682794332504272,1.8965325355529785,-2.7868335247039795,49.243648529052734,288.7226257324219, 23.661418914794922
474,420341803,0.5833177,0.08365635,-0.74956155,0.30149752,2.6611855030059814,1.897752046585083,-4.886661052703857,66.42041015625,299.3021240234375, 13.413373947143555
475,420358470,0.61543775,0.07657883,-0.7191465,0.31337142,3.678352117538452,1.4593532085418701,-4.95638370513916,77.81421661376953,307.73272705078125, 0.9278870820999146
476,420375137,0.6464721,0.0716576,-0.6861955,0.32569307,5.803358554840088,-0.525046706199646,-7.231653213500977,95.22911071777344,308.91729736328125, -6.774429798126221
477,420391804,0.67481977,0.07181089,-0.6508746,0.34033075,7.678243637084961,-0.8230844736099243,-9.347559928894043,135.4099578857422,296.85284423828125, -15.541125297546387
478,420408471,0.6992552,0.07367193,-0.6168395,0.35372972,9.037374496459961,-2.0279932022094727,-11.815743446350098,136.77334594726562,269.1260070800781, -19.102991104125977
479,420425138,0.7182236,0.07591039,-0.5878003,0.36453328,9.172319412231445,-3.055508613586426,-14.832308769226074,118.27545166015625,220.11721801757812, -17.353940963745117
480,420441805,0.73145455,0.07775151,-0.5657935,0.37256956,7.274432182312012,-3.358820915222168,-18.17559242248535,90.61551666259766,162.28036499023438, -11.408702850341797
481,420458472,0.7389973,0.08053521,-0.55094165,0.37929106,4.309453964233398,-4.133763313293457,-19.27811622619629,75.1136245727539,101.65618896484375, -3.380068063735962
482,420475139,0.74077034,0.08602052,-0.54255736,0.38664296,2.616805076599121,-4.555316925048828,-18.407466888427734,77.7470703125,40.825233459472656, 8.076116561889648
483,420491806,0.73689467,0.09640621,-0.539137,0.39626333,1.528144359588623,-3.868215560913086,-17.61086654663086,101.50607299804688,-16.708833694458008, 19.123748779296875
484,420508473,0.7288275,0.108736455,-0.5406312,0.40584,0.011204347014427185,-2.140709161758423,-14.281685829162598,100.75511169433594,-62.036739349365234, 26.18337059020996
485,420525140,0.71829623,0.12022851,-0.5463465,0.41364518,-0.8027362823486328,-0.7827489376068115,-11.506272315979004,80.14291381835938,-91.037109375, 30.302257537841797
486,420541807,0.70733404,0.1291504,-0.55476713,0.41860878,-1.2483001947402954,0.34354469180107117,-8.97981071472168,49.49721145629883,-100.85948181152344, 29.282373428344727
487,420558474,0.69756466,0.13469644,-0.5644177,0.42035034,-1.8114087581634521,0.7234349846839905,-6.136087417602539,16.210594177246094,-95.31865692138672, 24.103769302368164
488,420575141,0.6895933,0.1377932,-0.5731929,0.42062485,-2.0879321098327637,0.9324377775192261,-4.436003684997559,-0.3680501878261566,-78.392822265625, 20.55901527404785
489,420591808,0.68355566,0.1390143,-0.5803035,0.42032823,-1.650619626045227,0.2141502946615219,-3.419954776763916,-8.543343544006348,-58.01413345336914, 18.089054107666016
490,420608475,0.67772907,0.13970175,-0.5864361,0.42102343,2.233375310897827,-6.132770538330078,2.0678772926330566,-4.476572036743164,-50.12581253051758, 23.34149742126465
491,420625142,0.67131203,0.13770923,-0.5940827,0.42124048,9.535943984985352,-1.0871663093566895,11.009879112243652,-22.67902183532715,-52.4233283996582, 34.972354888916016
492,420641809,0.66057694,0.13546073,-0.60941416,0.41701838,12.561302185058594,4.0883870124816895,2.9296529293060303,-60.26891326904297,-109.35350036621094, 35.431976318359375
493,420658476,0.6437833,0.1354063,-0.6288413,0.41444963,8.943376541137695,-3.3151700496673584,1.1074118614196777,-49.58085250854492,-158.19436645507812, 55.19854736328125
494,420675143,0.6246222,0.14255597,-0.6442989,0.41761827,1.1781237125396729,2.5414772033691406,-0.4632396996021271,20.630800247192383,-166.12071228027344, 52.49235916137695
495,420691810,0.6095879,0.14554535,-0.65837,0.41685677,-0.560825526714325,-4.774611473083496,-7.982399940490723,-14.74038314819336,-133.85931396484375, 40.90303421020508
496,420708477,0.59857196,0.1509011,-0.66598743,0.41881076,-1.1697947978973389,-3.4139344692230225,-4.639660358428955,22.021549224853516,-92.52822875976562, 23.436609268188477
497,420725144,0.59244317,0.15219869,-0.6717337,0.41787773,1.5801074504852295,-2.2488510608673096,-2.3288767337799072,-7.551373481750488,-53.710594177246094, 14.010589599609375
498,420741811,0.58882415,0.15122586,-0.67708576,0.41469613,1.875204086303711,-1.5726994276046753,-0.7848716974258423,-28.679941177368164,-36.3579216003418, 7.693788051605225
500,420775145,0.580602,0.15346543,-0.68466574,0.4130178,1.125333309173584,-0.1403587907552719,-0.7331705093383789,6.747158050537109,-38.46609115600586, 6.2323784828186035
507,420891814,0.54591537,0.17567378,-0.70902103,0.41037276,1.9758282899856567,1.0043559074401855,1.2671316862106323,-12.831161499023438,-52.66561508178711, 7.333614349365234
511,420958482,0.5157383,0.17574894,-0.7448289,0.38517258,2.6482694149017334,1.5881264209747314,0.5374714732170105,-59.85165786743164,-88.94952392578125, 9.906494140625
513,420991816,0.49613386,0.17599072,-0.7664777,0.3679568,2.934030055999756,2.1277658939361572,0.8102911114692688,-59.058494567871094,-99.9316635131836, 8.403742790222168
516,421041817,0.46718982,0.17126088,-0.8005229,0.33401802,2.5147151947021484,-0.5975911021232605,1.9846339225769043,-96.13903045654297,-96.73553466796875, 10.141497611999512
518,421075151,0.44796932,0.16466098,-0.82413495,0.30498123,2.877401828765869,1.1046185493469238,2.780250310897827,-103.41720581054688,-99.96475219726562, 7.102761745452881
520,421108485,0.42747095,0.16265446,-0.8446158,0.27827713,3.4408440589904785,3.242983818054199,2.9505181312561035,-85.9302978515625,-103.30912780761719, -3.279517650604248
522,421141819,0.40303075,0.16278543,-0.864151,0.25359842,4.2012128829956055,-0.1594027280807495,6.017722129821777,-66.91101837158203,-118.40177917480469, -1.6216967105865479
523,421158486,0.38759607,0.16444649,-0.87382764,0.24321611,4.679076194763184,-1.76456618309021,8.046677589416504,-55.59326171875,-132.79214477539062, 0.2764388620853424
525,421191820,0.3548828,0.16410652,-0.8942944,0.21763888,3.9355556964874268,-2.601449728012085,11.293856620788574,-91.32551574707031,-140.98550415039062, 9.657303810119629
527,421225154,0.33068115,0.15518533,-0.9149749,0.17143686,3.184335947036743,-5.065167427062988,8.361248016357422,-181.4259033203125,-119.6856689453125, -3.59175443649292
529,421258488,0.30197546,0.15420371,-0.93195665,0.12841716,14.392226219177246,-10.293798446655273,-3.996670961380005,-82.30396270751953,-131.41146850585938, -27.36998176574707
531,421291822,0.2844848,0.16473453,-0.9359535,0.1261908,1.8991820812225342,0.3273165822029114,11.29485034942627,10.930222511291504,-52.56550598144531, -19.63353729248047
532,421308489,0.2835513,0.16527058,-0.9371985,0.118090264,5.105259895324707,-3.326305389404297,6.424623012542725,-50.76938247680664,-20.040401458740234, -16.83258056640625
533,421325156,0.2845587,0.16599958,-0.93670297,0.11857646,2.1110317707061768,-6.455071449279785,6.049798488616943,4.103148937225342,5.3108649253845215, -4.948566913604736
534,421341823,0.28838652,0.16807638,-0.9344324,0.12418441,1.7967424392700195,-0.7196393013000488,6.804610729217529,37.854217529296875,31.626907348632812, -8.034735679626465
535,421358490,0.29681382,0.16600612,-0.931911,0.12604634,2.576098918914795,-1.6600979566574097,6.243129730224609,0.475538045167923,60.81610870361328, 6.976971626281738
536,421375157,0.3082145,0.16467994,-0.92731684,0.13405254,1.5474485158920288,1.0868399143218994,6.489247798919678,39.758853912353516,90.38795471191406, 9.795756340026855
537,421391824,0.3227351,0.16080844,-0.922326,0.13892278,1.0078301429748535,2.0482633113861084,3.8644449710845947,11.24361801147461,109.85884857177734, 16.1004581451416
538,421408491,0.33824027,0.15606663,-0.91575104,0.15046279,0.5318716168403625,-1.2271888256072998,0.2545804977416992,52.08526611328125,127.83365631103516, 33.79981994628906
539,421425158,0.3547173,0.1512696,-0.90726656,0.16781741,-0.29092007875442505,1.6422795057296753,2.5129966735839844,89.49736785888672,144.7823944091797, 44.64441680908203
540,421441825,0.37292865,0.14487071,-0.89753944,0.18536949,-0.6277358531951904,0.5016335844993591,2.095454216003418,86.47438049316406,160.74513244628906, 51.92210006713867
541,421458492,0.3933515,0.13731848,-0.88619787,0.20266667,-0.665550708770752,1.019388198852539,2.5743260383605957,81.79888916015625,179.8271026611328, 54.017215728759766
542,421475159,0.4163006,0.12769653,-0.8735308,0.21756305,-1.0046406984329224,0.6619545817375183,2.6007072925567627,61.033390045166016,199.49041748046875, 55.41556930541992
543,421491826,0.44130802,0.11741966,-0.8588885,0.23188905,-1.1078951358795166,1.6399238109588623,1.6551191806793213,56.8765754699707,218.0585174560547, 52.92763137817383
544,421508493,0.46853852,0.10618522,-0.8420791,0.24515587,-1.2943509817123413,2.704633951187134,1.606429934501648,49.38722610473633,238.53143310546875, 50.11381530761719
545,421525160,0.49755684,0.09456359,-0.8228987,0.25755525,-0.31895115971565247,3.453312397003174,-0.20032958686351776,45.82646560668945,256.6380920410156, 44.87144088745117
546,421541827,0.5279879,0.084268436,-0.800759,0.2700271,0.947978675365448,3.7527432441711426,-1.7619291543960571,55.128028869628906,272.5827941894531, 33.26911163330078
547,421558494,0.5593795,0.077146664,-0.77527153,0.2830174,2.043199300765991,3.277379035949707,-3.0878381729125977,75.20311737060547,284.59075927734375, 14.059114456176758
548,421575161,0.59119505,0.07276579,-0.7466513,0.29615417,3.2804784774780273,1.4961552619934082,-4.313877105712891,92.43954467773438,293.82733154296875, -2.3687376976013184
549,421591828,0.6221851,0.07099374,-0.7154303,0.3098499,4.851293563842773,0.4271512031555176,-5.919554233551025,111.66571807861328,295.33612060546875, -13.037097930908203
550,421608495,0.6508112,0.07215212,-0.6826183,0.32445785,6.350337982177734,-0.39675623178482056,-9.111774444580078,133.28158569335938,284.96441650390625, -19.229719161987305
551,421625162,0.6753942,0.07645106,-0.6500859,0.33968836,7.598259925842285,-1.7260158061981201,-11.571562767028809,151.70120239257812,258.3796691894531, -21.978168487548828
552,421641829,0.6944367,0.08324973,-0.62079406,0.35418049,7.69685173034668,-3.3786802291870117,-14.459182739257812,155.4292755126953,212.7509765625, -21.92894172668457
553,421658496,0.70720065,0.09104016,-0.5971159,0.3674688,6.870054244995117,-4.1400861740112305,-16.99822998046875,145.0575408935547,156.5388641357422, -13.463744163513184
554,421675163,0.7142912,0.09713412,-0.58071685,0.3783161,4.206315517425537,-4.453420639038086,-17.639188766479492,112.08552551269531,101.1689682006836, 0.4145812690258026
555,421691830,0.7157202,0.10340197,-0.5714282,0.38797486,2.3503668308258057,-4.28902530670166,-17.855104446411133,93.64167785644531,42.932735443115234, 13.20813274383545
556,421708497,0.71219087,0.11119174,-0.5679924,0.39724958,1.3073351383209229,-3.674532651901245,-17.224767684936523,87.70033264160156,-9.182663917541504, 22.559677124023438
557,421725164,0.7045779,0.12049062,-0.5693827,0.4060263,0.34354954957962036,-2.3962175846099854,-14.432425498962402,83.237060546875,-52.82017517089844, 28.902677536010742
558,421741831,0.6944861,0.1289836,-0.5747882,0.41312602,-0.43031296133995056,-1.483948826789856,-12.154483795166016,63.72157287597656,-80.78382110595703, 34.040306091308594
559,421758498,0.6842803,0.13391712,-0.58307874,0.4169504,-1.2436975240707397,0.8994930386543274,-9.039690971374512,25.765239715576172,-87.55296325683594, 35.247520446777344
560,421775165,0.67538315,0.13567364,-0.5924823,0.41763252,-2.0774784088134766,2.642064094543457,-7.332690715789795,-6.1486968994140625,-81.17974853515625, 30.45962905883789
561,421791832,0.66805303,0.13523692,-0.6023077,0.41550377,-1.9189389944076538,1.0981789827346802,-7.975710391998291,-30.460243225097656,-72.98391723632812, 22.28650665283203
562,421808499,0.6626151,0.13254379,-0.611178,0.41211268,5.181082248687744,-4.175220966339111,9.876845359802246,-45.06315612792969,-55.36811447143555, 19.568037033081055
563,421825166,0.6565785,0.126158,-0.62220454,0.40724966,9.905338287353516,-0.9265757203102112,5.786278247833252,-73.68225860595703,-58.93688201904297, 32.05765151977539
564,421841833,0.6454537,0.124356665,-0.63668084,0.40319276,10.20785903930664,-1.4945709705352783,-1.8948957920074463,-54.849422454833984,-108.60942840576172, 33.44763946533203
565,421858500,0.63053405,0.12651189,-0.6520582,0.40155149,4.630359172821045,-0.8185877203941345,1.7222917079925537,-25.975830078125,-138.09616088867188, 38.20906066894531
566,421875167,0.61458576,0.13106818,-0.66582465,0.40222484,0.6729728579521179,-1.1856887340545654,-1.7299679517745972,0.13006463646888733,-140.45443725585938, 38.942935943603516
567,421891834,0.6007468,0.13505891,-0.67735755,0.40255544,-0.46868330240249634,-4.258086681365967,-5.059459209442139,0.4563855528831482,-120.12828826904297, 32.198936462402344
568,421908501,0.5902297,0.13961382,-0.6850026,0.40362176,0.08028893172740936,-3.0175013542175293,-4.445927143096924,13.937270164489746,-89.39928436279297, 19.66700553894043
569,421925168,0.58327585,0.14149544,-0.6911875,0.4025296,1.080959439277649,-0.7596060037612915,-2.5984532833099365,-6.418835163116455,-61.28767013549805, 12.122496604919434
570,421941835,0.57841927,0.14183189,-0.696352,0.40051308,1.5138221979141235,-0.7716657519340515,-1.0867704153060913,-16.228273391723633,-43.84897232055664, 8.966002464294434
571,421958502,0.57432383,0.14222252,-0.7007507,0.3985917,1.0935864448547363,-0.6398643851280212,-1.1241557598114014,-14.207100868225098,-37.26042938232422, 6.258749485015869
572,421975169,0.5698867,0.14441018,-0.7040267,0.39840108,0.9232401847839355,0.06384450942277908,-1.1406718492507935,4.621547222137451,-37.75054931640625, 4.28403377532959
573,421991836,0.56528467,0.14707378,-0.70718956,0.39838114,0.9247201681137085,-0.047208067029714584,-1.0670461654663086,7.7652692794799805,-39.286529541015625, 3.007952928543091
574,422008503,0.56081516,0.14926346,-0.71080285,0.39745247,0.035773150622844696,-0.7966485619544983,-0.5546205639839172,0.11685222387313843,-40.06134796142578, 1.890977382659912
575,422025170,0.55676657,0.15063977,-0.71452457,0.39594877,0.03783807158470154,-1.0025084018707275,-1.1831694841384888,-6.578539848327637,-36.84885787963867, 2.602320909500122
576,422041837,0.5531301,0.15128714,-0.7183487,0.39387402,0.6657531261444092,0.5090789794921875,-0.959962785243988,-12.893891334533691,-33.86220932006836, 2.972745656967163
577,422058504,0.5495773,0.15136027,-0.7222223,0.39172977,1.268585443496704,1.522276759147644,-0.2687654197216034,-15.660444259643555,-32.19952392578125, 5.4113030433654785
578,422075171,0.54590327,0.15052645,-0.72654223,0.38919187,1.4646244049072266,1.302865982055664,-0.5558338165283203,-22.142139434814453,-32.521400451660156, 9.295562744140625
579,422091838,0.5421628,0.14879315,-0.73142385,0.38592976,1.1776142120361328,0.48011672496795654,-0.15609608590602875,-30.58807373046875,-33.36098861694336, 11.904278755187988
580,422108505,0.53801644,0.14736521,-0.7369476,0.38174936,1.2918274402618408,-0.3797397315502167,1.082842469215393,-35.375030517578125,-39.6103630065918, 8.728082656860352
581,422125172,0.53349984,0.14464006,-0.7443288,0.37474573,0.6896772980690002,-2.040680408477783,2.701286554336548,-59.006046295166016,-47.914363861083984, 7.7438578605651855
582,422141839,0.52701026,0.14361459,-0.7525792,0.36777997,1.0935168266296387,-0.9608608484268188,2.1439170837402344,-52.89387130737305,-65.6815414428711, 5.114990711212158
583,422158506,0.5184659,0.14341345,-0.7620792,0.36036643,1.7417641878128052,0.1548687368631363,1.826812744140625,-53.39011001586914,-83.48904418945312, 5.668100833892822
584,422175173,0.5082947,0.14407644,-0.772267,0.35282433,2.604299545288086,1.925716519355774,1.2015576362609863,-51.116512298583984,-96.84552001953125, 5.435431480407715
585,422191840,0.4969678,0.14515002,-0.78291273,0.34497106,2.932673692703247,1.8422584533691406,1.1876202821731567,-51.32246780395508,-105.9837875366211, 5.51976203918457
586,422208507,0.48497623,0.14648439,-0.79369295,0.33674157,2.7975504398345947,1.9137879610061646,1.0992507934570312,-52.13064956665039,-111.1135482788086, 4.632924556732178
587,422225174,0.47233668,0.14865547,-0.8046371,0.32766068,3.0247411727905273,1.6616322994232178,2.474132776260376,-53.7257080078125,-118.08629608154297, -1.0208673477172852
588,422241841,0.45927933,0.15158026,-0.8154023,0.3181319,3.2272584438323975,0.32354867458343506,2.859830141067505,-52.94437026977539,-122.10694122314453, -5.81043815612793
589,422258508,0.4462176,0.15429688,-0.8261644,0.30746964,3.186140298843384,0.1738366186618805,3.824239492416382,-59.96903610229492,-122.99372100830078, -8.175154685974121
590,422275175,0.433272,0.15635982,-0.8372573,0.29466897,3.055474281311035,-0.5149825215339661,4.099841117858887,-74.97221374511719,-124.40740203857422, -10.88658332824707
591,422291842,0.41946152,0.15786512,-0.84893477,0.2800771,2.9548683166503906,-0.7847611308097839,4.7379631996154785,-87.23152160644531,-132.0982208251953, -10.621554374694824
592,422308509,0.4039917,0.15870504,-0.86105984,0.2649188,2.9261012077331543,-1.0009111166000366,5.601065158843994,-91.55157470703125,-142.59466552734375, -4.695065498352051
593,422325176,0.38658988,0.16025229,-0.8727615,0.25131154,3.7907838821411133,-0.3810006082057953,5.032097339630127,-77.56098937988281,-152.65318298339844, -1.5337189435958862
594,422341843,0.36867744,0.1620988,-0.883643,0.23870136,3.589076280593872,1.483673334121704,5.920994281768799,-68.82635498046875,-153.1470947265625, -0.6974006295204163
595,422358510,0.35124224,0.16199577,-0.8946861,0.22344023,3.925252676010132,0.980299711227417,6.677332401275635,-90.67890167236328,-150.616455078125, 3.8633735179901123
596,422375177,0.3345064,0.1602303,-0.90543985,0.20642897,4.12848424911499,-0.6645704507827759,8.935359001159668,-105.80770111083984,-145.23422241210938, 8.480620384216309
597,422391844,0.31941727,0.15691963,-0.9155744,0.18728302,4.521488666534424,-2.0385420322418213,11.804039001464844,-123.63456726074219,-133.9855194091797, 10.13208293914795
598,422408511,0.30674213,0.15274464,-0.9249819,0.16428518,2.891671657562256,-4.273886203765869,10.393863677978516,-151.53292846679688,-120.56212615966797, 3.131598472595215
599,422425178,0.2937217,0.14902653,-0.9342511,0.1367327,4.313188552856445,-7.486076354980469,7.801931381225586,-179.13116455078125,-128.01010131835938, -9.301408767700195
600,422441845,0.27963337,0.14833698,-0.94173855,0.11371961,5.251913070678711,-6.951370716094971,-1.5944483280181885,-141.21713256835938,-129.66444396972656, -20.632055282592773
601,422458512,0.2664112,0.15294832,-0.94602597,0.10329191,16.25931739807129,-8.970376968383789,-0.975223183631897,-48.00263214111328,-109.2428970336914, -34.84894561767578
602,422475179,0.25888833,0.15901418,-0.9472329,0.10219261,3.310063362121582,-2.389504909515381,17.437314987182617,11.409564971923828,-58.100948333740234, -34.63155746459961
603,422491846,0.2571679,0.15950516,-0.9485339,0.093321174,2.1536624431610107,-0.925035834312439,11.538098335266113,-55.58424758911133,-25.365022659301758, -16.18485450744629
604,422508513,0.25810182,0.15790215,-0.94915676,0.08691496,2.9491117000579834,-6.731076717376709,5.841804504394531,-45.69365692138672,-2.9617204666137695, -0.6608893275260925
605,422525180,0.26008105,0.15890384,-0.9476169,0.095561326,1.0635651350021362,-5.271504878997803,6.375575065612793,57.20686340332031,22.401554107666016, 5.969240188598633
606,422541847,0.26642784,0.15985581,-0.9445962,0.105844766,0.720002293586731,-0.26073721051216125,7.006963729858398,63.9103889465332,55.279178619384766, 4.687542915344238
607,422558514,0.27808654,0.15750803,-0.94099665,0.11129658,1.1117355823516846,-0.28210926055908203,6.6876091957092285,21.092208862304688,87.88603973388672, 12.799585342407227
608,422575181,0.293328,0.1554147,-0.93576664,0.11894604,0.42691344022750854,1.1155556440353394,6.333614349365234,33.189056396484375,116.32577514648438, 10.864326477050781
609,422591848,0.31055307,0.15264405,-0.92953235,0.12739237,0.5121046900749207,1.3530657291412354,2.537534475326538,35.70144271850586,132.49725341796875, 14.180198669433594
610,422608515,0.3287216,0.15092167,-0.9210003,0.14465731,0.36033251881599426,0.33414432406425476,0.5740541815757751,95.38370513916016,151.81585693359375, 23.152626037597656
611,422625182,0.34816664,0.14914025,-0.91058606,0.1654464,-0.49604496359825134,2.266493797302246,1.6937114000320435,118.15264129638672,167.94903564453125, 28.355501174926758
612,422641849,0.3689895,0.14682724,-0.8986078,0.1865348,-0.7609067559242249,0.947636604309082,0.9621135592460632,119.1708984375,181.30665588378906, 29.35763168334961
613,422658516,0.39140403,0.14332086,-0.8853233,0.20607555,-1.0333940982818604,0.3527802526950836,0.9986141920089722,106.67334747314453,194.51473999023438, 29.52860450744629
614,422675183,0.41527712,0.13853031,-0.87069523,0.22415708,-1.4596173763275146,0.9352352023124695,0.27134275436401367,94.81443786621094,207.48390197753906, 30.07925796508789
615,422691850,0.4406012,0.13190491,-0.8550611,0.23946753,-1.6728169918060303,1.7341394424438477,-0.5248596668243408,73.17144775390625,219.34632873535156, 30.001848220825195
616,422708517,0.4667343,0.12399133,-0.83820647,0.25337282,-1.5348265171051025,2.449418783187866,-1.2929320335388184,62.30931091308594,228.78244018554688, 30.92852783203125
617,422725184,0.4937374,0.115480915,-0.8198911,0.2658353,-0.975562572479248,2.995678424835205,-2.1430869102478027,53.910491943359375,238.44122314453125, 27.03496742248535
618,422741851,0.5218728,0.10774454,-0.79943746,0.27738392,0.245529443025589,3.7764382362365723,-2.785350799560547,54.43013381958008,250.10328674316406, 15.87067699432373
619,422758518,0.5515755,0.1004925,-0.77663255,0.28724542,1.963706612586975,2.6730518341064453,-3.72269606590271,50.24871826171875,265.1438903808594, 2.518458127975464
620,422775185,0.5817882,0.094059065,-0.7514425,0.29666784,3.4902117252349854,1.3282791376113892,-4.3295578956604,55.392486572265625,275.1646423339844, -6.095057010650635
621,422791852,0.6103122,0.08909556,-0.7249118,0.30673495,4.88898229598999,-0.33489078283309937,-6.331532955169678,68.45049285888672,269.39080810546875, -8.476297378540039
622,422808519,0.6356753,0.086530514,-0.69795805,0.31825483,6.4999847412109375,-2.2991437911987305,-8.320846557617188,88.61605834960938,251.46615600585938, -7.901937484741211
623,422825186,0.65679514,0.086646535,-0.6720342,0.33088493,7.066969394683838,-2.5541789531707764,-11.791402816772461,105.98554229736328,221.6791534423828, -6.03018045425415
624,422841853,0.67367923,0.088554926,-0.6484019,0.34335342,6.428515434265137,-1.9090306758880615,-12.801321029663086,110.7196044921875,187.98431396484375, -4.06643009185791
625,422858520,0.68581516,0.09243256,-0.6280681,0.35587427,4.954879283905029,-1.8836605548858643,-14.339863777160645,115.26042938232422,147.35047912597656, 0.5853158831596375
626,422875187,0.6932143,0.09707619,-0.6124151,0.36739644,3.4924981594085693,-2.576561450958252,-14.772001266479492,106.21378326416016,102.77864837646484, 7.0736918449401855
627,422891854,0.69544995,0.10296709,-0.6024447,0.37790182,2.1673941612243652,-3.5079712867736816,-14.847478866577148,97.08502197265625,50.578208923339844, 13.710714340209961
628,422908521,0.69244313,0.11156326,-0.5979115,0.3880465,1.5022321939468384,-2.8861117362976074,-15.181790351867676,98.24655151367188,-3.986258029937744, 18.104188919067383
629,422925188,0.684946,0.12182769,-0.59853864,0.3971908,0.9737200736999512,-1.4264627695083618,-14.309089660644531,91.88095092773438,-51.81427001953125, 22.27245330810547
630,422941855,0.6746172,0.13125528,-0.603861,0.40375477,0.267008900642395,0.22143912315368652,-12.626150131225586,66.96612548828125,-85.0834732055664, 25.109277725219727
631,422958522,0.6635135,0.13729064,-0.6130891,0.40623298,-0.4110426902770996,1.0714075565338135,-9.761021614074707,24.18214988708496,-100.38343811035156, 25.853906631469727
632,422975189,0.6526758,0.1388982,-0.6254237,0.40443632,-1.4912190437316895,-0.021261800080537796,-8.535608291625977,-22.936279296875,-104.89708709716797, 27.19865608215332
633,422991856,0.64287275,0.13863805,-0.6380451,0.40049312,0.4464995861053467,-1.094947338104248,-1.5896186828613281,-42.2969970703125,-98.4309310913086, 22.98193359375
634,423008523,0.63547903,0.13336638,-0.6500118,0.39479953,2.8101003170013428,-3.542255163192749,9.287552833557129,-72.61571502685547,-72.88153839111328, 29.991832733154297
635,423025190,0.6265822,0.12924412,-0.66248333,0.38962597,6.880372524261475,-3.0099334716796875,-2.111032485961914,-65.3061752319336,-84.81985473632812, 31.68099594116211
636,423041857,0.6135968,0.13139872,-0.6748018,0.3884297,6.441431522369385,-1.833326816558838,-0.9522103667259216,-16.09532928466797,-116.06402587890625, 31.05309295654297
637,423058524,0.5992857,0.13283567,-0.6883476,0.38651112,3.517270088195801,-2.097923755645752,-1.0156192779541016,-24.565645217895508,-126.17549133300781, 36.008934020996094
638,423075191,0.58384186,0.13826796,-0.69934225,0.3885009,1.3867641687393188,-1.5484808683395386,-2.0481016635894775,18.207889556884766,-128.12930297851562, 33.860782623291016
639,423091858,0.5706103,0.1420061,-0.7089816,0.38933945,0.19585171341896057,-1.4336811304092407,-2.9388608932495117,7.391128063201904,-108.6449203491211, 30.146089553833008
640,423108525,0.5600062,0.14575954,-0.7160354,0.39043862,0.4460982084274292,-1.7046443223953247,-3.010065793991089,13.084556579589844,-85.47586822509766, 21.49012565612793
641,423125192,0.5522444,0.1473671,-0.7221616,0.38960665,0.7394632697105408,-0.7787681818008423,-1.9655184745788574,-5.038710594177246,-64.07926177978516, 16.017974853515625
642,423141859,0.5461816,0.14773574,-0.72758186,0.38792533,1.020007848739624,-0.7494155764579773,-1.4209446907043457,-13.798665046691895,-50.53048324584961, 13.681197166442871
643,423158526,0.540897,0.14848204,-0.7318895,0.38694057,0.5748506188392639,-0.21358393132686615,-1.1894586086273193,-6.730732440948486,-42.80223083496094, 11.212882995605469
644,423175193,0.5355105,0.1504714,-0.73531336,0.38717288,0.5422549247741699,-0.06347183883190155,-1.319039225578308,6.456882476806641,-42.139549255371094, 8.866374969482422
645,423191860,0.529937,0.1528734,-0.73850596,0.3878235,0.42178890109062195,-0.1886478066444397,-0.8649595975875854,10.885942459106445,-42.940956115722656, 8.59097671508789
646,423208527,0.52457446,0.15476513,-0.7419374,0.38781407,0.3512912690639496,-0.3201666474342346,-1.1697348356246948,4.7997941970825195,-42.12746047973633, 8.473973274230957
647,423225194,0.51998913,0.15507787,-0.746068,0.3859356,0.3693815767765045,-0.013028347864747047,-0.4877074360847473,-13.133106231689453,-38.50147247314453, 8.469202995300293
648,423241861,0.51601,0.15423374,-0.7504904,0.38302886,0.41761788725852966,0.051967985928058624,-0.5167546272277832,-23.98145294189453,-34.51998519897461, 9.45772933959961
649,423258528,0.5124498,0.15264085,-0.75503904,0.37949127,0.7847012281417847,0.5599285960197449,-0.19897334277629852,-30.685564041137695,-31.556724548339844, 10.148112297058105
650,423275195,0.5091217,0.15061982,-0.75971276,0.37542877,1.3550492525100708,0.5722537040710449,-0.23787163197994232,-35.50559616088867,-30.288515090942383, 10.101032257080078
651,423291862,0.5056646,0.14745449,-0.76556027,0.3694311,1.6891621351242065,0.10131339728832245,1.6642193794250488,-52.531524658203125,-34.18291091918945, 10.917229652404785
652,423308529,0.5010079,0.143158,-0.7733285,0.36119398,0.9028617143630981,-1.6023544073104858,1.803794264793396,-71.94573211669922,-46.69257354736328, 14.141063690185547
653,423325196,0.49398333,0.14129756,-0.78172505,0.3534439,1.1411643028259277,-0.23082581162452698,2.0415613651275635,-60.22592544555664,-67.1324691772461, 9.3670015335083
654,423341863,0.48456943,0.14093865,-0.7911342,0.34559646,1.1621618270874023,-0.37631118297576904,2.4237096309661865,-55.822505950927734,-87.27722930908203, 7.790431022644043
655,423358530,0.47353885,0.14175573,-0.8009252,0.337915,1.6710034608840942,0.9495813250541687,1.9544932842254639,-50.380516052246094,-100.10677337646484, 6.181617259979248
656,423375197,0.4615672,0.14317566,-0.811028,0.32968313,2.0059969425201416,1.1453965902328491,1.2456179857254028,-51.284576416015625,-108.35686492919922, 3.622568368911743
657,423391864,0.44913796,0.14500499,-0.8209359,0.32142487,2.2067699432373047,1.5939111709594727,1.3780211210250854,-49.259925842285156,-111.33802795410156, 2.1682727336883545
658,423408531,0.4363881,0.14748316,-0.8304253,0.31338304,2.469029664993286,1.405888319015503,1.2802549600601196,-44.80495834350586,-113.17469787597656, -0.4576460123062134
659,423425198,0.42311922,0.15113209,-0.83949393,0.30558187,2.7608084678649902,0.5181342363357544,2.3586173057556152,-38.49564743041992,-117.25413513183594, -5.659085273742676
660,423441865,0.409988,0.15486449,-0.8481532,0.29759762,2.459381580352783,0.20554275810718536,2.889749050140381,-38.61408996582031,-115.76909637451172, -7.344444274902344
661,423458532,0.3970199,0.15735368,-0.85736614,0.2872965,2.0300862789154053,-0.19482381641864777,3.2437586784362793,-56.961910247802734,-116.4473876953125, -6.339262962341309
662,423475199,0.3836273,0.15917279,-0.86697954,0.2753936,2.4405643939971924,-0.38677406311035156,3.455249309539795,-68.59337615966797,-120.5985336303711, -5.477866172790527
663,423491866,0.36934805,0.16026746,-0.8770391,0.26210693,2.585082769393921,-0.13055574893951416,4.4143757820129395,-78.65693664550781,-127.35965728759766, -2.6341028213500977
664,423508533,0.35410964,0.16108161,-0.8869472,0.24896699,2.8363592624664307,1.061174988746643,3.8185670375823975,-77.18424224853516,-132.27073669433594, 1.0022374391555786
665,423525200,0.3383258,0.16195856,-0.8966128,0.2353538,3.0722429752349854,2.3517799377441406,4.87860631942749,-78.90629577636719,-135.79959106445312, 0.17029443383216858
666,423541867,0.32194442,0.16220088,-0.90634257,0.22042432,3.574599027633667,1.3571083545684814,6.668632984161377,-87.9284439086914,-140.2586669921875, 2.1214804649353027
667,423558534,0.3045298,0.16198528,-0.91596085,0.20503432,4.45394229888916,-0.43445879220962524,8.998522758483887,-90.50367736816406,-146.5058135986328, 5.423370838165283
668,423575201,0.28759965,0.16173257,-0.9246273,0.19024819,3.7196831703186035,-0.20639899373054504,10.215704917907715,-86.02281951904297,-141.03170776367188, 5.156287670135498
669,423591868,0.2729724,0.1603078,-0.932818,0.17215975,4.559996128082275,-1.0086658000946045,10.48885726928711,-111.3237533569336,-127.8760757446289, 2.4995980262756348
670,423608535,0.26179707,0.15772118,-0.9401561,0.15064475,4.954439640045166,-4.485060691833496,9.945556640625,-138.33953857421875,-106.83483123779297, -1.5741721391677856
671,423625202,0.24972588,0.15644114,-0.94723296,0.12614998,4.750273704528809,-8.852563858032227,6.606899261474609,-154.12530517578125,-117.02214813232422, -14.900757789611816
672,423641869,0.23521517,0.15823519,-0.9530088,0.10682119,5.22075891494751,-6.413064479827881,-2.2074825763702393,-111.61750793457031,-127.97454833984375, -25.577228546142578
673,423658536,0.22482154,0.16309224,-0.9562132,0.09226863,16.464338302612305,-8.96173095703125,-0.6365396976470947,-78.0448226928711,-93.92814636230469, -43.887840270996094
674,423675203,0.21841913,0.16932988,-0.9570658,0.08744271,0.3024589419364929,-3.9460058212280273,16.412593841552734,-15.074661254882812,-54.42652893066406, -43.24574661254883
675,423691870,0.216563,0.17323017,-0.95754856,0.07869931,0.9907702803611755,0.4102499485015869,11.307720184326172,-49.4989013671875,-27.28777313232422, -37.01042175292969
676,423708537,0.218689,0.1744787,-0.9576189,0.06855117,2.381385087966919,-4.505566120147705,6.790859699249268,-67.17647552490234,-0.7963772416114807, -24.313499450683594
677,423725204,0.22254579,0.17650418,-0.9560907,0.072187595,1.1490341424942017,-5.193942070007324,5.897041320800781,23.369949340820312,29.096555709838867, -11.528963088989258
678,423741871,0.23012526,0.17877007,-0.953027,0.082607664,1.336289405822754,-0.6749968528747559,7.6395649909973145,64.50871276855469,63.994850158691406, -6.501026153564453
679,423758538,0.24204217,0.17783989,-0.9494559,0.09123016,0.6373188495635986,-1.1402004957199097,7.285976409912109,42.6552848815918,92.7549819946289, 8.543706893920898
680,423775205,0.25618732,0.1776195,-0.9443042,0.10540343,0.021805718541145325,-0.5653492212295532,6.83665132522583,78.35356140136719,116.2300796508789, 9.84158992767334
681,423791872,0.27236143,0.17667706,-0.93812376,0.12053684,0.27653005719184875,-0.4903867542743683,3.8275647163391113,81.60602569580078,132.8833465576172, 13.539932250976562
682,423808539,0.29014376,0.17585447,-0.93011343,0.14064755,0.20678630471229553,-1.4301308393478394,2.8373773097991943,113.52690124511719,152.646484375, 18.592891693115234
683,423825206,0.3101116,0.17398767,-0.9206258,0.16127084,-0.04037680849432945,0.5578623414039612,3.216456890106201,113.51518249511719,171.2286834716797, 22.44182586669922
684,423841873,0.33285376,0.16990037,-0.90992904,0.17992327,-0.1808948814868927,-0.3481813669204712,2.146880626678467,94.3566665649414,191.49815368652344, 27.852426528930664
685,423858540,0.3583107,0.16361387,-0.8979862,0.19612704,-0.2533503770828247,0.1521938145160675,1.9433307647705078,72.38650512695312,211.24749755859375, 31.228328704833984
686,423875207,0.38636217,0.15429121,-0.8849331,0.20931542,-0.24633580446243286,-0.2891211211681366,1.2335731983184814,44.88182067871094,230.7636260986328, 37.822731018066406
687,423891874,0.41629925,0.14314777,-0.870099,0.22165808,-0.2625125050544739,1.1029905080795288,0.27674683928489685,35.473628997802734,248.76783752441406, 42.04689025878906
688,423908541,0.44766402,0.13062032,-0.8534545,0.23270495,0.05885429307818413,1.5808978080749512,-0.24222266674041748,25.142333984375,263.4243469238281, 42.68486785888672
689,423925208,0.4798696,0.11732417,-0.83489037,0.24273291,1.0982482433319092,1.5219080448150635,-1.2761132717132568,19.144454956054688,274.68408203125, 41.02224349975586
690,423941875,0.5119815,0.10495036,-0.81399494,0.25352216,2.4277265071868896,0.8028536438941956,-3.753692150115967,30.560394287109375,281.0251770019531, 36.558006286621094
691,423958542,0.54375505,0.09543933,-0.7898735,0.26706302,3.890018939971924,0.2952100336551666,-4.728015899658203,61.95616149902344,287.6561584472656, 28.532426834106445
692,423975209,0.57506204,0.08800348,-0.7628979,0.2820402,5.225335121154785,0.22139662504196167,-5.40448522567749,83.11421203613281,293.11712646484375, 21.67816925048828
693,423991876,0.60494244,0.08217684,-0.73410964,0.2972806,6.718435764312744,0.236698716878891,-7.721030235290527,95.28263092041016,290.0443420410156, 16.02189064025879
694,424008543,0.632217,0.07851352,-0.7048028,0.3120758,7.678072452545166,0.3671037554740906,-9.533652305603027,104.61711883544922,274.652099609375, 8.370802879333496
695,424025210,0.65480447,0.07639961,-0.67784196,0.32546234,7.6531291007995605,-1.5622276067733765,-12.305989265441895,102.0689926147461,237.9933319091797, 6.150557041168213
696,424041877,0.6714776,0.07718951,-0.65447783,0.33885038,6.624943733215332,-2.7243218421936035,-15.066986083984375,110.2916488647461,188.1739044189453, 7.7665696144104
697,424058544,0.682492,0.078907266,-0.63616365,0.35110563,5.072329521179199,-2.3830227851867676,-16.18389129638672,100.83721160888672,137.15817260742188, 14.183600425720215
698,424075211,0.6875936,0.08153092,-0.62393767,0.36231294,3.064404010772705,-1.9688842296600342,-17.42812728881836,89.15103912353516,80.51750946044922, 22.817859649658203
699,424091878,0.6865345,0.0880003,-0.61739135,0.37383866,1.8074132204055786,-1.4115772247314453,-18.11709976196289,98.15357971191406,18.393178939819336, 26.26576805114746
700,424108545,0.679576,0.09842283,-0.6166301,0.38504258,1.1762382984161377,-0.7199611663818359,-16.580821990966797,104.29871368408203,-43.77041244506836, 26.51854133605957
701,424125212,0.66803646,0.10994183,-0.6215435,0.39411265,1.1556525230407715,-0.2494172751903534,-14.586509704589844,88.57284545898438,-93.59113311767578, 27.753263473510742
702,424141879,0.6539389,0.11992742,-0.6312912,0.3993163,1.032403588294983,1.0446821451187134,-11.729753494262695,53.92594909667969,-125.11427307128906, 27.03609848022461
703,424158546,0.63941705,0.12644024,-0.64446366,0.399783,0.6202872395515442,1.896118402481079,-7.820955753326416,8.736042976379395,-136.44505310058594, 24.768238067626953
704,424175213,0.62542844,0.12834767,-0.66021264,0.3955836,-0.6912712454795837,0.917881965637207,-7.384793281555176,-39.731651306152344,-136.65826416015625, 25.47216033935547
705,424191880,0.6147964,0.1278115,-0.6736698,0.38969174,1.410036325454712,-0.22866512835025787,8.278973579406738,-54.631526947021484,-106.27985382080078, 18.1650333404541
706,424208547,0.6066199,0.12073125,-0.6869995,0.3814039,3.4705257415771484,-2.4350223541259766,4.865440845489502,-95.2885971069336,-79.31208038330078, 31.74798583984375
707,424225214,0.594411,0.11894387,-0.7004362,0.3767198,9.580827713012695,-3.6308436393737793,-6.650714874267578,-53.15837097167969,-109.94393157958984, 32.474830627441406
708,424241881,0.5792029,0.12206508,-0.7129278,0.37597746,5.30168342590332,0.18090540170669556,0.37696874141693115,-9.174397468566895,-129.88925170898438, 31.94784164428711
709,424258548,0.56461537,0.12249598,-0.72604746,0.37290776,2.9205121994018555,-1.5915523767471313,-1.2878963947296143,-33.471866607666016,-124.45760345458984, 34.86257553100586
710,424275215,0.5496756,0.12633574,-0.73570555,0.37501246,1.2515959739685059,-3.6000194549560547,-4.310201168060303,14.767661094665527,-117.21605682373047, 35.90544891357422
711,424291882,0.5375343,0.12946716,-0.74339586,0.3763756,0.3678271174430847,-1.0125571489334106,-4.419118404388428,11.016613006591797,-94.39683532714844, 27.65296745300293
712,424308549,0.5284668,0.1316138,-0.74939454,0.3765758,1.295515775680542,-1.4592519998550415,-2.8840479850769043,3.0949883460998535,-70.86971282958984, 18.891921997070312
713,424325216,0.52214575,0.13227096,-0.7544228,0.3751206,1.805389642715454,0.601861298084259,-1.6420217752456665,-10.815008163452148,-50.83686828613281, 12.542159080505371
714,424341883,0.51741856,0.13155365,-0.7590928,0.37249246,1.3745492696762085,0.04919447749853134,-1.5667091608047485,-22.373319625854492,-38.845584869384766, 11.081859588623047
715,424358550,0.51368225,0.13038526,-0.76329654,0.36947238,0.7196754217147827,-0.632304310798645,-1.151719570159912,-25.736434936523438,-31.254453659057617, 9.12272834777832
716,424375217,0.50998235,0.13035187,-0.76657593,0.3678161,0.33168914914131165,-0.6815239787101746,-1.5979983806610107,-12.267889022827148,-29.50606918334961, 7.071762561798096
717,424391884,0.50625867,0.13115124,-0.7692765,0.36703733,0.04068973287940025,-0.43740901350975037,-1.1804627180099487,-3.2449722290039062,-28.951454162597656, 5.29685640335083
718,424408551,0.5026968,0.13215049,-0.7717754,0.3663275,-0.21813422441482544,-1.2749923467636108,-0.6831605434417725,-1.833630919456482,-27.875324249267578, 3.884861469268799
719,424425218,0.49959278,0.13248862,-0.77455455,0.36458206,-0.2429729551076889,-1.6582615375518799,-0.46541252732276917,-10.750345230102539,-25.74055290222168, 2.8873724937438965
