Acc_X,Acc_Y,Acc_Z
-1.7111060619354248,0.1036082506179809,-20.79638290405273
-2.083548784255981,3.879210948944092,-15.27077865600586
3.123899221420288,2.4257891178131104,-10.257707595825195
12.592061042785645,15.247990608215332,7.150826930999756
23.286415100097656,8.212958335876465,0.9844161868095398
23.067270278930664,-25.232807159423828,-0.2739949226379394
3.7250490188598633,-5.356458187103272,-11.718669891357422
-10.219907760620115,6.582157611846924,-13.933792114257812
-0.1085658967494964,6.187779903411865,-5.962768077850342
8.937080383300781,1.0169873237609863,-0.9569010734558104
5.789801597595215,1.3116225004196167,-0.0431139096617698
3.186612606048584,-1.904527187347412,-1.7230534553527832
0.4384803175926208,1.3393551111221311,0.3312931358814239
-0.678381085395813,4.862863063812256,-1.2651327848434448
0.1384620666503906,1.8542710542678835,-1.7302589416503906
3.9291679859161377,1.673485279083252,0.6725043058395386
7.171095848083496,2.034387826919556,9.587228775024414
9.858826637268066,0.9374053478240968,13.753538131713867
15.365008354187012,-2.486045360565185,18.12185859680176
22.40605735778809,-3.0560593605041504,24.994529724121094
19.51559066772461,-0.9022507667541504,22.936941146850582
15.9253568649292,-2.6270251274108887,14.471444129943848
13.103267669677734,6.686908721923828,11.558740615844728
12.88681411743164,12.267904281616213,36.602989196777344
8.340777397155762,-1.9290094375610352,25.18077850341797
1.7679405212402344,-1.1000405550003052,29.346296310424805
1.209223985671997,-3.558919668197632,26.632532119750977
0.7696233987808228,-3.296341896057129,19.771183013916016
1.9031105041503904,-5.025770664215088,11.942206382751465
7.160463333129883,-5.25482177734375,3.1361546516418457
12.301413536071776,-2.882795572280884,-6.205760478973389
19.16296768188477,2.824951171875,-18.864717483520508
13.17198371887207,9.460577964782717,-37.98537826538086
0.6582963466644287,12.1624755859375,-48.773624420166016
-13.737348556518556,16.674840927124023,-47.12686538696289
-17.810821533203125,8.1538724899292,-41.377403259277344
-17.283470153808594,2.9735355377197266,-30.769073486328125
-7.90064811706543,5.850686550140381,-28.1813907623291
22.83332252502441,46.61052703857422,-14.63317584991455
49.065467834472656,-50.36128234863281,13.34261703491211
11.039633750915527,4.036342620849609,11.18334674835205
-5.862631797790527,-25.071664810180664,-17.421350479125977
-13.592527389526367,21.12228202819824,-14.560526847839355
-5.855983257293701,12.88271427154541,-9.948317527770996
6.3839287757873535,4.617815017700195,-3.306425094604492
8.273452758789062,2.494051933288574,0.5259021520614624
7.169943332672119,-1.781791925430298,1.522214651107788
11.266892433166504,-5.031500816345215,2.8690590858459477
9.44138240814209,1.735142946243286,12.807403564453123
6.687807559967041,-1.055447340011597,12.071599006652832
6.378418922424316,1.731743574142456,17.809833526611328
9.924683570861816,5.896551132202148,15.846824645996094
13.796263694763184,3.8608458042144775,19.335708618164062
11.343949317932127,2.867351770401001,26.019262313842773
3.295816659927368,-1.5500400066375732,16.83730697631836
10.72783374786377,6.791142463684082,25.41401481628418
8.780543327331543,-6.830194473266602,25.93526268005371
16.36786460876465,2.918322801589966,19.489961624145508
18.179597854614254,5.227761268615723,14.984980583190918
10.881576538085938,-5.023707866668701,10.446693420410156
3.719708204269409,-6.565842628479004,6.007001876831055
-1.196742296218872,1.4312193393707275,6.303530693054199
-0.3714874684810638,3.0820415019989014,3.403043031692505
0.2278097867965698,4.238276481628418,-0.8098738789558411
1.3299248218536377,0.2396976202726364,-5.179077625274658
2.7493205070495605,-7.343239784240723,-16.11631202697754
0.514560341835022,-7.241743087768555,-20.395530700683597
2.882441520690918,2.3136723041534424,-17.875286102294922
0.7152363061904907,6.287187099456787,-21.69527816772461
2.316735029220581,6.516115188598633,-27.61573028564453
-3.5473806858062744,7.668914794921875,-32.34735870361328
-8.294242858886719,11.115124702453612,-25.958763122558597
-9.218342781066896,2.35817551612854,-22.864896774291992
-6.860472679138184,-3.769015073776245,-16.168697357177734
-7.96484375,-9.296083450317385,-11.764996528625488
-6.428341388702393,-10.0664701461792,-9.600054740905762
0.4846104681491852,-0.2901580929756164,-5.944497108459473
6.369744777679443,74.4667739868164,-32.60565185546875
30.83025360107422,-27.070037841796875,28.019695281982425
30.56156539916992,-27.53828239440918,-5.187978744506836
1.0543019771575928,-11.574145317077637,0.7376542091369629
-9.850110054016112,0.0768877863883972,-18.29442977905273
-7.11208963394165,7.802029609680176,-13.049789428710938
7.000209808349609,5.265777587890625,-4.976356029510498
7.984206199645996,0.8509668707847595,1.1196821928024292
1.1015545129776,3.667694807052612,-2.6177451610565186
2.605290174484253,-1.010961890220642,-3.935431241989136
3.924316883087158,2.9350273609161377,0.6523226499557495
5.20231294631958,5.660126686096191,10.043663024902344
6.29709529876709,3.663798570632935,14.776134490966797
11.710981369018556,2.185046672821045,18.004337310791016
20.00856208801269,-3.648566722869873,20.50409507751465
21.184703826904297,-6.618031024932861,23.79805564880371
10.965532302856444,-3.252332925796509,18.244049072265625
6.670189380645752,1.3922829627990725,9.820056915283203
12.424339294433594,17.777603149414062,32.036590576171875
4.220304489135742,-4.356231212615967,22.376392364501957
0.3181586861610412,-5.807730197906494,21.06016540527344
-0.8103410601615906,-3.407908201217652,21.235990524291992
-4.8105950355529785,2.5412962436676025,17.854434967041016
-6.475363254547119,7.618213176727295,11.46077823638916
-3.3401474952697754,5.811570644378662,7.812024593353271
2.557739734649658,0.6236465573310852,-1.1565518379211426
7.5145158767700195,-2.097873449325561,-10.851740837097168
11.815027236938477,-2.6393446922302246,-17.735227584838867
13.719589233398438,-2.497257709503174,-30.23155212402344
1.9828474521636963,14.520041465759276,-32.45447540283203
-8.33559799194336,11.803613662719728,-33.04396438598633
-10.877305030822754,1.9507548809051516,-32.12095260620117
-13.214563369750977,2.896367073059082,-29.015382766723636
-5.963602066040039,29.68353080749512,-64.25667572021484
39.75532531738281,-27.51596450805664,26.83623313903809
25.2707462310791,-17.864309310913086,-0.5521546006202698
1.8138749599456787,-9.211947441101074,-0.2253777384757995
-2.961458444595337,0.4051050841808319,-6.740710735321045
-7.177319049835205,14.142024040222168,-9.171528816223145
-2.395829439163208,6.262181282043457,-7.747174263000488
4.148151397705078,6.5644049644470215,-2.3535945415496826
9.89445686340332,-0.1110180094838142,-0.5410847067832947
11.676459312438965,-2.1522083282470703,2.7375564575195312
11.637502670288086,-4.347572326660156,3.531641960144043
9.518296241760254,-4.224913597106934,9.582085609436035
7.4372639656066895,-1.4950251579284668,11.948057174682615
6.458366870880127,0.4948140382766723,13.86658000946045
8.685844421386719,2.1987979412078857,16.095563888549805
10.928857803344728,3.1534128189086914,19.32555389404297
9.105019569396973,3.0027902126312256,19.75348854064941
7.769368648529053,2.271483898162842,6.083828926086426
14.422100067138672,-5.236842632293701,21.23391532897949
12.08383083343506,-8.761750221252441,22.294870376586918
16.791154861450195,7.25197172164917,21.715988159179688
16.707067489624023,6.831711292266846,19.84129905700684
10.895864486694336,-0.3635903894901275,17.436996459960938
4.956871032714844,-2.118901252746582,13.069345474243164
2.548945188522339,2.233086347579956,8.304450988769531
1.0244652032852173,3.2871956825256348,5.007599830627441
0.6438054442405701,1.271162986755371,0.5095142126083374
-0.7630059123039246,-0.0683358013629913,-2.712557554244995
2.6993484497070312,-4.508866310119629,-7.525786399841309
5.915583610534668,-3.2458572387695312,-12.395635604858398
8.313796043395996,-0.3381356596946716,-17.452068328857422
9.362268447875977,0.1299887299537658,-26.96847915649414
3.3745522499084477,6.722591400146484,-30.893564224243164
-4.05055046081543,7.600112438201904,-32.724220275878906
-8.05662727355957,3.902317523956299,-31.90633201599121
-10.328153610229492,2.6162989139556885,-29.79962158203125
-10.020193099975586,-4.336819171905518,-25.773054122924805
-5.792843818664551,-4.346807479858398,-19.014476776123047
8.266885757446289,30.75790405273437,-3.881991386413574
25.18844223022461,10.070082664489746,-6.493756294250488
32.376548767089844,-23.932966232299805,8.026993751525879
6.457946300506592,-10.837810516357422,-5.910835266113281
-14.811849594116213,4.209466934204102,-16.735015869140625
-9.218810081481934,11.31491470336914,-14.830130577087402
8.121525764465332,5.994783401489258,-2.751564741134644
12.472441673278809,-4.981437206268311,-3.1988444328308105
4.686870574951172,0.49513640999794,-3.3428540229797363
4.811988830566406,1.966684937477112,-3.490683555603028
4.640723705291748,5.830615997314453,-0.0853470265865325
6.972980976104736,2.6305174827575684,3.361982822418213
5.240500450134277,-0.932563543319702,6.8988423347473145
4.328230857849121,-1.3671871423721311,9.313855171203612
5.565828800201416,-1.6312205791473389,12.950170516967772
9.54422092437744,-1.9025557041168213,14.450739860534668
13.78933811187744,-3.117792844772339,19.175485610961918
11.643134117126465,-3.8726437091827393,18.625991821289062
5.616424560546875,-3.046746253967285,12.634861946105955
3.3673129081726074,0.3169580101966858,8.605426788330078
7.586058139801025,6.282261371612549,24.93063163757324
12.7654390335083,3.3461697101593018,19.55933380126953
12.462124824523926,8.712050437927246,18.72334289550781
7.196696758270264,0.7400410175323486,18.68817901611328
3.655208826065064,-4.997941493988037,12.28309726715088
0.9360766410827636,1.803146243095398,7.236944675445557
-1.3527556657791138,3.932341575622559,3.587250232696533
-1.5289322137832642,2.430596113204956,0.1974284797906875
-0.841536283493042,2.728008270263672,-1.4304203987121582
1.8524839878082275,-3.651267766952514,-5.574511528015137
4.008481979370117,-7.63920783996582,-10.34670352935791
5.860637664794922,-7.139730453491211,-11.50229835510254
9.968894958496094,-3.840294599533081,-21.58650779724121
2.9099183082580566,3.538468599319458,-25.84366226196289
-4.445417404174805,9.106680870056152,-27.73834609985352
-9.165958404541016,7.087985038757324,-28.39390563964844
-12.740344047546388,4.901327610015869,-23.69833374023437
-13.50722312927246,0.5710473656654358,-19.45698356628418
-7.300875186920166,-1.968082070350647,-17.4208927154541
-2.623201847076416,49.78614807128906,-41.74308013916016
34.52790069580078,-16.431222915649414,18.79658508300781
36.33727264404297,-45.74285507202149,-0.022022396326065
2.354167461395264,-3.694335460662842,1.9462909698486328
-7.305692672729492,-2.5020055770874023,-16.224925994873047
-7.888789176940918,14.610074043273926,-10.592914581298828
2.928621768951416,11.588046073913574,-1.1244269609451294
9.8052339553833,0.770117461681366,-0.4764212667942047
7.601374626159668,0.5691757202148438,-0.5680779814720154
8.732291221618652,-0.0073604071512818,1.3858730792999268
11.83439826965332,0.2342455387115478,6.520217418670654
9.093390464782717,-3.9967217445373535,7.508856773376465
7.020493030548096,-6.479841709136963,8.051080703735352
5.307588577270508,-4.6342363357543945,10.676162719726562
9.154481887817385,1.3890163898468018,13.83311367034912
12.768948554992676,1.355039358139038,18.80245780944824
10.53135585784912,-0.4489343464374542,21.167940139770508
4.901362419128418,-1.2438596487045288,9.739145278930664
12.463162422180176,3.244469404220581,17.04750633239746
8.806570053100586,-11.353436470031738,23.245962142944336
11.394749641418455,2.012820243835449,20.736661911010746
14.06408977508545,10.548975944519045,21.329668045043945
9.202195167541504,1.608296036720276,18.50915908813477
4.81466007232666,-5.612979888916016,9.636807441711426
1.4287670850753784,-1.5938801765441897,7.084772109985352
0.4319499135017395,5.670651912689209,3.9776437282562256
1.5751869678497314,6.129037857055664,-0.5187559127807617
0.2362269461154937,7.625114440917969,-2.2037792205810547
1.0447914600372314,2.1532557010650635,-4.209383964538574
4.827992916107178,-2.1027231216430664,-10.627585411071776
5.067303657531738,-2.608308792114258,-14.621881484985352
6.76147985458374,-4.046350955963135,-18.393001556396484
4.446916103363037,-1.6465662717819214,-23.67490577697754
-2.427907466888428,1.994624614715576,-24.931182861328125
-6.544631004333496,-0.7469977140426636,-27.754425048828125
-9.060861587524414,-2.281388282775879,-25.62481117248535
-11.5062894821167,-1.4392151832580566,-21.992759704589844
-10.1887788772583,-9.019701957702637,-22.133554458618164
-3.520664930343628,-6.984692573547363,-18.111207962036133
5.167352676391602,44.12921905517578,-25.68239974975586
33.069969177246094,19.843204498291016,8.080244064331055
27.59800910949707,-49.421905517578125,1.854419469833374
8.360107421875,-2.038255214691162,-1.077122449874878
-12.702678680419922,-0.6253417134284973,-16.526968002319336
-9.389811515808104,11.864648818969728,-14.025097846984863
2.858217000961304,8.908790588378906,-3.5476856231689453
10.207636833190918,1.1631150245666504,-2.356403350830078
6.2893571853637695,2.348949670791626,-1.7750014066696167
5.514793872833252,0.0996476486325264,-2.3471784591674805
9.873506546020508,1.5836079120635986,1.039883375167847
10.469786643981934,-1.7223869562149048,6.0384721755981445
6.958922386169434,-5.547926425933838,7.577714920043945
4.041599750518799,-3.619428157806397,9.506806373596191
5.742486000061035,-1.6493860483169556,13.548917770385742
9.547919273376465,-0.1597137004137039,15.391294479370115
11.788947105407717,1.90650486946106,19.49319267272949
7.198429584503174,2.64577054977417,22.012683868408203
1.954090595245361,-1.0771769285202026,9.22696018218994
9.53335189819336,3.2645058631896973,13.836156845092772
5.362407684326172,-5.947364807128906,23.47203254699707
9.56926727294922,4.412348747253418,18.064760208129883
11.166692733764648,11.064164161682127,19.250551223754883
8.431207656860352,6.372397422790527,17.887386322021484
4.337166786193848,0.7372564673423767,14.176642417907717
2.0008933544158936,0.5419107675552368,9.855531692504885
-0.6030387282371521,4.880582809448242,4.7086501121521
-2.3935415744781494,5.310520648956299,-0.2854704558849334
-2.6781368255615234,-2.01249098777771,-8.357803344726562
3.0043177604675293,-6.829724311828613,-11.160348892211914
-0.2423875331878662,11.011262893676758,-9.567092895507812
6.240798473358154,-15.103927612304688,-24.339265823364254
11.506553649902344,-7.337574958801269,-26.807886123657227
0.8019839525222778,14.885842323303224,-27.589824676513672
-3.9054462909698486,8.519171714782715,-30.694072723388672
-5.955485820770264,2.1407225131988525,-28.242645263671875
-9.86721134185791,6.071955680847168,-19.39166259765625
-6.767125606536865,-2.9743165969848637,-17.1826171875
-5.233290672302246,-5.229681015014648,-26.425615310668945
3.1892223358154297,44.760353088378906,-26.12717628479004
25.515125274658203,-51.50288391113281,7.176906585693359
36.90213394165039,-16.616647720336914,2.344320297241211
4.410348415374756,-8.479190826416016,-0.266513466835022
-0.815729022026062,-6.646684169769287,-9.30257797241211
-8.429996490478516,15.770634651184082,-9.09266757965088
-4.303423881530762,9.71402359008789,-7.55571174621582
4.001615047454834,3.815362691879273,-3.5948078632354736
8.954839706420898,2.16817307472229,-0.055008165538311
10.766368865966797,-1.014731764793396,2.9483492374420166
11.53449249267578,-4.735010147094727,3.1629321575164795
9.952301025390623,-3.952573776245117,13.607707977294922
8.008851051330566,-3.3961355686187744,17.022287368774414
8.648855209350586,-3.223783016204834,18.685556411743164
13.25468635559082,-1.8856680393218996,19.970909118652344
12.760978698730469,-2.4456772804260254,18.04439353942871
7.081148147583008,-2.325817108154297,15.256314277648926
5.129254817962647,-0.1792024224996566,6.457542896270752
10.030242919921877,-2.8802261352539062,20.06957054138184
10.810276985168455,-5.923751831054688,18.302589416503903
11.955058097839355,7.994741439819336,18.44297218322754
8.376368522644043,5.915247917175293,17.338478088378906
3.874924898147583,-1.759782791137695,12.713726997375488
3.418947458267212,-2.528102159500122,8.668335914611816
1.5889581441879272,4.232481956481934,5.0216145515441895
-0.0595208406448364,3.6671860218048096,1.966536283493042
-1.5245095491409302,5.614979267120361,0.6853737235069275
-2.081850051879883,3.990723133087158,-1.0621213912963867
-0.9151147603988647,-0.6237185597419739,-4.458257675170898
1.1290972232818604,-0.3166719675064087,-8.001195907592773
2.0640556812286377,-3.226626396179199,-15.52973747253418
2.6650519371032715,-2.8102848529815674,-23.486553192138672
-3.0303750038146973,4.339280128479004,-28.67753028869629
-6.854154586791992,6.96575403213501,-30.666358947753903
-8.84515380859375,1.0657685995101929,-30.178091049194336
-9.501734733581545,0.0749456286430358,-26.41258430480957
-3.752965927124024,-4.224895477294922,-23.93013572692871
2.2835187911987305,38.769287109375,-41.93391036987305
28.284366607666016,-14.621502876281738,14.583396911621094
30.00682258605957,-36.82362365722656,-10.967419624328612
6.254574298858643,-8.8388090133667,0.9376296997070312
-6.25429105758667,2.256274700164795,-14.939247131347656
-4.574956893920898,8.27078914642334,-9.689552307128906
3.469850540161133,10.755292892456056,-3.891327142715454
8.067148208618164,2.785354852676392,-1.650392770767212
9.39845371246338,3.079864501953125,-1.5129196643829346
10.127337455749512,-0.0926811695098877,-0.2550353407859802
11.900585174560549,-0.7939227223396301,3.8141143321990967
11.331009864807127,-5.5934014320373535,8.431392669677734
7.467870712280273,-3.9126267433166495,10.077059745788574
4.479718208312988,-2.056928873062134,14.883112907409668
5.914047718048096,-0.0513225346803665,16.96274757385254
8.718009948730469,2.055058717727661,17.38534927368164
4.61417818069458,0.9570311307907104,18.96086311340332
1.3182393312454224,0.6193285584449768,7.741734981536865
9.359052658081056,6.113368511199951,16.853090286254883
4.3330159187316895,-11.429891586303713,20.842927932739254
9.037836074829102,2.995527982711792,18.874935150146484
12.378501892089844,9.603742599487305,17.40669822692871
9.58622932434082,2.3588223457336426,15.290457725524902
5.009655952453613,-1.3844112157821655,12.385997772216797
4.060135841369629,-1.284852147102356,8.778447151184082
2.21773362159729,1.3521913290023804,4.522774696350098
-0.7120367288589478,3.648463249206543,0.651522159576416
-3.1834523677825928,6.314307689666748,-1.5514382123947144
-1.95671820640564,6.694238185882568,-4.057690143585205
0.3860773742198944,1.7814241647720337,-11.633917808532717
2.352466583251953,-3.253747940063477,-20.318437576293945
5.679901123046875,-8.520200729370117,-27.199190139770508
2.845034122467041,4.387860298156738,-31.557090759277344
-5.818874359130859,6.139399528503418,-29.45166778564453
-6.249346733093262,-6.734976291656494,-30.07569694519043
-7.551855087280273,-0.229486733675003,-24.158390045166016
-6.4831156730651855,2.335554838180542,-26.121850967407227
5.081072807312012,28.71212577819824,-29.85238265991211
27.386817932128903,-38.73455810546875,10.944957733154297
23.35610008239746,-15.840423583984377,-6.959044456481934
2.4481749534606934,-9.40048122406006,-2.348287582397461
-2.439608335494995,3.6010701656341557,-11.335158348083496
-3.4250893592834477,6.456176280975342,-8.707792282104492
3.395902156829834,8.221806526184082,-5.506242752075195
8.32891845703125,1.5766483545303345,-1.697150468826294
9.225769996643066,1.1586415767669678,-0.795356035232544
9.13326930999756,0.7857974767684937,-1.395397663116455
11.927042007446287,1.106358528137207,4.851757526397705
10.401618003845217,-3.185116767883301,7.730687618255615
6.208286285400391,-2.4340054988861084,13.064706802368164
4.202906608581543,-3.766995668411255,15.098958969116213
6.779435157775879,-0.4396522045135498,14.394979476928713
10.706692695617676,0.3788094520568847,17.81589126586914
7.380748271942139,1.06390118598938,19.891752243041992
2.1723387241363525,-1.5416336059570312,10.250860214233398
8.85632038116455,-1.505260705947876,10.062677383422852
5.931981086730957,-3.427924871444702,23.51185417175293
9.504141807556152,3.016550302505493,18.000532150268555
12.65719985961914,11.249229431152344,17.634109497070312
9.09426498413086,4.876540184020996,16.504615783691406
4.935892105102539,0.6193318963050842,14.55912971496582
2.3360471725463867,-0.4951896965503692,10.131278038024902
1.0375310182571411,4.342472076416016,5.713508129119873
-0.9356073141098022,4.879040241241455,1.4200408458709717
-2.4092910289764404,5.158322334289551,-0.9266533851623536
-1.8804525136947632,0.6614194512367249,-3.117424726486206
1.1640204191207886,-1.3397668600082395,-6.990845203399658
3.590775489807129,-0.7375487089157104,-11.172164916992188
5.468424320220947,-3.809710502624512,-18.50827980041504
5.248350143432617,-2.850149631500244,-25.12447929382324
-1.9905312061309812,5.235608577728272,-27.70330238342285
-6.742135047912598,5.372255325317383,-27.93478775024414
-7.6319260597229,-1.7245827913284302,-26.02513694763184
-8.642117500305176,-1.854587197303772,-22.24111557006836
-5.848419666290283,-5.945089340209961,-21.43260765075684
-1.489101529121399,34.07033157348633,-44.70890808105469
25.954145431518555,-8.489164352416992,12.573234558105469
25.74494171142578,-33.43045425415039,-8.18148422241211
11.769769668579102,-9.331557273864746,3.498425006866455
-1.0659435987472534,-0.3512199819087982,-8.532021522521973
-4.618661403656006,5.666090488433838,-9.43383502960205
-3.1846516132354736,12.59881591796875,-8.811433792114258
4.665656566619873,5.860296726226807,-3.213035345077514
10.579290390014648,2.56457257270813,-0.827752947807312
12.806817054748535,-1.2010562419891355,0.3562847077846527
11.649346351623535,-1.6031098365783691,3.4393951892852783
12.010212898254396,-5.815116882324219,8.000521659851074
8.572484016418457,-5.096249580383301,11.48211669921875
5.539899349212647,-2.369392871856689,13.98741054534912
6.588571548461914,-0.8887485265731812,16.58856201171875
8.759243965148926,2.322964191436768,18.610633850097656
5.048540592193604,1.7652523517608645,18.550336837768555
1.0793360471725464,0.5489277839660645,5.897807121276856
10.536724090576172,1.4843076467514038,16.94349479675293
6.381956577301025,-11.04100227355957,19.80368995666504
9.60122299194336,4.5206732749938965,18.9678955078125
14.363840103149414,9.970651626586914,18.732540130615234
10.358560562133787,3.5788824558258057,15.348067283630373
6.474163055419922,0.6786231994628906,11.03725814819336
3.618610382080078,0.2457752376794815,7.973188400268555
2.468445301055908,6.131552219390869,5.596465587615967
1.525460720062256,5.813506126403809,0.7452058792114258
-0.2980358600616455,6.152665138244629,-2.854074001312256
-1.7957830429077148,4.091707229614258,-4.225050926208496
-1.1319847106933594,0.4624941945075989,-8.491689682006836
-1.232558012008667,0.5644880533218384,-13.250514030456545
2.211155891418457,-4.540523529052734,-17.863536834716797
3.5225400924682617,-3.664884567260742,-23.88496780395508
-2.5481724739074707,4.351370811462402,-27.09686279296875
-6.304615020751953,3.451629400253296,-27.11966896057129
-8.131787300109863,-2.1128182411193848,-27.09358787536621
-8.336746215820312,0.7560043334960938,-23.30337905883789
-4.508528709411621,0.0611593723297119,-23.91391372680664
7.718082904815674,23.33048248291016,-31.72920227050781
29.465606689453125,-10.857582092285156,10.674590110778809
18.73558235168457,-25.08087921142578,-5.280135154724121
4.558992862701416,-6.126213073730469,-7.1573405265808105
-8.909637451171875,5.167022228240967,-14.112725257873535
-2.836143970489502,6.159965515136719,-8.661832809448242
7.273386478424072,5.051815032958984,-2.982352495193481
7.326295852661133,-0.319100946187973,-3.720190763473511
5.566596031188965,3.2395617961883545,-2.1723005771636963
7.166776657104492,2.284896850585937,-2.303543329238892
8.701924324035645,3.490803003311157,1.0762696266174316
10.898725509643556,0.1962550729513168,4.323779582977295
8.096921920776367,-2.732398748397827,7.781327247619629
4.173536777496338,-3.0756266117095947,9.062542915344238
4.712802410125732,-3.2403249740600586,12.88578987121582
6.682365417480469,0.2929375171661377,15.837444305419922
8.903238296508789,-0.1815508008003235,17.128236770629883
6.469317436218262,0.2007242143154144,16.449068069458008
4.253250598907471,-2.7673041820526123,8.422991752624512
8.969155311584473,1.2368450164794922,14.497447967529297
8.378613471984863,-0.6191118359565735,24.71787643432617
12.385856628417969,5.733577728271484,19.48861312866211
10.35094165802002,8.136570930480957,19.382888793945312
6.392460823059082,1.1540154218673706,17.186790466308594
3.4187960624694824,-0.742110550403595,11.679461479187012
2.587044477462769,4.457117080688477,7.704204082489014
1.6358003616333008,4.899333477020264,3.3525776863098145
0.4166649878025055,3.356657028198242,0.1919951140880584
-1.0407795906066897,3.908671140670776,-1.744892954826355
-0.681921124458313,0.2050133794546127,-3.740010261535645
2.395759344100952,-1.9179260730743408,-7.139204978942871
5.338897228240967,-3.59399938583374,-11.292030334472656
6.341616630554199,-7.206864356994629,-19.81786155700684
1.841071605682373,-1.5979394912719729,-23.400514602661133
-3.963763236999512,2.610647439956665,-24.80244255065918
-7.064740180969238,1.4616844654083252,-26.04037857055664
-8.839582443237305,-1.915544033050537,-24.921518325805664
-8.905426979064941,-1.6433576345443726,-25.507442474365234
-5.024631977081299,23.278547286987305,-50.106258392333984
26.16459083557129,8.123902320861816,-1.5790023803710938
21.55400657653809,-32.395809173583984,0.4300581216812134
12.077019691467283,-3.530430316925049,0.097432792186737
-2.4698166847229004,-0.6035998463630676,-8.380725860595703
-4.281707286834717,4.976283073425293,-9.194500923156738
-1.4302809238433838,11.094038963317873,-8.571931838989258
6.842151165008545,4.709942817687988,-2.853616237640381
10.073271751403809,0.2191550135612487,-1.86404287815094
12.5636568069458,0.113772802054882,-0.1961943060159683
12.92649745941162,-0.2448323667049408,4.89914608001709
9.727383613586426,-1.8326265811920168,8.573227882385254
6.1868510246276855,-1.7515102624893188,12.422321319580078
4.001200675964356,-1.1585466861724854,15.29097843170166
4.759920597076416,-2.068589687347412,15.804961204528809
9.47498893737793,-1.8945131301879885,15.74074935913086
8.569146156311035,-1.7026747465133667,20.580713272094727
1.5115296840667725,-0.7218427658081055,12.566886901855469
9.09774398803711,1.4168391227722168,8.55130386352539
6.093530178070068,-6.418460845947266,23.88251495361328
8.417736053466797,0.2705832123756408,18.136749267578125
13.27985954284668,11.393558502197266,16.849903106689453
10.095630645751951,6.779784679412842,16.858409881591797
6.481911659240723,0.7292901277542114,12.439132690429688
3.93986701965332,-1.4993350505828855,7.60065746307373
2.482106208801269,6.697522163391113,5.356800079345703
1.3157538175582886,6.599348068237305,1.620531678199768
-0.007826279848814,6.7987799644470215,-0.8216403126716614
-1.0114818811416626,4.732639789581299,-2.6194398403167725
0.6206070184707642,2.6212921142578125,-5.885820865631104
1.7853496074676514,-3.425586223602295,-10.067184448242188
3.888894081115722,-8.05359172821045,-14.413318634033203
4.5161333084106445,-5.476838111877441,-22.40181350708008
-2.0714221000671387,4.797335147857666,-25.153465270996094
-5.668139934539795,3.3082597255706787,-28.24432945251465
-6.370131969451904,-4.657508373260498,-31.124483108520508
-10.485928535461426,1.8799479007720947,-27.94698143005371
-4.624899864196777,-2.9788997173309326,-27.759092330932617
5.376259803771973,27.569849014282227,-28.18854141235352
22.56218147277832,8.594525337219238,6.35895586013794
26.15390396118164,-33.898468017578125,-8.010239601135254
14.666376113891602,-13.908226013183594,-0.5854503512382507
-7.140984058380127,3.362054347991944,-11.734726905822754
-9.071460723876951,9.129124641418455,-13.105718612670898
3.018535614013672,8.6102876663208,-7.14705753326416
9.06448745727539,2.8759219646453857,-2.693307399749756
8.62011432647705,1.1125478744506836,-1.5026663541793823
8.231526374816895,2.9072136878967285,-3.924292802810669
11.542951583862305,-0.2787221372127533,0.2928118407726288
11.906390190124512,-0.6963398456573486,9.91942024230957
7.127895355224609,-7.119382858276367,13.05087947845459
2.910876989364624,-0.613686203956604,14.98751735687256
3.741808652877808,-0.954012930393219,15.310011863708496
7.500786781311035,-0.6272424459457397,16.67476463317871
7.033570289611816,-1.1318035125732422,18.013256072998047
1.321576714515686,-0.0398817807435989,12.093173027038574
4.309302806854248,5.879846096038818,6.998462200164795
5.479416847229004,-2.0852959156036377,22.5209903717041
4.4773945808410645,-5.34811544418335,18.952152252197266
10.435379028320312,11.020949363708496,20.053247451782227
11.087539672851562,6.898425579071045,18.649555206298828
6.32835578918457,0.5635773539543152,13.290961265563965
3.549801111221313,-4.034026622772217,8.393961906433105
3.970320701599121,1.6626232862472534,5.630711555480957
2.959556818008423,4.806118011474609,1.2164902687072754
1.215048909187317,5.968180179595947,-1.8724582195281985
1.6671929359436035,1.817753791809082,-6.233658313751221
2.6134743690490723,-4.139663219451904,-12.083465576171877
-2.2333462238311768,3.3355393409729004,-15.781352043151855
0.1401858925819397,-7.266101360321045,-23.73458480834961
0.678246021270752,-0.76025390625,-26.47536849975586
-5.122461318969727,7.858974933624268,-27.838830947875977
-7.261026859283447,2.323328971862793,-25.085756301879883
-8.544018745422363,-3.474273443222046,-21.997682571411133
-9.47881031036377,-0.6434520483016968,-14.660017013549805
-7.210470676422119,-5.16649055480957,-12.950754165649414
-3.691308498382568,25.3297176361084,-34.258399963378906
30.606374740600582,0.2991594672203064,-7.29676628112793
23.243541717529297,-34.27032852172852,9.80774974822998
12.593608856201172,-3.5261154174804688,-0.986948013305664
-5.169732093811035,0.9034349322319032,-10.74510097503662
-6.262916564941406,4.074263095855713,-11.302115440368652
-0.923784613609314,13.573498725891112,-7.153726100921631
8.769669532775879,4.289056301116943,-1.3972573280334473
11.223119735717772,0.3839030861854553,-0.8338719010353088
12.80438232421875,-0.0132524389773607,1.496659278869629
12.76344108581543,1.0213524103164673,5.266939163208008
11.23169231414795,-4.0040669441223145,11.569576263427734
7.257822036743164,-2.448521614074707,12.946764945983888
4.112839221954346,-0.904266357421875,16.16232681274414
6.172088146209717,1.0567110776901243,15.812076568603516
8.17845344543457,3.498478412628174,18.82274627685547
4.790753364562988,2.2401974201202397,19.36779022216797
2.371653318405152,0.0294783040881156,4.958463668823242
11.175442695617676,2.8403170108795166,17.350675582885742
7.16324520111084,-5.199749946594238,20.76464462280273
11.79729175567627,6.615875244140625,17.51201629638672
13.389015197753906,6.965448379516602,17.58955192565918
9.283995628356934,-0.2151027023792266,16.725753784179688
4.793349742889404,-3.152923345565796,13.139567375183104
3.163820743560791,0.6363750696182251,9.304238319396973
2.161325216293335,4.068477153778076,5.694976806640625
1.6251310110092163,2.956219434738159,2.181849718093872
2.313429832458496,4.061088562011719,-0.2191169410943985
1.816248059272766,0.2271758913993835,-3.0592994689941406
4.042429447174072,-2.445767641067505,-6.789830207824707
4.007222652435303,-2.3378820419311523,-11.793893814086914
4.476266860961914,-3.814744472503662,-18.75662612915039
2.2720301151275635,-2.12164568901062,-25.917560577392575
-2.57548189163208,3.490697860717773,-28.838682174682617
-6.6738104820251465,1.4712543487548828,-30.61422348022461
-8.034810066223145,-1.2331039905548096,-28.800670623779297
-9.895757675170898,0.1479353010654449,-26.02479362487793
-7.164074420928955,-3.4762122631073,-22.30502700805664
2.991138696670532,20.46024513244629,-24.861927032470703
20.059627532958984,12.458725929260254,-3.8437018394470215
30.674789428710938,-26.83009147644043,0.725189208984375
15.302544593811035,-15.284767150878906,-2.214510917663574
-4.420357704162598,-2.2989816665649414,-11.968870162963867
-7.582630157470703,6.238840103149414,-11.02451992034912
-3.171099901199341,11.471144676208496,-10.076677322387695
5.823408603668213,7.542552471160889,-3.2252912521362305
10.149723052978516,0.9845781326293944,-1.343396544456482
11.090106964111328,0.8886905312538147,-0.7890651226043701
12.5867919921875,0.4219474494457245,2.45302414894104
12.088839530944824,-1.094674587249756,6.744176387786865
8.406100273132324,-4.634307861328125,11.973491668701172
4.441038608551025,-1.5205914974212646,11.723248481750488
3.6610608100891113,-0.2827638387680053,16.43891143798828
4.993891716003418,0.330305278301239,15.055463790893556
6.202260971069336,-0.1265333741903305,15.836612701416016
2.3179800510406494,1.4149199724197388,15.255642890930176
4.985971450805664,4.544195175170898,4.879780292510986
8.90636920928955,2.6996421813964844,19.90965843200684
5.104288578033447,-9.52708339691162,16.950502395629883
11.467145919799805,7.615501403808594,15.776419639587402
12.178600311279297,7.297905921936035,17.06095314025879
7.757443904876709,-0.1264906972646713,14.101794242858888
3.000674247741699,-2.66610050201416,10.193493843078612
2.4460554122924805,0.4335576295852661,7.865607738494873
0.6063781976699829,3.714048385620117,4.423346996307373
-0.3529172837734222,3.492513656616211,2.060397863388061
-0.700129508972168,5.284274578094482,-1.088873028755188
-0.1227204501628875,-0.2647240757942199,-5.632872104644775
-0.3825348317623138,-0.699424147605896,-8.930157661437988
-0.0513494610786438,1.739316463470459,-13.011225700378418
2.581054925918579,-6.252145290374756,-20.749414443969727
1.445698618888855,0.9896285533905028,-25.565658569335938
-3.804183006286621,2.399008512496948,-26.902780532836918
-5.559114933013916,-2.386829137802124,-26.841968536376957
-7.855727672576904,-3.329000234603882,-23.401683807373047
-8.698134422302246,-1.7319953441619873,-20.69115447998047
-4.253859519958496,1.3563421964645386,-28.05424118041992
11.557361602783203,21.267993927001957,-11.778175354003906
25.29348564147949,-10.333986282348633,4.096660137176514
23.45117950439453,-25.628013610839844,-7.887238502502441
3.6339051723480233,-8.107930183410645,-2.7330307960510254
-4.310027599334717,5.219607830047607,-10.224960327148438
-5.640129089355469,7.422070503234863,-11.658531188964844
2.9423623085021973,8.828646659851074,-5.90959358215332
9.676806449890137,0.3665263056755066,-1.8489025831222532
9.832225799560549,0.4529065787792206,-0.5975320935249329
10.26881980895996,-0.3725455999374389,0.5539625883102417
12.215215682983398,1.462008357048035,7.054980754852295
9.420629501342772,-1.951365351676941,10.180167198181152
4.900086402893066,-3.516336679458618,14.067146301269531
4.005974292755127,-0.7153424620628357,15.938793182373049
5.679388999938965,-0.3384374976158142,15.366046905517578
9.268653869628906,-1.0051758289337158,15.425514221191406
6.801660537719727,-0.8054157495498657,18.946195602416992
0.1761319041252136,-1.113860249519348,10.844552993774414
7.832588195800781,2.6851158142089844,9.758644104003906
4.851325035095215,-4.856244087219238,25.57461929321289
7.292794227600098,1.827925443649292,17.08963394165039
11.21389102935791,8.394562721252441,17.053264617919922
9.448307037353516,2.1867971420288086,17.596811294555664
4.915438652038574,-4.030384063720703,11.177701950073242
3.5237574577331543,-0.3663550019264221,8.236869812011719
3.268923282623291,3.7462310791015625,4.9493327140808105
2.6176300048828125,4.452503204345703,0.5825300216674805
1.566725730895996,6.970484256744385,-2.206634283065796
0.7168920040130615,3.616568088531494,-5.371916770935059
1.2782979011535645,1.247065544128418,-9.914102554321287
0.8262193202972412,-1.6834343671798706,-16.438716888427734
3.6214828491210938,-8.130924224853516,-23.06929588317871
1.1180620193481443,-2.2363171577453613,-26.83587646484375
-4.440159797668457,4.948265075683594,-26.38115501403809
-6.100994110107422,-2.9980928897857666,-26.15240859985352
-8.290326118469238,-2.467836380004883,-23.50189781188965
-8.489663124084473,-0.2489656209945678,-18.64905548095703
-6.684295654296875,0.3944056630134582,-22.866430282592773
10.198881149291992,25.436906814575195,-24.44985580444336
29.30960464477539,-20.76690101623535,-1.0307464599609375
17.653038024902344,-17.554622650146484,2.749925136566162
-0.6047335267066956,0.3626097440719604,-4.478808879852295
-5.882848262786865,3.771620273590088,-13.098227500915527
-3.8324508666992183,8.47111988067627,-10.710214614868164
4.581775665283203,8.61380672454834,-3.201547622680664
10.066054344177246,-0.216551274061203,-0.6060158610343933
10.381333351135254,-1.3271777629852295,-1.7583820819854736
12.308895111083984,-1.1242344379425049,2.668254852294922
11.548996925354004,1.0070915222167969,7.252095222473144
9.391241073608398,-1.3333371877670288,9.507277488708496
6.151973247528076,-1.948068380355835,12.44161319732666
5.935962200164795,0.2095961272716522,15.543131828308104
8.124232292175293,0.2738366723060608,17.650136947631836
7.597682476043701,0.71194988489151,19.036699295043945
2.7789523601531982,-1.6389505863189695,13.79026985168457
5.833212852478027,-1.521140456199646,7.453675746917725
6.665881633758545,-1.4605944156646729,25.988216400146484
7.632087707519531,-2.9172961711883545,20.89413833618164
11.614886283874512,8.918863296508789,19.75210189819336
9.348675727844238,1.6782333850860596,19.150463104248047
5.603174209594727,-1.6226134300231934,15.559980392456056
3.598031520843506,-0.0854142755270004,11.243024826049805
3.2707173824310303,3.0366249084472656,7.059607028961182
3.1530048847198486,4.104389667510986,2.691346406936645
3.890439987182617,4.762979984283447,-0.0340583771467208
3.32483983039856,3.739250898361206,-2.074232578277588
5.385468482971191,-0.2169977873563766,-6.4800567626953125
4.855260848999023,-2.115586996078491,-11.734820365905762
5.089982032775879,-5.240901947021484,-18.376903533935547
3.047229051589966,-0.8202461004257202,-23.892539978027344
-3.233815908432007,4.809994697570801,-26.445192337036133
-5.878173351287842,1.061983585357666,-28.57905387878418
-7.6794633865356445,-2.456596851348877,-30.01905632019043
-9.977862358093262,1.1548917293548584,-28.205867767333984
-6.8530097007751465,-1.7089757919311523,-30.485445022583008
7.693574905395508,18.828601837158203,-24.871994018554688
26.35492515563965,-0.0307480804622173,1.871407389640808
25.27397918701172,-28.04713249206543,-2.366750717163086
4.217607498168945,-3.7236833572387695,-1.6616394519805908
-4.241546630859375,3.767954111099243,-6.836620807647705
-5.567584991455078,9.834004402160645,-11.345940589904783
-2.43274474143982,10.13724422454834,-7.605327129364014
6.247734069824219,1.906120777130127,-4.0657453536987305
11.19183349609375,-0.0422195270657539,-0.9941360354423524
12.627396583557127,-1.9425604343414309,2.559053897857666
12.093037605285645,-1.6672964096069336,6.405755043029785
9.820571899414062,-1.7889676094055176,10.574249267578123
4.844038486480713,1.3264405727386477,13.998767852783203
6.478082656860352,0.0242306739091873,13.670851707458496
6.3556084632873535,-0.7571778297424316,18.04677963256836
7.018422603607178,-1.9551551342010496,17.882413864135742
1.8626126050949097,-1.5417284965515137,10.737286567687988
3.2218332290649414,2.206038236618042,7.2365522384643555
5.27031946182251,2.7101662158966064,26.19079971313477
1.5719451904296875,-8.73696231842041,21.82094955444336
6.287076950073242,6.917373180389404,18.661945343017575
9.569844245910645,5.721563339233398,16.39787483215332
9.908440589904783,6.619752407073975,14.496915817260742
5.607955455780029,3.278348684310913,10.038406372070312
3.641494274139404,-2.859797477722168,4.85249137878418
2.9302706718444824,4.6755805015563965,3.2803776264190674
3.0349698066711426,6.337791919708252,-0.8511112928390503
2.217459917068481,5.913204669952393,-3.187458276748657
5.834555625915527,-5.779538154602051,-11.29328155517578
1.1594464778900146,1.4014403820037842,-10.31147289276123
3.141852378845215,-3.158804178237915,-19.002094268798828
6.456912040710449,-10.017728805541992,-23.790525436401367
2.114477157592773,3.851715087890625,-24.89555931091309
-3.031050205230713,1.03331196308136,-28.76895904541016
-3.540395975112915,-0.7057608962059021,-28.213836669921875
-6.716181755065918,2.040093421936035,-26.179765701293945
-8.601351737976074,1.641887903213501,-22.509939193725582
-5.530999183654785,-4.772337436676025,-20.731773376464844
-2.0006871223449707,3.498816967010498,-13.786373138427734
8.662773132324219,25.3200626373291,9.089208602905272
24.7911434173584,-13.629755973815918,-7.779008388519287
17.768104553222656,-26.529373168945312,-1.667850136756897
4.561752796173096,-6.478719234466553,-4.799394607543945
-5.09773063659668,6.690581798553467,-8.11638069152832
-3.056671619415283,5.006340503692627,-11.873170852661133
3.205643653869629,6.288926124572754,-4.952966690063477
9.374849319458008,0.6657060980796814,-1.9518520832061768
8.212661743164062,-0.5760781168937683,-0.1668453812599182
8.844473838806152,-1.7705837488174438,2.962517499923706
11.03104305267334,0.7737347483634949,7.951789855957031
6.666911602020264,-1.5963482856750488,10.773131370544434
4.713484287261963,-5.033360958099365,13.241378784179688
6.109232425689697,-1.6975445747375488,15.515501976013184
9.873649597167969,1.0262447595596311,16.86103057861328
11.920771598815918,-1.2006654739379885,20.11162757873535
9.558441162109377,-3.603666305541992,18.045053482055664
1.8051156997680664,-0.2829887270927429,13.612679481506348
5.23042631149292,4.806601047515869,7.599728107452393
6.32424259185791,-5.51756477355957,26.09304428100586
9.55132007598877,3.8359220027923584,17.36669921875
8.366436958312988,11.253636360168455,19.456981658935547
4.34733772277832,-0.2937397956848144,15.359393119812012
2.634533643722534,-2.334644317626953,12.35292911529541
1.8809823989868164,2.4712533950805664,8.743098258972168
0.9415680170059204,3.0469014644622803,3.2108154296875
0.3252491652965545,3.619394302368164,0.6560905575752258
-0.0056622475385665,4.583644866943359,-1.1363450288772583
2.444003105163574,1.456511616706848,-5.069761276245117
3.501172542572021,-1.0006192922592163,-11.66721248626709
3.675255060195923,-6.63727617263794,-19.11543655395508
3.419194221496582,-4.67994499206543,-27.1829891204834
-0.7667977809906006,7.08290433883667,-28.3006649017334
-7.035133361816406,9.579339981079102,-28.82272720336914
-8.758977890014648,3.424041986465454,-27.50102996826172
-10.32524871826172,4.0523600578308105,-23.66503524780273
-6.81086015701294,1.8539276123046875,-24.075929641723636
4.529808044433594,23.6419677734375,-33.50648498535156
26.14888381958008,-9.286685943603516,9.132885932922363
21.00946617126465,-23.60142517089844,-4.932376861572266
3.817042589187622,-5.011317729949951,-3.855503797531128
-3.428524971008301,1.852701425552368,-9.12544059753418
-2.2183759212493896,8.025080680847168,-7.460408687591553
0.644176185131073,8.379609107971191,-5.333268165588379
5.377088069915772,4.482084274291992,-3.183765411376953
10.221009254455566,2.858648538589477,-0.1422795951366424
12.08222484588623,0.2062153071165084,4.2047271728515625
11.426613807678224,-0.7148159742355347,6.517566680908203
10.517992973327637,-0.9955868124961852,9.454303741455078
8.607157707214355,-1.4412215948104858,15.34907341003418
8.351893424987793,-2.694312572479248,15.447103500366213
8.413704872131348,-2.1784861087799072,17.404277801513672
6.084178924560547,1.1596485376358032,19.66612434387207
1.744246244430542,2.9065475463867188,6.403646945953369
10.887561798095703,3.750178337097168,20.26673889160156
5.012900352478027,-10.883966445922852,26.632606506347656
8.097521781921387,1.9523603916168213,20.839086532592773
13.576545715332031,5.6772661209106445,20.847257614135746
11.370001792907717,-0.0353173911571502,18.951417922973636
6.27631425857544,-4.535162925720215,13.33899211883545
3.4124488830566406,-2.5651209354400635,9.586474418640137
2.748727321624756,2.340635299682617,5.666638851165772
2.9484825134277344,4.383227825164795,0.4539746642112732
2.3014423847198486,4.182402610778809,-3.30721116065979
4.519303321838379,-1.6121675968170166,-7.642914295196533
5.8990559577941895,-2.104088306427002,-15.228570938110352
5.914842128753662,-3.7091431617736816,-21.77334213256836
8.231084823608398,1.6032272577285769,-23.875247955322266
2.685154914855957,3.0283594131469727,-29.915864944458008
-2.41107439994812,1.78026020526886,-30.614091873168945
-7.244544506072998,-1.3038023710250854,-31.59019088745117
-9.512059211730955,-0.9990220069885254,-28.044981002807617
-8.537314414978027,-3.4959349632263184,-26.682008743286133
-0.8952950239181519,10.197609901428224,-23.891197204589844
12.268665313720703,12.61847686767578,-0.0847159624099731
21.98634529113769,-7.495469093322754,-6.0319414138793945
16.087926864624023,-17.286184310913086,-1.8381569385528564
0.8073746562004089,-1.392374038696289,-4.255614280700684
-3.806645631790161,2.02168083190918,-8.780410766601562
-2.455990791320801,8.400755882263184,-9.885202407836914
2.549689531326294,6.62990665435791,-4.231121063232422
8.221968650817871,-0.1568521112203598,-2.2054998874664307
9.831387519836426,-0.2189288586378097,-0.329055905342102
11.1839599609375,-1.2106117010116575,3.1002309322357178
9.634173393249512,-0.6098384261131287,6.971626281738281
7.089882850646973,-2.6886649131774902,12.145512580871582
4.564464092254639,-0.2312175035476684,13.29632568359375
6.268651008605957,-0.208923801779747,15.301295280456545
8.501437187194824,-4.077938556671143,15.021317481994627
8.020906448364258,-3.1481659412384038,14.031448364257812
1.9754717350006104,-0.5364577770233154,12.721461296081545
1.5043680667877195,-1.230165719985962,4.613724708557129
7.115089416503906,0.4469650983810425,28.16275787353516
5.010832786560059,-3.360757827758789,23.07887458801269
6.863506317138672,9.760257720947266,18.13176918029785
5.45465087890625,3.9712092876434326,17.71219253540039
3.204214811325073,1.2787504196166992,13.95661735534668
2.4157145023345947,2.3496851921081543,9.297886848449709
2.626843214035034,3.4461114406585693,5.257923126220703
3.458890199661255,4.580478191375732,0.9033066630363464
3.3498198986053467,3.946066856384277,-0.7765994071960449
5.312934398651123,-0.3400731384754181,-2.7619616985321045
6.862016677856445,-3.071503162384033,-7.103193283081055
7.382778167724609,-5.158369064331055,-10.706762313842772
6.092941284179688,-4.770102024078369,-17.310028076171875
-0.0630577802658081,-0.8748411536216736,-22.875267028808597
-4.269289016723633,2.1708927154541016,-24.82091522216797
-7.631772518157959,5.512001991271973,-26.50571060180664
-10.490461349487305,5.0060648918151855,-25.183813095092773
-10.55907154083252,3.926030158996582,-24.726924896240234
-8.840841293334961,12.44248867034912,-40.38506317138672
14.581430435180664,10.340571403503418,-23.46587371826172
21.039936065673828,-12.48528003692627,17.533653259277344
15.01531982421875,-13.382761001586914,-5.146505355834961
-2.722896814346313,-0.6632393002510071,-5.87418794631958
-3.1284019947052,4.482537746429443,-8.94773006439209
-0.5028983354568481,8.363574981689453,-4.95352029800415
4.362733364105225,5.5655035972595215,-3.870566129684448
7.502969264984131,1.8877665996551516,-1.5096614360809326
11.995213508605955,1.824923515319824,0.92756986618042
11.865031242370604,-0.2727362513542175,4.309796333312988
11.012777328491213,-2.9530959129333496,7.646889209747314
9.923144340515137,-3.407582998275757,11.61453628540039
8.645037651062012,-3.176298141479492,15.714035034179688
7.457664966583252,-3.867891788482666,16.787826538085938
8.07066535949707,-3.689526081085205,15.853520393371582
4.687144756317139,-0.6076746582984924,16.490989685058594
-0.6534065008163452,1.101220726966858,3.821142673492432
8.485753059387207,2.0903632640838623,14.96022891998291
3.323727607727051,-11.014843940734863,25.463735580444336
5.919024467468262,2.854212045669556,16.485706329345703
11.310040473937988,9.708419799804688,17.747764587402344
11.699188232421877,8.21947193145752,16.584259033203125
7.087939262390137,3.4954869747161865,13.01582145690918
3.69795823097229,1.7647335529327393,9.940591812133787
2.452385425567627,3.9593427181243896,6.580914974212647
1.537095546722412,5.1687774658203125,2.168919563293457
1.2460711002349854,4.561294555664063,-1.0023353099822998
0.7498395442962646,3.048411130905152,-2.452996015548706
3.1644551753997803,-5.960384368896484,-8.501566886901855
1.757455587387085,1.8084266185760496,-8.36645793914795
4.415910243988037,-2.5030999183654785,-16.569190979003906
6.094065189361572,-6.130620956420898,-23.508241653442383
1.269928216934204,1.522608757019043,-26.73174095153809
-2.2184746265411377,4.80448055267334,-27.304075241088867
-6.5604352951049805,-0.7201476097106934,-31.246959686279297
-8.270859718322754,-0.5682463049888611,-27.64622688293457
-9.658998489379885,-3.2617173194885254,-26.4587345123291
-3.6370553970336914,-3.158355474472046,-23.762060165405277
6.435327053070068,28.29046630859375,-1.917198657989502
20.1615047454834,1.4691060781478882,-4.787440299987793
24.105987548828125,-29.724090576171875,-7.347945213317871
13.282271385192873,-12.638663291931152,2.575928211212158
-3.0450315475463867,1.86346435546875,-8.32613754272461
-8.76873779296875,5.855101585388184,-12.79385757446289
-3.209582090377808,12.759295463562012,-9.997756004333496
8.626360893249512,3.985915184020996,-2.672506809234619
11.771485328674316,-0.5913465619087219,-0.6000440120697021
11.750943183898926,-1.632668375968933,0.962281048297882
12.716588973999023,-1.6521813869476318,6.310781478881836
11.673908233642578,-5.112179279327393,10.998644828796388
6.190113544464111,-4.814762115478516,13.529993057250977
5.199592590332031,-3.540073871612549,15.117056846618652
7.301584720611572,-2.8180510997772217,16.09722328186035
8.07270622253418,-1.093137264251709,15.547330856323242
2.6185245513916016,0.2330982536077499,16.387880325317383
-0.8610632419586182,-1.0120642185211182,3.4203052520751958
7.649115562438965,0.1545893996953964,19.08003234863281
3.610245943069458,-9.140037536621094,23.235200881958008
7.353156566619873,7.5095601081848145,18.43121337890625
9.080106735229492,9.029052734375,18.954923629760746
6.70148229598999,4.591414928436279,16.667686462402344
3.122330904006958,1.2135040760040283,11.47411823272705
2.706261396408081,2.262620449066162,7.413559436798096
3.1598615646362305,4.9078755378723145,3.3627703189849854
3.673862934112549,5.060590744018555,-0.8044958114624023
-7.276257514953613,1.7804996967315674,-28.290895462036133
-8.601062774658203,1.5703136920928955,-25.564044952392575
-0.6269668340682983,8.616601943969727,-7.112498760223389
7.273238658905029,1.6361346244812012,-0.6645739078521729
