Acc_X,Acc_Y,Acc_Z
4.44948673248291,1.8871408700942995,21.115318298339844
2.689610004425049,5.145358562469482,22.98784065246582
1.8818883895874023,1.7953989505767822,19.488794326782227
3.3431625366210938,-0.1381227374076843,20.670278549194336
5.321860313415527,-4.087130069732666,17.337926864624023
7.431303024291992,-5.27374792098999,12.939712524414062
9.468138694763184,-3.944972276687622,11.223261833190918
6.751087188720703,-0.8895178437232971,7.511526107788086
5.380165100097656,-0.903893768787384,2.620976686477661
4.026168346405029,0.0921530127525329,-1.3678991794586182
2.7094743251800537,0.5497331023216248,-4.778428554534912
0.6833823919296265,4.578773021697998,-8.039224624633789
3.605205774307251,5.058438301086426,-15.385978698730469
5.16005802154541,6.533934593200684,-20.184926986694336
4.3805975914001465,4.211435317993164,-26.50463485717773
0.2918469905853271,-0.9275416135787964,-31.849573135375977
-3.999094486236572,0.7607413530349731,-31.29401397705078
-7.77092170715332,4.384130477905273,-26.787202835083008
-8.756119728088379,2.86608624458313,-23.570756912231445
-7.500813007354736,4.0035400390625,-19.83323097229004
-3.227821111679077,1.6135468482971191,-41.04729843139648
11.745715141296388,10.859488487243652,0.977854549884796
-0.3718150556087494,8.518320083618164,4.060105800628662
8.24499797821045,3.1013996601104736,-2.1312756538391118
11.23834991455078,-2.955029964447021,5.057721138000488
12.292155265808104,5.415682315826416,3.8142709732055664
4.731688022613525,2.2965874671936035,-1.2173556089401243
7.919927597045898,-1.6187437772750854,0.267944872379303
10.488521575927734,0.0573961399495601,2.293795108795166
8.760376930236816,-3.5933427810668945,3.477285146713257
10.06492519378662,-1.1479029655456543,7.379486560821533
7.084185123443604,0.6242882609367371,10.681693077087402
5.602050304412842,0.1440410315990448,15.401790618896484
3.308046102523804,0.1681410670280456,18.323511123657227
1.906160831451416,-2.3347878456115723,7.873727321624756
5.4125189781188965,-6.851819038391113,7.87346076965332
5.656796932220459,-1.319097638130188,11.65461254119873
6.6969380378723145,-1.6727148294448853,11.26746654510498
10.134336471557615,-3.472042798995972,19.82512855529785
6.88524055480957,2.737963914871216,24.79326629638672
4.039392471313477,3.746342420578003,23.236215591430664
4.863729000091553,2.8856687545776367,22.81242179870605
6.741329669952393,0.9868754744529724,19.598663330078125
8.127351760864258,-0.7777066230773926,15.84200668334961
10.81211280822754,-0.1626166999340057,13.321161270141602
8.917525291442871,0.1541772037744522,9.594968795776367
7.400453090667725,-2.625293493270874,4.510124206542969
5.542013168334961,-1.2389463186264038,1.2382252216339111
4.116603851318359,0.2136871218681335,-3.6495261192321777
3.142874002456665,3.636229991912842,-8.15521240234375
3.885469913482666,7.118068695068359,-14.964791297912598
8.792556762695312,7.486255168914795,-23.874908447265625
8.63104248046875,0.4432048797607422,-35.703880310058594
1.1652424335479736,-7.514995574951172,-43.71499633789063
-4.502188205718994,6.021633148193359,-34.65803527832031
-8.03665828704834,5.738908767700195,-29.620525360107425
-9.44261646270752,1.6020283699035645,-26.08919715881348
-6.9068522453308105,5.550739288330078,-18.4117431640625
-8.681047439575195,-0.2695304751396179,-44.83390808105469
17.619462966918945,8.883965492248535,-9.433431625366213
7.978032112121582,4.155007362365723,8.425347328186035
7.176299571990967,2.6712915897369385,5.922503471374512
17.511272430419922,-2.365523338317871,6.872345924377441
12.517581939697266,8.354341506958008,-0.6087122559547424
5.399918079376221,1.771041750907898,-0.7778192758560181
11.53711986541748,-0.652887761592865,3.5026698112487797
8.825159072875977,-1.185544729232788,0.8323296308517456
8.080732345581055,-4.314645767211914,4.478139400482178
9.299261093139648,-1.2455048561096191,7.488349437713623
9.419808387756348,0.5819432735443115,13.670190811157228
6.273535251617432,1.9755542278289795,18.44864273071289
3.0816242694854736,0.192370668053627,9.553796768188477
7.18971061706543,-5.757258892059326,8.947514533996582
6.1989030838012695,-0.452585756778717,13.853729248046877
6.29573917388916,-2.246786832809448,11.026813507080078
7.211763381958008,0.1823537498712539,14.513452529907228
5.2027459144592285,1.6963469982147217,24.24004554748535
2.801616668701172,2.853988647460937,21.554744720458984
2.4737579822540283,0.337637186050415,18.25337028503418
4.560057640075684,-1.5418715476989746,17.66706657409668
6.3488945960998535,-4.605374336242676,12.226441383361816
8.2454833984375,-2.735056638717652,10.843724250793455
6.235486030578613,1.5723637342453003,9.92821216583252
4.4810404777526855,0.2274919748306274,5.810633659362793
4.85802173614502,-1.520526647567749,1.644336223602295
4.472489356994629,-2.6376171112060547,-1.680534839630127
3.1003963947296143,-3.671984910964966,-5.484441757202148
3.821536064147949,0.9150377511978148,-6.316731452941895
6.4762396812438965,5.345308780670166,-10.92176342010498
9.02479648590088,10.945021629333496,-18.850290298461918
7.516901016235352,12.935139656066896,-25.142396926879883
1.8761577606201167,-2.213086605072021,-34.74836730957031
-4.21573543548584,-0.1630065888166427,-35.49359893798828
-8.149633407592773,9.770814895629885,-29.84422874450684
-8.293201446533203,7.641165733337402,-27.29098129272461
-10.727474212646484,-10.331933975219728,-64.07007598876953
20.46913146972656,15.046331405639648,-7.185024261474609
4.80406379699707,1.9740047454833984,14.660249710083008
6.4715576171875,8.190455436706543,-6.701040267944336
8.213164329528809,-5.413883209228516,5.165700435638428
17.908143997192383,6.047831058502197,-0.1775172799825668
7.348066329956055,4.766769886016846,-0.5566713809967041
7.864436149597168,0.6442822217941284,0.3953800797462463
9.931084632873535,-1.3287177085876465,1.8862680196762085
8.147619247436523,-3.801246166229248,3.2727456092834477
9.61927318572998,-1.0957070589065552,5.18576192855835
8.145210266113281,-1.0708866119384766,9.3485746383667
7.744606018066406,0.041070133447647,13.01124095916748
4.085042476654053,3.4763355255126958,13.701598167419434
1.909449577331543,0.2715867459774017,7.203833103179932
5.09173583984375,-4.477325439453125,9.675479888916016
4.754237651824951,0.9391409158706664,13.160931587219238
5.517158031463623,-4.302975654602051,11.989357948303224
5.680788516998291,-1.3782758712768557,12.03103256225586
6.4196858406066895,1.6772501468658447,22.03400039672852
4.4812211990356445,5.603326797485352,21.1272029876709
4.471319675445557,1.495994210243225,18.002208709716797
5.830589771270752,-0.988339900970459,16.625606536865234
6.5587158203125,-4.902224540710449,13.42283535003662
7.229277610778809,-4.265311241149902,11.891383171081545
7.383731842041016,-2.008542060852051,10.501463890075684
5.783179759979248,-2.301988124847412,7.111123561859131
5.700034141540527,-1.8288490772247317,3.900937080383301
5.536352634429932,-0.5969346761703491,0.0918164551258087
5.35894250869751,-0.779216468334198,-4.566967964172363
3.167935609817505,3.0688729286193848,-6.775179386138916
3.888216495513916,4.69955587387085,-12.224271774291992
7.336136817932129,5.391458034515381,-18.877212524414062
7.464747428894043,4.273797035217285,-26.648754119873047
2.559067249298096,6.293661594390869,-31.331396102905277
-3.423799514770508,5.067843437194824,-34.758750915527344
-7.326265335083008,4.125177383422852,-31.228700637817383
-8.283011436462402,3.585325241088867,-25.49061584472656
-7.70506477355957,5.262343406677246,-21.205812454223636
-3.737262487411499,-6.761733055114746,-57.38687515258789
13.901774406433104,10.770256042480469,2.9607596397399902
-0.3647842705249786,0.0979313105344772,4.389409065246582
12.879271507263184,-5.47229528427124,7.757596492767334
22.977821350097656,7.746351718902588,4.653648853302002
6.221495151519775,8.691758155822754,-2.9570436477661133
3.972550630569458,-3.18485164642334,1.0461397171020508
12.245482444763184,-0.3422738015651703,2.3937361240386963
9.121986389160156,-4.828362941741943,2.5914523601531982
10.679472923278809,-2.1739933490753174,4.270699501037598
10.660072326660156,-0.0549982786178588,7.91907262802124
9.281076431274414,0.4646379947662353,14.281123161315918
5.320531845092773,1.883234977722168,19.41905403137207
3.0214931964874268,2.2939462661743164,12.217659950256348
6.416728496551514,-7.212051391601562,10.152403831481934
5.620180130004883,-0.7709365487098694,13.940791130065918
6.1464619636535645,-1.143444299697876,13.63715648651123
6.836441993713379,-0.3711020946502685,15.682093620300291
3.13429594039917,5.475305557250977,29.11622428894043
1.9372234344482424,4.4460554122924805,19.867822647094727
2.111096143722534,4.009578227996826,17.583662033081055
3.587196111679077,0.0494344830513,16.14809799194336
4.12437105178833,-3.156002759933472,9.993034362792969
5.79240083694458,-3.330319166183472,8.454753875732422
7.896382331848144,-3.2457194328308105,5.371748924255371
6.615692138671875,-2.296913385391236,1.2621562480926514
5.342750549316406,-2.838056325912476,-2.4055845737457275
2.561890125274658,0.1012221723794937,-4.078571319580078
2.805790662765503,1.005490779876709,-8.160242080688477
2.738144636154175,4.966731071472168,-11.00050449371338
3.499619722366333,6.744448661804199,-15.831695556640623
5.155497550964356,6.825815677642822,-21.14231300354004
3.641828775405884,3.731539249420166,-26.76218605041504
-0.0359668135643005,0.3712822496891022,-31.67684555053711
-4.993980884552002,5.246923923492432,-29.519794464111328
-7.185213565826416,8.849234580993652,-23.70212745666504
-8.329596519470215,6.679927825927734,-21.491071701049805
-13.275592803955078,-7.891531944274902,-57.84430694580078
16.176815032958984,13.659777641296388,-8.915778160095215
6.1315999031066895,-1.5689570903778076,14.526955604553224
4.343620777130127,7.8637542724609375,-5.070013523101807
8.363699913024902,-3.676156759262085,4.704065322875977
9.432384490966797,-0.7778483629226685,-0.660653293132782
11.97249984741211,5.06614875793457,-0.1385680735111236
11.519182205200195,4.709373474121094,1.5267832279205322
11.26719093322754,-0.1615639775991439,4.3982834815979
10.707240104675291,-1.1523985862731934,4.387496471405029
9.106714248657228,-1.816346883773804,7.78760290145874
9.260289192199709,-0.9142304062843324,13.458250045776367
7.799271106719971,2.468266248703003,17.588153839111328
2.9000985622406006,4.145763874053955,12.194246292114258
2.3841335773468018,-5.046798706054688,4.503162384033203
3.950358867645264,-1.2179107666015625,10.169618606567385
5.917812824249268,-3.591390371322632,8.649138450622559
5.743076801300049,1.4251030683517456,11.79982852935791
6.257775783538818,5.697368621826172,22.85232925415039
5.040416717529297,5.545327663421631,21.953819274902344
4.392905235290527,-0.4924817681312561,18.21508026123047
5.018821716308594,-1.755733847618103,20.104087829589844
5.46016788482666,-4.704184532165527,16.163177490234375
5.4702653884887695,-3.748598337173462,13.565611839294434
6.253077507019043,-2.911325454711914,12.48085880279541
6.731368541717529,-2.5875139236450195,8.820334434509277
5.689807415008545,-1.3936867713928225,4.763736248016357
5.00063419342041,-0.4961621761322021,2.1558003425598145
5.668881416320801,-1.5365865230560305,-3.0495822429656982
4.258458614349365,-1.946826696395874,-7.613279342651367
3.101816415786743,-0.1964537799358368,-10.614689826965332
7.772335052490234,1.6541965007781982,-16.490589141845703
10.734453201293944,4.788736343383789,-25.678525924682617
5.198139667510986,12.894082069396973,-29.747453689575195
-2.046051502227783,3.085726499557495,-36.66415786743164
-5.649137496948242,0.0001077651977539,-34.88190841674805
-7.944588661193848,7.031237602233887,-29.345170974731445
-8.06981372833252,8.483221054077148,-23.158206939697266
-7.299943447113037,5.382906436920166,-17.341951370239258
-4.5374627113342285,1.5246144533157349,-37.94791412353516
11.989850997924805,5.104522228240967,-1.741344928741455
4.973731517791748,3.63869047164917,1.4494589567184448
10.281896591186523,1.7624778747558594,8.459022521972656
21.997617721557617,4.479357719421387,4.312571048736572
7.444909572601318,5.645594596862793,-1.8562387228012085
4.556812286376953,-0.7426962852478027,0.4507538080215454
13.995071411132812,-0.0685118660330772,6.058599472045898
9.555365562438965,-5.107337951660156,5.096264839172363
10.208613395690918,-1.651408314704895,9.347504615783691
9.017916679382324,0.8453163504600525,11.9109468460083
6.946869850158691,2.1939291954040527,17.480772018432617
2.96131443977356,2.505920648574829,15.240023612976074
3.797083616256714,-5.898612022399902,6.9539971351623535
5.636192798614502,-6.987705707550049,8.501386642456055
4.8015851974487305,-2.4964709281921387,11.45304012298584
5.792391777038574,-1.2121293544769287,12.504182815551758
5.539201259613037,2.3621630668640137,21.393081665039062
4.1735663414001465,1.843550562858581,20.46218681335449
3.2244930267333984,1.0421407222747805,18.01513671875
3.7866618633270255,-0.1396549791097641,18.585525512695312
4.482209205627441,-3.935493707656861,15.732481956481934
4.463671684265137,-3.786790132522583,13.746021270751951
5.193096160888672,-3.697511672973633,11.516878128051758
5.4650068283081055,-3.0395748615264893,7.762050151824951
3.647691965103149,-2.197108507156372,4.596442222595215
3.075591564178467,-2.4678268432617188,0.4980372786521911
2.147337913513184,-1.220971941947937,-3.55114483833313
2.1923305988311768,0.1919774562120437,-7.532902240753174
1.615494966506958,2.0673747062683105,-11.94872760772705
3.9831836223602295,5.797114849090576,-17.039772033691406
6.619838714599609,7.673137664794922,-24.159482955932617
3.216485977172852,6.933480262756348,-30.05685234069824
-0.8715387582778931,6.34844446182251,-31.793460845947266
-4.229081153869629,4.4777021408081055,-31.674606323242188
-7.806986331939697,7.11693000793457,-26.66387939453125
-7.071935176849365,7.321682929992676,-20.78388786315918
-11.25754737854004,-3.85908842086792,-44.31528854370117
11.102246284484863,11.433791160583496,-10.860088348388672
8.81958293914795,-1.097892999649048,7.9578537940979
3.665294647216797,3.8524460792541504,-1.956425428390503
10.453893661499023,0.1048627570271492,6.516169548034668
10.47244930267334,-1.0078446865081787,-0.2796653211116791
10.073115348815918,3.81944727897644,0.3880897164344787
10.753469467163086,5.048668384552002,2.6420531272888184
10.651023864746094,0.6610267758369446,3.89547348022461
10.384140968322754,-0.2603798508644104,5.62002420425415
9.223755836486816,-0.3899387717247009,9.63490867614746
9.57800006866455,1.2552520036697388,16.06040382385254
5.874526023864746,3.5205440521240234,18.92646026611328
1.7369470596313477,2.439016103744507,10.48171329498291
5.151609420776367,-5.789302825927734,5.364834308624268
6.536809921264648,-5.413304328918457,10.209211349487305
4.723206043243408,-2.878844738006592,10.02183437347412
6.065400123596191,4.430419445037842,14.799468994140623
6.692222595214844,8.151328086853027,23.199508666992188
4.444602012634277,4.23339319229126,20.54290580749512
3.659410238265991,0.2155666351318359,18.14101791381836
5.003345489501953,-3.1703104972839355,18.49343681335449
5.09617805480957,-4.600441932678223,15.467616081237791
4.712703227996826,-3.940290689468384,13.77651309967041
5.339372158050537,-4.549079418182373,12.084555625915527
6.042250156402588,-5.056640625,6.276757717132568
4.529811382293701,-4.43968677520752,2.6260602474212646
3.618389129638672,-3.824728727340698,-1.3854023218154907
4.256024360656738,-4.274287700653076,-6.297934055328369
2.0121920108795166,-2.152524948120117,-9.61208152770996
2.876285552978516,-0.0172331668436527,-14.311934471130373
8.278199195861816,1.3053109645843506,-23.695213317871094
6.125411033630371,4.654734611511231,-32.63155746459961
-0.3544182777404785,3.9189045429229736,-37.01628112792969
-3.299249649047852,4.045403957366943,-32.05864334106445
-7.36902904510498,5.811463356018066,-30.30035781860352
-7.844818115234375,5.883745193481445,-24.862382888793945
-7.276350975036621,4.228709697723389,-17.119176864624023
-8.512713432312012,-1.3030327558517456,-44.02079391479492
12.160634994506836,19.34233665466309,-1.7574522495269775
7.385653018951416,2.8516416549682617,5.616549968719482
7.909763336181641,4.80644416809082,1.3932050466537476
9.294808387756348,0.1915916055440902,4.07762622833252
14.787285804748535,0.2876778244972229,0.8833924531936646
10.708069801330566,3.668588399887085,-0.7169440388679504
9.313150405883787,1.7472628355026243,2.7221693992614746
10.71812915802002,-3.126308917999268,4.85496711730957
10.539020538330078,-1.941691517829895,6.688382148742676
9.612412452697754,-0.8577603101730347,10.270209312438965
9.49856948852539,0.5338845252990723,15.775996208190918
5.203978538513184,3.0677077770233154,16.053613662719727
1.8524802923202517,-0.84173184633255,7.491894245147705
5.314913272857666,-8.75845718383789,9.078660011291504
4.201085090637207,-0.3128715753555298,12.644980430603027
5.208937644958496,-0.9319300651550292,11.379855155944824
6.46533203125,1.624684453010559,19.814395904541016
4.9082136154174805,3.9820199012756343,22.000883102416992
4.178524971008301,0.1284781694412231,16.429533004760742
4.776555061340332,0.4274418354034424,17.884780883789062
4.974998474121094,-2.0480055809021,15.413965225219728
5.418400287628174,-2.6664180755615234,12.141122817993164
6.291868686676025,-3.697234869003296,11.133462905883787
6.230155944824219,-2.618580818176269,9.302932739257812
4.099403381347656,-2.5214297771453857,6.519282341003418
3.4251742362976074,-2.394918918609619,2.9201626777648926
3.06650185585022,-0.7188884019851685,0.0631969645619392
2.1158132553100586,0.8822734951972961,-3.939627170562744
0.8597933053970337,2.591663360595703,-7.662270069122314
1.1844260692596436,4.288552761077881,-11.829071998596191
4.3082661628723145,5.422831058502197,-16.885103225708008
6.983528137207031,5.087621212005615,-22.51358795166016
4.269212245941162,5.204619884490967,-27.825353622436523
-0.1524549722671508,7.214052677154541,-31.030744552612305
-6.332459449768066,4.3279128074646,-32.54169464111328
-7.242645740509033,4.140274524688721,-25.638858795166016
-7.083011627197266,2.072051286697388,-19.792560577392575
-6.7033891677856445,5.429689884185791,-17.678163528442383
-1.8173375129699707,3.100006580352783,-33.10441970825195
12.20361328125,-0.2727778255939483,-8.216228485107422
24.02514266967773,-5.270138740539551,21.67469787597656
13.819221496582031,35.414939880371094,1.2478028535842896
-2.676637887954712,-18.044509887695312,-7.855024337768555
5.2847819328308105,1.8933900594711304,-4.461129665374756
4.652390956878662,7.533653259277344,-1.844585418701172
9.44457721710205,-11.168314933776855,0.5743865370750427
13.122224807739258,-8.376336097717285,2.000570297241211
14.505805015563965,3.319088697433472,7.394204139709473
9.37320327758789,1.7056198120117188,11.016006469726562
8.930188179016113,0.3131043612957001,14.997902870178224
7.080643653869629,5.260050296783447,19.99612617492676
5.1657490730285645,3.716651201248169,13.083273887634276
8.596007347106934,-10.58265209197998,9.232200622558594
6.536134243011475,-3.2158331871032715,12.139910697937012
7.309652328491211,-0.8887017965316772,12.379790306091309
6.265016078948975,3.5120856761932373,24.504100799560547
2.984663724899292,4.490527629852295,22.357860565185547
2.8729820251464844,0.4285376965999603,18.06814765930176
3.576794385910034,-1.1789628267288208,17.443809509277344
3.6129026412963863,-4.061226844787598,13.328446388244627
3.240302324295044,-3.293120861053467,11.016593933105469
4.130407810211182,-4.673092842102051,8.494664192199707
4.391656398773193,-4.988517761230469,4.386101245880127
2.936354875564575,-3.902597427368164,1.9755713939666748
2.3138322830200195,-4.15726375579834,-0.5749969482421875
2.276565790176392,-3.270250082015991,-3.998636245727539
0.08328378200531,-0.687755823135376,-7.830048084259033
-0.8578529953956604,3.571686267852783,-9.870803833007812
1.8146307468414309,6.7342209815979,-14.57447910308838
3.158494472503662,8.771456718444824,-21.247737884521484
1.4446295499801636,5.8628249168396,-28.44416618347168
-1.2209105491638184,3.234159231185913,-31.6174430847168
-3.921398162841797,2.7173280715942383,-32.0297966003418
-6.89448356628418,5.171798229217529,-25.51185417175293
-7.167852401733398,4.691389560699463,-20.020471572875977
-11.533650398254396,-5.616297245025635,-51.3526611328125
13.655929565429688,17.781782150268555,-9.923876762390137
9.37101936340332,0.7190996408462524,10.46477508544922
4.242868423461914,1.7989789247512815,-2.436910629272461
15.131468772888184,1.249669909477234,7.786670207977295
15.856752395629885,4.620464324951172,-0.3612766563892364
6.864466667175293,3.214256525039673,-2.151550769805908
9.974565505981444,0.6496932506561279,3.367000102996826
11.188204765319824,-1.3512184619903564,2.9103989601135254
10.121393203735352,-2.1893649101257324,4.133842468261719
9.487507820129396,-0.7364342212677002,7.893590450286865
8.819189071655273,2.437098503112793,10.47942066192627
6.096629619598389,3.625990390777588,16.33372688293457
1.6847529411315918,0.9960541129112244,13.060564994812012
3.9075310230255127,-5.926174640655518,4.8156046867370605
7.345273494720459,-4.235063552856445,9.454437255859377
5.864243507385254,-3.8156626224517822,9.295089721679688
6.572426795959473,2.527479648590088,11.737701416015623
7.53981876373291,5.270423412322998,20.842424392700195
6.340317726135254,3.98376727104187,20.0698299407959
5.594507217407227,-1.0769484043121338,16.728971481323242
5.612729072570801,-3.3239214420318604,17.120126724243164
5.703472137451172,-6.431703090667725,12.896563529968262
6.97459602355957,-6.492669582366943,10.03227424621582
7.000401020050049,-3.8869478702545166,9.09165859222412
3.384882926940918,-2.183445930480957,7.968735218048096
1.808149814605713,-2.8194844722747803,3.890242338180542
1.159593105316162,-0.995199739933014,2.414241313934326
0.956110954284668,-0.8348447680473328,-0.956070601940155
-0.4166946411132812,-1.7519099712371826,-4.56486177444458
-2.227965831756592,-0.3441231250762939,-5.9239420890808105
-1.1673892736434937,1.538610577583313,-9.320548057556152
0.7531386017799377,6.465306758880615,-13.662382125854492
0.6242087483406067,5.6108222007751465,-20.71355438232422
1.5797615051269531,8.3597993850708,-26.411684036254883
0.7888898849487305,4.892181396484375,-32.66987991333008
-5.21945858001709,1.1849560737609863,-32.80238723754883
-7.348002910614014,6.267965316772461,-24.435813903808597
-7.367287635803223,1.3336576223373413,-30.31478881835937
-0.3970292806625366,4.335378646850586,-43.27561950683594
17.82293701171875,7.585144996643066,6.462125778198242
1.662826657295227,4.3159613609313965,0.9944047927856444
13.84408187866211,2.965641021728516,1.1597883701324463
7.026854515075684,-1.4341057538986206,1.8853877782821653
11.315855979919434,2.8438286781311035,-2.6742217540740967
8.607076644897461,0.4063175916671753,-0.8059639930725098
9.333207130432127,0.146081805229187,1.028719425201416
9.708810806274414,-3.083268642425537,0.580934464931488
10.570919036865234,-2.1416544914245605,4.8132524490356445
10.78447437286377,-0.7614184021949768,7.125825881958008
9.820182800292969,1.3230912685394287,11.752095222473145
6.180886745452881,3.0839030742645264,16.524507522583008
3.870753526687622,1.055073380470276,11.65159511566162
7.145692825317383,-9.47593879699707,6.143961429595947
7.56769323348999,-5.467122077941895,9.403943061828612
7.004153251647949,-0.2708049416542053,11.942781448364258
8.622180938720703,2.943842887878418,19.79496955871582
6.353610515594482,2.67982816696167,21.57815933227539
4.910009860992432,-0.0459040105342865,18.57204818725586
4.109153747558594,-0.146272212266922,18.549680709838867
3.946911334991455,-2.054446220397949,16.26972770690918
5.484668731689453,-4.13483476638794,11.418886184692385
6.238155841827393,-3.03996205329895,10.245491981506348
4.7647552490234375,-1.3929657936096191,9.12391185760498
2.528764247894287,-1.757915496826172,5.726099491119385
1.872301697731018,-1.3059239387512207,3.1518843173980717
1.516377091407776,-1.1885837316513062,0.0304444767534732
-0.0732543617486953,-1.277668595314026,-4.199790000915527
-1.6874985694885254,0.0152775198221206,-6.779407024383545
-0.1298745274543762,0.4389577507972717,-10.606468200683594
2.286308765411377,4.569526195526123,-16.585346221923828
2.7513556480407715,7.659024238586426,-23.0830135345459
0.3156591653823852,8.825794219970703,-27.503618240356445
-0.4080933332443237,4.377086162567139,-29.777454376220703
-5.600559711456299,2.839124917984009,-30.24307632446289
-7.923993110656738,4.741254806518555,-23.17108154296875
-8.847613334655762,-4.7195000648498535,-37.11825180053711
3.242391586303711,11.798944473266602,-34.84461975097656
14.527581214904783,-2.214120626449585,7.145247936248779
-0.8680354952812195,2.0084128379821777,-3.067512989044189
16.62473487854004,6.573654651641846,5.222079753875732
9.450580596923828,4.005719184875488,-4.463665008544922
9.572162628173828,2.716059446334839,-2.8204331398010254
9.554183959960938,1.0926135778427124,0.5998650789260864
10.375213623046877,0.19099822640419,2.70182728767395
9.584434509277344,-3.7151243686676025,2.431969165802002
9.41400146484375,-2.513833522796631,5.349196910858154
11.650214195251465,2.9525485038757324,10.43659210205078
9.656143188476562,4.89472770690918,14.502598762512209
6.380916595458984,5.462902545928955,16.136892318725586
6.554028511047363,-1.6339807510375977,8.852140426635742
8.1796293258667,-6.064934253692627,9.321646690368652
6.419698715209961,-3.7414865493774414,7.92485761642456
8.821929931640625,1.5501827001571655,12.01974868774414
8.11153507232666,7.447848796844482,21.116172790527344
5.292723655700684,4.335238933563232,21.012104034423828
4.83640718460083,-1.6678413152694702,18.045345306396484
4.404415607452393,-3.751301288604736,17.950101852416992
3.5904183387756348,-5.550872802734375,14.46925163269043
4.1680426597595215,-6.469118118286133,11.062777519226074
5.4525580406188965,-5.579367637634277,9.094311714172363
3.652358055114746,-2.03024959564209,8.262235641479492
0.7290351390838623,-2.1311497688293457,5.679376125335693
0.2752708792686462,-2.576354742050171,2.48163104057312
0.3025741875171661,-1.301945686340332,-1.1200928688049316
-0.8489581346511841,-1.9315581321716309,-5.436704158782959
-2.5578017234802246,0.0022938400506973,-7.3085856437683105
0.698756217956543,1.4227834939956665,-11.22934341430664
4.341332912445068,4.411604881286621,-17.205326080322266
4.768977165222168,5.378658771514893,-26.147279739379883
2.1532211303710938,9.818194389343262,-30.151988983154297
-0.0045611262321472,4.672019004821777,-33.10733795166016
-6.179346561431885,2.343350648880005,-32.475189208984375
-7.672817707061768,7.5880537033081055,-23.105093002319336
-10.623366355895996,-3.590459108352661,-41.967044830322266
8.707501411437988,15.948787689208984,-20.0528621673584
10.652365684509276,1.8032468557357788,8.016140937805176
2.0331368446350098,0.3216747045516968,-4.484128952026367
14.02601432800293,-0.7826119661331177,8.15670394897461
14.273260116577148,4.408373355865479,-0.8239532709121704
8.165058135986328,3.468864917755127,-2.3565573692321777
9.37609577178955,-0.3434800505638122,1.9373842477798464
12.777572631835938,1.4866198301315308,5.088370800018311
10.878734588623049,-1.5459247827529907,4.258751392364502
10.084733963012695,-0.1358090937137603,9.159146308898926
9.800104141235352,3.7080347537994394,12.034000396728516
8.098764419555664,5.245403289794922,17.820899963378906
4.395584583282471,1.5496468544006348,12.754894256591797
6.239260196685791,-6.56549072265625,7.778599739074707
6.501404285430908,-5.399679183959961,11.506390571594238
5.612335205078125,-6.291114330291748,7.099281311035156
7.1908345222473145,-0.3321633338928222,13.209321975708008
6.895153045654297,7.09666109085083,22.901123046875
4.658525943756104,3.766540050506592,19.00672912597656
4.847352027893066,-2.490499496459961,16.042049407958984
5.699051856994629,-4.719627857208252,15.43726921081543
5.833212375640869,-7.286252498626709,11.95523738861084
4.594335556030273,-4.755613327026367,10.782581329345703
2.895385265350342,-2.688852310180664,10.186603546142578
0.7495560050010681,-2.877718925476074,6.950077533721924
-0.0400403887033462,-2.446394443511963,3.157752275466919
-1.5836032629013062,-1.917169570922852,-0.9043904542922974
-1.6812807321548462,-1.8322322368621824,-5.304029941558838
-2.609313726425171,0.2847084105014801,-8.086288452148438
-1.1206004619598389,0.4451892971992492,-11.46993350982666
2.847914934158325,3.144855499267578,-16.08003807067871
4.180816650390625,1.7011984586715698,-24.73883819580078
1.457435965538025,6.916263103485107,-28.6499080657959
-0.2212142348289489,7.916088104248047,-29.485620498657227
-4.313578128814697,1.1605122089385986,-30.43114280700684
-7.490545749664307,6.504580497741699,-23.589256286621094
-8.817127227783203,-2.3689138889312744,-36.93610000610352
2.677053928375244,8.666399955749512,-28.110328674316406
10.738893508911133,-3.7864089012146,6.287746906280518
1.5802854299545288,1.1574946641921997,-3.60207200050354
20.62447929382324,11.78923511505127,10.596646308898926
9.90367317199707,7.59310245513916,-5.397166728973389
6.562544345855713,-0.644342839717865,-1.7832247018814087
10.84959888458252,1.8098485469818115,3.267994165420532
8.743367195129395,-1.6897519826889038,2.2622618675231934
7.370109558105469,-4.443594455718994,3.4737625122070312
7.372996807098389,-1.434585452079773,4.957097053527832
9.57322597503662,2.3143482208251958,8.45699405670166
8.646841049194336,2.0797319412231445,14.215806007385254
5.91710090637207,2.5614538192749023,13.884209632873535
7.309410572052002,-3.359928846359253,10.227953910827637
7.68804407119751,-5.833819389343262,14.230039596557615
6.354387283325195,-2.535563707351685,13.02728271484375
7.623586654663086,-0.3297764360904693,13.24764919281006
8.759032249450684,4.392542839050293,21.57543563842773
5.9777655601501465,4.56215763092041,22.566722869873047
5.091159343719482,-1.2350775003433228,17.420429229736328
4.82311487197876,-0.5986740589141846,16.607254028320312
4.55845308303833,-3.6608965396881104,12.493936538696287
5.072140216827393,-4.4825639724731445,9.52497386932373
4.870506286621094,-2.1522045135498047,7.494027137756348
2.9570930004119877,-0.7646867632865906,5.838953018188477
1.2272462844848633,-1.1261310577392578,2.918609857559204
0.2593015134334564,-0.5277711749076843,0.9360194206237792
-0.9746829271316528,-0.2902981340885162,-1.7617164850234983
-2.357759475708008,1.311084866523743,-4.263086795806885
-2.5740556716918945,4.120891094207764,-5.9129719734191895
-0.5388062000274658,6.519313812255859,-9.32900619506836
4.1029486656188965,8.105186462402344,-15.56170654296875
5.640430450439453,6.397408485412598,-22.71243667602539
4.564875602722168,2.341872215270996,-27.42125701904297
1.2844765186309814,-0.2450900375843048,-33.47692108154297
-6.417038440704346,6.907911777496338,-28.63692855834961
-7.787989139556885,3.340579032897949,-24.34419059753418
-7.925796031951904,0.4388534426689148,-22.59739875793457
-3.8345117568969727,-4.052282810211182,-47.649696350097656
14.499858856201172,3.2075679302215576,-1.4656333923339844
13.40184211730957,-9.626405715942385,18.75981330871582
17.172500610351562,27.84847450256348,-0.6083549857139587
0.2793639302253723,-5.395095348358154,-5.024870872497559
7.823571681976318,-1.70875346660614,-3.8479936122894287
10.531108856201172,7.451339244842529,3.4821813106536865
7.412886142730713,-6.032412528991699,2.217928409576416
9.133506774902344,-5.735212326049805,1.683035135269165
9.092968940734863,1.3635597229003906,5.699837684631348
8.565107345581055,2.864142179489136,8.521620750427246
8.179649353027344,3.9884462356567374,12.45797348022461
5.760281562805176,5.150560855865479,15.515408515930176
4.115285873413086,1.1021699905395508,9.014817237854004
8.67939281463623,-3.7481377124786377,11.666312217712402
6.30836296081543,-1.8344006538391116,12.54128646850586
6.270422458648682,-2.0405142307281494,10.985904693603516
8.368294715881348,4.721132278442383,16.223304748535156
6.926138877868652,5.786928176879883,23.60356712341309
4.439890861511231,2.35101580619812,18.32180595397949
5.066427230834961,-3.848790645599365,15.961318969726562
5.757968902587891,-7.180331707000732,14.746957778930664
4.632394790649414,-7.044132232666016,11.842023849487305
5.3237714767456055,-6.979847431182861,9.016240119934082
3.722956657409668,-3.440768003463745,9.32858943939209
1.0045720338821411,-4.026858329772949,5.283818244934082
0.0438023433089256,-3.1836769580841064,2.103616714477539
-0.3623179197311401,-1.0832843780517578,-1.2931333780288696
0.0163658857345581,-1.4355223178863523,-5.549405574798584
-2.165976524353028,-0.2514820098876953,-7.533939838409424
-0.2015857696533203,0.6190282106399536,-11.457849502563477
3.2083334922790527,3.3919336795806885,-17.33800506591797
4.361396789550781,3.9467086791992183,-25.15304183959961
3.1159729957580566,7.447761535644531,-28.963773727416992
0.4256476163864136,4.145683765411377,-31.708477020263672
-4.320529460906982,3.626041650772095,-30.885927200317383
-7.523770332336426,4.824435234069824,-25.376697540283203
-8.065656661987305,1.7738351821899414,-32.99909210205078
2.094348430633545,8.893025398254395,-29.991212844848636
13.06485366821289,0.2093240171670913,4.396514892578125
0.0574600547552108,7.84093427658081,-0.4360929727554321
14.299516677856444,1.463241696357727,6.643319129943848
11.004144668579102,3.374736785888672,-0.9630235433578492
8.357791900634766,4.240627288818359,-1.0192599296569824
6.449891567230225,1.4311037063598633,-0.9668428301811218
8.545919418334961,0.6829946637153625,1.6126961708068848
8.555423736572266,-4.533756256103516,1.195044755935669
9.83226490020752,-2.0802254676818848,5.525963306427002
9.914945602416992,0.4103127121925354,8.924442291259766
9.92770004272461,0.8646925687789917,13.179604530334473
7.335136413574219,2.4058852195739746,18.54696655273437
5.238385200500488,1.5047334432601929,12.734801292419434
8.845634460449219,-6.4873552322387695,10.75141429901123
7.798209190368652,-2.235049247741699,12.872925758361816
7.190474033355713,-1.992039918899536,11.852901458740234
7.73397159576416,3.50776481628418,22.396329879760746
4.919624328613281,4.875193595886231,22.58693504333496
3.3237414360046387,0.2624336779117584,16.083724975585938
3.4980838298797607,-0.7711787223815918,16.86503791809082
3.7220475673675537,-3.635585308074951,13.03895092010498
4.192126750946045,-4.330926418304443,10.59121036529541
4.196845054626465,-3.5685930252075195,9.491135597229004
2.457897424697876,-1.5128545761108398,8.21027946472168
0.7152319550514221,-1.3997522592544556,5.319071292877197
-0.1727937906980514,-0.9406571388244628,2.3838160037994385
-0.2719137370586395,-0.7092355489730835,-1.7780308723449707
-0.1349150836467743,-0.1245446726679802,-5.041416645050049
-0.3342951536178589,2.540222644805908,-7.817319393157959
2.43178129196167,5.0280351638793945,-12.241211891174316
5.777791976928711,6.546964645385742,-19.30387115478516
4.869633674621582,5.270853996276856,-25.671310424804688
1.4220850467681885,6.356318473815918,-28.640634536743164
-1.7491074800491333,3.5822830200195312,-30.95899772644043
-6.974358558654785,6.15308952331543,-26.857213973999023
-6.552078723907471,4.5169548988342285,-21.411977767944336
-7.650959014892578,-1.8112173080444336,-28.737672805786133
-1.5103209018707275,5.860158920288086,-37.3194580078125
14.912145614624023,2.41871190071106,-0.9887189269065856
6.6017374992370605,-10.42890167236328,13.116575241088867
21.42198181152344,19.332782745361328,5.116770267486572
2.1381635665893555,1.3711378574371338,-5.110135078430176
4.684530258178711,-3.574923038482666,-4.090780735015869
8.876367568969727,4.414983749389648,1.9032598733901975
8.317529678344727,-2.018438577651977,2.652064085006714
9.805583953857422,-5.435863971710205,0.3418629765510559
9.181798934936523,1.943309307098389,6.667952060699463
9.878705978393556,4.126473903656006,8.775886535644531
8.400444030761719,3.185328483581543,15.120356559753418
7.32127571105957,3.4736196994781494,19.431997299194336
4.722041130065918,4.198588371276856,14.408894538879396
8.017441749572754,-2.025853395462036,10.71188259124756
8.00738525390625,-1.7088890075683594,14.073776245117188
7.605834484100342,-3.00159239768982,7.290769577026367
8.987112998962402,3.222801923751831,14.90708827972412
6.66478967666626,7.129165649414063,25.08029556274414
4.378558158874512,3.9002373218536377,18.3247013092041
4.595270156860352,-3.893787145614624,15.369675636291504
4.98892068862915,-5.961413383483887,14.960001945495604
3.5728142261505127,-5.8588056564331055,12.155732154846191
3.5376644134521484,-5.518767833709717,10.049506187438965
3.414839267730713,-4.21165657043457,7.729372978210449
1.0860393047332764,-2.7194607257843018,5.7726569175720215
-0.5839087963104248,-3.2245852947235107,1.3941516876220703
-1.3114618062973022,-1.5714186429977417,-1.7964472770690918
-1.6680099964141846,-2.230598211288452,-6.743743896484375
-3.41877555847168,1.16395103931427,-7.699775218963623
0.8160720467567444,0.5864811539649963,-12.799362182617188
4.352521896362305,1.4809701442718506,-19.155487060546875
4.354310989379883,2.5025322437286377,-25.44122886657715
2.638066053390503,9.185871124267578,-26.95999526977539
-0.3955425024032593,5.083755970001221,-30.853729248046875
-5.736663341522217,5.659432411193848,-29.15715789794922
-6.852290630340576,8.508747100830078,-22.086557388305664
-9.569212913513184,0.2032519578933715,-37.799713134765625
5.897404193878174,8.833782196044922,-32.38053894042969
14.954686164855955,4.260837554931641,8.31155776977539
1.3439953327178955,3.288558959960937,-0.6786425113677979
17.52098274230957,0.3251755833625793,8.531757354736328
8.509654998779297,4.027413845062256,-1.9705653190612795
7.266027450561523,0.7552712559700012,-2.7658839225769043
9.375758171081545,0.1507354825735092,2.050051212310791
9.693366050720217,1.4430862665176392,2.8588881492614746
8.544475555419922,-3.8094658851623535,3.521862030029297
8.746280670166016,-0.8830193281173706,6.109477519989014
7.260465145111084,2.667747735977173,7.685184478759766
6.549346446990967,3.033787488937378,12.40456199645996
4.137940883636475,0.7055988311767578,15.08879852294922
4.389492034912109,-4.600032329559326,8.5525484085083
7.730976104736328,-7.380952835083008,11.356524467468262
7.081708908081055,-2.165935754776001,9.335843086242676
9.449756622314451,0.3332344591617584,10.595617294311523
10.971116065979004,6.231760501861572,20.385986328125
7.469784259796143,3.959482908248901,20.769481658935547
6.795281887054443,-1.7625672817230225,18.1738338470459
6.947081089019775,-3.7983031272888175,18.32969093322754
6.117697715759277,-6.009175777435303,15.64344310760498
4.827085971832275,-5.684447288513184,13.42870044708252
3.6911818981170654,-4.683526992797852,11.929147720336914
1.410945177078247,-3.225599527359009,9.341873168945312
-0.7944110035896301,-2.5349366664886475,6.078815460205078
-2.367631435394287,-1.655780792236328,2.960346937179565
-1.905038595199585,-1.1571040153503418,-1.420032620429993
-1.7312277555465698,-1.6405667066574097,-5.868843078613281
-1.8538243770599363,-1.060346245765686,-8.056544303894043
2.764759063720703,2.0496151447296143,-12.185430526733398
5.43452787399292,1.809725642204285,-21.84615707397461
4.055442333221436,6.935183525085449,-31.329442977905277
0.9993023872375488,8.78765869140625,-32.52244186401367
-3.6706016063690186,0.5095688104629517,-38.40049362182617
-7.428515911102295,7.597135066986084,-26.31092071533203
-9.181111335754396,-1.0207102298736572,-42.788848876953125
5.405386924743652,20.42607688903809,-31.342334747314453
10.311992645263672,0.7482733726501465,9.23126983642578
2.2873127460479736,-3.453131437301636,-2.62898325920105
21.762008666992188,7.207799434661865,10.109689712524414
4.013034343719482,4.045300006866455,-3.955373525619507
4.968692779541016,-1.3191982507705688,-3.150503873825073
6.527710437774658,0.4104324281215668,0.5264276266098022
8.969240188598633,0.1551001667976379,2.9069669246673584
9.795343399047852,-4.1295976638793945,2.24643349647522
10.748061180114746,-0.2451136112213134,6.655264377593994
10.892353057861328,2.7247021198272705,10.12492561340332
8.969428062438965,2.250514268875122,17.507883071899414
7.837355136871338,3.1617727279663086,21.515661239624023
5.759295463562012,1.4708714485168457,14.717178344726562
9.527018547058104,-7.883983135223389,8.40733528137207
9.602314949035645,-4.058705806732178,10.279241561889648
8.651854515075684,-0.4443603157997131,15.02306079864502
6.464051246643066,6.996484756469727,25.30939674377441
3.976407051086426,1.929043650627136,20.99601173400879
4.068045139312744,-2.191226959228516,17.09506607055664
4.334500312805176,-4.166642189025879,17.81190299987793
3.503122568130493,-5.207465648651123,15.375476837158203
2.696130990982056,-4.684219837188721,12.978411674499512
2.148106336593628,-3.972497940063477,11.023541450500488
1.4785603284835815,-3.067394733428955,8.386385917663574
1.366256594657898,-2.779254198074341,4.269560813903809
1.208701491355896,-1.6673721075057983,-0.4745429754257202
2.3578410148620605,-1.5819203853607178,-4.574947357177734
1.8290715217590328,1.5439200401306152,-7.308100700378418
4.219038963317871,3.968469858169556,-11.6077299118042
8.900946617126465,6.193722248077393,-18.690757751464844
8.225066184997559,8.915531158447266,-28.796831130981445
0.8244822025299072,9.76524543762207,-34.817134857177734
-2.724855422973633,3.748940706253052,-37.22315216064453
-6.557507514953613,4.720369338989258,-33.125667572021484
-6.085479736328125,6.985098838806152,-27.23685646057129
-6.994659423828125,-1.1685163974761963,-29.073383331298828
-1.1396604776382446,5.77271842956543,-29.194141387939453
14.797826766967772,-9.604776382446287,5.505632400512695
15.78440284729004,3.642695665359497,10.019776344299316
12.632357597351074,24.4056339263916,0.409670889377594
3.535612106323242,-6.417951583862305,-6.571887969970703
6.956563949584961,0.2130718976259231,-0.6544965505599976
7.90281867980957,5.034420013427734,2.825969696044922
9.139778137207031,-8.186006546020508,2.185636520385742
9.66574764251709,-2.5383434295654297,3.8660635948181152
10.948833465576172,2.718048572540283,6.892500877380371
11.34795093536377,6.321556091308594,13.055070877075195
7.908899307250977,6.08578634262085,16.84736442565918
5.134825229644775,6.833498477935791,18.004161834716797
4.389801025390625,-0.1383285224437713,9.498087882995604
9.655987739562988,-10.121777534484863,8.086466789245605
7.699137210845947,-1.7677712440490725,9.982449531555176
7.791940212249756,4.298165321350098,19.037433624267575
5.829895496368408,8.192132949829102,24.234628677368164
3.637882709503174,4.005428314208984,19.38962745666504
3.705044984817505,-2.4708187580108643,18.90143203735352
3.490349292755127,-5.793191432952881,17.965503692626953
2.71276330947876,-7.293986320495605,15.127517700195312
3.366119384765625,-7.659442901611328,12.71334457397461
4.865989685058594,-6.89340353012085,9.04029655456543
2.327821016311645,-4.3394622802734375,6.837210178375244
1.1470882892608645,-5.627528667449951,1.366925835609436
1.6624081134796145,-2.945140600204468,-2.358603239059448
3.805979251861572,-3.683075666427612,-8.668305397033691
2.9523050785064697,2.643274068832397,-10.06024169921875
8.04967212677002,2.487704038619995,-16.650049209594727
10.792357444763184,5.17341947555542,-26.39204788208008
6.167900562286377,7.21176815032959,-33.624839782714844
-0.1676363945007324,5.083190441131592,-37.440731048583984
-4.726147651672363,2.492570161819458,-35.03516387939453
-6.202285289764404,6.871291160583496,-27.899084091186523
-5.385627746582031,6.273500919342041,-23.10878562927246
-5.350493907928467,5.263286590576172,-16.619367599487305
-5.635432243347168,-3.0654940605163574,-35.46049880981445
9.714862823486328,7.9572434425354,3.141863346099853
8.864739418029785,-0.9411967992782592,0.6799821853637695
5.643218517303467,6.880383968353272,6.541518211364746
18.906742095947266,5.266808032989502,7.105023384094238
15.275775909423828,10.606317520141602,-2.1320056915283203
0.8624933362007141,1.087896704673767,-2.309283494949341
7.613327980041504,-0.0001711752265691,1.936358332633972
8.139982223510742,-4.29095983505249,1.3007739782333374
7.513770580291748,-5.414055824279785,0.493839830160141
8.461565017700195,0.2392406165599823,5.478272438049316
9.674473762512209,1.2501211166381836,8.070585250854492
8.57551383972168,1.1127535104751587,14.046119689941406
5.875579833984375,4.68159818649292,16.85153579711914
4.888798236846924,3.728107690811157,11.959997177124023
7.898850917816162,-3.3144290447235107,12.085554122924805
8.368612289428711,-0.4767927229404449,14.866517066955566
7.768055915832519,-2.9779574871063232,9.925614356994627
9.033044815063477,2.24819564819336,18.2561149597168
5.611913204193115,6.367727756500244,22.86279296875
4.071042060852051,2.23176383972168,17.344919204711914
3.880495071411133,0.8298351168632507,18.02674674987793
3.779369354248047,-2.101868867874145,14.898114204406738
3.493335247039795,-2.779510498046875,11.436853408813477
3.454046726226806,-2.418080568313598,10.414054870605469
3.617303133010864,-1.5773504972457886,9.012373924255373
2.285189628601074,-2.0227341651916504,6.225813388824463
0.9727816581726074,-2.767097234725952,2.6777939796447754
-0.0319168418645858,-1.977565050125122,-0.3609938323497772
-0.2328473478555679,-0.0796471089124679,-3.493975877761841
-0.4849272668361664,0.8093816041946411,-8.273818969726562
-1.4369173049926758,3.5777294635772705,-11.690672874450684
1.0791387557983398,3.5855753421783447,-17.76435661315918
4.178660869598389,2.4651401042938232,-23.7010555267334
3.483905076980591,1.7010655403137207,-30.082935333251957
0.7519252896308899,3.434274196624756,-32.19267272949219
-5.989995956420898,0.5107749700546265,-33.24699401855469
-7.785182952880859,3.8859143257141113,-26.98052215576172
-6.982134342193604,5.6843461990356445,-20.50590705871582
-7.258228302001953,-2.004582405090332,-44.46310806274414
13.746156692504885,5.8789381980896,-3.3139922618865967
10.014208793640137,6.095578670501709,11.41256046295166
12.333253860473633,7.115261554718018,0.4233152270317077
7.712986946105957,1.104115605354309,4.603564739227295
10.454283714294434,-0.5307143330574036,0.5242853760719299
8.679306983947754,0.8520433902740479,1.0411394834518433
8.563582420349121,0.5853127241134644,3.352900743484497
9.39393138885498,-3.024522542953491,2.616544723510742
9.407389640808104,-0.8148136734962463,7.8278656005859375
8.332685470581055,1.5420489311218262,9.95010471343994
8.783617973327637,4.391144752502441,15.136168479919434
4.986664295196533,4.02614688873291,13.803359985351562
4.875178337097168,-2.437886953353882,9.145254135131836
7.219156742095947,-4.865952968597412,11.936363220214844
6.740836143493652,-2.024258613586426,11.43422031402588
7.351762294769287,3.3094332218170166,13.889004707336426
8.033655166625977,7.226761341094971,21.60369682312012
6.58877420425415,3.3776395320892334,16.877910614013672
6.602121829986572,-2.731566905975342,14.589853286743164
6.405327320098877,-4.746553897857666,14.968318939208984
5.304861545562744,-6.331120014190674,12.891133308410645
4.117197513580322,-5.453456401824951,11.477004051208496
4.317747116088867,-5.377776145935059,8.9640531539917
1.9941099882125852,-2.5602262020111084,7.275412082672119
-0.2411556392908096,-3.1125659942626958,4.412299633026123
-1.9188313484191892,-2.6192073822021484,2.245561122894287
-3.050380229949951,-0.9464842081069946,-0.9583239555358888
-4.237889289855957,-0.3903188407421112,-5.755927562713623
-4.502180576324463,0.0853549614548683,-7.575561046600342
-0.0944359302520752,0.3189398944377899,-9.79075813293457
4.645401954650879,1.3702327013015747,-16.947580337524414
5.947546005249023,2.3747501373291016,-27.9081974029541
3.5067243576049805,14.452889442443848,-27.81844520568848
-0.914946436882019,5.518148422241211,-35.12384033203125
-7.517576694488525,4.743259429931641,-31.805551528930664
-7.076488494873047,5.5659589767456055,-24.86808013916016
-9.540658950805664,-5.402579784393311,-46.304500579833984
13.042957305908203,14.88527011871338,-15.719191551208496
10.489056587219238,-4.450797080993652,10.51509952545166
10.283080101013184,-0.3283625245094299,7.304282188415527
18.4133243560791,12.589594841003418,5.857206344604492
4.346874713897705,2.73785138130188,-5.692941665649414
4.725969314575195,-2.163769483566284,-1.962995171546936
7.96834659576416,2.083214044570923,1.7659533023834229
8.637483596801758,-2.513657808303833,1.2698256969451904
10.503765106201172,-5.21866512298584,2.635941505432129
11.769014358520508,1.5435718297958374,7.558251857757568
10.561598777770996,3.0538480281829834,11.65304183959961
7.23432731628418,3.519763708114624,16.670948028564453
6.241380214691162,4.322321891784668,17.29427146911621
6.237921237945557,-2.056831121444702,10.25094509124756
7.992976665496826,-6.87988805770874,9.094661712646484
6.309682369232178,-2.2632927894592285,12.20078468322754
6.562983512878418,2.706554651260376,16.80457305908203
4.528207778930664,5.968816757202148,24.546356201171875
2.9011600017547607,1.2146559953689575,18.49386978149414
2.468924045562744,-1.9390559196472168,16.582752227783203
2.633694648742676,-4.691564559936523,15.743433952331545
2.5241520404815674,-5.282531261444092,13.041837692260742
2.5046937465667725,-4.942378997802734,10.436628341674805
3.7485134601593018,-4.61500358581543,8.460711479187012
2.8651905059814453,-1.8344511985778809,6.266454696655273
1.5090482234954834,-1.515744686126709,2.942807912826538
1.2539026737213137,-1.860154390335083,-0.4213101267814636
1.681662917137146,-1.8639917373657229,-4.749898433685303
0.0138278305530548,1.142658829689026,-7.30560302734375
1.5971684455871582,2.3277735710144043,-10.476927757263184
4.377625465393066,3.1573925018310547,-16.444049835205078
4.590578556060791,6.36517858505249,-24.45597648620605
0.1725901961326599,10.46850299835205,-27.3647403717041
-1.674968957901001,3.426201820373535,-31.20414924621582
-5.8083176612854,4.635712623596191,-27.8543643951416
-7.027340412139893,5.881075382232666,-23.021190643310547
-7.603844165802002,0.5131385326385498,-31.365375518798828
1.8253883123397827,3.682786464691162,-38.20907974243164
16.034683227539062,3.674013137817383,1.071037530899048
1.1577744483947754,10.3019380569458,3.3848023414611816
15.159348487854004,-4.304698944091797,6.842517375946045
8.855500221252441,4.717324733734131,-1.1247332096099854
4.948486328125,2.325559139251709,-2.68808913230896
4.987493515014648,0.5621803998947144,-2.257573366165161
7.026564121246338,0.331769198179245,0.03034308552742
9.563886642456056,-4.5880303382873535,2.131499767303467
10.943209648132324,-2.7197210788726807,4.015136241912842
