PacketCounter,SampleTimeFine,Quat_W,Quat_X,Quat_Y,Quat_Z,Acc_X,Acc_Y,Acc_Z,Gyr_X,Gyr_Y,Gyr_Z 
1,437357183,0.72567385,-0.08007992,-0.6828138,-0.027389565,0.1400160938501358,-0.8534899950027466,-1.0025488138198853,0.01656896434724331,-0.839966356754303, -1.7975263595581055
2,437373850,0.7231071,-0.08078019,-0.6855111,-0.02579393,9.715667724609375,-0.78485107421875,0.27593156695365906,1.1202417612075806,0.08765305578708649, 1.1500037908554077
3,437390517,0.7211493,-0.08053485,-0.68764937,-0.024417965,9.854743003845215,-0.7770275473594666,0.4886906147003174,1.0827704668045044,-0.05637355521321297, 0.8632313013076782
4,437407184,0.7205925,-0.0796739,-0.6883715,-0.023312133,9.903931617736816,-0.7835855484008789,0.4466530680656433,1.3485792875289917,0.17975632846355438, 0.5398837327957153
5,437423851,0.7204837,-0.07883822,-0.6886075,-0.022527816,10.021553039550781,-0.7745591998100281,0.4909247159957886,0.7118473649024963,0.34344711899757385, 0.38456830382347107
6,437440518,0.72064906,-0.077859215,-0.6885657,-0.021917189,9.851001739501953,-0.806862473487854,0.4097162187099457,1.480087399482727,0.594323456287384, -0.3827049732208252
7,437457185,0.72076523,-0.07693042,-0.6885681,-0.021291308,9.737607955932617,-0.8313034176826477,0.2953351140022278,2.000985860824585,0.14640860259532928, -0.6223501563072205
8,437473852,0.72071856,-0.07630042,-0.6887031,-0.020765314,9.74527645111084,-0.6564586162567139,0.3062051832675934,0.7365379333496094,-0.1456594169139862, -0.43631234765052795
9,437490519,0.720571,-0.07586217,-0.688912,-0.020557249,9.827964782714844,-0.5987393260002136,0.3627740442752838,0.2550448477268219,-0.5683713555335999, -0.07450733333826065
10,437507186,0.72041976,-0.07532974,-0.68913853,-0.020224458,9.916756629943848,-0.510636568069458,0.38733935356140137,1.4995273351669312,-0.9008753895759583, 0.9413499236106873
11,437523853,0.7202895,-0.0748605,-0.68933606,-0.01987128,9.92302131652832,-0.3753267228603363,0.2857702672481537,0.663298487663269,-0.8764666318893433, 2.1909425258636475
12,437540520,0.7200904,-0.07447669,-0.689595,-0.019544117,9.86765193939209,-0.5470920205116272,0.2663097381591797,0.8860521912574768,-1.3152762651443481, 3.4239251613616943
13,437557187,0.7198195,-0.07407221,-0.68994033,-0.018855628,9.888407707214355,-0.5538237690925598,0.356868714094162,2.74680233001709,-2.090521812438965, 4.915352821350098
14,437573854,0.7195953,-0.07363181,-0.69024724,-0.017882612,9.955978393554688,-0.43871060013771057,0.21573790907859802,4.380034923553467,-2.0268356800079346, 5.999526500701904
15,437590521,0.719349,-0.07339672,-0.690552,-0.016966248,10.123831748962402,-0.45229092240333557,0.27669498324394226,3.1595256328582764,-1.9094398021697998, 6.83953332901001
16,437607188,0.71919066,-0.07342412,-0.690732,-0.016227683,9.996505737304688,-0.46374112367630005,0.23814819753170013,2.2859530448913574,-0.9344666600227356, 7.380051136016846
17,437623855,0.7190432,-0.07383384,-0.69085354,-0.015715951,9.869725227355957,-0.6022796630859375,0.3758544325828552,-1.0893210172653198,-0.45867228507995605, 8.052165985107422
18,437640522,0.71883625,-0.07485388,-0.690961,-0.015631808,9.897127151489258,-0.7305203676223755,0.6304461359977722,-6.380792140960693,-0.7585461139678955, 8.51629638671875
19,437657189,0.7186647,-0.07578875,-0.6910424,-0.015418966,9.873600006103516,-1.1870297193527222,0.4035211205482483,-5.786857604980469,-1.0810612440109253, 8.311957359313965
20,437673856,0.71852356,-0.07642531,-0.69112957,-0.014933395,9.822893142700195,-1.1789897680282593,0.29517269134521484,-2.7336950302124023,-1.2225583791732788, 7.278637409210205
21,437690523,0.7183889,-0.0770504,-0.69120777,-0.014584981,9.763132095336914,-1.2972544431686401,0.2931716740131378,-2.8096234798431396,-1.0812658071517944, 5.853443145751953
22,437707190,0.71827424,-0.07725586,-0.69131577,-0.014014538,9.746207237243652,-1.3395798206329346,0.25835689902305603,0.4530182182788849,-1.195549726486206, 4.271525859832764
23,437723857,0.7182398,-0.07735456,-0.69134945,-0.013561502,9.754000663757324,-1.3113378286361694,0.32410138845443726,0.6270692944526672,-0.3403799831867218, 2.6837308406829834
24,437740524,0.71828365,-0.07731836,-0.6913162,-0.013127038,9.792025566101074,-1.2099597454071045,0.2741280496120453,1.3128108978271484,0.35050341486930847, 1.6032589673995972
25,437757191,0.718368,-0.07721522,-0.69124526,-0.012856933,9.836018562316895,-1.0061172246932983,0.2673705220222473,0.7750723958015442,0.8539466261863708, 0.28487086296081543
26,437773858,0.71845794,-0.07699897,-0.6911783,-0.012725105,9.818023681640625,-0.9266120195388794,0.28821879625320435,0.6532583236694336,0.9702282547950745, -0.931098461151123
27,437790525,0.7185596,-0.07682777,-0.6910918,-0.012717359,9.818209648132324,-0.8331425189971924,0.2706431746482849,-0.16876207292079926,1.1901005506515503, -1.2529733180999756
28,437807192,0.718661,-0.07682914,-0.6909823,-0.012926044,9.915070533752441,-0.7774803638458252,0.27477020025253296,-1.2694807052612305,1.3446091413497925, -1.345665693283081
29,437823859,0.718788,-0.07677987,-0.690854,-0.013019288,9.947800636291504,-0.6979518532752991,0.28366246819496155,-0.7447788119316101,1.543235421180725, -0.8758774399757385
30,437840526,0.71888226,-0.07677016,-0.6907563,-0.01305987,9.944156646728516,-0.6533023118972778,0.2945978343486786,-0.43427616357803345,1.1873855590820312, -0.2768348753452301
31,437857193,0.71901375,-0.0767723,-0.6906205,-0.01298536,9.916499137878418,-0.7340483069419861,0.3186033070087433,-0.09988953173160553,1.5079028606414795, 0.5231329798698425
32,437873860,0.7191491,-0.07675463,-0.69048595,-0.012744459,9.870849609375,-0.7784983515739441,0.22985924780368805,0.5150136947631836,1.4481738805770874, 1.3294974565505981
33,437890527,0.7192597,-0.07674193,-0.6903769,-0.012492568,9.858283996582031,-0.7878357172012329,0.30228859186172485,0.8513212203979492,1.2040337324142456, 1.453590989112854
34,437907194,0.7193728,-0.07672435,-0.6902661,-0.012204042,9.846829414367676,-0.8373493552207947,0.3450900614261627,1.1495044231414795,1.1932893991470337, 1.6552015542984009
35,437923861,0.7194624,-0.07672594,-0.69017774,-0.011917485,9.843746185302734,-0.8545632362365723,0.36722785234451294,1.1492867469787598,0.9397876262664795, 1.7393265962600708
36,437940528,0.7195951,-0.07678908,-0.69003534,-0.011726295,9.919506072998047,-0.9598800539970398,0.4130648076534271,0.5465430021286011,1.4179383516311646, 1.6012996435165405
37,437957195,0.7197464,-0.076893486,-0.68986756,-0.011623458,9.797297477722168,-0.8987808227539062,0.30661022663116455,-0.03935391455888748,1.6354029178619385, 1.343751311302185
38,437973862,0.71985626,-0.076921284,-0.68975174,-0.0115253115,9.727800369262695,-0.9329414367675781,0.35116180777549744,0.19316460192203522,1.205647349357605, 0.9133297204971313
39,437990529,0.71991056,-0.076903045,-0.68969804,-0.011460553,9.836466789245605,-0.8750870823860168,0.40120142698287964,0.35493436455726624,0.6351372599601746, 0.47563421726226807
40,438007196,0.7199547,-0.07678605,-0.6896658,-0.011414922,9.936169624328613,-0.8783711791038513,0.3237055838108063,0.8828250169754028,0.4629559814929962, -0.0905793234705925
41,438023863,0.71995485,-0.07673179,-0.68967026,-0.011503041,9.851818084716797,-0.8220770955085754,0.3272623121738434,-0.05036737024784088,0.13977490365505219, -0.47208043932914734
42,438040530,0.7199824,-0.07668121,-0.6896457,-0.011592283,9.83727741241455,-0.8347117900848389,0.35087957978248596,-0.12446491420269012,0.42165541648864746, -0.42730939388275146
43,438057197,0.7200076,-0.07653369,-0.6896356,-0.01159159,9.856822967529297,-0.8345392346382141,0.27471211552619934,0.7456049919128418,0.29865050315856934, -0.44000059366226196
44,438073864,0.7200292,-0.07632333,-0.68963754,-0.011528051,9.894879341125488,-0.8077317476272583,0.33035725355148315,1.1316522359848022,0.2304566651582718, -0.43280336260795593
45,438090531,0.7201877,-0.07629101,-0.6894758,-0.011515502,9.998396873474121,-0.8144152760505676,0.40810009837150574,0.3476859927177429,1.6777278184890747, 0.28148993849754333
46,438107198,0.72047025,-0.07608218,-0.6892073,-0.011309064,10.015456199645996,-0.7921642065048218,0.3348538875579834,2.3576295375823975,2.6740617752075195, 0.49066880345344543
47,438123865,0.72076136,-0.07569603,-0.6889502,-0.011008995,9.803862571716309,-0.8075845837593079,0.18193702399730682,3.732814073562622,2.622465133666992, 0.1286846250295639
48,438140532,0.7209187,-0.07548068,-0.6888101,-0.010931921,9.738265037536621,-0.7733641266822815,0.21075820922851562,1.6974881887435913,1.5573738813400269, -0.23351098597049713
49,438157199,0.7210406,-0.07541821,-0.6886892,-0.010950735,9.76379108428955,-0.7175280451774597,0.41313663125038147,0.648776113986969,1.3447372913360596, 0.022366290912032127
50,438173866,0.7211676,-0.07541309,-0.6885574,-0.010902122,9.9155912399292,-0.6974382996559143,0.44941577315330505,0.5599256157875061,1.3790709972381592, 0.6524259448051453
51,438190533,0.7213087,-0.0755212,-0.6883986,-0.010842555,9.947497367858887,-0.6917474865913391,0.3836266100406647,0.0714530274271965,1.5445929765701294, 1.2863143682479858
52,438207200,0.7213902,-0.075574785,-0.68830955,-0.010708708,9.891444206237793,-0.7766558527946472,0.36118385195732117,0.6076677441596985,0.8825817108154297, 1.3805310726165771
53,438223867,0.7214318,-0.07559597,-0.6882667,-0.0105061885,9.851828575134277,-0.8013404607772827,0.4046681821346283,1.3166016340255737,0.4089259207248688, 1.5588335990905762
54,438240534,0.72144234,-0.075596444,-0.68825847,-0.0103094,9.839229583740234,-0.8049196600914001,0.35211411118507385,1.3178309202194214,0.09410744160413742, 1.4124441146850586
55,438257201,0.72143936,-0.07558424,-0.6882658,-0.010116219,9.828893661499023,-0.7934932708740234,0.3517530858516693,1.18487548828125,-0.025484638288617134, 1.3203668594360352
56,438273868,0.72144544,-0.07560955,-0.68825895,-0.009964386,9.814977645874023,-0.7508075833320618,0.3544301986694336,0.7663895487785339,0.1126510426402092, 1.303026795387268
57,438290535,0.7214624,-0.0757311,-0.68822974,-0.009827798,9.819644927978516,-0.721379816532135,0.31696468591690063,0.3320366442203522,0.26726213097572327, 1.7107555866241455
58,438307202,0.72147113,-0.07599557,-0.6881926,-0.009740969,9.874618530273438,-0.6234101057052612,0.32325229048728943,-0.5289278626441956,0.28172045946121216, 2.162742853164673
59,438323869,0.7214478,-0.07634588,-0.68817955,-0.009648621,9.972338676452637,-0.6686413884162903,0.3829115629196167,-0.8876466155052185,0.0032336032018065453, 2.6149606704711914
60,438340536,0.7214096,-0.07654338,-0.68820196,-0.009355632,9.947021484375,-0.8007036447525024,0.43433716893196106,0.6900893449783325,-0.32932811975479126, 2.88642954826355
61,438357203,0.7213802,-0.0766103,-0.6882319,-0.008858651,9.865495681762695,-0.8491227030754089,0.3701823353767395,2.1683011054992676,-0.42048370838165283, 3.2746801376342773
62,438373870,0.7213539,-0.076701805,-0.68825483,-0.0084196385,9.807085990905762,-0.8761650323867798,0.3757321536540985,1.8752660751342773,-0.3527893126010895, 3.107940912246704
63,438390537,0.7213583,-0.076857455,-0.68823665,-0.008110436,9.782581329345703,-0.9131414294242859,0.4017954170703888,0.9632231593132019,0.058480191975831985, 2.7844910621643066
64,438407204,0.7214045,-0.0770946,-0.68816304,-0.00797866,9.860516548156738,-0.9674133658409119,0.4605671167373657,-0.08740333467721939,0.5961419939994812, 2.3183274269104004
65,438423871,0.7215126,-0.07735355,-0.6880206,-0.007973506,9.891558647155762,-1.0366966724395752,0.4484733045101166,-0.7648592591285706,1.284137487411499, 1.8183289766311646
66,438440538,0.721664,-0.07737336,-0.6878603,-0.007908532,9.844058990478516,-1.0249288082122803,0.35912370681762695,0.5734362006187439,1.5643017292022705, 0.9674747586250305
67,438457205,0.72176176,-0.07720877,-0.68777627,-0.007914091,9.741056442260742,-0.9641145467758179,0.23357397317886353,1.2576797008514404,0.9696776866912842, -0.3119370639324188
68,438473872,0.72177434,-0.076896176,-0.68779707,-0.00800474,9.739469528198242,-0.9564589262008667,0.3145727217197418,1.4102286100387573,0.13220635056495667, -1.5122121572494507
69,438490539,0.7217648,-0.07653715,-0.6878454,-0.008153722,9.772112846374512,-0.8319206237792969,0.4073474109172821,1.4737224578857422,-0.08035983890295029, -2.042689561843872
70,438507206,0.7217478,-0.076231025,-0.68789446,-0.008381536,9.858758926391602,-0.7257255911827087,0.3474445343017578,0.8943890929222107,-0.08970848470926285, -2.177476406097412
71,438523873,0.72168946,-0.07594902,-0.687984,-0.00861008,9.88916015625,-0.696719229221344,0.3021584749221802,0.7616512775421143,-0.48405444622039795, -2.0734121799468994
72,438540540,0.7215849,-0.07565537,-0.6881239,-0.0087916665,9.896998405456543,-0.6753603219985962,0.3694831430912018,0.8952855467796326,-0.9556995034217834, -1.9111298322677612
73,438557207,0.7214602,-0.075391755,-0.6882819,-0.008909348,9.867310523986816,-0.6763902902603149,0.34799689054489136,1.1085113286972046,-1.1821926832199097, -1.4401253461837769
74,438573874,0.72135246,-0.075096376,-0.6884268,-0.008939304,9.896450996398926,-0.7273464798927307,0.2945573031902313,1.5629318952560425,-1.0648096799850464, -1.1349626779556274
75,438590541,0.7212322,-0.07484525,-0.68858004,-0.008934934,9.876286506652832,-0.6474162340164185,0.26173290610313416,1.477192997932434,-1.1757636070251465, -0.7500550150871277
76,438607208,0.72114635,-0.07467984,-0.6886881,-0.00892499,9.90552043914795,-0.6869293451309204,0.402657687664032,1.2090027332305908,-0.7979380488395691, -0.26788321137428284
77,438623875,0.7211555,-0.07462121,-0.6886858,-0.008858924,9.884970664978027,-0.6595404148101807,0.38030630350112915,1.0757142305374146,0.15150552988052368, 0.5960267782211304
78,438640542,0.72124493,-0.0747435,-0.6885788,-0.008867022,9.921027183532715,-0.6590206027030945,0.26516589522361755,-0.14879697561264038,1.0754581689834595, 1.159237265586853
79,438657209,0.7213582,-0.07498417,-0.6884336,-0.008886059,9.907118797302246,-0.6686396598815918,0.2678806185722351,-0.7706989645957947,1.3855254650115967, 1.7029949426651
80,438673876,0.7214539,-0.07510394,-0.6883217,-0.008773935,9.880730628967285,-0.7324905395507812,0.3304356336593628,0.3980277478694916,1.0897499322891235, 1.7760423421859741
81,438690543,0.72152835,-0.07510346,-0.68824637,-0.008554606,9.89721965789795,-0.750982403755188,0.32692524790763855,1.5495492219924927,0.7574636340141296, 1.729222297668457
82,438707210,0.7216344,-0.075069904,-0.68814206,-0.008296854,9.926492691040039,-0.7755279541015625,0.3388364911079407,1.9406551122665405,1.0338119268417358, 1.7882723808288574
83,438723877,0.72174096,-0.075057656,-0.6880338,-0.008113003,9.845458984375,-0.7448383569717407,0.332635760307312,1.4921895265579224,1.0949749946594238, 1.5299426317214966
84,438740544,0.72202086,-0.0751078,-0.6877367,-0.007941424,10.0160493850708,-0.7774499654769897,0.5019722580909729,1.1704684495925903,2.861905336380005, 1.8774813413619995
85,438757211,0.7224419,-0.07501016,-0.68730783,-0.0076967617,9.948502540588379,-0.7432213425636292,0.3253762722015381,2.344311237335205,4.139504909515381, 1.6251193284988403
86,438773878,0.72281826,-0.07473434,-0.6869446,-0.007461419,9.83506965637207,-0.8421401381492615,0.4230586588382721,3.0922534465789795,3.629159927368164, 0.7068528532981873
87,438790545,0.7234296,-0.07392536,-0.68639576,-0.0067641297,10.010542869567871,-0.9790582060813904,0.4979582726955414,8.105429649353027,5.443360328674316, 0.5946822762489319
88,438807212,0.7240928,-0.07296509,-0.6858063,-0.005965895,9.783339500427246,-0.743928074836731,-0.09017147868871689,9.486159324645996,5.827551364898682, 0.40120387077331543
89,438823879,0.7246775,-0.071961746,-0.6853011,-0.0051580537,9.868194580078125,-0.8591817021369934,0.05553186312317848,9.79784107208252,5.072910785675049, 0.2130785435438156
90,438840546,0.7253921,-0.07096279,-0.68465453,-0.0043618097,10.037580490112305,-0.4136093258857727,0.3593815267086029,9.793140411376953,6.430141448974609, 0.2501913607120514
91,438857213,0.7261755,-0.07045704,-0.6838784,-0.0039450303,9.853398323059082,-0.6523204445838928,0.2618892788887024,5.680994510650635,7.568726539611816, 0.7897101044654846
92,438873880,0.7269624,-0.069902025,-0.6831018,-0.003400097,9.858773231506348,-0.6961390376091003,0.3913317322731018,6.534371852874756,7.546996116638184, 1.2152141332626343
93,438890547,0.7277903,-0.069307,-0.68228287,-0.00280952,9.80001163482666,-0.6915469765663147,0.5640970468521118,7.0142645835876465,7.933965682983398, 1.292359709739685
94,438907214,0.7286294,-0.06869794,-0.6814508,-0.002130968,9.777928352355957,-0.6976346969604492,0.4345865249633789,7.480301380157471,8.009062767028809, 1.6849255561828613
95,438923881,0.7294393,-0.06820037,-0.6806354,-0.0016039367,9.918030738830566,-0.6201127767562866,0.44014373421669006,6.269497394561768,7.860764026641846, 1.4567675590515137
96,438940548,0.7301826,-0.067874216,-0.67987144,-0.0012514925,9.852553367614746,-0.5925419330596924,0.5493732690811157,4.5711822509765625,7.380870819091797, 1.3789687156677246
97,438957215,0.73090017,-0.067738414,-0.67911375,-0.0010675436,9.805998802185059,-0.6756499409675598,0.689077615737915,2.797605276107788,7.310371398925781, 1.4400678873062134
98,438973882,0.7315447,-0.06756651,-0.6784367,-0.00088975194,9.70849323272705,-0.7627751231193542,0.8102518916130066,2.8933708667755127,6.5625433921813965, 1.2150089740753174
99,438990549,0.7320968,-0.067189276,-0.67787886,-0.00062078517,9.611443519592285,-0.9143434166908264,0.8398729562759399,4.426201820373535,5.463669776916504, 0.6744529604911804
100,439007216,0.7324926,-0.06657539,-0.6775119,-0.0003430856,9.675622940063477,-0.7999395132064819,0.8360320329666138,5.5602803230285645,3.759835720062256, -0.4821591079235077
101,439023883,0.73259413,-0.06579809,-0.677478,-0.0003676672,9.691919326782227,-0.8100235462188721,0.9311407804489136,4.856391906738281,0.8350059986114502, -2.9156086444854736
102,439040550,0.73234576,-0.064520136,-0.67786914,-0.00057877024,9.512147903442383,-1.2600719928741455,1.1715670824050903,6.297454357147217,-2.863744020462036, -6.38405704498291
103,439057217,0.73184645,-0.062186193,-0.6786263,-0.00037687767,9.442423820495605,-1.840461254119873,2.1522316932678223,13.461338996887207,-6.094344139099121, -9.425459861755371
104,439073884,0.7318054,-0.05893177,-0.678961,-0.00018883869,9.787208557128906,-1.6751446723937988,5.201698303222656,18.209680557250977,-1.9317131042480469, -13.693238258361816
105,439090551,0.7323475,-0.056705743,-0.67856085,-0.0026646017,10.939226150512695,-2.037432909011841,4.038322448730469,0.8208948969841003,5.225403308868408, -22.064855575561523
106,439107218,0.73192996,-0.053704713,-0.6792336,-0.0060314937,11.418858528137207,-2.028965950012207,-0.08593572676181793,0.22899751365184784,-4.531119346618652, -30.69416046142578
107,439123885,0.7304104,-0.051356565,-0.68096733,-0.012123013,12.61059856414795,-0.42298656702041626,0.5354563593864441,-16.10382843017578,-13.952611923217773, -41.889251708984375
108,439140552,0.7288661,-0.049224414,-0.68260765,-0.019448448,11.970252990722656,-2.092630624771118,3.7919933795928955,-22.99671173095703,-13.138346672058105, -47.025062561035156
109,439157219,0.7278866,-0.04636824,-0.68362916,-0.026121903,12.69147777557373,-3.0141687393188477,3.171022653579712,-16.21692657470703,-7.718070983886719, -46.993289947509766
110,439173886,0.72708607,-0.043989286,-0.6843443,-0.03292207,12.800016403198242,-1.9104820489883423,1.9417716264724731,-19.281702041625977,-5.542252063751221, -45.45724868774414
111,439190553,0.72668856,-0.04288655,-0.68440574,-0.040905066,11.451533317565918,0.6503427624702454,1.9738693237304688,-31.19510269165039,-0.37364205718040466, -45.19826889038086
112,439207220,0.7273078,-0.044443857,-0.6829572,-0.051164187,9.764579772949219,0.17069244384765625,1.3371632099151611,-55.49445724487305,11.807058334350586, -43.28306579589844
113,439223887,0.7268791,-0.048437815,-0.6822985,-0.061396096,8.980045318603516,-1.8875807523727417,-1.9804166555404663,-67.7791748046875,2.036832809448242, -32.32889938354492
114,439240554,0.72645515,-0.05467899,-0.68155676,-0.06894704,8.08830738067627,-2.10705828666687,-0.4385116994380951,-66.97183227539062,0.8323684930801392, -8.548055648803711
115,439257221,0.72668004,-0.06063623,-0.68089026,-0.068176016,7.037075996398926,-7.041255950927734,-1.319035530090332,-26.62582778930664,0.5858619809150696, 31.777000427246094
116,439273888,0.72701913,-0.058849372,-0.68216616,-0.051280383,7.529720783233643,-10.228362083435059,-2.2386131286621094,88.51753234863281,-11.543556213378906, 74.82984924316406
117,439290555,0.7271994,-0.052075602,-0.6840349,-0.02378074,9.210515022277832,-5.662533760070801,-0.29310280084609985,164.1188507080078,-17.657773971557617, 103.49917602539062
118,439307222,0.7283808,-0.0479621,-0.6834692,0.0055788937,10.863768577575684,-2.224365711212158,1.036765694618225,160.185546875,-1.9575706720352173, 126.04116821289062
119,439323889,0.7303162,-0.046809983,-0.6807823,0.031346433,10.597328186035156,3.964839458465576,1.1556085348129272,128.69317626953125,13.37248420715332, 122.56610870361328
120,439340556,0.73232037,-0.05757172,-0.677244,0.041629143,9.846183776855469,5.407430171966553,0.13001611828804016,-3.6718878746032715,25.463132858276367, 101.2040023803711
121,439357223,0.73423356,-0.06905445,-0.67376477,0.04662372,10.400135040283203,2.3202004432678223,-3.203059434890747,-32.07186508178711,27.08670425415039, 78.41918182373047
122,439373890,0.7351151,-0.08139436,-0.6714243,0.046586208,10.101289749145508,1.8551076650619507,-5.509291648864746,-60.59168243408203,19.516244888305664, 57.059303283691406
123,439390557,0.73436594,-0.09393352,-0.67064023,0.04609697,8.87142562866211,-1.6869876384735107,-8.439143180847168,-65.01759338378906,4.875842094421387, 55.61544418334961
124,439407224,0.7324903,-0.09840085,-0.67155737,0.05278484,8.280754089355469,-0.4348592460155487,-10.847851753234863,7.748946189880371,-15.493744850158691, 53.91439437866211
125,439423891,0.72960895,-0.0999973,-0.6737724,0.060846955,8.4680814743042,3.76987361907959,-11.018782615661621,26.96297836303711,-27.75037956237793, 47.10599899291992
126,439440558,0.7261042,-0.10144342,-0.67679733,0.06653844,7.3879265785217285,3.2165451049804688,-10.713027954101562,16.137060165405273,-32.3735237121582, 34.59697341918945
127,439457225,0.72234285,-0.10222167,-0.6802595,0.070842505,5.78812313079834,0.7418564558029175,-9.390594482421875,12.810004234313965,-34.3694953918457, 24.696861267089844
128,439473892,0.718984,-0.10251598,-0.6832444,0.07569424,4.794193267822266,-0.42904898524284363,-7.922828197479248,18.456411361694336,-30.126243591308594, 25.417633056640625
129,439490559,0.71565455,-0.10199115,-0.6863277,0.07994207,4.682140827178955,1.1797809600830078,-6.897047519683838,19.783702850341797,-29.976415634155273, 18.523805618286133
130,439507226,0.7118943,-0.10367003,-0.6897923,0.081522375,5.189692497253418,0.8366035223007202,-4.556602954864502,-4.038422584533691,-30.3846492767334, 15.908605575561523
131,439523893,0.70647913,-0.10802073,-0.69483805,0.08011838,4.7472710609436035,-0.8860111832618713,-4.687799453735352,-33.2543830871582,-42.09346389770508, 13.933891296386719
132,439540560,0.6985439,-0.11628567,-0.7019959,0.07560275,4.269773483276367,-5.027315139770508,-7.70456600189209,-70.07896423339844,-59.679359436035156, 17.41957664489746
133,439557227,0.67962813,-0.13059726,-0.7176642,0.07751286,8.661680221557617,-22.03923988342285,-40.02195739746094,-81.12216186523438,-155.14154052734375, 76.19857788085938
134,439573894,0.6545011,-0.13494296,-0.7387347,0.08769205,21.085372924804688,1.0487693548202515,11.980024337768555,-1.4415209293365479,-221.30628967285156, 62.855648040771484
135,439590561,0.632278,-0.14072543,-0.75600606,0.0942127,13.023972511291504,7.789883136749268,0.9899802207946777,-21.677104949951172,-186.20030212402344, 55.85190963745117
136,439607228,0.60855,-0.12682523,-0.77481526,0.115081646,22.342248916625977,6.932816028594971,-3.0176870822906494,136.15798950195312,-227.66033935546875, 15.934430122375488
137,439623895,0.5861042,-0.11828346,-0.79112583,0.12888302,12.860506057739258,0.9067044258117676,-4.185488700866699,79.36080169677734,-200.12759399414062, 16.650705337524414
138,439640562,0.56612104,-0.11716145,-0.80439794,0.13683668,12.000541687011719,-4.414053440093994,-2.425077438354492,22.489877700805664,-163.17581176757812, 33.86074447631836
139,439657229,0.54838306,-0.12252793,-0.81577295,0.13703245,12.143735885620117,-7.061865329742432,-6.160327434539795,-42.07063674926758,-131.1995849609375, 38.8947868347168
140,439673896,0.53378314,-0.12450976,-0.82502043,0.13753013,12.719086647033691,-5.377087116241455,-5.791086196899414,-22.961708068847656,-109.01848602294922, 19.73722267150879
141,439690563,0.52135545,-0.12388889,-0.8331481,0.13676462,14.72738265991211,-7.821213245391846,-6.188561916351318,-17.6730899810791,-94.02208709716797, -0.7925848960876465
142,439707230,0.5096332,-0.12364089,-0.8410037,0.13304082,18.709508895874023,-7.0888190269470215,-3.508148193359375,-35.20755386352539,-86.2398452758789, -9.791525840759277
143,439723897,0.49674773,-0.124582626,-0.8495523,0.12642007,23.1774845123291,-5.083826065063477,-0.6320331692695618,-57.9172248840332,-92.23743438720703, -12.52816104888916
144,439740564,0.48156205,-0.12708268,-0.859206,0.117103435,24.294593811035156,-2.289440393447876,4.449706077575684,-82.0893783569336,-106.51084899902344, -11.311192512512207
145,439757231,0.46448204,-0.1309164,-0.86950195,0.10527909,22.5321102142334,-0.11354874819517136,11.058004379272461,-103.67027282714844,-117.64933776855469, -10.362136840820312
146,439773898,0.44898537,-0.13335784,-0.8785837,0.09337323,14.323904037475586,0.21237841248512268,9.238311767578125,-97.61664581298828,-106.65203094482422, -18.581829071044922
147,439790565,0.43693018,-0.1322323,-0.885765,0.083828665,8.425909042358398,1.583566665649414,1.6705693006515503,-68.1124267578125,-85.48155975341797, -33.07904052734375
148,439807232,0.4266863,-0.12943064,-0.89192027,0.07526513,6.857767581939697,-0.13083961606025696,1.1092578172683716,-54.82764434814453,-73.6546630859375, -40.27483367919922
149,439823899,0.41436982,-0.12429917,-0.8988564,0.07003415,8.117079734802246,-2.182752847671509,1.6331782341003418,-29.8137149810791,-93.1590576171875, -44.36097717285156
150,439840566,0.394866,-0.11906511,-0.90839994,0.068659194,10.619537353515625,-7.5562896728515625,-4.661908149719238,-13.157649040222168,-148.7583465576172, -32.83731460571289
151,439857233,0.36629644,-0.115197256,-0.92013574,0.076855786,16.629241943359375,-6.908870697021484,-9.350513458251953,34.28480529785156,-218.7642822265625, 3.88311505317688
152,439873900,0.3355748,-0.114779495,-0.93121135,0.084028825,14.07873821258545,-2.91556453704834,9.961203575134277,17.660297393798828,-228.4085693359375, 24.63840103149414
153,439890567,0.30783516,-0.11470647,-0.9405575,0.08620641,11.141770362854004,1.9980034828186035,10.794886589050293,-11.982824325561523,-202.2259521484375, 14.945035934448242
154,439907234,0.2856657,-0.11714686,-0.94803315,0.07684463,16.62948989868164,-5.540637016296387,6.130692005157471,-86.44124603271484,-152.5966796875, 5.061279296875
155,439923901,0.27206698,-0.114757925,-0.9524125,0.07563552,16.75503921508789,-6.182293891906738,7.400948524475098,-15.581092834472656,-100.80439758300781, -12.529648780822754
156,439940568,0.26870936,-0.11059236,-0.9534854,0.08019037,11.632036209106445,-3.3112850189208984,8.866010665893555,34.921878814697266,-34.09727096557617, -16.126150131225586
157,439957235,0.27581957,-0.10771582,-0.951731,0.08080316,10.575279235839844,-2.4134521484375,7.380786895751953,15.960515975952148,42.628456115722656, -18.536964416503906
158,439973902,0.29391316,-0.107698105,-0.94679433,0.074811384,9.859094619750977,-4.371520519256592,4.321905612945557,-22.995594024658203,126.28997039794922, -16.091501235961914
159,439990569,0.3235614,-0.10807534,-0.93754923,0.068038054,9.202322959899902,-4.3610639572143555,1.5923047065734863,-18.40039825439453,210.43006896972656, -17.97747802734375
160,440007236,0.36346135,-0.10925123,-0.9232028,0.060472164,8.970282554626465,-3.3984994888305664,0.2016488015651703,-15.542081832885742,288.4277038574219, -15.760711669921875
161,440023903,0.411375,-0.11188254,-0.9029798,0.053673346,9.64206314086914,-3.5600130558013916,-0.5484067797660828,-6.053721904754639,353.7246398925781, -3.676903486251831
162,440040570,0.4650235,-0.11773929,-0.876193,0.046654455,10.226456642150879,-1.702265977859497,-2.6822330951690674,-9.93712329864502,409.0313415527344, 18.472909927368164
163,440057237,0.5205561,-0.12887022,-0.84326845,0.036225848,9.860180854797363,-0.1034628301858902,-3.511934757232666,-44.04401779174805,444.3622741699219, 43.544647216796875
164,440073904,0.5757183,-0.14185996,-0.8046526,0.030959688,12.82290267944336,-1.868018388748169,-7.02531623840332,-19.826101303100586,458.4803771972656, 77.82254791259766
165,440090571,0.62984926,-0.14666529,-0.7618424,0.037084937,19.26924705505371,-2.438013792037964,-12.716339111328125,75.37870788574219,456.7232360839844, 81.87415313720703
166,440107238,0.67971325,-0.14153598,-0.7179629,0.04986931,20.791067123413086,-2.6453845500946045,-19.031572341918945,149.22972106933594,430.25390625, 60.989437103271484
167,440123905,0.72176737,-0.13002372,-0.6770109,0.061660413,19.639570236206055,-4.189218521118164,-22.771650314331055,165.63339233398438,377.76495361328125, 24.911794662475586
168,440140572,0.7514778,-0.12627624,-0.6445727,0.062142447,15.046339988708496,-1.0009750127792358,-23.79218101501465,59.972511291503906,292.7398376464844, 2.6436333656311035
169,440157239,0.76761615,-0.13764176,-0.62365866,0.053574767,7.220100402832031,-6.498924255371094,-27.915185928344727,-74.6821517944336,188.8159637451172, 18.752595901489258
170,440173906,0.772542,-0.14709564,-0.6157306,0.04917029,2.251901149749756,0.9181442856788635,-28.675832748413086,-61.658016204833984,69.23133087158203, 24.071277618408203
171,440190573,0.766427,-0.1564211,-0.6212187,0.04700588,0.19587789475917816,1.5330674648284912,-28.14081382751465,-66.76446533203125,-49.42321014404297, 25.671825408935547
172,440207240,0.7518966,-0.1549362,-0.63841087,0.055479437,4.1320648193359375,2.687386989593506,-24.474958419799805,23.27121353149414,-160.40406799316406, 25.768775939941406
173,440223907,0.7269273,-0.15929063,-0.66484636,0.06467409,8.5874662399292,-14.845200538635254,-29.36591339111328,-17.95635414123535,-251.1931915283203, 49.42876434326172
174,440240574,0.6965102,-0.15264644,-0.69419914,0.09828658,25.573734283447266,-12.763679504394531,-0.6442363262176514,142.1787567138672,-320.7530212402344, 119.6119384765625
175,440257241,0.66628975,-0.15096216,-0.72147244,0.112897955,19.223161697387695,21.652040481567383,-0.8300132751464844,29.403575897216797,-286.5103759765625, 53.841957092285156
176,440273908,0.6343773,-0.15293804,-0.747915,0.12164996,13.742409706115723,-1.2318923473358154,-13.731017112731934,-17.437641143798828,-282.25384521484375, 48.71935272216797
177,440290575,0.6116813,-0.14701423,-0.76474965,0.13925144,10.536463737487793,0.25584876537323,-6.690647125244141,80.64618682861328,-208.23927307128906, 49.11308288574219
178,440307242,0.5919087,-0.15101266,-0.77831435,0.14514208,12.393823623657227,-4.546724319458008,-5.505443572998047,-16.355674743652344,-157.59217834472656, 52.60474395751953
179,440323909,0.5739119,-0.15699029,-0.7906494,0.14440583,12.004828453063965,-4.191620826721191,-4.649789333343506,-56.6706428527832,-134.2057647705078, 35.732810974121094
180,440340576,0.5589916,-0.16058114,-0.8008673,0.14266628,10.556183815002441,-8.218111991882324,-6.612020015716553,-47.20648193359375,-110.4603500366211, 18.085357666015625
181,440357243,0.5474891,-0.15986949,-0.80922294,0.14091116,11.979120254516602,-8.153285026550293,-7.2468695640563965,-25.149301528930664,-88.6155776977539, -7.137091636657715
182,440373910,0.538221,-0.15745348,-0.8164789,0.13743658,16.24580955505371,-8.373637199401855,-4.679754734039307,-24.816875457763672,-71.7384033203125, -24.184139251708984
183,440390577,0.5290232,-0.15306772,-0.824074,0.13269073,20.988431930541992,-7.425266265869141,-1.9998853206634521,-25.045026779174805,-73.24766540527344, -40.42702102661133
184,440407244,0.51779336,-0.14767736,-0.83311915,0.12646823,22.946292877197266,-4.975708484649658,0.36528855562210083,-33.411895751953125,-89.8174057006836, -51.074161529541016
185,440423911,0.50514174,-0.14349797,-0.84268564,0.118832864,20.74123191833496,-0.873031497001648,3.8391647338867188,-47.896366119384766,-97.94245910644531, -48.23257827758789
186,440440578,0.49198633,-0.14416936,-0.8520408,0.10578866,18.9007511138916,-0.19270676374435425,6.868240833282471,-96.53897857666016,-91.60025787353516, -37.92425537109375
187,440457245,0.4786163,-0.14770241,-0.8609509,0.08873727,15.2451171875,-3.1163835525512695,9.929569244384766,-129.72142028808594,-86.21703338623047, -33.770347595214844
188,440473912,0.46425888,-0.1509459,-0.8697184,0.07259005,11.396811485290527,-4.467822551727295,10.269150733947754,-124.55622100830078,-93.67031860351562, -31.665624618530273
189,440490579,0.4477961,-0.15191372,-0.87909925,0.059879366,12.864131927490234,-3.5393283367156982,9.258759498596191,-99.46875,-113.79580688476562, -33.970088958740234
190,440507246,0.42400166,-0.15039137,-0.89149696,0.05327806,11.557263374328613,-6.9028239250183105,5.780923843383789,-63.937442779541016,-175.67962646484375, -30.408742904663086
191,440523913,0.39330992,-0.14511518,-0.9062078,0.05510464,11.69383430480957,-4.62374210357666,-2.4706621170043945,-9.50627613067627,-235.46121215820312, -28.952653884887695
192,440540580,0.35839972,-0.14493096,-0.92060775,0.055011414,22.146671295166016,-5.229660987854004,3.6597981452941895,-39.3757438659668,-257.3992919921875, -0.6367301940917969
193,440557247,0.32762647,-0.13998388,-0.93221754,0.06352832,13.34329891204834,0.015515260398387909,13.907327651977539,31.906904220581055,-235.71047973632812, -8.379958152770996
194,440573914,0.30091575,-0.14106286,-0.94140995,0.0574303,12.267111778259277,1.35176420211792,11.894708633422852,-70.46018981933594,-188.5332794189453, -2.0655112266540527
195,440590581,0.2801242,-0.14649813,-0.9477616,0.04262406,13.455168724060059,-6.237689018249512,9.403721809387207,-129.00230407714844,-135.089599609375, 8.526768684387207
196,440607248,0.26898795,-0.14886712,-0.9509322,0.03481837,15.30918025970459,-9.083582878112793,6.5926971435546875,-67.13841247558594,-74.8577880859375, 2.1528818607330322
197,440623915,0.26885155,-0.1456972,-0.9512805,0.03945552,12.485321044921875,-4.5145344734191895,3.783606767654419,35.9709358215332,-12.62304401397705, -10.988689422607422
198,440640582,0.27877393,-0.14334702,-0.9487244,0.04072659,10.179930686950684,-2.1560897827148438,3.6942763328552246,23.098642349243164,61.51539611816406, -11.664641380310059
199,440657249,0.2992261,-0.14263335,-0.9426201,0.039834786,8.835343360900879,-5.2624592781066895,1.3028208017349243,17.099882125854492,139.10504150390625, -4.55480432510376
200,440673916,0.32984647,-0.1418479,-0.93240565,0.041235425,7.691382884979248,-5.512683391571045,-2.2316558361053467,42.954593658447266,210.86798095703125, 0.8717871904373169
201,440690583,0.3697076,-0.14192854,-0.9173469,0.04058767,7.962469577789307,-4.752311706542969,-4.2313456535339355,38.01120376586914,283.216796875, 3.7852954864501953
202,440707250,0.4166723,-0.1435829,-0.89683974,0.038037516,8.350010871887207,-4.803940773010254,-4.366084098815918,30.276535034179688,344.1474609375, 12.089207649230957
203,440723917,0.46895602,-0.14708808,-0.8701811,0.03508079,9.227370262145996,-2.815711259841919,-4.627398490905762,29.145198822021484,395.48553466796875, 26.85140609741211
204,440740584,0.5244563,-0.1548464,-0.8367176,0.02952965,8.488008499145508,-0.5063319206237793,-5.632066249847412,4.655340671539307,440.40399169921875, 49.90433883666992
205,440757251,0.5804427,-0.16692188,-0.7967118,0.021760646,9.850933074951172,1.3191297054290771,-6.662306785583496,-21.9395809173584,470.240234375, 73.49580383300781
206,440773918,0.63641465,-0.17800839,-0.7502988,0.018478667,15.194791793823242,0.024752555415034294,-11.248333930969238,7.472540378570557,490.7274169921875, 93.31807708740234
207,440790585,0.6892532,-0.17885268,-0.70172644,0.022844084,21.79560089111328,-1.9213289022445679,-18.67650604248047,88.21443939208984,473.7922058105469, 77.03713989257812
208,440807252,0.73594904,-0.16300239,-0.65613294,0.03604427,22.115646362304688,-4.465024471282959,-25.414295196533203,202.12887573242188,417.3935546875, 35.876502990722656
209,440823919,0.7707074,-0.14446466,-0.6188847,0.046063997,18.482650756835938,0.27263903617858887,-26.586456298828125,186.1656036376953,325.4626159667969, 1.4455865621566772
210,440840586,0.7898682,-0.14273052,-0.5946783,0.045761395,10.092026710510254,-4.148989200592041,-29.425878524780273,33.7887077331543,206.9699249267578, 10.51063346862793
211,440857253,0.79547995,-0.1432732,-0.5868568,0.047789846,1.9791836738586426,0.21406932175159454,-29.966211318969727,12.929540634155273,62.60187911987305, 20.57264518737793
212,440873920,0.79090077,-0.14219992,-0.5929939,0.05112083,1.6706664562225342,1.2394756078720093,-26.94549560546875,12.810681343078613,-55.20658874511719, 10.764920234680176
213,440890587,0.7792911,-0.13273108,-0.609135,0.06357957,3.019832134246826,0.5772719383239746,-19.35245132446289,85.65228271484375,-148.9684295654297, 18.84579086303711
214,440907254,0.76318616,-0.1184051,-0.62994146,0.08185824,6.234521389007568,0.07063224911689758,-14.185660362243652,130.1715850830078,-199.53225708007812, 27.29117202758789
215,440923921,0.7429291,-0.10753334,-0.6525941,0.10302359,9.002037048339844,-10.349690437316895,-11.651062965393066,120.29850006103516,-227.2406768798828, 58.1119384765625
216,440940588,0.7181185,-0.11495554,-0.67623854,0.117441796,27.918350219726562,-4.363420486450195,2.0927343368530273,-7.33558988571167,-234.63412475585938, 107.8068618774414
217,440957255,0.68754053,-0.11347506,-0.703831,0.13796179,27.781265258789062,-2.096496820449829,-3.935778856277466,57.225887298583984,-293.3802490234375, 98.17442321777344
218,440973922,0.6560125,-0.106531836,-0.7304437,0.15732364,13.996308326721191,12.153292655944824,-7.066016674041748,77.64433288574219,-297.8373107910156, 68.0458755493164
219,440990589,0.62804705,-0.10658911,-0.75212866,0.16881408,5.598786354064941,-4.848270416259766,-10.981752395629883,14.516114234924316,-244.48484802246094, 67.83567810058594
220,441007256,0.60724837,-0.11261949,-0.76691306,0.1743871,8.112335205078125,-7.270148277282715,-7.711916923522949,-28.579561233520508,-166.36463928222656, 69.70733642578125
221,441023923,0.59070903,-0.11838081,-0.7784827,0.17610662,13.086053848266602,-7.681112766265869,-6.516211032867432,-40.66655349731445,-127.98218536376953, 49.42038345336914
222,441040590,0.5787371,-0.11946153,-0.7869669,0.17741388,14.39310073852539,-7.153907299041748,-5.603610038757324,-17.054353713989258,-96.30475616455078, 19.725513458251953
223,441057257,0.5697226,-0.120755285,-0.7939574,0.17454506,14.57735824584961,-5.2685723304748535,-6.613824844360352,-37.79978561401367,-70.25657653808594, 2.241629123687744
224,441073924,0.5629524,-0.12094765,-0.7999183,0.16907732,16.68682098388672,-6.659064769744873,-5.815400123596191,-42.63608169555664,-54.19521713256836, -16.282869338989258
225,441090591,0.55615485,-0.1236914,-0.8064946,0.15798447,21.342565536499023,-6.045762062072754,-1.3952676057815552,-84.27461242675781,-49.2708625793457, -24.48414421081543
226,441107258,0.5488393,-0.12837987,-0.8136162,0.1425578,22.033021926879883,-5.059297561645508,1.6301305294036865,-116.88456726074219,-48.706668853759766, -30.11158561706543
227,441123925,0.5406018,-0.13423292,-0.8210154,0.12515981,18.18669319152832,-1.7212517261505127,3.4425110816955566,-133.49781799316406,-52.32242202758789, -30.317731857299805
228,441140592,0.53219754,-0.14156032,-0.8282273,0.10376008,15.133766174316406,-1.4120570421218872,6.992239952087402,-161.6405487060547,-47.863059997558594, -36.496490478515625
229,441157259,0.522562,-0.14939715,-0.83548594,0.081072025,9.992085456848145,-4.504877090454102,6.365843772888184,-172.15052795410156,-53.68062210083008, -37.46082305908203
230,441173926,0.511466,-0.15597871,-0.842681,0.062942766,7.784148216247559,-4.67725944519043,6.628942012786865,-142.98678588867188,-67.3887710571289, -27.47412109375
231,441190593,0.498119,-0.16173893,-0.8505641,0.04752795,9.489752769470215,-4.380744457244873,6.574460983276367,-127.1441650390625,-86.24247741699219, -22.52109718322754
232,441207260,0.47721353,-0.1643294,-0.86248606,0.03716132,8.110993385314941,-4.012921333312988,3.6817896366119385,-96.54183959960938,-151.04876708984375, -25.844091415405273
233,441223927,0.44791752,-0.16960956,-0.8776004,0.020498838,8.310970306396484,-4.4710845947265625,0.5709083080291748,-153.0497589111328,-203.56277465820312, -32.06651306152344
234,441240594,0.4142404,-0.17761694,-0.89264506,0.0064807413,17.2806453704834,-8.274887084960938,2.3856513500213623,-150.62130737304688,-232.51600646972656, -6.810915946960449
235,441257261,0.38298693,-0.17802712,-0.90643257,0.0027425424,11.704187393188477,-2.7802224159240723,10.53902816772461,-62.91093444824219,-227.0421600341797, -22.785419464111328
236,441273928,0.35335246,-0.17948054,-0.91809285,-0.0058815456,11.342070579528809,0.1541258692741394,12.68157958984375,-94.1156997680664,-205.47146606445312, -26.582603454589844
237,441290595,0.32759163,-0.1835485,-0.92663586,-0.018435782,12.160934448242188,-6.69964599609375,10.222322463989258,-120.6220703125,-168.81654357910156, -15.618102073669434
238,441307262,0.31015542,-0.1839228,-0.93248516,-0.021157546,15.295770645141602,-9.531633377075195,7.581701278686523,-39.53609085083008,-121.73241424560547, -12.587056159973145
239,441323929,0.30253616,-0.17928982,-0.9360499,-0.011734604,15.383251190185547,-6.687036991119385,5.0159783363342285,61.01836395263672,-68.64569091796875, -14.50066089630127
240,441340596,0.30389494,-0.17419331,-0.9366451,-0.0008158712,13.26063346862793,-3.4691219329833984,4.959440231323242,82.4005126953125,-6.569177627563477, -9.976505279541016
241,441357263,0.31420374,-0.17115228,-0.93377405,0.007005723,11.440457344055176,-5.753427505493164,3.210052251815796,68.8534164428711,61.96049880981445, 1.01604163646698
242,441373930,0.3344516,-0.16853403,-0.9270865,0.015786784,9.813563346862793,-6.235176086425781,-0.17675086855888367,85.95803833007812,132.8975067138672, 9.821247100830078
243,441390597,0.36373597,-0.16656454,-0.91622794,0.0218896,8.948223114013672,-5.692061901092529,-3.1007189750671387,78.30110168457031,203.30247497558594, 11.643994331359863
244,441407264,0.4013192,-0.16527918,-0.9005484,0.02526863,9.42668342590332,-5.861985206604004,-3.212080955505371,69.65811157226562,270.94305419921875, 13.398537635803223
245,441423931,0.4452076,-0.1640191,-0.8798174,0.028452316,9.599006652832031,-6.088183879852295,-3.849944591522217,76.42584228515625,324.2381896972656, 17.639333724975586
246,441440598,0.493426,-0.16316922,-0.8536933,0.03338518,10.608003616333008,-5.634976863861084,-4.597139835357666,91.70589447021484,365.14910888671875, 30.68752098083496
247,441457265,0.5448875,-0.16396926,-0.8213921,0.039072882,12.264680862426758,-4.179935455322266,-6.055582046508789,95.61579895019531,404.7891540527344, 49.106685638427734
248,441473932,0.5975779,-0.1664333,-0.7830133,0.04572427,11.973875999450684,-2.463961362838745,-7.2235918045043945,97.87833404541016,433.9814453125, 68.6398696899414
249,441490599,0.64936274,-0.16831394,-0.73961335,0.054503787,15.265917778015137,-0.3196184039115906,-9.853607177734375,112.32543182373047,447.23675537109375, 80.28937530517578
250,441507266,0.6976672,-0.16549972,-0.69429404,0.061857495,19.23042869567871,1.4395743608474731,-15.119543075561523,122.78535461425781,438.08404541015625, 53.58892822265625
251,441523933,0.738551,-0.16002446,-0.6517158,0.06481837,18.416757583618164,-0.9033000469207764,-21.595897674560547,105.01377868652344,393.44976806640625, 19.89258575439453
252,441540600,0.7684414,-0.157753,-0.6171185,0.06145475,14.861912727355957,-1.9275498390197754,-25.01670265197754,44.798519134521484,312.16302490234375, -1.7131041288375854
253,441557267,0.78687245,-0.15918283,-0.59328485,0.05920994,9.444687843322754,-2.2243478298187256,-27.606748580932617,13.09399700164795,207.20785522460938, 13.102566719055176
254,441573934,0.79407716,-0.15911998,-0.5835588,0.059847236,4.175694465637207,4.514597415924072,-28.352312088012695,14.992834091186523,81.56541442871094, 11.749046325683594
255,441590601,0.7920902,-0.15447357,-0.5870398,0.06415225,2.9032788276672363,2.074652910232544,-26.15355110168457,39.32872772216797,-33.07455825805664, 2.7666196823120117
256,441607268,0.78368425,-0.13805994,-0.6003426,0.079797916,4.949948787689209,0.30908697843551636,-22.902448654174805,138.13272094726562,-129.50924682617188, 9.433847427368164
257,441623935,0.7662342,-0.12099775,-0.62271136,0.102349706,7.035271644592285,-13.169833183288574,-27.489688873291016,156.6751708984375,-222.46510314941406, 40.29318618774414
258,441640602,0.7437026,-0.12359563,-0.6468766,0.11481037,29.546945571899414,-0.9357062578201294,8.069552421569824,4.474051475524902,-231.23255920410156, 73.2392807006836
259,441657269,0.71472645,-0.13389659,-0.67539275,0.122811005,24.669689178466797,-0.9907378554344177,-5.80789852142334,-63.69575500488281,-272.4025573730469, 86.16065979003906
260,441673936,0.6837843,-0.12912378,-0.7045337,0.13927843,19.848859786987305,9.811151504516602,-6.683295726776123,47.427459716796875,-305.1336975097656, 58.8885612487793
261,441690603,0.65571165,-0.12539555,-0.7280363,0.15582497,10.406548500061035,-0.5135200619697571,-8.795082092285156,50.89812469482422,-263.7618408203125, 66.6753921508789
262,441707270,0.63359696,-0.12977184,-0.7452152,0.16238475,4.658782005310059,-4.40675163269043,-9.119951248168945,-23.688337326049805,-188.0757293701172, 61.2679443359375
263,441723937,0.61715114,-0.13748276,-0.75725114,0.16368794,9.873473167419434,-11.096721649169922,-5.403906345367432,-54.31858825683594,-128.17507934570312, 53.67073059082031
264,441740604,0.6047127,-0.14223245,-0.7662583,0.16413672,14.14964771270752,-7.245850086212158,-5.573579788208008,-39.01601028442383,-96.99549102783203, 32.91663360595703
265,441757271,0.5940628,-0.14423169,-0.77460045,0.1621133,13.914133071899414,-5.929529666900635,-5.199286460876465,-38.11460494995117,-85.51839447021484, 6.772034645080566
266,441773938,0.5845254,-0.14408167,-0.78247833,0.15905412,14.781608581542969,-5.893033504486084,-3.6045289039611816,-33.244571685791016,-79.09175109863281, -9.679473876953125
267,441790605,0.5742258,-0.1447561,-0.791083,0.1532916,18.3966121673584,-5.2495436668396,-0.7794190645217896,-52.67713928222656,-82.5777359008789, -15.983339309692383
268,441807272,0.5627388,-0.14751779,-0.8006139,0.14346212,18.919940948486328,-5.2273359298706055,0.24046102166175842,-85.23509216308594,-86.53021240234375, -20.321369171142578
269,441823939,0.5507946,-0.1511234,-0.81018835,0.13184063,16.802257537841797,-3.852782964706421,1.6378494501113892,-98.9146728515625,-86.6631088256836, -22.162675857543945
270,441840606,0.53874564,-0.15624745,-0.81944495,0.117685944,13.654045104980469,-1.4459964036941528,2.531233549118042,-118.64012908935547,-82.1417007446289, -22.83091926574707
271,441857273,0.52579975,-0.16228825,-0.8288816,0.1007594,10.74406623840332,-3.0553581714630127,2.7751429080963135,-138.79884338378906,-84.25407409667969, -27.35647964477539
272,441873940,0.5119375,-0.16689147,-0.83840156,0.08455896,9.979360580444336,-5.073938846588135,3.546653985977173,-130.58961486816406,-91.68788146972656, -32.36879348754883
273,441890607,0.496995,-0.16760911,-0.84836036,0.072029546,10.534501075744629,-5.2598395347595215,5.596142768859863,-97.30377960205078,-106.03626251220703, -41.73554992675781
274,441907274,0.48080182,-0.16518801,-0.858702,0.06460247,11.94286060333252,-5.197866439819336,8.189898490905762,-58.51205062866211,-122.19818115234375, -42.451324462890625
275,441923941,0.45896193,-0.15964551,-0.87158716,0.064832754,11.022613525390625,-2.3779213428497314,4.889457702636719,-10.596108436584473,-174.1861572265625, -35.9672966003418
276,441940608,0.42967412,-0.15745917,-0.88730234,0.05728451,11.748308181762695,-2.2180635929107666,0.6137716770172119,-77.2846450805664,-217.8452606201172, -40.191776275634766
277,441957275,0.39561725,-0.16160963,-0.90286493,0.046952367,19.835399627685547,-6.799561977386475,0.8278673887252808,-118.1214828491211,-241.07302856445312, -7.71256160736084
278,441973942,0.3635132,-0.16372445,-0.9162384,0.039495006,13.794384002685547,-2.763619899749756,12.36048412322998,-91.9072265625,-226.96678161621094, -10.743587493896484
279,441990609,0.3341313,-0.17076808,-0.92665553,0.022454167,12.779426574707031,-1.6278411149978638,11.506970405578613,-160.79547119140625,-190.46629333496094, -1.0616995096206665
280,442007276,0.31030893,-0.17934361,-0.93356365,0.0018600159,15.767328262329102,-10.067889213562012,6.320713996887207,-179.91647338867188,-142.70338439941406, 3.781656265258789
281,442023943,0.29701498,-0.18074602,-0.93760747,-0.00231613,17.053861618041992,-9.214154243469238,5.303001403808594,-46.276405334472656,-89.44741821289062, -3.8828072547912598
282,442040610,0.2940709,-0.17930818,-0.9388118,0.0019072829,12.13571548461914,-2.4012396335601807,5.644798755645752,26.410287857055664,-27.435213088989258, -1.3659958839416504
283,442057277,0.2999863,-0.18038608,-0.9367286,0.002982355,9.669135093688965,-3.4137232303619385,3.3976240158081055,11.953022003173828,40.2441291809082, 12.452716827392578
284,442073944,0.31575137,-0.18310623,-0.9309916,0.0052898536,8.302921295166016,-5.1594672203063965,0.6757464408874512,28.772598266601562,109.69742584228516, 29.898176193237305
285,442090611,0.3413887,-0.18515393,-0.921453,0.009813994,7.133576393127441,-4.704497337341309,-1.8849653005599976,56.95951461791992,178.34579467773438, 34.821800231933594
286,442107278,0.37597957,-0.18517421,-0.90780413,0.015549074,6.714609622955322,-4.579986572265625,-3.3985676765441895,81.05467224121094,243.09922790527344, 29.43698501586914
287,442123945,0.41863224,-0.18318065,-0.8891904,0.02307848,7.220016956329346,-4.157589912414551,-4.090908050537109,108.26536560058594,303.8456115722656, 26.951637268066406
288,442140612,0.46664238,-0.18159822,-0.865137,0.028371993,8.345605850219727,-2.5372719764709473,-4.057485103607178,101.03251647949219,355.2380676269531, 29.01668357849121
289,442157279,0.5181369,-0.18298729,-0.8349873,0.029089104,9.828433990478516,-2.286916732788086,-5.02121114730835,69.8241958618164,401.9216003417969, 38.93647003173828
290,442173946,0.5710604,-0.1863483,-0.7990006,0.027614621,10.496062278747559,-0.8792105317115784,-6.464962005615234,53.20021438598633,434.17376708984375, 49.502288818359375
291,442190613,0.62374383,-0.19217794,-0.75719917,0.02570729,14.082415580749512,-0.8467695713043213,-9.404951095581055,41.955196380615234,456.82373046875, 68.87454223632812
292,442207280,0.67372143,-0.19520614,-0.71225375,0.026244612,18.876859664916992,-0.7141245603561401,-12.999353408813477,63.73774719238281,452.57745361328125, 69.4183120727539
293,442223947,0.7178406,-0.19063303,-0.6689262,0.030029884,20.29754638671875,-3.662778377532959,-18.75640106201172,106.77627563476562,410.7134704589844, 46.14265441894531
294,442240614,0.7533704,-0.17816937,-0.63197803,0.03595132,17.19971466064453,0.049913614988327026,-22.352293014526367,143.04476928710938,335.3813781738281, 13.814872741699219
295,442257281,0.7759957,-0.17436206,-0.6051394,0.03513987,12.043764114379883,-1.2051794528961182,-24.760356903076172,50.67734909057617,237.45791625976562, 7.411494731903076
296,442273948,0.78715926,-0.17387639,-0.5906252,0.03618478,5.127277374267578,-2.6309685707092285,-26.92831802368164,24.041240692138672,122.79439544677734, 19.16029930114746
297,442290615,0.78892076,-0.16794743,-0.5894755,0.04377819,2.307060956954956,1.509055733680725,-25.45476531982422,65.62183380126953,3.334963083267212, 18.84989356994629
298,442307282,0.7827113,-0.15860173,-0.5993386,0.054791056,2.1175975799560547,2.9213833808898926,-22.323244094848633,85.5805435180664,-93.48075103759766, 13.237215042114258
299,442323949,0.7712701,-0.14387403,-0.61585486,0.07187228,5.125412464141846,2.4822354316711426,-16.28580665588379,131.42308044433594,-159.33828735351562, 18.428741455078125
300,442340616,0.7536868,-0.13232213,-0.63740027,0.09037771,5.721932888031006,-10.25765323638916,-15.981443405151367,112.10951232910156,-211.76223754882812, 37.47636795043945
301,442357283,0.73311704,-0.12638658,-0.6583298,0.11475082,24.11980438232422,-10.498815536499023,-0.9913128018379211,106.4501724243164,-223.42054748535156, 94.78968811035156
302,442373950,0.7042751,-0.1270536,-0.68532234,0.1348604,28.289554595947266,-2.7864184379577637,-2.622427463531494,41.90076446533203,-282.57708740234375, 104.38410949707031
303,442390617,0.6748417,-0.11381905,-0.71189094,0.15762389,15.034350395202637,13.985260009765625,-6.326766014099121,121.64405822753906,-298.5658264160156, 52.65350341796875
304,442407284,0.6452059,-0.1107052,-0.7364443,0.17059813,12.522088050842285,-0.27715274691581726,-10.32358455657959,28.810148239135742,-271.5495300292969, 58.68413162231445
305,442423951,0.6216993,-0.114629894,-0.7547777,0.17510185,6.982764720916748,-5.014730453491211,-8.763944625854492,-33.307395935058594,-198.15005493164062, 54.29233169555664
306,442440618,0.60456854,-0.118441895,-0.7670986,0.17896391,12.12512493133545,-8.061110496520996,-5.3819756507873535,-23.86884307861328,-138.95916748046875, 47.98708724975586
307,442457285,0.59143,-0.12013977,-0.7766299,0.18061835,12.819619178771973,-8.481987953186035,-6.036863803863525,-20.05351448059082,-107.13247680664062, 24.986026763916016
308,442473952,0.5808243,-0.121996984,-0.78469914,0.17890547,13.572672843933105,-3.1890757083892822,-5.51184606552124,-34.79172897338867,-84.70208740234375, 10.182793617248535
309,442490619,0.5721534,-0.12317967,-0.79184365,0.17450258,13.928943634033203,-7.139225006103516,-6.174421787261963,-43.855770111083984,-69.1752700805664, -5.770716190338135
310,442507286,0.5663316,-0.12145538,-0.79721874,0.17017487,16.603687286376953,-6.325991630554199,-4.668662071228027,-27.496110916137695,-50.27614974975586, -23.22023582458496
311,442523953,0.56077987,-0.123160996,-0.80268234,0.16142699,20.102739334106445,-6.410724639892578,-0.52345871925354,-64.98590087890625,-41.4821662902832, -21.998247146606445
312,442540620,0.5552992,-0.12780116,-0.8082023,0.1487235,19.110532760620117,-4.942524433135986,0.89931720495224,-98.18486785888672,-34.796661376953125, -21.137874603271484
313,442557287,0.54911405,-0.13449651,-0.81419593,0.13217242,17.207216262817383,-2.6578078269958496,2.66444730758667,-128.56646728515625,-35.14677429199219, -24.052200317382812
314,442573954,0.54234636,-0.14116591,-0.82034403,0.11387894,13.339506149291992,-3.5528552532196045,4.939623832702637,-138.94781494140625,-37.524505615234375, -30.331241607666016
315,442590621,0.5344139,-0.1489137,-0.8266336,0.094358936,10.644349098205566,-3.329026222229004,8.137357711791992,-151.18882751464844,-42.713897705078125, -28.019672393798828
316,442607288,0.5241269,-0.15688302,-0.833542,0.07672504,8.687206268310547,-3.3506102561950684,7.499256610870361,-144.16175842285156,-60.304569244384766, -18.923751831054688
317,442623955,0.50997686,-0.16310517,-0.84213716,0.06422992,8.881607055664062,-3.5785467624664307,6.152824878692627,-113.52732849121094,-95.11650085449219, -10.203828811645508
318,442640622,0.48754105,-0.16753955,-0.85501075,0.0564886,8.99875259399414,-3.0211005210876465,3.711266040802002,-90.96827697753906,-164.33958435058594, -5.03737735748291
319,442657289,0.45851094,-0.17044777,-0.8706682,0.051499743,10.136580467224121,-1.5212996006011963,-0.9868466854095459,-78.38591766357422,-216.30947875976562, -5.438911437988281
320,442673956,0.4256381,-0.17392091,-0.8867142,0.048183125,18.139490127563477,-3.290989398956299,1.8788766860961914,-74.80291748046875,-242.36708068847656, 4.124432563781738
321,442690623,0.39455998,-0.17451914,-0.90085286,0.04826627,13.381268501281738,-1.9628338813781738,9.479849815368652,-42.90862274169922,-230.99609375, -1.7560410499572754
322,442707290,0.36418813,-0.1775854,-0.9132872,0.04167823,12.333891868591309,2.0599565505981445,11.771622657775879,-89.5625991821289,-213.350830078125, -2.7465453147888184
323,442723957,0.33561254,-0.18618788,-0.9231372,0.022714874,11.923447608947754,-4.66594934463501,10.371641159057617,-178.23394775390625,-179.09780883789062, 3.6913199424743652
324,442740624,0.3138477,-0.19249976,-0.9297246,0.00746776,15.965259552001953,-10.729316711425781,8.130110740661621,-140.18666076660156,-133.6099395751953, 0.8021485805511475
325,442757291,0.3028223,-0.19068646,-0.93374926,0.0070654484,16.970951080322266,-9.805254936218262,5.422076225280762,-13.533435821533203,-79.6736831665039, -16.310726165771484
326,442773958,0.30143306,-0.18343635,-0.9355557,0.014999445,13.186427116394043,-2.144965410232544,4.252462387084961,63.935707092285156,-24.567052841186523, -31.42881965637207
327,442790625,0.30898732,-0.17720826,-0.9342398,0.017892146,11.417978286743164,-3.7559151649475098,3.7345685958862305,40.974998474121094,45.76360321044922, -32.25706481933594
328,442807292,0.3268462,-0.17127742,-0.92913145,0.023463892,8.617073059082031,-5.987951755523682,1.4620375633239746,70.54032897949219,116.68122863769531, -21.290796279907227
329,442823959,0.35428894,-0.16484334,-0.9199745,0.030873159,7.6555705070495605,-5.814496040344238,-0.5361078977584839,95.29816436767578,184.718505859375, -17.158283233642578
330,442840626,0.3899147,-0.15889686,-0.9062949,0.036717106,7.53781795501709,-6.758542537689209,-2.548496961593628,94.40071105957031,249.376953125, -14.51146125793457
331,442857293,0.4323914,-0.15275706,-0.88761926,0.04283813,7.941671371459961,-7.075104713439941,-2.8880503177642822,105.35604858398438,305.15704345703125, -11.27908992767334
332,442873960,0.48071104,-0.14597772,-0.8632385,0.049262587,9.682239532470703,-5.708179473876953,-3.272975444793701,116.90570831298828,357.3502197265625, -10.0565767288208
333,442890627,0.5329781,-0.14337218,-0.8323498,0.050722472,11.5025053024292,-4.135629177093506,-4.986922264099121,79.79167175292969,408.7803955078125, 3.4578888416290283
334,442907294,0.5870054,-0.14737068,-0.79457426,0.048564285,12.817890167236328,-4.271777153015137,-7.399653434753418,39.01607131958008,450.0916442871094, 34.13679122924805
335,442923961,0.6406448,-0.15646377,-0.7502484,0.047126543,15.098957061767578,-3.9075136184692383,-9.925886154174805,24.206911087036133,475.5501708984375, 71.61312103271484
336,442940628,0.68928325,-0.16561712,-0.703719,0.04732168,18.483978271484375,-4.19962739944458,-14.035685539245605,27.756296157836914,457.839111328125, 83.06851196289062
337,442957295,0.7314531,-0.16609311,-0.6593196,0.051837478,19.39767074584961,-6.396250247955322,-20.68096160888672,81.84922790527344,408.8272705078125, 61.210147857666016
338,442973962,0.76422143,-0.16218802,-0.6217457,0.05561614,15.264131546020508,-0.8199723958969116,-22.812633514404297,87.49267578125,331.35955810546875, 33.17948532104492
339,442990629,0.78465813,-0.16908611,-0.5941898,0.05157592,10.046160697937012,-3.3206801414489746,-24.0915470123291,-20.169261932373047,239.10491943359375, 31.882844924926758
340,443007296,0.7948509,-0.17106421,-0.579622,0.0546597,3.927945375442505,-1.861610770225525,-26.680042266845703,19.107789993286133,117.44652557373047, 38.76980972290039
341,443023963,0.79598886,-0.16650176,-0.5784918,0.06345299,2.529888153076172,4.655850410461426,-24.58426284790039,62.043704986572266,-0.9361218214035034, 31.516490936279297
342,443040630,0.7890398,-0.15672486,-0.58889693,0.07780823,4.906338691711426,3.6329360008239746,-22.16412925720215,98.53006744384766,-104.61896514892578, 31.603811264038086
343,443057297,0.7742438,-0.14155465,-0.60882825,0.09918347,4.840101718902588,-2.9573915004730225,-25.675243377685547,142.7862091064453,-198.3302001953125, 41.81735610961914
344,443073964,0.7529226,-0.11846789,-0.633975,0.13095321,19.97064208984375,-5.011459827423096,-9.601943969726562,218.72341918945312,-268.75244140625, 63.308349609375
345,443090631,0.72658867,-0.11731226,-0.6600028,0.15067604,32.070926666259766,4.274353504180908,2.8505210876464844,47.7851448059082,-265.49456787109375, 100.28596496582031
346,443107298,0.6942031,-0.11301106,-0.6904562,0.16905926,19.147655487060547,2.2339248657226562,-10.90693473815918,47.96697235107422,-317.3624267578125, 82.1559066772461
347,443123965,0.66256875,-0.11064396,-0.71817356,0.18162437,13.803321838378906,3.421283006668091,-7.78306245803833,14.945342063903809,-293.887451171875, 64.85710906982422
348,443140632,0.63636833,-0.11072089,-0.7389479,0.19165665,5.246204853057861,-4.408971309661865,-11.321209907531738,4.160040378570557,-230.40574645996094, 63.920448303222656
349,443157299,0.6171166,-0.11505367,-0.7530608,0.19705188,8.620709419250488,-9.643911361694336,-6.723834037780762,-23.908700942993164,-156.7499542236328, 61.09904861450195
350,443173966,0.6031142,-0.11861839,-0.76316196,0.19941638,13.533309936523438,-7.7884602546691895,-5.581125259399414,-26.763952255249023,-111.1996078491211, 40.244834899902344
351,443190633,0.5917501,-0.12061355,-0.77193856,0.19848284,13.341315269470215,-5.39817476272583,-6.50983190536499,-33.61299514770508,-91.3640365600586, 15.778636932373047
352,443207300,0.5830895,-0.12188579,-0.77917,0.19505107,13.376771926879883,-6.120040416717529,-5.935557842254639,-39.591861724853516,-69.67194366455078, -0.6156535148620605
353,443223967,0.57739,-0.12174562,-0.78464365,0.1900871,14.546640396118164,-6.204933166503906,-5.694721698760986,-37.32254409790039,-47.40519714355469, -16.810012817382812
354,443240634,0.57248336,-0.12393528,-0.7902983,0.17980959,19.030685424804688,-7.347011089324951,-2.8344125747680664,-74.83863830566406,-36.39241027832031, -26.498868942260742
355,443257301,0.56865853,-0.12768291,-0.7952667,0.16695951,20.028711318969727,-7.122375965118408,1.659225344657898,-93.2348403930664,-23.777420043945312, -28.869443893432617
356,443273968,0.5638611,-0.1350658,-0.8008524,0.14984497,18.188398361206055,-3.060168504714966,3.0471179485321045,-132.410888671875,-23.7265567779541, -25.0417423248291
357,443290635,0.5572826,-0.14495498,-0.8073817,0.1286828,14.620259284973145,-2.531018018722534,6.870397567749023,-167.110595703125,-30.996246337890625, -25.899761199951172
358,443307302,0.54821646,-0.15428661,-0.81471765,0.109039545,10.909077644348145,-2.3443093299865723,6.579668045043945,-159.81007385253906,-50.077171325683594, -21.725749969482422
359,443323969,0.53578335,-0.16270576,-0.8233424,0.09257776,8.799755096435547,-0.722843587398529,7.81326961517334,-143.15188598632812,-78.00440979003906, -13.664728164672852
360,443340636,0.5198492,-0.16807817,-0.8336104,0.0812424,8.894250869750977,-1.1599607467651367,7.363603115081787,-107.92160034179688,-111.70001220703125, -11.619312286376953
361,443357303,0.4991923,-0.16966121,-0.84637177,0.07534706,10.18375301361084,-0.2744392454624176,7.1062517166137695,-70.09623718261719,-156.22706604003906, -14.133111000061035
362,443373970,0.4705922,-0.17207074,-0.8629224,0.065572225,9.974287986755371,-0.4065540134906769,2.1533570289611816,-106.78208923339844,-210.6661834716797, -22.936704635620117
363,443390637,0.43610558,-0.17401026,-0.8810465,0.05735476,14.916792869567871,-4.443108558654785,-1.2183151245117188,-103.70816040039062,-252.84756469726562, -19.894655227661133
364,443407304,0.40037027,-0.17702648,-0.89783657,0.047484316,17.471664428710938,-3.9895825386047363,7.532313346862793,-117.94953918457031,-254.10435485839844, -16.262800216674805
365,443423971,0.3671011,-0.17947076,-0.91192365,0.03771261,15.172934532165527,-3.0973925590515137,12.134202003479004,-111.93732452392578,-231.927978515625, -17.046770095825195
366,443440638,0.3364201,-0.1849674,-0.92309505,0.022458639,15.142078399658203,-7.148683547973633,11.770570755004883,-150.13723754882812,-200.98944091796875, -8.833847045898438
367,443457305,0.3143491,-0.18673849,-0.93060493,0.016971517,17.932477951049805,-12.247421264648438,8.680651664733887,-68.09904479980469,-151.04010009765625, -6.597907066345215
368,443473972,0.30382696,-0.18132918,-0.93491906,0.027121754,16.222034454345703,-5.730252742767334,6.85844087600708,62.530704498291016,-91.3335952758789, -16.01763343811035
369,443490639,0.30223894,-0.17724615,-0.9360277,0.032981906,12.559571266174316,-0.993685781955719,6.576372146606445,43.85188293457031,-21.75771141052246, -14.100956916809082
370,443507306,0.3103471,-0.17633112,-0.9335731,0.032142527,10.65725326538086,-4.532590389251709,4.184075832366943,6.763668537139893,56.830055236816406, -5.467132091522217
371,443523973,0.32893032,-0.17598101,-0.9272469,0.032380812,8.306138038635254,-5.3810601234436035,0.5019325017929077,25.980566024780273,131.09393310546875, 2.8268790245056152
372,443540640,0.3569284,-0.17532884,-0.9169706,0.03204261,7.784998416900635,-5.036829471588135,-1.3529679775238037,35.213226318359375,200.69534301757812, 2.2545998096466064
373,443557307,0.39367276,-0.17400154,-0.90207034,0.03184794,7.801314830780029,-5.840574264526367,-2.8576772212982178,49.30760955810547,266.9185791015625, 1.964460015296936
374,443573974,0.4375325,-0.17142117,-0.8820648,0.03379213,8.840267181396484,-5.7745466232299805,-3.3550901412963867,75.57752990722656,322.12158203125, 4.489467620849609
375,443590641,0.48651314,-0.1690784,-0.8564187,0.0355608,10.22115421295166,-4.346742630004883,-4.1043620109558105,81.13375091552734,370.5039978027344, 10.816950798034668
376,443607308,0.53871584,-0.17033371,-0.82438195,0.034151528,11.912569999694824,-3.651319980621338,-5.6447834968566895,55.689788818359375,415.5386962890625, 27.980810165405273
377,443623975,0.59259,-0.17528807,-0.78554016,0.03221951,12.733030319213867,-3.164651393890381,-7.724948883056641,42.5906867980957,451.8336486816406, 54.56605529785156
378,443640642,0.64478743,-0.18100347,-0.741893,0.03289245,14.004690170288086,-3.382960081100464,-9.986568450927734,52.64106369018555,459.5076904296875, 75.43524169921875
379,443657309,0.6945391,-0.1788325,-0.69569147,0.040592566,18.437458038330078,-3.2415931224823,-14.864980697631836,121.09280395507812,447.95440673828125, 70.0743637084961
380,443673976,0.7373672,-0.17081203,-0.651804,0.047587536,19.284198760986328,-3.7442500591278076,-19.590709686279297,136.57650756835938,403.1329650878906, 37.813270568847656
381,443690643,0.7707006,-0.16069214,-0.61425555,0.05374684,16.15574073791504,-1.5775340795516968,-22.410579681396484,130.3391571044922,328.8978576660156, 19.85569190979004
382,443707310,0.79122704,-0.16078667,-0.58758634,0.053382568,10.716269493103027,-2.7810330390930176,-25.171096801757812,30.571022033691406,228.35426330566406, 21.192852020263672
383,443723977,0.8002265,-0.15891318,-0.5752588,0.05883584,2.7205724716186523,-1.9573034048080444,-28.45702362060547,46.90398025512695,96.9017105102539, 33.29126739501953
384,443740644,0.79993296,-0.15059002,-0.57667077,0.06986205,1.4967061281204224,1.4245367050170898,-25.4921817779541,88.86133575439453,-23.82721519470215, 27.187246322631836
385,443757311,0.79243535,-0.13375098,-0.58841765,0.08900327,3.038841485977173,2.2530250549316406,-21.097213745117188,155.5872802734375,-121.47071075439453, 30.820560455322266
386,443773978,0.7783499,-0.11521146,-0.60703295,0.11139519,5.5923027992248535,-2.608076810836792,-20.3795223236084,167.85784912109375,-189.38833618164062, 39.35678482055664
387,443790645,0.75769293,-0.09404096,-0.62991965,0.14233461,12.827738761901855,-10.85727596282959,-16.890405654907227,209.28675842285156,-248.31385803222656, 75.69416046142578
388,443807312,0.7308288,-0.10110949,-0.65607196,0.1588581,35.7722282409668,-5.677728176116943,1.9439688920974731,-7.440518856048584,-255.06910705566406, 126.72000885009766
389,443823979,0.7003014,-0.09216757,-0.6840872,0.18195564,23.176023483276367,6.649048328399658,-7.595552444458008,98.14095306396484,-303.0930480957031, 90.26720428466797
390,443840646,0.6686968,-0.09501824,-0.7125302,0.19004422,14.91736888885498,7.455901145935059,-9.826967239379883,-30.423362731933594,-285.8956298828125, 74.65153503417969
391,443857313,0.6430923,-0.09919886,-0.7334397,0.19661729,6.310967922210693,-2.864208221435547,-7.638356685638428,-30.106595993041992,-219.05519104003906, 71.3866958618164
392,443873980,0.6241855,-0.10488209,-0.7472261,0.20259653,8.664323806762695,-10.287498474121094,-7.3562703132629395,-25.498655319213867,-151.31375122070312, 72.10125732421875
393,443890647,0.6104663,-0.11062232,-0.7573892,0.20360592,11.152194023132324,-9.219734191894531,-5.682512283325195,-42.47768783569336,-105.43302154541016, 46.36299514770508
394,443907314,0.6001613,-0.11486477,-0.7652959,0.20232344,12.351819038391113,-7.325589179992676,-5.979506015777588,-42.381107330322266,-78.55059814453125, 25.838125228881836
395,443923981,0.5918982,-0.1184419,-0.7724255,0.19745094,12.720333099365234,-6.338403701782227,-6.161382675170898,-55.841285705566406,-62.70457458496094, 5.293310165405273
396,443940648,0.5857536,-0.118442096,-0.77826285,0.19279796,14.240033149719238,-6.314799785614014,-5.803851127624512,-36.65170669555664,-51.240440368652344, -14.62181282043457
397,443957315,0.5806347,-0.11977881,-0.7838311,0.18473011,18.126585006713867,-6.2635650634765625,-2.557158946990967,-59.135807037353516,-40.13754653930664, -22.340208053588867
398,443973982,0.5757958,-0.124029376,-0.7894931,0.17255953,19.77211570739746,-5.477666854858398,-0.567962110042572,-92.81428527832031,-31.995481491088867, -23.393762588500977
399,443990649,0.56999665,-0.13012338,-0.79576516,0.15789185,16.77219581604004,-1.880875587463379,1.626294732093811,-115.2663803100586,-35.412635803222656, -22.57883071899414
400,444007316,0.56347775,-0.13712837,-0.8022989,0.14143923,12.965322494506836,-1.607417106628418,3.9569191932678223,-129.5811004638672,-37.916954040527344, -23.949037551879883
401,444023983,0.5553066,-0.143022,-0.80952114,0.12591621,11.48328685760498,-2.738956928253174,5.584811687469482,-122.4369888305664,-51.79563522338867, -25.45319938659668
402,444040650,0.5441704,-0.14859486,-0.8179678,0.11281464,9.647746086120605,-3.5398902893066406,6.290926933288574,-111.7845687866211,-75.78652954101562, -16.596101760864258
403,444057317,0.52978855,-0.15197133,-0.8278037,0.10473777,10.586661338806152,-1.3959499597549438,6.933862686157227,-79.77906799316406,-106.22699737548828, -9.046573638916016
404,444073984,0.5104722,-0.1553177,-0.8399554,0.09884084,10.812712669372559,-0.6301391124725342,6.858229160308838,-74.14812469482422,-145.21873474121094, -0.12211998552083969
405,444090651,0.4843424,-0.15813987,-0.8552538,0.09457901,10.38347053527832,-0.9801141023635864,5.387028217315674,-72.33052062988281,-197.89601135253906, 3.8822824954986572
406,444107318,0.4524557,-0.16120185,-0.8724682,0.08998453,11.123672485351562,-2.774401903152466,0.3603164553642273,-82.63336944580078,-237.78050231933594, 5.856456279754639
407,444123985,0.41788512,-0.16608882,-0.8894693,0.08143223,18.26967430114746,-1.3410155773162842,4.420845031738281,-114.92708587646484,-247.8134765625, 6.379644393920898
408,444140652,0.38503042,-0.17115065,-0.9042167,0.06965262,14.150317192077637,-0.19094333052635193,12.375889778137207,-131.9801025390625,-227.2705841064453, -0.18215060234069824
409,444157319,0.35512295,-0.1792912,-0.91605747,0.050803367,13.585206031799316,-2.497511148452759,11.935776710510254,-179.2930908203125,-191.72311401367188, 2.2687671184539795
410,444173986,0.3316656,-0.18712452,-0.92413086,0.031057248,16.148902893066406,-9.845327377319336,8.583651542663574,-174.9951171875,-141.1417236328125, 0.513786256313324
411,444190653,0.31948784,-0.18738596,-0.9285053,0.026303872,17.266157150268555,-10.18140983581543,6.278751373291016,-47.3033561706543,-82.17080688476562, -11.112349510192871
412,444207320,0.31773975,-0.18432236,-0.9296259,0.02936406,12.282423973083496,-3.6754276752471924,5.821474552154541,23.74723243713379,-19.34186363220215, -12.894021034240723
413,444223987,0.32455844,-0.18303815,-0.9275657,0.027941495,9.92193603515625,-4.285834312438965,4.348838806152344,2.639007568359375,48.236167907714844, -9.002081871032715
414,444240654,0.341017,-0.18201944,-0.92184186,0.028000414,8.577763557434082,-6.540770053863525,1.1797126531600952,24.25627899169922,115.95935821533203, -1.2521003484725952
415,444257321,0.36671162,-0.17932728,-0.9123393,0.03164685,7.691014289855957,-6.042657375335693,-1.393078327178955,63.11379623413086,178.4908905029297, -0.5217069387435913
416,444273988,0.40033242,-0.17526674,-0.89870906,0.036576174,7.821070194244385,-6.625272750854492,-2.8911266326904297,85.215576171875,236.73739624023438, -2.53163743019104
417,444290655,0.44058937,-0.16994159,-0.88040376,0.04347402,8.304322242736816,-6.903982639312744,-3.655391216278076,109.9798812866211,287.9528503417969, -1.0004212856292725
418,444307322,0.4856749,-0.1644544,-0.8570715,0.05003101,9.45270824432373,-6.2088518142700195,-3.6163275241851807,115.50155639648438,332.81060791015625, 1.3702834844589233
419,444323989,0.53475064,-0.16112699,-0.8277573,0.053832583,11.628630638122559,-4.727838516235352,-4.421619415283203,98.58684539794922,380.2218017578125, 10.23248291015625
420,444340656,0.58581424,-0.1636794,-0.7920193,0.052310266,12.801436424255371,-3.897355079650879,-6.325669765472412,51.2113037109375,423.30902099609375, 30.456130981445312
421,444357323,0.63692147,-0.17201112,-0.74990374,0.048865657,14.170148849487305,-2.848374843597412,-8.609539985656738,19.81239891052246,453.6041259765625, 61.29928970336914
422,444373990,0.68341565,-0.18373965,-0.70525473,0.0424109,16.307334899902344,-0.9837472438812256,-11.843799591064453,-15.163928985595703,445.73394775390625, 70.12608337402344
423,444390657,0.72429675,-0.190667,-0.6615065,0.038074393,18.939804077148438,-2.6051697731018066,-17.609987258911133,10.434239387512207,410.3436584472656, 57.28715515136719
424,444407324,0.75649613,-0.19336125,-0.62383986,0.033896215,16.340444564819336,-0.3293227553367615,-20.35267448425293,19.414094924926758,339.46929931640625, 33.13913345336914
425,444423991,0.7787641,-0.19320151,-0.59590554,0.033111915,11.246981620788574,-2.0225327014923096,-25.542884826660156,33.50762939453125,241.3642120361328, 28.008604049682617
426,444440658,0.79061055,-0.18794194,-0.58146566,0.038865224,4.879774570465088,1.527138352394104,-26.5632381439209,70.87644958496094,116.96746826171875, 26.619108200073242
427,444457325,0.7923474,-0.18031777,-0.5807727,0.04873091,2.073153495788574,4.433330059051514,-25.432327270507812,83.6111831665039,-3.7073588371276855, 24.524709701538086
428,444473992,0.7861504,-0.16849166,-0.59116775,0.06402425,2.5830016136169434,2.94970440864563,-22.607858657836914,114.79732513427734,-103.56571960449219, 26.299598693847656
429,444490659,0.7732036,-0.15305038,-0.6097467,0.08331242,5.159615516662598,-0.35147184133529663,-23.676027297973633,139.32093811035156,-181.16505432128906, 26.705997467041016
430,444507326,0.75218225,-0.14353485,-0.63438064,0.105739616,12.676718711853027,-14.12173080444336,-17.06533432006836,109.19027709960938,-246.82615661621094, 66.4496841430664
431,444523993,0.72601634,-0.14336169,-0.6599575,0.12962955,34.5877685546875,-4.9433088302612305,0.06239652633666992,61.628578186035156,-268.5991516113281, 117.36278533935547
432,444540660,0.696816,-0.13101603,-0.68833214,0.15323621,22.589948654174805,15.67597484588623,-5.170687675476074,115.68348693847656,-306.97369384765625, 60.68122482299805
433,444557327,0.66555136,-0.12931941,-0.71564215,0.16785215,15.622926712036133,2.446345806121826,-7.399938583374023,21.443986892700195,-292.3057556152344, 71.40108489990234
434,444573994,0.6393581,-0.13266128,-0.7367036,0.17575568,7.604270935058594,-0.4298819899559021,-8.573751449584961,-22.838930130004883,-226.92495727539062, 65.22147369384766
435,444590661,0.619347,-0.13764024,-0.75172377,0.17993312,6.424530029296875,-11.193894386291504,-7.058671474456787,-35.89814758300781,-163.6356658935547, 55.1536979675293
436,444607328,0.6055501,-0.14166974,-0.76157486,0.18232603,10.802757263183594,-9.600147247314453,-8.107548713684082,-28.811012268066406,-108.9793930053711, 39.70458221435547
437,444623995,0.595268,-0.14458743,-0.7695166,0.18054038,12.605746269226074,-6.736128330230713,-6.735950946807861,-40.25384521484375,-79.94355773925781, 13.868940353393555
438,444640662,0.5877896,-0.14442006,-0.7760894,0.17700696,14.341891288757324,-6.470963001251221,-5.620761871337891,-32.405860900878906,-61.621707916259766, -11.733153343200684
439,444657329,0.58241314,-0.14160156,-0.7816754,0.1724167,16.525646209716797,-5.974705219268799,-5.415004730224609,-24.08000946044922,-48.63656997680664, -31.71919822692871
440,444673996,0.5770849,-0.14088301,-0.787784,0.162854,20.881010055541992,-5.806331634521484,-2.0679643154144287,-59.82819747924805,-43.19312286376953, -40.87510299682617
441,444690663,0.57207566,-0.142986,-0.79367405,0.14955258,20.816143035888672,-4.814014911651611,1.9461541175842285,-90.79054260253906,-33.93630599975586, -40.498416900634766
442,444707330,0.56626385,-0.14773981,-0.7998954,0.13298832,17.359336853027344,-3.6283113956451416,4.7055182456970215,-120.24687194824219,-33.863033294677734, -38.28116989135742
443,444723997,0.55928594,-0.1540174,-0.80650437,0.11414336,13.349313735961914,-2.3520381450653076,6.346765995025635,-140.36595153808594,-38.27714920043945, -38.03574752807617
444,444740664,0.5502524,-0.16196655,-0.81372863,0.09399628,9.494887351989746,-3.607395648956299,7.033820152282715,-156.77394104003906,-49.55503463745117, -32.7585334777832
445,444757331,0.53787214,-0.16690361,-0.8224583,0.07999451,8.163273811340332,-3.568894386291504,6.79152250289917,-115.7929458618164,-82.95030975341797, -25.871580123901367
446,444773998,0.52115744,-0.17091537,-0.83311474,0.07143369,8.959272384643555,-3.803901433944702,6.368314743041992,-87.72393798828125,-121.51033782958984, -10.828847885131836
447,444790665,0.4964156,-0.1714517,-0.8480694,0.07038594,8.786961555480957,-2.698065996170044,3.03818941116333,-43.86088943481445,-193.60475158691406, -4.950380325317383
448,444807332,0.4650308,-0.17214507,-0.86581975,0.06684981,10.913569450378418,-0.2960331439971924,1.5094506740570068,-68.1385269165039,-239.0104522705078, -12.631034851074219
449,444823999,0.43062595,-0.17504393,-0.88329214,0.060959585,16.267574310302734,-3.111477851867676,7.15487003326416,-92.66587829589844,-252.42877197265625, -5.2978010177612305
450,444840666,0.39855662,-0.1761284,-0.89829075,0.056615256,13.13586711883545,-0.6103166937828064,13.53711223602295,-74.12297058105469,-233.76565551757812, -9.735391616821289
451,444857333,0.3702922,-0.17794928,-0.9103169,0.050409444,11.817056655883789,-1.5970665216445923,12.33384895324707,-81.93986511230469,-199.843505859375, -8.15080451965332
452,444874000,0.34765324,-0.17976728,-0.9192066,0.043362144,13.089406967163086,-4.954583644866943,11.170231819152832,-79.30067443847656,-155.84689331054688, -8.418356895446777
453,444890667,0.33287394,-0.18016073,-0.92483854,0.037561744,16.231243133544922,-8.936441421508789,8.77970027923584,-57.43638610839844,-100.57396697998047, -12.775483131408691
454,444907334,0.3277349,-0.17587097,-0.92732817,0.04149495,15.451290130615234,-8.381071090698242,4.253910064697266,27.77457618713379,-45.57844161987305, -18.89462661743164
455,444924001,0.33096075,-0.17039996,-0.9269147,0.047522694,12.552215576171875,-3.242276668548584,3.078059673309326,54.60957717895508,11.258193016052246, -20.581811904907227
456,444940668,0.34211826,-0.16739227,-0.9234499,0.04664245,11.25258731842041,-3.7170920372009277,3.0433290004730225,15.226278305053711,77.53616333007812, -19.600704193115234
457,444957335,0.36227304,-0.1655918,-0.9161395,0.045011893,10.074984550476074,-6.327678203582764,-0.13842466473579407,19.157901763916016,144.87539672851562, -12.166916847229004
458,444974002,0.3914052,-0.16307476,-0.9045052,0.045597516,9.98284912109375,-6.468973636627197,-3.364508867263794,46.39289093017578,209.4337615966797, -9.055291175842285
459,444990669,0.42805701,-0.1612463,-0.88808256,0.04556634,9.86746883392334,-6.540210723876953,-4.296944618225098,50.58009338378906,270.035888671875, -3.4686901569366455
460,445007336,0.47053903,-0.15939532,-0.8665555,0.04762299,10.132183074951172,-6.691210746765137,-3.9304513931274414,71.42304229736328,318.4125061035156, 6.312193870544434
461,445024003,0.5172176,-0.15807754,-0.8395711,0.051167443,10.706295013427734,-5.507104873657227,-4.2806715965271,84.91891479492188,359.7053527832031, 18.848052978515625
462,445040670,0.5665053,-0.15903507,-0.80670613,0.054818638,11.465619087219238,-3.872791290283203,-6.091918468475342,82.34048461914062,396.4729309082031, 37.78398132324219
463,445057337,0.61696017,-0.16425796,-0.76745653,0.058225174,13.12606430053711,-3.576023578643799,-7.833863258361816,68.0685806274414,429.84356689453125, 67.00263977050781
464,445074004,0.6658909,-0.16866225,-0.723903,0.06408441,15.286870002746582,-1.4857151508331299,-10.228276252746582,84.53784942626953,437.11065673828125, 78.53168487548828
465,445090671,0.71079314,-0.16798529,-0.6794886,0.06963852,18.4645938873291,-1.0589549541473389,-14.748333930969238,102.07870483398438,419.2562255859375, 54.61802673339844
466,445107338,0.74825966,-0.16350573,-0.638895,0.07201854,17.238981246948242,-2.6653356552124023,-19.529998779296875,95.52311706542969,367.85394287109375, 20.527835845947266
467,445124005,0.7754946,-0.16110118,-0.6061234,0.072589494,13.358392715454102,-3.5916333198547363,-22.552974700927734,61.64992904663086,285.9677429199219, 16.6561336517334
468,445140672,0.79235727,-0.15758148,-0.58443785,0.07596436,7.691094398498535,-0.45799797773361206,-25.057973861694336,62.42009735107422,180.28695678710938, 19.888259887695312
469,445157339,0.79862994,-0.15562016,-0.575888,0.079534955,2.965339422225952,5.45557975769043,-25.498592376708984,36.54866027832031,67.1373291015625, 18.568193435668945
470,445174006,0.7958313,-0.15314206,-0.5796554,0.08485185,1.198376178741455,2.461483955383301,-25.01800537109375,30.015146255493164,-38.214176177978516, 17.997873306274414
471,445190673,0.7867565,-0.14215483,-0.5927233,0.09739312,4.464597225189209,2.676053047180176,-22.0738525390625,93.49911499023438,-126.37290954589844, 17.513145446777344
472,445207340,0.76797116,-0.13693503,-0.6158529,0.11042818,5.078760623931885,-13.369513511657715,-33.09038162231445,48.240394592285156,-216.73614501953125, 40.381107330322266
473,445224007,0.7395143,-0.15355541,-0.6438192,0.12262293,28.11737823486328,-23.320796966552734,-1.1961596012115479,-83.18512725830078,-265.4873046875, 131.05274963378906
474,445240674,0.7128239,-0.1354311,-0.6704804,0.1549085,28.642545700073242,11.267220497131348,-1.366161823272705,185.52951049804688,-301.5846252441406, 79.02452850341797
475,445257341,0.67987025,-0.1361441,-0.70132416,0.16548693,18.638648986816406,8.43177604675293,-8.751636505126953,-17.17271614074707,-310.6877136230469, 62.455169677734375
476,445274008,0.6525153,-0.13176931,-0.7239552,0.18096837,10.015512466430664,4.3507513999938965,-7.926259994506836,44.97406005859375,-255.59738159179688, 62.29331970214844
477,445290675,0.6300143,-0.13650241,-0.7413716,0.18659449,6.4910173416137695,-8.96568775177002,-7.389532566070557,-33.97385787963867,-187.73236083984375, 62.133399963378906
478,445307342,0.6137178,-0.13991362,-0.753221,0.19087443,10.292491912841797,-10.374094009399414,-6.962796211242676,-22.12078857421875,-132.39361572265625, 46.702449798583984
479,445324009,0.60144854,-0.1436817,-0.7623691,0.1908113,12.528785705566406,-5.88333797454834,-7.322784423828125,-38.70204162597656,-95.48784637451172, 27.445865631103516
480,445340676,0.5919017,-0.14602967,-0.7701246,0.18771213,13.564542770385742,-6.371065616607666,-6.5397725105285645,-44.21538162231445,-74.32604217529297, 5.251606464385986
481,445357343,0.5847249,-0.145169,-0.77674526,0.18354791,14.939129829406738,-6.467618465423584,-5.88256311416626,-32.96475601196289,-60.24624252319336, -17.98427391052246
482,445374010,0.57775354,-0.14400475,-0.78394496,0.17576665,18.45136260986328,-6.4350666999816895,-2.246828317642212,-51.61919403076172,-58.28190994262695, -34.96553039550781
483,445390677,0.57126456,-0.14446963,-0.7910218,0.16452931,19.714200973510742,-6.9094319343566895,0.4128912091255188,-76.16542053222656,-49.899818420410156, -40.323726654052734
484,445407344,0.5644252,-0.14752175,-0.7981797,0.15023685,18.51423454284668,-4.065667152404785,2.1186952590942383,-103.482177734375,-46.30613327026367, -37.87883758544922
485,445424011,0.5572256,-0.15377764,-0.80518913,0.13237368,14.769448280334473,-1.2697503566741943,5.389142036437988,-135.8157501220703,-40.94573211669922, -33.5461311340332
486,445440678,0.5487666,-0.16053656,-0.81250536,0.11365993,11.91817855834961,-2.4298346042633057,6.301025390625,-144.15579223632812,-47.93768310546875, -33.10905075073242
487,445457345,0.53760374,-0.16512553,-0.82091546,0.099064745,8.255404472351074,-3.0921130180358887,5.043882846832275,-116.89461517333984,-73.60799407958984, -28.74601173400879
488,445474012,0.52342695,-0.16666904,-0.8307433,0.090063065,9.116745948791504,-1.7958369255065918,6.487582683563232,-78.53884887695312,-104.43595886230469, -24.82259750366211
489,445490679,0.5047666,-0.16692969,-0.84258544,0.08599589,9.738398551940918,-2.549229860305786,5.820129871368408,-52.197200775146484,-143.92112731933594, -13.923583030700684
490,445507346,0.47869685,-0.16528097,-0.85793406,0.08649149,9.750746726989746,-1.5285724401474,3.514714241027832,-29.784515380859375,-205.56100463867188, -8.8090238571167
491,445524013,0.44753414,-0.16616625,-0.87466943,0.08399612,12.248367309570312,-1.4333640336990356,2.17989444732666,-62.42911148071289,-235.410888671875, -2.257744789123535
492,445540680,0.4150483,-0.16892116,-0.8903721,0.0802383,15.865145683288574,-3.259328603744507,8.839981079101562,-76.71746063232422,-237.8151397705078, 7.047394752502441
493,445557347,0.38541597,-0.16907707,-0.9036285,0.07951791,13.082324028015137,0.29316234588623047,12.314594268798828,-46.127933502197266,-218.56951904296875, 1.0793615579605103
494,445574014,0.3591331,-0.17098193,-0.9146936,0.071586,14.98210334777832,-2.299098491668701,10.768299102783203,-90.54325866699219,-182.86448669433594, -6.418704509735107
495,445590681,0.33943045,-0.17197907,-0.92273927,0.061340924,18.359390258789062,-8.636890411376953,9.30423355102539,-93.70953369140625,-132.00048828125, -17.518354415893555
496,445607348,0.32958466,-0.16819035,-0.9270113,0.06112451,16.665119171142578,-7.809750080108643,7.865612030029297,-5.826056003570557,-74.8000259399414, -24.184791564941406
497,445624015,0.3283882,-0.16394676,-0.92809504,0.062629685,12.857433319091797,-3.1706490516662598,5.711980819702148,17.378250122070312,-14.856983184814453, -23.12693214416504
498,445640682,0.3353267,-0.16289535,-0.92622715,0.055898562,12.266158103942871,-5.549531936645508,4.122316360473633,-32.01007080078125,54.21927261352539, -21.517410278320312
499,445657349,0.35281825,-0.16078787,-0.9202974,0.052147776,10.659372329711914,-6.8871331214904785,1.5156495571136475,2.691033124923706,126.92034149169922, -20.900423049926758
500,445674016,0.3805532,-0.15753217,-0.90981025,0.051072676,10.182530403137207,-5.875751972198486,-1.3518986701965332,35.27107238769531,199.36444091796875, -20.34959602355957
501,445690683,0.41665494,-0.15508579,-0.8943075,0.0506102,9.631298065185547,-6.932890892028809,-2.9507460594177246,47.7445068359375,264.4493103027344, -11.228267669677734
502,445707350,0.45961425,-0.15255651,-0.8732828,0.053464934,10.029949188232422,-6.3599419593811035,-3.229520797729492,77.552734375,318.9221496582031, 1.212293267250061
503,445724017,0.5072672,-0.15159664,-0.8465116,0.055826887,10.232622146606445,-4.665992736816406,-3.6891486644744873,76.6200180053711,366.43023681640625, 13.322291374206543
504,445740684,0.5583619,-0.1534536,-0.8132434,0.057614665,11.340084075927734,-4.225424289703369,-5.530957221984863,69.5113296508789,410.90679931640625, 33.116756439208984
505,445757351,0.61132586,-0.1570804,-0.7733127,0.0599495,12.141732215881348,-2.2795979976654053,-7.386500358581543,70.38511657714844,447.2059631347656, 51.3559455871582
506,445774018,0.66248506,-0.1593003,-0.7291392,0.06397906,13.725045204162598,-2.0180442333221436,-10.548331260681152,85.16207885742188,453.1653137207031, 56.298431396484375
507,445790685,0.71046734,-0.15464334,-0.6829111,0.07038647,18.829416275024414,-1.7124446630477905,-15.63613510131836,125.9324722290039,441.1291809082031, 36.28921890258789
508,445807352,0.7503126,-0.14973359,-0.6399945,0.07083845,19.478652954101562,-4.043634414672852,-18.691253662109375,89.03075408935547,393.1234130859375, 6.457644462585449
509,445824019,0.7801162,-0.14513656,-0.6043788,0.07127641,14.990838050842285,-5.560981750488281,-22.476776123046875,73.58582305908203,311.67242431640625, 5.171133518218994
510,445840686,0.7977757,-0.14336398,-0.581157,0.072506644,7.219529151916504,-2.405560255050659,-26.13245964050293,43.6890869140625,195.64744567871094, 14.749438285827637
511,445857353,0.8043094,-0.1417561,-0.5721199,0.0753038,2.078007459640503,0.8885740041732788,-26.971439361572266,31.187210083007812,72.32678985595703, 15.591029167175293
512,445874020,0.80167556,-0.13376386,-0.5763253,0.08528169,0.09175197780132294,-0.6378031969070435,-25.987079620361328,79.12479400634766,-46.874595642089844, 22.066925048828125
513,445890687,0.7916352,-0.1176665,-0.59060144,0.103239484,4.075996398925781,1.2251579761505127,-21.865875244140625,142.89219665527344,-143.4817657470703, 28.98957061767578
514,445907354,0.7729152,-0.10533924,-0.613631,0.12232315,5.486939907073975,-12.130002975463867,-27.757625579833984,113.86808013916016,-224.33302307128906, 49.49604797363281
515,445924021,0.7464624,-0.10397762,-0.6414168,0.14341211,25.713918685913086,-11.335171699523926,-5.160865783691406,54.66779327392578,-274.125244140625, 109.27184295654297
516,445940688,0.7148743,-0.0995887,-0.6714116,0.16805807,32.84795379638672,1.2622936964035034,-2.894160747528076,80.14276885986328,-313.6188659667969, 117.5506591796875
517,445957355,0.6799817,-0.09740373,-0.70354927,0.1820879,16.70297622680664,14.656421661376953,-6.667941570281982,15.604988098144531,-329.5895080566406, 77.99005126953125
518,445974022,0.64861745,-0.093921855,-0.72870225,0.19866383,9.647415161132812,0.12418588995933533,-9.165955543518066,45.21477508544922,-283.1481018066406, 84.09219360351562
519,445990689,0.62364984,-0.09966888,-0.74758214,0.20554307,4.465201377868652,-7.081303119659424,-10.40011215209961,-31.745193481445312,-204.1759490966797, 82.36837005615234
520,446007356,0.6050415,-0.10624381,-0.7606281,0.20995781,11.063824653625488,-9.554097175598145,-5.967728137969971,-35.29697799682617,-143.54296875, 70.9474105834961
521,446024023,0.59071857,-0.11052398,-0.77077746,0.21151476,13.505579948425293,-7.388707160949707,-6.338392734527588,-33.389060974121094,-110.32962036132812, 42.907066345214844
522,446040690,0.578749,-0.11358504,-0.78000546,0.20914039,13.480508804321289,-6.667117118835449,-5.78009557723999,-46.151329040527344,-92.93087768554688, 17.742341995239258
523,446057357,0.5687809,-0.113288574,-0.78827834,0.20560005,13.97709846496582,-8.385015487670898,-5.532292366027832,-36.131038665771484,-82.34992218017578, -7.032052993774414
524,446074024,0.5603332,-0.112258874,-0.7959023,0.19991092,18.053924560546875,-6.9461846351623535,-3.0211739540100098,-42.857479095458984,-70.97342681884766, -21.06438636779785
525,446090691,0.5524096,-0.11483566,-0.80357647,0.18952966,18.874713897705078,-5.800108432769775,-1.3287882804870605,-82.16357421875,-59.8143310546875, -20.115182876586914
526,446107358,0.5443944,-0.1202359,-0.81140316,0.17550793,18.038921356201172,-3.960327386856079,0.3319031000137329,-113.34626770019531,-54.47477722167969, -18.2642765045166
527,446124025,0.5369166,-0.12725516,-0.8187266,0.15878741,15.99677848815918,-2.006775379180908,3.292787551879883,-133.4892120361328,-45.560096740722656, -19.466630935668945
528,446140692,0.52901953,-0.13504319,-0.8261106,0.13943848,12.742090225219727,-3.003293752670288,4.755664348602295,-151.64312744140625,-45.19249725341797, -24.332632064819336
529,446157359,0.5195174,-0.14090861,-0.8337665,0.1228001,9.456262588500977,-3.6493093967437744,5.667588233947754,-131.10015869140625,-59.843379974365234, -24.050336837768555
530,446174026,0.5070953,-0.14307193,-0.84245956,0.112458,8.53233814239502,-2.5239717960357666,5.35052490234375,-85.58894348144531,-89.68588256835938, -21.311376571655273
531,446190693,0.49179572,-0.14172685,-0.8523346,0.10759371,10.935765266418457,-2.1470460891723633,6.991940021514893,-45.455692291259766,-118.73400115966797, -21.4691162109375
532,446207360,0.46990928,-0.13727957,-0.86523366,0.10821496,10.737113952636719,0.4463786482810974,4.114150047302246,-11.561387062072754,-175.40530395507812, -19.163715362548828
533,446224027,0.44057235,-0.13583902,-0.881306,0.10365308,11.736626625061035,-1.1428667306900024,0.48692750930786133,-61.538700103759766,-223.0287628173828, -15.44541072845459
534,446240694,0.4082224,-0.13589633,-0.8969777,0.10157574,19.434118270874023,-3.9624767303466797,4.948647499084473,-53.56565856933594,-241.45877075195312, 3.692168951034546
535,446257361,0.37842828,-0.13409413,-0.9100005,0.10348928,13.926753044128418,-1.2797235250473022,12.5372314453125,-19.576032638549805,-223.53521728515625, 4.144876480102539
536,446274028,0.35099977,-0.13736024,-0.9213538,0.095071785,14.153843879699707,-1.751527190208435,11.850854873657227,-94.14022827148438,-191.5417022705078, 8.869587898254395
537,446290695,0.32959035,-0.1417954,-0.9295932,0.08438574,17.54302978515625,-10.005138397216797,7.702795028686523,-103.70518493652344,-143.26072692871094, 9.830517768859863
538,446307362,0.31831035,-0.1410318,-0.93347687,0.08607892,16.843013763427734,-7.209954261779785,6.9261794090271,-0.589977502822876,-83.99046325683594, 3.014106512069702
539,446324029,0.316118,-0.14086583,-0.934106,0.08759127,11.02617073059082,-0.8847242593765259,6.830930233001709,7.5282816886901855,-18.25682258605957, 4.255203723907471
540,446340696,0.32282954,-0.14536944,-0.93187755,0.07907859,10.213221549987793,-3.115090847015381,5.343842506408691,-56.71946334838867,57.494346618652344, 9.886829376220703
541,446357363,0.34003234,-0.15124463,-0.9255203,0.070109636,9.752889633178711,-6.085171222686768,1.3388938903808594,-50.050804138183594,134.9474639892578, 16.06465721130371
542,446374030,0.36766025,-0.15549949,-0.91455835,0.06503092,9.684293746948242,-5.395094394683838,-0.7971063852310181,-8.561542510986328,207.16009521484375, 14.556063652038574
543,446390697,0.40454715,-0.15895878,-0.8984337,0.062376544,9.380807876586914,-5.666507244110107,-1.1771929264068604,20.812049865722656,275.472900390625, 17.010892868041992
544,446407364,0.44882944,-0.16085157,-0.8766257,0.06485707,10.105009078979492,-5.781860828399658,-1.7876001596450806,67.33717346191406,330.7058410644531, 24.60132598876953
545,446424031,0.49812686,-0.16284214,-0.8488627,0.06916824,11.375075340270996,-4.423898696899414,-2.518430233001709,86.2116928100586,377.3768005371094, 35.131141662597656
546,446440698,0.5506081,-0.16696778,-0.814704,0.072182,13.738698959350586,-3.1585869789123535,-3.7084882259368896,77.88433074951172,420.40216064453125, 48.74937438964844
547,446457365,0.6047168,-0.17233954,-0.7740193,0.07423566,14.55396842956543,-0.5293431282043457,-5.551597595214844,72.88134002685547,456.0382385253906, 58.74371337890625
548,446474032,0.6571151,-0.18043672,-0.72828454,0.07241598,17.73517608642578,1.0240672826766968,-7.546031475067139,41.492919921875,474.0207214355469, 63.990875244140625
549,446490699,0.70527166,-0.18657234,-0.6805754,0.067822605,21.114465713500977,1.462839126586914,-13.12409496307373,32.24264144897461,464.25811767578125, 46.21107482910156
550,446507366,0.74545443,-0.18992531,-0.6360735,0.060305372,20.103530883789062,-0.878049910068512,-19.548873901367188,20.44493865966797,413.9741516113281, 18.678756713867188
551,446524033,0.7761306,-0.18715033,-0.5994144,0.057431657,14.486757278442383,-4.896727561950684,-26.6591739654541,56.66558074951172,323.8459777832031, 9.458312034606934
552,446540700,0.7957718,-0.17778286,-0.57550037,0.062769525,7.732973575592041,0.7750540971755981,-29.78252601623535,106.67743682861328,197.5984344482422, 14.095436096191406
553,446557367,0.8025035,-0.16946499,-0.56773245,0.070354395,2.277301073074341,1.4851783514022827,-31.44287872314453,87.29573822021484,56.376312255859375, 16.46454429626465
554,446574034,0.79951227,-0.15436184,-0.57415134,0.08545809,0.26436927914619446,1.2755987644195557,-29.884538650512695,136.14328002929688,-71.38878631591797, 19.6851863861084
555,446590701,0.7892547,-0.13413626,-0.5898963,0.10538964,4.356438159942627,3.2583959102630615,-24.311805725097656,170.43124389648438,-159.02462768554688, 20.362226486206055
556,446607368,0.77000505,-0.12538572,-0.6134327,0.12276388,4.844116687774658,-16.421955108642578,-26.21747589111328,84.05397033691406,-226.72952270507812, 52.3720588684082
557,446624035,0.74415797,-0.13886425,-0.63921654,0.13545428,28.6691951751709,-15.531692504882812,0.9519389867782593,-60.723819732666016,-243.27516174316406, 124.68901062011719
558,446640702,0.71556115,-0.13071409,-0.6672908,0.16002925,30.451173782348633,3.6425092220306396,-3.388631820678711,97.52930450439453,-298.60870361328125, 90.6553726196289
559,446657369,0.68392485,-0.127513,-0.69725585,0.17268969,18.939380645751953,11.567517280578613,-8.494272232055664,13.790812492370605,-305.6596984863281, 56.52812957763672
560,446674036,0.6568141,-0.12491565,-0.72023845,0.18506213,7.575710773468018,1.7566677331924438,-7.6068854331970215,22.000965118408203,-250.0472412109375, 59.02683639526367
561,446690703,0.63570386,-0.12941884,-0.7366636,0.19094062,6.387237071990967,-10.18010425567627,-8.204010963439941,-28.612686157226562,-176.0292205810547, 62.849517822265625
562,446707370,0.6212638,-0.13419865,-0.7473098,0.19377948,12.18919563293457,-8.25246810913086,-6.6337151527404785,-31.63809585571289,-113.84671783447266, 47.18650817871094
563,446724037,0.61111605,-0.13920441,-0.7550739,0.19241332,13.311247825622559,-6.335781097412109,-7.1640167236328125,-46.37491989135742,-75.28372955322266, 27.27225685119629
564,446740704,0.6046665,-0.14445327,-0.7605864,0.1871367,14.042717933654785,-6.188469886779785,-6.910815715789795,-61.14474868774414,-42.53973388671875, 9.38011360168457
565,446757371,0.601085,-0.14508012,-0.76457113,0.1818786,14.638991355895996,-6.027431964874268,-6.033837795257568,-37.00372314453125,-27.13894271850586, -16.85453987121582
566,446774038,0.59820724,-0.14402619,-0.7688175,0.17413902,18.011442184448242,-7.243544578552246,-2.639981269836426,-42.73514175415039,-24.142995834350586, -37.05084228515625
567,446790705,0.5946949,-0.1437107,-0.7739276,0.16346659,21.579269409179688,-6.811501502990723,1.3798720836639404,-63.001548767089844,-27.32185935974121, -45.258155822753906
568,446807372,0.5898563,-0.14527315,-0.7797451,0.15153536,18.786561965942383,-2.4480061531066895,4.769505500793457,-79.58892059326172,-34.06620788574219, -39.53752517700195
569,446824039,0.5829436,-0.14974433,-0.7868367,0.13653395,15.22379207611084,-0.001216016709804535,6.537927627563477,-111.34578704833984,-44.464759826660156, -35.379886627197266
570,446840706,0.5731867,-0.15459815,-0.7955611,0.1209929,10.25153923034668,-2.0652027130126953,7.072055339813232,-120.35596466064453,-65.71419525146484, -34.3532600402832
571,446857373,0.56024534,-0.15709631,-0.80572176,0.11071724,7.580413341522217,-3.4826958179473877,7.068778991699219,-86.95471954345703,-96.56685638427734, -25.32666015625
572,446874040,0.54537445,-0.15878034,-0.81628513,0.105043255,9.337191581726074,-1.6585774421691895,7.000537395477295,-60.831626892089844,-114.597900390625, -11.099618911743164
573,446890707,0.52320415,-0.15947765,-0.8309478,0.10173583,9.050180435180664,-1.1352241039276123,3.5987443923950195,-54.8623161315918,-174.46182250976562, -6.969026565551758
574,446907374,0.4956085,-0.1588268,-0.8481145,0.09923857,10.166414260864258,0.44572684168815613,1.9754464626312256,-53.128108978271484,-216.47171020507812, -10.719491004943848
575,446924041,0.46309638,-0.1628216,-0.86662173,0.089430265,14.3687744140625,-2.313469171524048,1.0709080696105957,-117.89147186279297,-238.73184204101562, -6.642059803009033
576,446940708,0.42968783,-0.16827504,-0.88375854,0.07760726,14.572530746459961,-1.650046944618225,6.983334064483643,-134.74362182617188,-236.75424194335938, -2.283341884613037
577,446957375,0.39770022,-0.17484456,-0.898733,0.05952479,12.07635498046875,1.8582876920700073,11.518316268920898,-173.35879516601562,-214.19351196289062, -12.25478744506836
578,446974042,0.36765704,-0.18571535,-0.9106763,0.031730644,10.244516372680664,-2.463106632232666,10.237902641296387,-241.632568359375,-180.80255126953125, -9.371842384338379
579,446990709,0.34333512,-0.19571596,-0.91857225,0.0064605745,12.269128799438477,-8.325063705444336,8.812410354614258,-215.51889038085938,-138.43226623535156, -4.581737518310547
580,447007376,0.32980388,-0.19732091,-0.9231906,-0.0036017378,16.84320640563965,-12.403800010681152,6.19187068939209,-85.14556121826172,-83.63984680175781, -17.875686645507812
581,447024043,0.3291911,-0.18868814,-0.9251931,0.0069159945,14.954093933105469,-7.860837936401367,4.90677547454834,85.90280151367188,-23.673442840576172, -32.39561080932617
582,447040710,0.33825293,-0.17821261,-0.9237773,0.021469178,10.816825866699219,-5.787075042724609,5.035190582275391,128.2980194091797,40.04860305786133, -30.996362686157227
583,447057377,0.35661477,-0.16763154,-0.9182723,0.038752373,9.803556442260742,-6.9444780349731445,2.597064256668091,157.7677764892578,105.11568450927734, -21.639745712280273
584,447074044,0.38363802,-0.15802842,-0.9082303,0.05446713,8.780769348144531,-6.150852203369141,-0.6406983137130737,156.52877807617188,172.9093780517578, -16.359100341796875
585,447090711,0.41835317,-0.1506444,-0.89344954,0.06352341,9.079256057739258,-5.765944957733154,-2.5260822772979736,119.11710357666016,241.4983673095703, -17.78642463684082
586,447107378,0.45936862,-0.14649731,-0.87365824,0.0651192,9.496278762817383,-5.66536808013916,-3.7790467739105225,72.60294342041016,303.78533935546875, -16.956178665161133
587,447124045,0.50470793,-0.14626387,-0.8485619,0.061803162,10.173639297485352,-5.758499622344971,-4.854255199432373,37.388267517089844,353.2799987792969, -5.616276264190674
588,447140712,0.55333066,-0.14918986,-0.8174919,0.057225768,10.705191612243652,-5.071849822998047,-6.2796831130981445,24.850345611572266,395.8799743652344, 12.963475227355957
589,447157379,0.6035774,-0.15805827,-0.7797982,0.0512514,11.975946426391602,-4.174142837524414,-7.370326519012451,-1.3723288774490356,434.1353759765625, 47.11973571777344
590,447174046,0.65192115,-0.1702358,-0.7373643,0.048091844,14.622088432312012,-3.33168888092041,-9.055427551269531,-0.40343111753463745,441.86065673828125, 82.29511260986328
591,447190713,0.69743764,-0.17493978,-0.6929496,0.052895714,20.199840545654297,-4.393164157867432,-13.616432189941406,70.90168762207031,424.7618408203125, 83.31136322021484
592,447207380,0.73806614,-0.16646537,-0.650827,0.0630248,20.269031524658203,-2.8255867958068848,-19.117015838623047,152.90887451171875,379.492431640625, 45.077362060546875
593,447224047,0.7692462,-0.16144988,-0.61481905,0.06474521,15.686480522155762,-0.2597754895687103,-18.485300064086914,84.38516998291016,317.60211181640625, 15.043164253234863
594,447240714,0.79056,-0.16043644,-0.5874339,0.06478114,10.506718635559082,-4.411508083343506,-21.820709228515625,41.45742416381836,234.26596069335938, 17.978378295898438
595,447257381,0.8025609,-0.15526575,-0.5715531,0.071523614,3.3707754611968994,-0.2330116480588913,-25.379230499267578,75.93959045410156,125.27220153808594, 29.109365463256836
596,447274048,0.8051066,-0.15030803,-0.56835634,0.07862494,1.5599043369293213,4.150130271911621,-23.749723434448242,60.0452880859375,18.289451599121094, 23.070405960083008
597,447290715,0.7992495,-0.1444306,-0.5766003,0.08872672,0.6210983991622925,2.052889347076416,-22.545169830322266,62.17766571044922,-81.08465576171875, 28.889501571655273
598,447307382,0.7877412,-0.13271606,-0.5924127,0.10439186,4.454411029815674,2.0142881870269775,-17.934104919433594,106.27937316894531,-153.82530212402344, 32.25942611694336
599,447324049,0.7704861,-0.121664315,-0.6139161,0.12106168,4.78682279586792,-9.195823669433594,-19.81197166442871,97.62395477294922,-208.23080444335938, 39.3232536315918
600,447340716,0.7474942,-0.1268339,-0.6369715,0.13940299,23.423871994018555,-16.604612350463867,-1.4106528759002686,12.862358093261719,-228.28375244140625, 119.93424224853516
601,447357383,0.719013,-0.11959146,-0.66419446,0.16602454,34.45078659057617,-0.9594129323959351,-3.530810594558716,104.24791717529297,-292.9029541015625, 109.52684020996094
602,447374050,0.68854505,-0.11095271,-0.6926892,0.18378513,17.94048500061035,17.736736297607422,-3.7779672145843506,67.69322967529297,-302.5250549316406, 60.641944885253906
603,447390717,0.6586804,-0.11117023,-0.7178972,0.19597214,13.708789825439453,3.5710740089416504,-9.458651542663574,3.94807767868042,-268.64373779296875, 78.49666595458984
604,447407384,0.6338815,-0.117357284,-0.73789865,0.19981754,4.998166084289551,-9.265196800231934,-8.29996395111084,-53.22294998168945,-205.54949951171875, 67.40485382080078
605,447424051,0.6168822,-0.120953865,-0.75042325,0.20418507,8.350598335266113,-10.385218620300293,-6.338632583618164,-22.653871536254883,-137.29995727539062, 51.67489242553711
606,447440718,0.6040896,-0.12499183,-0.76029944,0.20346421,12.064315795898438,-9.34897232055664,-6.961160659790039,-43.55887985229492,-99.49498748779297, 28.529542922973633
607,447457385,0.59509325,-0.12655053,-0.7677401,0.2010586,13.383090019226074,-5.554257869720459,-6.417572975158691,-35.39906311035156,-71.54131317138672, 5.292210102081299
608,447474052,0.5881895,-0.12543915,-0.77424926,0.19706981,13.881659507751465,-6.7562031745910645,-5.961235523223877,-29.720991134643555,-59.001434326171875, -17.34616470336914
609,447490719,0.5832954,-0.12129726,-0.77968764,0.19271962,16.19221305847168,-6.472836971282959,-4.672399044036865,-16.233598709106445,-47.7747688293457, -36.73889923095703
610,447507386,0.5788102,-0.12044178,-0.7852262,0.18409897,20.96473503112793,-6.408358097076416,-0.18188707530498505,-52.1443977355957,-38.108802795410156, -36.839881896972656
611,447524053,0.57427776,-0.1230913,-0.7906986,0.17276989,21.27275276184082,-4.3802900314331055,2.930760622024536,-80.76715850830078,-31.56659698486328, -28.491302490234375
612,447540720,0.56801593,-0.12891136,-0.7972941,0.15830995,17.212303161621094,-1.7473630905151367,5.612453460693359,-113.21623229980469,-39.19768142700195, -22.384021759033203
613,447557387,0.55957663,-0.13573456,-0.80511695,0.14225692,13.37233829498291,-3.257742166519165,8.900659561157227,-129.24630737304688,-53.6690559387207, -21.69227409362793
614,447574054,0.5479254,-0.14251566,-0.81424534,0.12834184,9.594724655151367,-3.6008071899414062,8.424038887023926,-121.67497253417969,-78.78929138183594, -11.714546203613281
615,447590721,0.5316731,-0.1499167,-0.8254619,0.11602429,7.827659606933594,-0.7582611441612244,7.19014835357666,-121.55988311767578,-113.68571472167969, -0.19910694658756256
616,447607388,0.51199853,-0.15648788,-0.8381504,0.104273215,10.910198211669922,-0.28584033250808716,7.5106353759765625,-120.09741973876953,-139.9597625732422, -1.5983089208602905
617,447624055,0.48663288,-0.16100194,-0.8533057,0.09558371,10.772400856018066,-0.6110076904296875,3.514528274536133,-103.17823791503906,-186.4720458984375, -1.2102017402648926
618,447640722,0.45443022,-0.16489196,-0.8713693,0.08378129,10.109865188598633,-1.4759104251861572,0.7263333797454834,-128.879638671875,-233.49310302734375, -13.998734474182129
619,447657389,0.4189084,-0.16970794,-0.8890929,0.07231015,17.407638549804688,-4.497588157653809,2.593613624572754,-133.3743133544922,-252.3162078857422, -5.130340099334717
620,447674056,0.3872232,-0.16989884,-0.9035348,0.06940918,12.615106582641602,-4.114620685577393,10.88501262664795,-61.60810852050781,-231.9527587890625, -6.814286231994629
621,447690723,0.36128908,-0.16724648,-0.91445035,0.07266086,11.512246131896973,-1.343956708908081,12.835986137390137,-7.547828674316406,-195.68505859375, -6.730570316314697
622,447707390,0.34122917,-0.16647558,-0.9224433,0.07033402,12.99417495727539,-7.0745015144348145,10.944268226623535,-39.19390106201172,-144.45362854003906, -8.298569679260254
623,447724057,0.33074847,-0.16212116,-0.92673963,0.07399946,15.841670989990234,-9.516210556030273,7.38801908493042,19.76807975769043,-83.93009948730469, -17.370481491088867
624,447740724,0.33035734,-0.15418118,-0.92742217,0.08354864,13.594550132751465,-3.623957395553589,5.6784892082214355,78.26886749267578,-20.11415672302246, -27.922134399414062
625,447757391,0.33810014,-0.14961483,-0.9253321,0.08404958,11.414496421813965,-2.499392509460449,4.878933429718018,23.016571044921875,49.3304443359375, -28.629817962646484
626,447774058,0.35510477,-0.14754345,-0.9197305,0.07891483,10.575214385986328,-4.428194999694824,1.7706451416015625,-7.170732021331787,123.4559555053711, -27.5655517578125
627,447790725,0.38152164,-0.14651698,-0.9097564,0.07292033,10.150972366333008,-4.344375133514404,-1.4185912609100342,-3.3504042625427246,194.95712280273438, -23.746660232543945
628,447807392,0.416191,-0.1477796,-0.8948273,0.06504051,9.941362380981445,-5.169026851654053,-2.329634428024292,-10.448458671569824,262.5648498535156, -13.563387870788574
629,447824059,0.45722625,-0.15098524,-0.8744671,0.058777757,9.789907455444336,-6.14835786819458,-3.394056797027588,2.7291066646575928,316.4814453125, 5.616677761077881
630,447840726,0.5030744,-0.15469748,-0.848373,0.056993656,10.884208679199219,-5.671609401702881,-4.730314254760742,35.273258209228516,359.0321960449219, 26.653989791870117
631,447857393,0.55230016,-0.16062987,-0.8159997,0.05750978,11.978675842285156,-3.56615948677063,-5.254580497741699,46.98140335083008,398.9608459472656, 52.827823638916016
632,447874060,0.602619,-0.1683709,-0.77775925,0.059934177,12.709016799926758,-1.890579104423523,-5.6893157958984375,54.29660415649414,426.09503173828125, 76.21617126464844
633,447890727,0.652702,-0.17379202,-0.73426646,0.068039596,16.080270767211914,-0.8694775700569153,-8.668905258178711,96.21105194091797,439.20245361328125, 93.5119857788086
634,447907394,0.7011671,-0.16984898,-0.6878968,0.07946101,20.447370529174805,1.3061418533325195,-14.310935974121094,154.47256469726562,435.7969970703125, 65.34439849853516
635,447924061,0.74301106,-0.16434056,-0.6435565,0.0822324,19.3995418548584,0.26945966482162476,-20.544843673706055,112.3534164428711,404.19354248046875, 17.602785110473633
636,447940728,0.77513176,-0.16052324,-0.6060775,0.07793222,14.409418106079102,-4.231863021850586,-21.787752151489258,57.73503494262695,335.4450378417969, -13.168122291564941
637,447957395,0.79627854,-0.16008872,-0.5785683,0.07464003,11.488969802856445,-4.110112190246582,-24.505210876464844,26.65033721923828,237.72662353515625, 1.2049428224563599
638,447974062,0.8062072,-0.15873396,-0.5648483,0.07602591,3.0900065898895264,1.1334816217422485,-28.3580265045166,31.12325668334961,112.516845703125, 13.761329650878906
639,447990729,0.80564874,-0.15877987,-0.5655149,0.07689034,1.63563871383667,3.6684160232543945,-26.480131149291992,2.63651442527771,-6.083593845367432, 6.163563251495361
640,448007396,0.7976384,-0.14875086,-0.5779346,0.08739349,1.2717193365097046,-1.1801578998565674,-23.455190658569336,81.83203887939453,-115.50521850585938, 11.575899124145508
641,448024063,0.78376335,-0.1307895,-0.5978427,0.10579779,6.069072246551514,-2.375122308731079,-19.356233596801758,146.50819396972656,-192.30723571777344, 19.16813087463379
642,448040730,0.76382786,-0.11669403,-0.62140363,0.12964216,11.337039947509766,-18.15221405029297,-10.334487915039062,140.18190002441406,-238.6343536376953, 65.37808990478516
643,448057397,0.73899794,-0.12506102,-0.6460384,0.14448713,29.0533390045166,-7.749401092529297,0.9217938184738159,-20.98411750793457,-237.7550048828125, 117.19481658935547
644,448074064,0.70965225,-0.123381786,-0.67492837,0.16013245,22.884872436523438,7.000317096710205,-5.1346611976623535,25.59275245666504,-290.15948486328125, 77.44220733642578
645,448090731,0.6796024,-0.122350164,-0.7026821,0.17149074,17.751955032348633,5.942739486694336,-8.036367416381836,3.328941822052002,-283.4912109375, 61.47932434082031
646,448107398,0.65432155,-0.119656,-0.72371006,0.18381907,8.411531448364258,1.7565505504608154,-9.174519538879395,27.897693634033203,-231.7108917236328, 58.151363372802734
647,448124065,0.6341544,-0.12247057,-0.7392149,0.19081548,6.539811611175537,-11.31938648223877,-6.198590278625488,-12.090672492980957,-169.98321533203125, 59.64653396606445
648,448140732,0.6192623,-0.12583408,-0.75017023,0.19474354,11.229266166687012,-8.149109840393066,-5.07194185256958,-19.656558990478516,-120.0138168334961, 45.73902893066406
649,448157399,0.60718274,-0.12925364,-0.75952727,0.19427006,12.944657325744629,-6.380038261413574,-6.113111972808838,-38.032806396484375,-94.84795379638672, 24.818103790283203
650,448174066,0.59761065,-0.13132249,-0.7675026,0.1911958,13.326886177062988,-5.108975887298584,-6.517055511474609,-41.90030288696289,-75.49778747558594, 4.771521091461182
651,448190733,0.59016424,-0.12990437,-0.7741739,0.18837677,13.663487434387207,-5.815491676330566,-6.087381362915039,-22.59252166748047,-63.750328063964844, -14.181669235229492
652,448207400,0.58390504,-0.12720418,-0.7803622,0.18414414,16.923704147338867,-6.702068328857422,-3.204160451889038,-23.253990173339844,-55.89044189453125, -27.843538284301758
653,448224067,0.5779713,-0.12719244,-0.7865543,0.17636274,20.129209518432617,-5.549083232879639,-0.03377830982208252,-52.886898040771484,-47.74446487426758, -28.05014419555664
654,448240734,0.57139057,-0.13120201,-0.7934424,0.16354834,19.544044494628906,-3.3815793991088867,2.3554439544677734,-97.60220336914062,-44.9099006652832, -26.03028678894043
655,448257401,0.56428593,-0.13631694,-0.8004629,0.14919268,15.895814895629883,-2.7971014976501465,5.026022434234619,-111.08416748046875,-45.8853645324707, -25.452707290649414
656,448274068,0.5552147,-0.14202161,-0.808497,0.13378842,12.939205169677734,-2.759204387664795,7.85655403137207,-122.16297912597656,-59.31462097167969, -25.107332229614258
657,448290735,0.54298306,-0.14942518,-0.81805944,0.116706304,9.74069881439209,-3.441666603088379,9.273235321044922,-142.6264190673828,-79.81543731689453, -20.591632843017578
658,448307402,0.526518,-0.15746826,-0.82917994,0.10219347,9.384475708007812,-3.0013840198516846,7.366478443145752,-136.3291473388672,-111.87273406982422, -5.5964250564575195
659,448324069,0.5067077,-0.16358319,-0.8416845,0.08975151,11.781549453735352,-0.9374943375587463,8.317898750305176,-122.26385498046875,-139.81263732910156, -8.244208335876465
660,448340736,0.48176154,-0.16806853,-0.85649973,0.07789133,11.393879890441895,-0.23886899650096893,7.5548014640808105,-120.52031707763672,-179.5538330078125, -15.050787925720215
661,448357403,0.4495017,-0.17401311,-0.8739659,0.062058624,9.86021614074707,-3.5095345973968506,1.996230959892273,-158.7083282470703,-226.34371948242188, -18.74420738220215
662,448374070,0.41382957,-0.17907605,-0.891032,0.052333605,19.277957916259766,-7.047497272491455,-0.06414234638214111,-123.24462890625,-253.47291564941406, -3.285543918609619
663,448390737,0.38208646,-0.17931786,-0.9050741,0.05192241,13.197006225585938,-4.282840251922607,11.694938659667969,-46.63602828979492,-234.23513793945312, -4.058277130126953
664,448407404,0.356186,-0.17837581,-0.91559684,0.05473858,12.104020118713379,0.04730726778507233,13.99721908569336,-15.13414192199707,-193.3659210205078, -0.7024573087692261
665,448424071,0.33573738,-0.18054767,-0.92317945,0.049221158,13.789258003234863,-8.573773384094238,8.954864501953125,-67.52305603027344,-140.80050659179688, 0.08550894260406494
666,448440738,0.32635394,-0.17689547,-0.9268664,0.05585731,16.55196189880371,-10.350973129272461,6.166451454162598,37.89410400390625,-78.92160034179688, -7.76110315322876
667,448457405,0.32720828,-0.16968447,-0.9270441,0.06878299,12.534431457519531,-2.499091863632202,5.311409950256348,99.51494598388672,-15.110048294067383, -15.972317695617676
668,448474072,0.33638865,-0.16561146,-0.92425936,0.0718347,10.146845817565918,-1.9478293657302856,4.00811767578125,40.554664611816406,57.428680419921875, -18.596256256103516
669,448490739,0.3547741,-0.16437563,-0.91773415,0.06985789,9.027824401855469,-4.440637111663818,1.0224486589431763,14.300337791442871,131.56939697265625, -12.457254409790039
670,448507406,0.38219213,-0.16362953,-0.9069967,0.06716831,8.493741989135742,-4.092067718505859,-1.7166635990142822,20.737789154052734,199.82452392578125, -10.712875366210938
671,448524073,0.41724455,-0.16436924,-0.8916749,0.061691344,8.639021873474121,-4.885335445404053,-3.328368902206421,10.078011512756348,263.3171081542969, -7.1918487548828125
672,448540740,0.45874032,-0.16600367,-0.87104726,0.057244524,8.998296737670898,-6.223095417022705,-4.344695091247559,23.287429809570312,317.3172607421875, 4.430484294891357
673,448557407,0.50543475,-0.16723071,-0.8446355,0.05622205,10.31118106842041,-5.40495491027832,-4.007719039916992,53.21524429321289,362.73101806640625, 17.2479248046875
674,448574074,0.55572116,-0.17009903,-0.8118306,0.056314323,11.515094757080078,-3.8367366790771484,-5.573507308959961,60.5445442199707,405.2738952636719, 36.52468490600586
675,448590741,0.6070526,-0.17486413,-0.77304095,0.057596616,11.435230255126953,-2.1403019428253174,-7.587408065795898,63.46088790893555,433.4671936035156, 58.1966667175293
676,448607408,0.65786827,-0.17825949,-0.7289865,0.06333755,14.881982803344727,-1.5970544815063477,-10.159940719604492,94.39872741699219,446.9986572265625, 76.03822326660156
677,448624075,0.7061851,-0.17509596,-0.6823076,0.07141915,20.109018325805664,-0.8549175262451172,-14.426530838012695,133.99118041992188,440.84027099609375, 58.06583023071289
678,448640742,0.7477578,-0.16834506,-0.6377588,0.07604,20.664724349975586,-3.018873929977417,-19.746625900268555,126.13826751708984,401.5106506347656, 25.259502410888672
679,448657409,0.77910244,-0.16359504,-0.6003932,0.075921856,15.652647018432617,-2.6609456539154053,-23.69670867919922,79.63980102539062,326.6140441894531, 6.779431343078613
680,448674076,0.79793626,-0.16836827,-0.5744516,0.070392564,10.449013710021973,-1.360145926475525,-25.867586135864258,-13.535941123962402,225.29103088378906, 10.86301326751709
681,448690743,0.8050435,-0.1731253,-0.56337386,0.06739705,2.9252195358276367,-0.092182457447052,-29.114521026611328,-23.95138931274414,95.00621032714844, 13.251026153564453
682,448707410,0.8025623,-0.17328511,-0.5667033,0.06865436,1.695518136024475,4.056386947631836,-26.810455322265625,0.15363183617591858,-28.525936126708984, 6.329256534576416
683,448724077,0.7931039,-0.16502652,-0.5810495,0.078320645,3.247488021850586,1.3901087045669556,-22.17569923400879,66.11257934570312,-130.02113342285156, 10.183524131774902
684,448740744,0.77783006,-0.1503922,-0.60269797,0.095488116,5.859982490539551,-4.141085147857666,-20.6982364654541,120.5659408569336,-204.64817810058594, 20.441478729248047
685,448757411,0.7592698,-0.13932578,-0.624522,0.11861755,14.008152961730957,-15.556723594665527,-0.5298004746437073,122.92871856689453,-222.67190551757812, 68.9303207397461
686,448774078,0.7354319,-0.14177701,-0.6479636,0.13850117,29.095983505249023,-5.176827907562256,-2.903578758239746,32.09674835205078,-239.6690216064453, 112.46182250976562
687,448790745,0.7066035,-0.13423355,-0.67637414,0.15878026,22.160343170166016,9.807379722595215,-7.554956436157227,74.92633056640625,-296.93011474609375, 69.84697723388672
688,448807412,0.6758272,-0.1337499,-0.70448166,0.17051172,17.396194458007812,5.0107526779174805,-5.770330905914307,-0.4294140934944153,-288.8385925292969, 63.79244613647461
689,448824079,0.6491628,-0.13407715,-0.72675025,0.18012513,7.456621170043945,-0.45176243782043457,-9.006767272949219,-3.6898608207702637,-238.85305786132812, 58.54084777832031
690,448840746,0.62930775,-0.1357695,-0.7420718,0.18672974,7.197769641876221,-11.350715637207031,-6.681660175323486,-9.803725242614746,-169.26882934570312, 49.847896575927734
