Acc_X,Acc_Y,Acc_Z
-0.4998317360877991,0.8849232792854309,-16.938980102539062
3.4980907440185547,1.734020471572876,-29.08643913269043
10.42360019683838,6.421689033508301,1.322266936302185
6.5973052978515625,-14.378287315368652,-1.6776834726333618
3.9108693599700928,-1.361264705657959,-9.603342056274414
-2.6058294773101807,0.5278927683830261,-3.696830987930298
2.759076833724976,1.138634443283081,-2.616154909133911
1.3056979179382324,1.628861665725708,0.691913902759552
1.9643086194992063,-0.1319949477910995,-0.2226972728967666
1.4658825397491455,-3.104670763015747,-1.2652610540390017
1.049219012260437,1.4418905973434448,-0.3154246211051941
0.3983134329319,0.5460440516471863,0.4347414970397949
0.2347662299871444,1.7451767921447754,-0.148272231221199
-0.3680539131164551,1.206065058708191,-0.3686537742614746
-0.1298093646764755,0.6906687021255493,-0.7665542364120483
0.7929657697677612,-0.2973304688930511,-0.266741394996643
0.8620637059211731,-0.0523893311619758,-0.6906039118766785
0.871214747428894,0.5428162813186646,0.3183562755584717
1.203819751739502,1.3390828371047974,0.8367960453033447
1.7944302558898926,1.803593397140503,0.8103656768798828
2.2998387813568115,1.6539256572723389,0.5513390898704529
1.8008761405944824,0.0301029291003942,3.189250946044922
3.100519180297852,-0.1016419976949691,3.633943319320679
3.3859150409698486,-1.932365894317627,4.031576633453369
4.120794296264648,-2.3373122215271,4.319355010986328
5.5536208152771,-1.6762138605117798,4.603129386901856
7.023909568786621,-1.9691193103790283,7.742551803588867
7.041216850280762,-2.0701746940612797,7.62647008895874
7.222148895263672,-0.7646058797836304,4.427799224853516
15.02308750152588,3.2715067863464355,8.927539825439453
16.800010681152344,5.98228120803833,17.334468841552734
10.735008239746094,5.750550746917725,15.1172456741333
2.926255941390991,7.328439235687256,8.492256164550781
1.7291932106018066,7.900432109832764,8.255860328674316
4.417538166046143,-1.7740199565887451,15.989030838012695
3.901775360107422,-2.948200225830078,14.173410415649414
0.0520897209644317,4.293124198913574,15.332032203674316
-0.9444851875305176,1.9865682125091555,15.16008472442627
0.4057025015354156,-0.4690373539924621,12.703428268432615
0.5954621434211731,-0.4732774496078491,9.823701858520508
-0.0393789708614349,-3.789034605026245,6.192178249359131
1.6705703735351562,-5.800929546356201,3.5538265705108643
2.824584484100342,-4.571250915527344,0.1334041953086853
3.798990249633789,-2.446120500564575,-2.83833646774292
6.331613063812256,-0.4021916687488556,-4.555083751678467
8.876250267028809,2.1681928634643555,-7.671172618865967
9.379556655883787,4.301938533782959,-11.51161289215088
9.51729965209961,0.4197381138801574,-15.310115814208984
6.437352180480957,-0.5246939659118652,-17.737062454223633
3.766988754272461,5.49186897277832,-17.149755477905273
2.2405693531036377,0.8063201904296875,-20.03158950805664
0.1589403450489044,-1.3007071018218994,-22.35095596313477
-0.3071477711200714,-0.8896892666816711,-22.16065788269043
0.0077749341726303,-0.1245544105768203,-20.06119155883789
0.4925698041915893,-1.181380033493042,-16.18178367614746
9.835418701171877,7.353828430175781,7.131658554077148
10.367420196533203,-14.489861488342283,4.812649250030518
1.306781768798828,-7.649722576141357,-15.131597518920898
11.044877052307127,4.996059417724609,-8.713565826416016
3.311042547225952,-3.135819673538208,2.472373008728028
-1.939408302307129,1.4915188550949097,-1.6664973497390747
0.2464553117752075,5.915878772735596,-3.5770702362060547
-0.7509965896606445,2.267880439758301,-3.411012887954712
1.9655818939208984,0.7897087335586548,-2.051816463470459
0.9585319757461548,-0.4677456617355346,-0.1661041676998138
0.4641753733158111,0.2006411552429199,-1.1806352138519287
0.2752859890460968,-1.2653825283050537,-2.1802518367767334
-0.0039071729406714,1.5463396310806274,-0.6409587264060974
0.5241860151290894,1.1349667310714722,-0.9949778318405152
0.7157606482505798,-0.1019476354122161,-0.8349907994270325
0.8591918349266052,-0.8787720799446106,-0.832512617111206
0.9598020911216736,-1.5396122932434082,-0.543317437171936
0.3674819767475128,-0.7150086760520935,0.1289846301078796
0.4022408127784729,-0.0117646129801869,1.6199427843093872
0.5741590261459351,1.4368776082992554,1.2729499340057373
1.303842544555664,0.022752933204174,0.5803123116493225
1.767842173576355,1.5387550592422483,0.1682649254798889
2.491405487060547,1.8810203075408936,0.928966760635376
2.2725276947021484,2.7594029903411865,1.373468279838562
3.8790788650512695,1.854198694229126,2.8262293338775635
4.458860874176025,0.658279299736023,4.039000034332275
6.626740455627441,-0.7921792268753052,6.822242736816406
8.708724021911621,-3.857317924499512,4.406777858734131
13.335342407226562,-3.430169105529785,7.303889274597168
15.503155708312988,-1.7381653785705566,10.171533584594728
16.511404037475586,0.4852338433265686,7.393671035766602
13.07219696044922,3.75855565071106,16.284435272216797
7.201807498931885,-0.6473546624183655,13.340909957885742
-1.1018832921981812,10.45102596282959,5.028430461883545
0.7531560659408569,13.812786102294922,12.87771701812744
1.777868628501892,-2.488118886947632,19.764373779296875
1.7443912029266355,-5.965753078460693,16.512596130371094
-0.5330800414085388,1.2523016929626465,16.039525985717773
-1.5258212089538574,1.8862768411636357,13.177374839782717
-1.0895237922668457,3.3160924911499023,10.877507209777832
0.505817174911499,1.7719730138778689,7.947969436645508
2.2581889629364014,0.6985718011856079,5.054203033447266
4.2743353843688965,-0.0839705467224121,2.3654842376708984
5.360438346862793,0.0430371984839439,0.0932349562644958
6.1313910484313965,1.4152239561080933,-2.147036075592041
7.372717380523682,-2.364248991012573,-5.022994041442871
8.535022735595703,-1.8764277696609497,-6.414391040802002
9.926687240600586,-0.8559208512306213,-9.584267616271973
7.478255748748779,0.5419726371765137,-13.46751308441162
7.222221851348877,2.606322765350342,-16.273181915283203
5.534706592559815,0.8667575120925903,-20.099220275878903
2.126859188079834,-1.2885680198669434,-24.898029327392575
-1.1330788135528564,2.413337469100952,-26.579648971557617
-1.0504035949707031,1.1202855110168457,-25.35700225830078
1.3941320180892944,0.249631866812706,-20.64411735534668
7.384516716003418,2.766331434249878,2.7908291816711426
13.88590145111084,-5.70171594619751,12.50716495513916
0.7401344776153564,-14.846635818481444,-14.307343482971191
8.833253860473633,11.312127113342283,-13.896660804748535
9.63544750213623,-8.469123840332031,-0.8108837604522705
-1.7979835271835327,-0.4107248485088348,-2.08719539642334
2.4010672569274902,3.498544692993164,-3.4631283283233643
-0.4935863018035888,3.3755857944488525,-2.5179271697998047
3.085456371307373,0.9290342926979064,-1.449900507926941
1.4368789196014404,-0.1836081445217132,-2.1006124019622803
0.6089773774147034,-0.343217521905899,-2.0837502479553223
0.8061925172805786,0.7065211534500122,-2.280032157897949
0.1637294590473175,1.039206862449646,-0.2359304577112198
0.013089120388031,1.5025227069854736,0.3109343349933624
0.1247462332248687,0.5561074018478394,-0.0171764157712459
0.5933956503868103,-0.9156311750411988,-0.2400764971971511
1.0454216003417969,-1.152207851409912,0.5872699022293091
1.558144450187683,-1.0389621257781982,0.6308853030204773
1.8531001806259155,0.2165438383817672,0.7620821595191956
1.9229865074157717,0.5816066861152649,0.851919412612915
1.6278445720672607,0.372325450181961,0.8362963199615479
1.5176799297332764,2.015270709991455,2.995506048202514
2.787130832672119,1.9911668300628664,1.8389275074005127
3.3968067169189453,2.335482597351074,3.3413188457489014
6.225917339324951,2.1537930965423584,4.249294281005859
7.353376865386963,0.5037136673927307,5.979602813720703
10.111305236816406,-2.8050453662872314,5.162158966064453
12.140958786010742,-5.427352428436279,8.640307426452637
17.06612205505371,-3.960182666778565,10.127480506896973
16.866329193115234,3.1706106662750244,9.212757110595703
8.278741836547852,8.071206092834473,9.990251541137695
4.924078464508057,5.252890110015869,8.515049934387207
2.292997360229492,2.594512701034546,16.822256088256836
-0.0748553276062011,-6.121941089630127,17.103429794311523
-0.7058419585227966,0.8329206705093384,16.890483856201172
-0.983585000038147,5.439889430999756,15.63230323791504
-1.336358666419983,5.04882287979126,11.993167877197266
-0.1758376657962799,3.428828716278076,8.133177757263184
1.1722723245620728,0.6074331998825073,5.302634239196777
3.2047371864318848,-0.0296941306442022,3.0970265865325928
4.209297180175781,0.7079035639762878,1.1417192220687866
4.918957233428955,-0.0659711509943008,-1.234738826751709
4.351235389709473,-0.2689917087554931,-3.673828601837158
3.4312660694122314,-0.4540618360042572,-4.891984939575195
4.909345626831055,0.6134350895881653,-6.573876857757568
4.630640983581543,-0.0887677893042564,-8.724778175354004
5.568999290466309,-1.0995514392852783,-9.697385787963867
6.2628374099731445,-0.0933677852153778,-11.34083652496338
5.423349857330322,2.079763889312744,-13.73709774017334
2.630635976791382,1.3910281658172607,-17.066604614257812
2.259140491485596,-0.601838231086731,-18.34076690673828
-0.0449274852871894,-0.1681853383779525,-19.769325256347656
0.3142775893211365,0.7880443334579468,-19.68745803833008
1.511629939079285,2.735750198364258,-14.85693359375
14.936573028564451,1.1784573793411257,-10.824569702148438
6.516434669494629,-9.628656387329102,10.764312744140623
2.986832857131958,-7.569024562835693,-10.897012710571287
2.640342712402344,1.739903211593628,-10.942291259765623
5.970840930938721,2.5056676864624023,-5.17963171005249
0.5054092407226562,-2.3599324226379395,-1.1671608686447144
2.959269523620605,4.139925479888916,0.1956757605075836
-0.8712207078933716,4.48067045211792,0.1982790827751159
1.7946029901504517,-0.3538340330123901,-1.303870439529419
0.6206123232841492,-0.9646026492118835,-1.627840876579285
0.2456652373075485,2.1692934036254883,-1.1085926294326782
0.8111305832862854,0.6034113764762878,-1.1464990377426147
1.1676747798919678,-1.3576205968856812,-1.135603427886963
0.941538631916046,0.9760065078735352,0.713082492351532
0.5651882886886597,-0.2625293731689453,0.1182377487421035
0.3638404011726379,-0.7380863428115845,-0.2610521912574768
0.5363472104072571,0.9878138303756714,0.0011659334413707
1.5687477588653564,0.4249258041381836,-0.7347919940948486
2.176334381103516,0.3478725552558899,0.3016562461853027
2.012450933456421,0.5253975987434387,1.1063385009765625
1.9554842710494995,0.4230518937110901,1.1399060487747192
2.612420558929444,-0.1074002757668495,1.7650294303894043
2.493386030197144,0.4964963793754577,0.1926953047513961
3.3539257049560547,1.053934097290039,2.609407663345337
4.645266532897949,0.5594971776008606,2.6386289596557617
5.0226874351501465,0.2223597466945648,3.3300535678863525
6.377216815948486,-0.7978366017341614,5.387338638305664
6.597940444946289,-1.9926929473876955,5.564763069152832
8.388627052307129,-4.144313335418701,7.000611305236816
10.987473487854004,-3.915662527084351,5.512747287750244
14.70166015625,2.975991725921631,11.34101390838623
12.773407936096191,2.6980316638946533,11.253623962402344
8.721652030944824,2.3334906101226807,11.53243350982666
3.75756311416626,9.360193252563477,6.880055904388428
1.378793239593506,8.462186813354492,9.056811332702637
1.1508234739303589,-1.918941617012024,15.980143547058104
1.6127396821975708,-5.597631931304932,13.57983112335205
-0.888108491897583,0.8683806657791138,11.902170181274414
-1.2076334953308103,2.759099245071411,10.68813705444336
-0.3819088637828827,1.8731554746627808,9.443029403686523
0.2706437706947326,0.9945070743560792,6.430943012237549
0.8562285304069519,0.2067996114492416,4.752647399902344
2.050680637359619,0.0524721257388591,3.751938581466675
2.8161909580230717,-0.5490986108779907,1.896518588066101
3.318422794342041,-1.3098907470703125,-0.3086159825325012
3.3121824264526367,-0.9080063700675964,-1.1619938611984253
4.1603779792785645,-0.3042536079883575,-1.6281139850616455
5.349762439727783,0.8224152326583862,-2.9656341075897217
4.030855655670166,1.0718799829483032,-6.578608512878418
3.6294097900390634,0.5119686722755432,-9.282651901245115
5.687489032745361,-1.3032180070877075,-9.920205116271973
6.767352104187012,0.5488382577896118,-12.4198579788208
4.958415985107422,3.719290256500244,-14.932778358459473
2.8166890144348145,3.02140474319458,-17.873756408691406
-0.2074609696865081,1.149578094482422,-22.27763938903809
-2.062685489654541,0.2448617964982986,-24.37356376647949
-0.8367231488227844,0.23452228307724,-18.9081974029541
13.931243896484377,0.0325939618051052,-12.943350791931152
8.875312805175781,-15.596235275268556,12.021650314331056
0.7374962568283081,1.4539207220077517,-13.48111343383789
8.01509952545166,3.0307154655456543,-10.194643020629885
3.679746150970459,-5.47156286239624,-2.540820598602295
-0.672866940498352,1.363796591758728,-4.538294792175293
2.443378210067749,4.348894119262695,-1.7820276021957395
-0.114544078707695,3.4197964668273926,-2.519732713699341
3.37650990486145,-2.66532039642334,-2.56689453125
0.3609936833381653,-0.4221310019493103,-1.6924277544021606
0.2667998373508453,3.816279172897339,-0.1458539962768554
0.2556053698062897,-0.4747958481311798,-1.1101619005203247
-0.3513104319572449,1.0286966562271118,-0.4597741663455963
-0.3906203210353851,1.8673352003097532,-0.5714980959892273
-0.4755137860774994,-0.0789983943104744,-0.6073678731918335
0.1356839537620544,-0.0036716230679303,-0.6849393248558044
0.6453348398208618,-0.4430446326732635,-0.2422893047332763
1.2303783893585205,-0.5621606707572937,-0.7019702196121216
1.4523988962173462,-0.7920077443122864,0.1016469597816467
1.2877674102783203,-0.5185337066650391,1.1302791833877563
0.92525976896286,0.2331191599369049,2.997809886932373
1.420319437980652,0.9191162586212158,2.5849788188934326
2.0686750411987305,1.0807242393493652,2.6311728954315186
2.621769905090332,2.0850155353546143,0.4414037466049194
3.9510657787323,0.8328667879104614,3.1793735027313232
5.727367401123047,0.0820676386356353,3.82321572303772
6.932220935821533,-0.7961455583572388,6.32738733291626
8.256108283996582,-2.4329347610473637,6.373029708862305
9.457806587219238,-4.791730880737305,7.315527439117432
12.2601957321167,-3.803694725036621,7.619738578796387
15.37860107421875,4.941706657409668,9.716084480285645
12.61835479736328,3.161993741989136,12.571700096130373
6.699613571166992,3.67620849609375,10.806388854980469
1.4268971681594849,15.002631187438965,7.625265121459961
0.8290197849273682,6.5187811851501465,14.521162033081056
-0.2534557282924652,-5.552341461181641,16.179079055786133
-0.4594849944114685,-2.6480441093444824,13.201659202575684
-1.931889653205872,2.8486714363098145,11.635786056518556
-1.737560153007507,2.693518877029419,9.260095596313477
-0.6632905602455139,2.766150951385498,6.794732093811035
0.7129793763160706,0.9148535132408142,4.926335334777832
2.326789617538452,-0.2373587936162948,2.9993221759796143
2.946915626525879,-0.520681619644165,1.38792622089386
3.1367433071136475,-0.2676141858100891,-0.0846277177333831
3.244899272918701,-0.3519638776779175,-2.0012552738189697
2.823911428451538,-0.6854665279388428,-2.90104079246521
2.6890294551849365,0.8206684589385986,-3.043344497680664
2.9288923740386963,0.6768118143081665,-5.576518535614014
2.6188182830810547,0.1120917797088623,-7.607603549957275
3.932584047317505,-1.0721399784088137,-8.031328201293945
5.436449527740479,-0.4146651029586792,-9.291040420532228
4.868923187255859,1.2422289848327637,-12.654417991638184
3.606713771820069,2.3106014728546143,-12.560883522033691
2.48917555809021,1.3546348810195925,-15.10526180267334
0.3550994396209717,0.6594932079315186,-17.609149932861328
-1.2221407890319824,1.695807695388794,-18.31209754943848
-1.5256805419921875,1.4489389657974243,-17.670835494995117
-1.1444368362426758,0.2869077622890472,-15.402738571166992
1.170900583267212,-0.9214991331100464,-6.5606207847595215
14.416141510009766,-1.772489070892334,7.6421356201171875
4.460087299346924,-19.464710235595703,-0.9531715512275696
4.303804397583008,11.491866111755373,-20.782230377197266
16.969894409179688,-7.87350606918335,3.394652843475342
-6.885218143463135,-0.3088599443435669,-3.391042470932007
-0.4141729474067688,2.817775249481201,-1.9136161804199217
0.9228237867355348,2.9460208415985107,-4.792850494384766
0.6825591325759888,1.9330164194107056,-2.006483793258667
2.138299465179444,-0.8831305503845215,-1.989124655723572
0.756122887134552,-3.423833131790161,-2.497450113296509
0.3812014460563659,0.2739496231079101,-1.247053623199463
-0.4331438839435577,1.9887378215789795,0.0245357155799865
-0.6830821633338928,1.1226985454559326,-1.441845417022705
-0.4007525742053985,0.4488807916641235,-0.5421910881996155
0.1973383873701095,-0.4957828521728515,-0.2927727699279785
0.8545953035354614,-1.5170994997024536,0.4368849694728851
1.3964872360229492,-1.6084591150283811,0.7349459528923035
1.2766635417938232,0.2231822609901428,0.7339345216751099
0.7942571043968201,0.2574073076248169,0.0871244519948959
1.6151831150054932,-0.0612853877246379,1.165463924407959
1.4746803045272827,1.427049994468689,2.095120429992676
1.9973030090332031,0.5163519978523254,2.0886850357055664
2.12850022315979,0.2693867683410644,1.5717121362686155
2.80630111694336,0.0610347613692283,3.307199239730835
3.275000095367432,-2.139160633087158,3.087437629699707
4.600554466247559,-3.759084224700928,3.027740001678467
5.510836124420166,-3.834984540939331,4.090802192687988
6.738003730773926,-3.4481406211853027,5.783700942993164
7.67121410369873,-2.9205284118652344,6.599692344665527
10.340543746948242,-2.490046739578247,5.55316162109375
15.620230674743652,1.6150405406951904,13.611624717712402
15.070558547973633,4.604492664337158,12.67956829071045
7.990795135498047,5.98667573928833,7.685122489929199
5.7751054763793945,8.704523086547852,7.904610633850098
4.037869453430176,0.5472027659416199,11.70300006866455
1.3684755563735962,-8.214569091796875,15.45625114440918
-0.4901737868785858,-2.8669323921203613,14.491801261901855
-2.194932699203491,4.09984016418457,13.817768096923828
-1.9100370407104488,3.266136646270752,11.815549850463867
-1.6140060424804688,1.306226134300232,7.972732543945312
-1.007300615310669,0.0175509266555309,5.783742427825928
0.4009661674499511,-1.6132428646087646,4.55674409866333
2.1888465881347656,-1.7742499113082886,2.189440965652466
2.6852097511291504,-1.9234158992767332,0.1530689299106598
3.2020905017852783,-1.413558006286621,-1.2248613834381104
2.4758877754211426,0.1740634888410568,-2.234657526016236
2.641932249069214,1.2946547269821167,-2.772000551223755
3.7404417991638175,1.9528127908706665,-4.191529750823975
3.9444713592529297,1.2450779676437378,-6.23488187789917
4.629817962646484,-0.8295323252677917,-8.64436149597168
4.692399978637695,-0.4977314472198486,-11.18914794921875
4.078582763671875,1.53675639629364,-12.77690315246582
3.0170657634735107,2.812398910522461,-13.61763858795166
1.8080992698669436,1.8516885042190552,-16.99441909790039
0.7239437103271484,0.4081835150718689,-20.07823181152344
-1.8519922494888303,2.2843048572540283,-21.688251495361328
-1.9849286079406736,1.767584204673767,-20.83053207397461
8.421841621398926,4.338702201843262,-14.657978057861328
12.90549659729004,-9.533517837524414,8.4125394821167
3.815869092941284,-11.16737937927246,-6.395401954650879
1.5226343870162964,9.81655216217041,-8.985594749450684
5.030372142791748,2.029336929321289,-4.433021545410156
-1.4375156164169312,-3.5157971382141118,-3.69016170501709
2.934630870819092,1.6463679075241089,-4.87645149230957
0.2395430654287338,3.373166561126709,-3.2404487133026123
1.794607400894165,1.5375593900680542,-2.037971973419189
2.368631362915039,-3.1976895332336426,-1.0832194089889526
0.4003558456897735,-0.7342501878738403,-1.8583269119262693
-1.1048119068145752,4.23801326751709,0.6165117025375366
0.0173871424049139,-0.5210045576095581,-0.2521573901176452
-0.2077750861644745,0.6353806257247925,-0.1909558027982711
-0.1275740265846252,0.6986652612686157,-0.7172083258628845
0.1761959642171859,-0.6308003067970276,-1.3470239639282229
0.4900643527507782,-0.623173713684082,-0.7071835398674011
0.9660335183143616,-0.0407098419964313,0.9560355544090272
0.6920813918113708,1.149297118186951,1.4650567770004272
1.1903289556503296,-0.3377660512924194,1.241762638092041
1.4833461046218872,-0.9165485501289368,1.5066933631896973
1.7396363019943235,-1.0769617557525637,1.7464262247085571
1.9849109649658203,-0.7185534238815308,0.7991654276847839
2.663449048995972,0.209534615278244,1.8626171350479128
4.314174175262451,0.429082989692688,2.056219577789306
4.476231575012207,-0.3087053894996643,3.185396432876587
5.718893527984619,-1.295745611190796,4.223824977874756
7.193871974945068,-1.6234945058822632,4.861813545227051
9.54206371307373,-2.025118112564087,7.850088596343994
13.237117767333984,-1.716248631477356,9.756107330322266
13.820754051208496,2.6424813270568848,6.774958610534668
9.772239685058594,7.79683256149292,10.592825889587402
5.974411487579346,5.03680419921875,7.692514896392822
2.6793019771575928,5.003375053405762,10.68722438812256
1.25225031375885,-3.0998549461364746,15.559500694274902
1.2083735466003418,-4.5312581062316895,14.295900344848633
-0.2657381296157837,4.331119537353516,14.799222946166992
-1.250797986984253,6.607620716094971,13.560513496398926
-0.9455475211143494,5.016462802886963,11.30719757080078
0.2221934050321579,2.888144969940185,8.011091232299805
1.3136354684829712,1.3661303520202637,6.525273323059082
2.2478020191192627,0.9983514547348022,4.456833362579346
2.185601234436035,0.8850352168083191,2.360597848892212
2.312798500061035,-0.036542247980833,0.1855939030647277
1.7900149822235107,-0.5998404026031494,-1.0245046615600586
1.5324450731277466,-0.6220348477363586,-1.788304328918457
1.139986515045166,0.7212786078453064,-3.510108709335327
2.5565290451049805,0.194633275270462,-5.515727996826172
3.886791706085205,-0.684908390045166,-7.221928596496582
5.610879421234131,-0.6742612719535828,-9.153158187866213
6.228222846984863,0.5454974174499512,-11.892969131469728
5.745687007904053,2.8692986965179443,-13.363118171691896
3.126802921295166,2.951414108276367,-16.522153854370117
1.9500610828399656,-0.5397566556930542,-19.452260971069336
0.2719022631645202,-0.4951003789901733,-20.205907821655277
-0.1235672682523727,-1.0930970907211304,-19.83490753173828
4.493582248687744,-0.0093879140913486,-20.74147224426269
16.391372680664062,-6.856592178344727,-1.11751127243042
4.0504069328308105,-12.778111457824709,2.612213373184204
2.351364850997925,6.293497562408447,-15.93919277191162
5.451846599578857,-3.1183319091796875,-4.757826805114746
-0.2605312466621399,-1.7604469060897827,-5.197447299957275
2.5956332683563232,1.11432945728302,-2.423863887786865
2.2119297981262207,2.0050880908966064,-0.1570435762405395
0.8509901165962219,1.957085967063904,-1.7105730772018433
0.8964449167251587,0.2060079723596573,-1.113370656967163
0.5779895782470703,-1.257206916809082,-2.353403091430664
-0.1164523884654045,3.765868425369263,0.1988441497087478
0.2963927686214447,1.0401057004928589,-0.8658333420753479
1.2212018966674805,-1.4204535484313965,-1.1171714067459106
1.0198068618774414,0.4799551963806152,0.3899174034595489
0.7289823293685913,0.3938987255096435,-0.0858629122376442
0.6614862084388733,-0.9261724948883056,0.0812344849109649
0.6158456206321716,0.7442519664764404,-0.3051418960094452
0.7124093770980835,0.4168204367160797,-0.3720272481441498
1.8903175592422483,1.1023072004318235,0.0395380668342113
2.554005622863769,0.5650604367256165,1.4817736148834229
2.504859209060669,0.6308504343032837,2.0202105045318604
2.633974313735962,-0.3548839688301086,2.692645788192749
2.2330398559570312,0.3621882200241089,1.36492919921875
3.9032716751098633,-0.2017426490783691,3.754303216934204
4.761309623718262,-0.7438041567802429,3.708017587661743
6.011997222900391,-1.303110122680664,5.521769046783447
6.216639518737793,-2.8186097145080566,4.807130813598633
6.522448539733887,-3.946877956390381,5.515020847320557
8.453462600708008,-3.390479803085327,4.930363178253174
12.462803840637209,0.7263864278793335,11.214404106140137
15.269323348999023,5.201048851013184,12.293628692626951
9.591793060302734,4.032580375671387,8.73304271697998
5.541003704071045,8.951770782470703,6.625184535980225
3.61948299407959,10.303853034973145,10.754863739013672
1.8828462362289429,-4.19380521774292,15.6554536819458
1.0411297082901,-5.137705326080322,14.56822395324707
-1.005441188812256,3.2554800510406494,13.050633430480955
-1.472325086593628,5.476778984069824,11.117660522460938
-0.6877346038818359,3.728344440460205,8.707446098327637
0.4594786167144775,2.2331244945526123,6.309825420379639
1.5832717418670654,1.323580026626587,4.196660995483398
2.3327291011810303,0.9269297122955322,1.6637407541275024
2.3836183547973637,0.5816835761070251,0.6929927468299866
2.771228313446045,0.800444483757019,-1.0723371505737305
1.8232944011688232,1.6851818561553955,-2.3633697032928467
1.8726699352264404,2.225273609161377,-2.4448628425598145
3.102140426635742,2.248502254486084,-3.604135513305664
3.480342149734497,-0.4026123881340027,-6.763500690460205
4.418829441070557,-2.403607130050659,-9.42079257965088
5.556656360626221,-2.842489242553711,-10.718327522277832
5.291036128997803,0.376437097787857,-12.615952491760254
3.832131147384644,3.213336229324341,-13.789557456970217
2.9696924686431885,1.0745303630828855,-14.900165557861328
2.257871150970459,-0.9609683752059937,-16.65755271911621
0.2643710970878601,-0.2282437831163406,-18.00275230407715
-0.7978652715682983,-0.0078604370355606,-18.68175506591797
-0.0971267819404602,-1.0471770763397217,-17.1939640045166
0.8735463619232178,-1.0799840688705444,-10.985591888427734
13.06537914276123,3.734529733657837,3.5430731773376465
6.47055196762085,-14.621833801269531,3.449361562728882
1.5012903213500977,3.680886745452881,-14.390303611755373
9.718974113464355,0.5954579710960388,-4.916738986968994
2.5036776065826416,-4.573294162750244,-1.5146405696868896
0.9983648657798768,0.5443910360336304,-3.1629626750946045
2.034364461898804,0.6405707001686096,-2.1682915687561035
0.8307909369468689,2.934532642364502,-3.019117832183838
0.6241458654403687,1.0096018314361572,-1.634692668914795
0.8064743280410767,-0.5864169597625732,-2.13411808013916
-0.1950815916061401,2.231974840164185,-0.5761335492134094
-0.2980932593345642,2.3067760467529297,-0.0977144986391067
0.2784498929977417,0.1733405739068985,-0.0626182407140731
-0.1788585782051086,0.6184636950492859,0.2282606810331344
0.3025555908679962,0.0038433542940765,0.3059135377407074
0.1393735706806183,0.0024711191654205,0.4156994223594665
0.8866882920265198,-0.9281487464904784,-0.2129087150096893
1.4217543601989746,0.350782036781311,1.841142535209656
1.8888366222381592,-0.0673716738820076,0.3354534804821014
2.03611421585083,-0.6510230898857117,1.0288830995559692
2.181633472442627,0.7690341472625732,1.0382378101348877
2.5577545166015625,0.6964395642280579,0.9528697729110718
3.440819025039673,1.0242007970809937,2.0512936115264893
4.705729961395264,0.3220128417015075,2.8209047317504883
4.612341403961182,-1.8530949354171755,2.4421088695526123
4.451353549957275,-2.93860387802124,1.889980435371399
5.354872226715088,-3.758679389953613,2.607741594314575
5.524799823760986,-2.7063350677490234,4.860388278961182
6.544338226318359,-2.723633289337158,5.8121256828308105
8.224689483642578,-3.007444381713867,6.796493053436279
11.787115097045898,0.4905434846878052,7.775231838226318
14.74938678741455,6.169098377227783,12.381351470947266
10.560012817382812,6.819812297821045,10.30349349975586
5.082035064697266,9.549275398254396,5.698440074920654
3.4339661598205566,8.822158813476562,8.509519577026367
3.714736461639404,-6.048619747161865,15.96247100830078
1.7617862224578855,-6.863169193267822,13.51077365875244
-0.9919183850288392,3.251716375350952,13.585704803466797
-2.1204404830932617,5.218965530395508,12.553983688354492
-2.2141451835632324,4.198698997497559,9.41368007659912
-0.7461107969284058,2.945974111557007,6.4746928215026855
-0.1423259079456329,1.4816917181015017,4.92286491394043
1.3159010410308838,0.5486401915550232,2.929755687713623
2.226890087127685,-0.0936849266290664,0.998985469341278
3.464740037918091,-0.0522340908646583,-1.1225465536117554
3.011298179626465,0.5396056771278381,-2.499086141586304
3.172584056854248,0.1847119629383087,-3.361431360244751
3.13608193397522,1.1178916692733765,-4.376202583312988
3.3734521865844727,0.9861130118370056,-7.028804779052734
3.602455139160156,-0.5527403950691223,-9.460604667663574
3.384661674499512,-0.6424814462661743,-11.469194412231444
3.693277359008789,1.3278329372406006,-12.511090278625488
3.365701913833618,2.5122570991516118,-12.91982364654541
2.117204189300537,2.592604398727417,-14.577814102172852
1.622503399848938,0.6137111783027649,-16.15113067626953
0.5743931531906128,0.0655438601970672,-18.117446899414062
-0.6152611970901489,0.3812170624732971,-18.56810760498047
0.1225330531597137,0.0333263874053955,-15.797282218933104
9.4063081741333,2.2066409587860107,-12.6422119140625
11.386578559875488,-9.929024696350098,9.113896369934082
2.415858507156372,-1.9902009963989256,-12.489209175109863
8.490206718444824,-2.00610876083374,-4.992774963378906
-1.222366452217102,0.3087295889854431,-2.8428168296813965
1.00076162815094,1.1162446737289429,-4.7632598876953125
2.8171956539154053,0.9970957040786744,-2.4151177406311035
2.092291116714477,1.3241499662399292,-2.7078235149383545
2.141620397567749,0.703560471534729,-1.280362606048584
2.274863719940185,-2.8550267219543457,-2.63869309425354
0.7548056840896606,1.043758749961853,-1.077088713645935
0.3017380237579345,2.90789532661438,0.0205370187759399
0.2426500171422958,0.8218066692352295,-0.0931854099035263
0.1672044396400451,1.8874812126159668,0.9397698044776917
-0.0925154611468315,1.1480998992919922,-0.0996941402554512
0.117855504155159,0.5725524425506592,0.55881267786026
1.3731582164764404,-0.8038074970245361,-0.1327281296253204
1.7312291860580444,-1.48577618598938,-0.0318762548267841
2.277425527572632,-1.165485382080078,-0.3901583552360534
2.5719785690307617,-0.5877195000648499,0.9006813168525696
1.981565237045288,0.6430409550666809,2.606740713119507
1.6965748071670532,-0.0912248343229293,3.1045260429382324
1.9038105010986328,-0.311486542224884,1.3345801830291748
3.110168218612671,-0.605235755443573,3.0043532848358154
4.537168025970459,-1.2142428159713743,3.422168731689453
4.7300705909729,-0.6603952050209045,6.429178237915039
6.039864540100098,-1.427875518798828,7.958598613739014
8.952933311462402,-2.3998122215271,10.071243286132812
12.114500999450684,-2.9690475463867188,6.214241981506348
16.39737319946289,6.10170316696167,9.91538429260254
14.008665084838867,10.770475387573242,11.60056209564209
7.386670589447021,7.792548656463623,7.8145341873168945
5.5525665283203125,3.173997163772583,11.765623092651367
3.483501434326172,-5.411307334899902,14.099915504455566
0.5372199416160583,0.3795126378536224,14.845372200012209
-1.814417123794556,7.442326068878174,16.010801315307617
-2.1823861598968506,8.308209419250488,13.67501449584961
-0.7968933582305908,5.507798194885254,9.64232063293457
0.4535165429115295,1.8787012100219729,7.664700508117676
1.9184508323669436,0.4628609418869018,5.803170204162598
2.297379970550537,0.0567067340016365,3.249887704849243
1.9219396114349363,-0.5651744604110718,1.5767030715942385
2.336106300354004,-0.805989146232605,-0.1095094978809356
2.596019744873047,-1.3452014923095703,-2.2557833194732666
2.1350018978118896,-1.0026657581329346,-3.238647937774658
1.2896512746810913,0.8229965567588806,-4.3827433586120605
2.731641292572021,0.0863363593816757,-6.726161956787109
5.207239627838135,-1.412084937095642,-9.219619750976562
8.542196273803711,-1.9703121185302732,-11.39040470123291
8.441816329956055,0.7771188616752625,-13.789724349975586
5.839920997619629,2.877074241638184,-16.961259841918945
3.494009733200073,0.7116172313690186,-19.71320152282715
1.8854680061340328,-0.0388848483562469,-21.767322540283203
-0.1298935711383819,-0.8745531439781189,-22.359106063842773
0.278197705745697,-1.2871253490447998,-21.605871200561523
2.7855446338653564,-1.0551291704177856,-17.168031692504883
8.613962173461914,4.071977615356445,7.547041416168213
12.867809295654297,-9.30998992919922,5.313662052154541
3.871625423431397,-8.705853462219238,-11.70743465423584
3.5742228031158447,5.099170207977295,-4.657079696655273
3.853098630905152,-1.8266851902008057,-6.407314300537109
1.844537615776062,-1.3577463626861572,-2.8352785110473637
2.023043394088745,-0.5664749145507812,-3.566791296005249
1.520121932029724,1.6941049098968506,-2.2979185581207275
1.402940034866333,3.084037065505981,-1.514963150024414
1.3288556337356567,-0.4291881918907165,-1.8073018789291384
1.5117509365081787,-2.0811779499053955,-2.295733690261841
0.0131100816652178,1.7172993421554563,-0.0179647989571094
-0.5425839424133301,2.279780864715576,0.1570090353488922
0.0462704971432685,-0.0817692503333091,0.1759468466043472
-0.1327956318855285,0.753984808921814,0.3039270937442779
0.1918168812990188,0.3722613155841827,0.9289063215255736
0.2998736202716827,-0.3680872023105621,0.1646665781736374
1.0470175743103027,-0.2691042125225067,0.760266900062561
0.6176000237464905,0.0629361346364021,0.3407618701457977
1.2879011631011963,0.2794545888900757,0.9862730503082277
1.6779119968414309,-0.0251618102192878,1.317063808441162
2.0522801876068115,-0.7801551222801208,1.705676794052124
2.487301826477051,-0.2939416170120239,1.3641390800476074
2.839301347732544,-1.210374116897583,1.0045064687728882
2.916218042373657,-0.2249135076999664,1.499291181564331
3.4943439960479736,0.0443817339837551,1.7513595819473269
3.506577491760254,-0.661023736000061,2.66813063621521
3.79670524597168,-0.2784611582756042,4.5333428382873535
4.3433518409729,-0.7625197172164917,5.935781478881836
6.137795448303223,-1.4333999156951904,7.071954727172852
8.025959014892578,-3.0442957878112797,7.32378339767456
9.836013793945312,-3.9644651412963863,4.38200044631958
11.317580223083496,3.8702316284179688,12.002562522888184
12.055267333984377,6.454030990600586,13.477554321289062
8.61005973815918,2.3470458984375,7.615116119384766
4.174685478210449,7.886260509490967,3.706657648086548
2.2652063369750977,8.894270896911621,8.320902824401855
0.9940204620361328,-3.600788116455078,14.789850234985352
0.0522133335471153,-6.070888996124268,12.755380630493164
-1.7932169437408447,3.547778367996216,12.122954368591309
-2.8215370178222656,7.393434047698975,10.710362434387209
-2.422493696212769,5.346051692962647,9.624568939208984
-0.8238549828529358,2.653971672058105,6.693399429321289
0.1985886693000793,1.310347080230713,4.831691265106201
1.7417291402816772,0.6390238404273987,2.776627540588379
2.3255298137664795,0.705161452293396,0.6809018850326538
2.5577588081359863,1.5073710680007937,-0.1383030861616134
2.0056893825531006,1.9078649282455444,-1.7096786499023438
1.8779622316360476,2.334115505218506,-2.454288482666016
2.0096914768218994,3.741126298904419,-2.520005226135254
2.075193405151367,3.851583480834961,-4.192751884460449
2.4175779819488525,-0.6317000389099121,-7.107470989227295
4.711555004119873,-2.61803674697876,-7.862950801849365
6.496373653411865,-3.0328187942504883,-8.658651351928711
7.16657018661499,-1.4100565910339355,-10.37812042236328
5.301803588867188,3.1738803386688232,-12.406987190246582
2.200573205947876,2.432034492492676,-15.383611679077148
1.7636559009552002,-2.1972885131835938,-18.65717124938965
-0.4465963542461395,-0.9554888606071472,-20.762598037719727
-1.606625199317932,-0.3054912090301513,-21.017000198364254
-0.0904378145933151,-1.5444165468215942,-18.064647674560547
3.837112665176392,1.319295048713684,-1.3690693378448486
14.434114456176758,-6.461380958557129,9.566390991210938
2.788259029388428,-10.22492790222168,-11.119874000549316
8.62686824798584,8.767763137817383,-9.161331176757812
6.698759078979492,-6.660995006561279,-0.5803486704826355
-2.113807439804077,1.936961054801941,-2.107090473175049
1.7701455354690552,0.6907712817192078,-4.797477722167969
0.7631039619445801,2.2000269889831543,-4.334734916687012
1.3252205848693848,1.1016006469726562,-2.5079026222229004
2.5276362895965576,-0.9575594067573548,-2.3353846073150635
0.9399177432060242,-0.9259006381034852,-1.245966553688049
0.4382667243480682,1.82585608959198,-0.3845002055168152
-0.249740868806839,0.953316330909729,-0.5362390279769897
-0.3202494084835052,1.8321144580841064,0.1892891079187393
-0.8266260027885437,1.6823036670684814,-0.6387578248977661
0.55787193775177,0.3684844374656677,-0.1074408516287803
0.8671032786369324,-0.4824769198894501,-0.5102682113647461
1.5877374410629272,-2.318521022796631,-0.7605600953102112
2.121954917907715,-2.068665027618408,0.4012413918972015
1.4244256019592283,-0.5037775039672852,1.3451189994812012
1.3588335514068604,-0.1986174136400222,2.254121780395508
1.5667684078216553,0.3409178853034973,2.416509866714477
1.6233898401260376,0.6329485177993774,1.6290793418884275
2.2336554527282715,0.1798362135887146,1.661077857017517
2.8475983142852783,0.0314057543873786,1.934375882148743
3.35054612159729,-0.9096277952194214,3.1371724605560303
3.854324340820313,-1.5641593933105469,3.800225257873535
4.904138088226318,-1.9134137630462649,4.962703704833984
6.165256500244141,-1.980449676513672,6.599965572357178
8.34891128540039,-3.162966251373291,8.577073097229004
12.550582885742188,-2.560290575027466,6.698184967041016
13.671516418457031,3.9434852600097656,8.306597709655762
8.704910278320312,9.652299880981444,9.599384307861328
5.449630260467529,7.357452869415283,6.856680870056152
4.576283931732178,4.909602165222168,10.427998542785645
3.1996662616729736,-4.875148773193359,15.5468168258667
-0.0381987169384956,-6.82124662399292,14.611461639404297
-2.29841423034668,1.781815528869629,15.541874885559082
-2.6067264080047607,6.114719867706299,14.207050323486328
-2.523633480072021,6.949548244476318,11.106213569641112
-1.163597822189331,4.590534687042236,7.65608024597168
0.1510486602783203,3.334608793258667,5.854537963867188
2.190271139144897,2.1513593196868896,3.4149465560913086
2.481398344039917,2.298595666885376,1.2890604734420776
3.1751742362976074,2.422072649002075,-0.3372932076454162
3.2653348445892334,1.632529854774475,-2.101902484893799
3.134085893630981,1.6385376453399658,-2.213876247406006
3.455653429031372,2.6086132526397705,-2.118252754211426
3.096139430999756,0.672097384929657,-4.641826629638672
4.6120781898498535,-0.9349340200424194,-7.578489303588867
6.307580947875977,-1.6274044513702393,-9.61118984222412
6.345175743103027,-0.2443230748176574,-11.066869735717772
4.809438228607178,2.8293912410736084,-14.248522758483888
2.3894944190979004,1.9126999378204343,-16.71279525756836
1.3625154495239258,-1.9085509777069087,-19.108434677124023
-0.9996824860572816,-1.8716858625411987,-21.849952697753903
-1.5590734481811523,-2.1980950832366943,-21.11205101013184
-0.4396958947181701,-2.4728217124938965,-17.804712295532227
7.651432514190674,2.9687724113464355,-4.470681190490723
11.509651184082031,-11.834003448486328,4.397522449493408
2.482599258422852,3.140437602996826,-14.308588981628418
10.863961219787598,-0.1397251337766647,-4.460039138793945
0.8382312059402466,-5.665200233459473,-2.5541672706604004
0.2618335783481598,1.5542778968811035,-4.567225456237793
2.4743869304656982,0.5671096444129944,-3.2741644382476807
1.569446682929993,2.3407983779907227,-3.6448590755462646
1.5772738456726074,0.8572256565093994,-3.17905855178833
1.4422560930252075,-0.9457181692123412,-2.227577209472656
1.267129898071289,0.6906707882881165,-1.218826413154602
0.1229757070541381,1.5956337451934814,-0.492008775472641
0.0434264317154884,1.4412542581558228,-0.4789571762084961
-0.250348836183548,1.578332543373108,0.6755552291870117
-0.7949699759483337,0.5541062355041504,-0.4093838334083557
-0.1650071144104004,0.8274111151695251,0.1956062763929367
0.2517008483409881,-0.7013267278671265,0.1723301112651825
1.0180069208145142,-1.5128388404846191,0.065570630133152
1.9465035200119016,-0.977712869644165,0.4748488068580627
1.1805717945098877,-0.8374406099319458,0.3051132261753082
0.714430034160614,0.296548992395401,1.866519808769226
0.802483081817627,1.2218687534332275,2.5220484733581543
1.8480792045593264,-0.1075294613838195,2.679534673690796
2.2918505668640137,0.4241752624511719,1.3037768602371216
3.227189779281616,-0.1032725274562835,2.856198310852051
3.097449541091919,-0.4136021733283996,2.688320636749268
3.422963857650757,-0.3084623515605926,5.033749580383301
4.232972145080566,-0.6403500437736511,5.881029605865479
6.424986362457275,-1.8805242776870728,7.704083442687988
9.455656051635742,-2.861050844192505,9.135942459106444
13.21393871307373,-1.86959171295166,6.766050338745117
14.13511085510254,4.79783821105957,9.95610809326172
9.945597648620604,6.907944202423096,11.015510559082031
7.238864898681641,6.499019622802734,7.989623069763184
5.19808292388916,9.46323299407959,9.659842491149902
3.0230655670166016,-0.76954585313797,15.18969440460205
-0.9887316823005676,-5.052111625671387,13.963977813720703
-2.6040585041046143,1.4514343738555908,13.728604316711426
-2.812450170516968,4.859292984008789,12.100605964660645
-2.8442978858947754,5.16532564163208,10.06325626373291
-1.6770318746566772,3.85310173034668,7.155671119689941
0.3536971509456634,1.4537699222564695,5.5690507888793945
1.3318034410476685,-0.2122387439012527,3.817479133605957
1.033596754074097,0.2452034652233123,1.8533798456192017
1.9267795085906985,0.1802435219287872,1.016130447387695
2.0644898414611816,-0.0662405416369438,-0.7980891466140747
1.9458208084106443,0.161069169640541,-1.6289907693862915
1.8821738958358765,0.1504975259304046,-2.0386736392974854
1.8509371280670168,0.6918635368347168,-4.002790927886963
2.953763484954834,-1.028559923171997,-7.079246044158936
5.3766937255859375,-2.4194788932800293,-9.351274490356444
7.1337890625,-0.5336381196975708,-11.741442680358888
6.624515533447266,3.4627223014831543,-15.544222831726074
3.744870662689209,5.649699687957764,-28.906383514404297
1.860440731048584,-0.7268648743629456,-43.05459213256836
5.490464687347412,2.5882630348205566,-47.62814331054688
12.680426597595217,1.529687762260437,4.114482402801514
0.800148606300354,-18.929826736450195,4.171762466430664
-1.792095184326172,4.552274703979492,-14.24119758605957
2.193047046661377,1.985337257385254,-4.680857181549072
-1.3684122562408447,1.5379304885864258,-2.037635803222656
6.767124176025391,-3.5250113010406494,-0.4387373030185699
3.0918662548065186,3.467151165008545,0.4064320623874664
0.8835564851760864,0.9469072818756104,-0.4632025063037872
3.1065964698791504,-1.9522649049758911,-1.6646445989608765
1.9748282432556152,3.3627870082855225,-0.8082811236381531
2.5375208854675293,-0.1653053164482116,-0.2010221630334854
1.9860165119171145,-0.1292692422866821,0.022808501496911
1.2909750938415527,1.178091526031494,0.2456627190113067
0.4423120617866516,-1.683589220046997,-0.5361430644989014
-0.4360572695732116,0.4132211804389953,0.6547033190727234
-0.9508339762687684,1.9972755908966064,0.0670385733246803
-0.5663617253303528,1.0841305255889893,-0.5208125114440918
-0.1814970076084137,2.1669375896453857,0.6073289513587952
0.3383982479572296,2.349285125732422,-0.0342709794640541
0.7481597065925598,-0.2760149836540222,1.9610596895217896
0.7671831846237183,-0.545198917388916,2.160268068313598
0.590078592300415,-1.6098426580429075,4.571122169494629
1.346932291984558,-2.583135843276977,3.149725437164306
1.4657164812088013,-2.2518210411071777,3.442117214202881
2.993738412857056,-1.3998448848724363,3.447896718978882
3.673691511154175,-1.170701265335083,4.812156200408936
4.5239739418029785,-0.7415676116943359,6.4951934814453125
7.972787857055664,-0.4519876837730407,10.53378677368164
12.959335327148438,3.1275575160980225,13.688477516174316
19.195106506347656,6.188641548156738,11.425455093383787
17.609527587890625,6.4548821449279785,10.926825523376465
12.144804954528809,3.4212076663970947,9.932875633239746
6.9936723709106445,0.0824883505702018,9.067575454711914
2.9755301475524902,-2.5467145442962646,12.553703308105469
0.2616637349128723,2.2598865032196045,14.735203742980955
-1.959843635559082,5.283940315246582,12.510425567626951
-1.876369833946228,4.186188697814941,11.639521598815918
-0.1072357147932052,-0.1036902293562889,10.478424072265623
0.9924784898757936,-0.6203822493553162,7.459676265716553
1.227184772491455,-0.8072342872619629,5.303405284881592
1.11809504032135,-2.011411666870117,3.758117198944092
1.5077232122421265,-0.9340941309928894,2.317589282989502
1.8366079330444336,-0.6891902685165405,0.4799013435840606
1.4821195602416992,-0.337037593126297,-1.3049869537353516
0.1820035874843597,0.2282188981771469,-3.0420703887939453
1.619189739227295,1.421988606452942,-4.352870941162109
3.2987070083618164,1.6788562536239624,-6.827305793762207
5.399346828460693,-0.3780381977558136,-11.31748390197754
6.910356521606445,-1.33402681350708,-14.185422897338867
7.067495822906494,1.8746027946472168,-15.588662147521973
5.0682220458984375,3.8721165657043457,-17.652435302734375
2.3797638416290283,1.4678950309753418,-20.623371124267575
0.9648535251617432,-0.3520990312099457,-22.0708065032959
-0.9373520016670228,0.127258151769638,-22.994115829467773
-0.6974467635154724,0.1226196140050888,-21.177942276000977
1.534416437149048,0.5923822522163391,-17.167001724243164
4.144906997680664,3.5089802742004395,-0.4147427380084991
16.108938217163086,1.9400882720947263,17.99272918701172
2.428372621536255,-15.934138298034668,-8.871827125549316
1.5624825954437256,7.20015811920166,-13.484152793884276
9.679336547851562,-4.215636730194092,-6.942273616790772
0.7726013660430908,-1.6225814819335938,-0.7508771419525146
2.7342159748077397,-0.5496637225151062,-3.942389249801636
0.5499902367591858,3.1438405513763428,-1.985181450843811
1.1869008541107178,2.135803699493408,-1.244217872619629
1.395655393600464,0.1705529987812042,-1.4329195022583008
0.0784882232546806,0.1818113476037979,-0.6284084320068359
0.2069906890392303,1.9042654037475584,-0.8442278504371643
-0.3710208833217621,0.0463759750127792,-1.2646178007125854
-0.9519802927970886,2.630981206893921,0.261874109506607
-0.5622888207435608,-0.1379372477531433,-1.083715319633484
-0.3604751229286194,0.2512893974781036,0.6965608596801758
-0.014539704658091,-0.4332973659038543,0.9409363865852356
0.8503864407539368,-0.8927122950553894,0.7236554622650146
1.718574047088623,-1.1403874158859253,0.685102105140686
1.6164438724517822,-1.4081679582595823,0.6313398480415344
1.5977073907852173,-0.2540283501148224,1.138092041015625
1.3916727304458618,-0.3245608210563659,0.8669834733009338
1.1640321016311646,0.8475420475006104,2.080342531204224
2.029665946960449,0.6107242703437805,1.1538015604019165
2.6391568183898926,-0.8083890676498413,1.104077935218811
3.3942878246307373,-0.7628806829452515,1.663263916969299
3.194964408874512,-1.0132027864456177,3.246873378753662
3.5463356971740723,-1.9442275762557983,3.404636144638061
4.682692050933838,-2.1461663246154785,4.62355375289917
6.856738567352295,-1.7115676403045654,6.795673847198486
9.023606300354004,-2.850489377975464,7.599567413330078
11.47990894317627,-4.937412261962891,6.713453769683838
12.27880573272705,3.914883136749268,11.804319381713867
11.060419082641602,10.277889251708984,10.361054420471191
7.466529369354248,7.899779796600342,6.7501373291015625
6.391392707824707,5.947570323944092,9.811381340026855
6.615262031555176,-3.8553290367126474,14.51503086090088
1.78249990940094,-5.722995758056641,13.335351943969728
-2.6099119186401367,4.248632431030273,13.896790504455566
-4.089772701263428,8.10965633392334,13.337506294250488
-3.8712852001190186,5.2632975578308105,10.151988983154297
-2.512190341949463,3.050828695297241,7.062505722045898
-2.133376359939575,0.8586088418960571,5.342328071594238
-0.7722491025924683,0.7214508652687073,3.7995996475219727
1.8511906862258911,0.4642612636089325,1.884682893753052
2.811746120452881,0.5162808895111084,0.397780030965805
4.179838180541992,0.4642498195171356,-1.1413660049438477
3.9836931228637695,1.6652292013168335,-2.627875566482544
3.74786639213562,1.800313949584961,-3.3600854873657227
3.108142852783203,1.1277087926864624,-3.881732225418091
4.114013195037842,-0.5062337517738342,-6.442027568817139
5.002627849578857,-2.805182695388794,-9.49012851715088
6.794970512390137,-1.918628811836243,-10.453446388244627
6.020196437835693,1.4942361116409302,-11.913065910339355
3.856147289276123,3.778473377227783,-14.639636993408203
2.4770524501800537,-0.3208866417407989,-17.299392700195312
1.6407442092895508,-1.784847617149353,-20.13858795166016
-1.043306827545166,-0.2116919159889221,-21.62873649597168
-1.6972050666809082,0.2179182767868042,-20.323434829711918
0.3486378490924835,-1.5635077953338623,-17.063241958618164
0.3290451765060425,-3.79350471496582,-12.03913402557373
9.100316047668455,8.434224128723145,25.488344192504883
11.939051628112791,-15.820229530334473,2.12868070602417
-2.784572124481201,1.288223385810852,-23.14479255676269
15.99666690826416,10.088889122009276,-0.8261263370513916
2.423600912094116,-9.716479301452637,-1.3043289184570312
-0.8805024027824402,4.438511848449707,-1.7222274541854858
1.9264590740203855,-0.1875003576278686,-3.917325019836426
0.572748601436615,3.0800485610961914,-4.194070339202881
1.3918670415878296,-0.7133011817932129,-3.052135944366455
0.5336709022521973,-0.4868651926517486,-2.3416895866394043
-0.2137728333473205,0.8268697261810303,-1.039957046508789
-0.1782053709030151,0.995737612247467,-1.0269010066986084
-0.3559578657150268,1.2045897245407104,-0.2307516634464264
-0.548669695854187,1.6689704656600952,-0.1608529537916183
-0.1758985221385955,-0.013439786620438,-0.3249130249023437
-0.087285079061985,0.6251196265220642,0.0329023152589798
0.8596182465553284,0.0867516472935676,-0.1313978135585785
1.249578833580017,-0.5286421775817871,0.501451313495636
1.3813378810882568,-0.7021094560623169,-0.3199793398380279
2.2900378704071045,-0.6812536716461182,0.7335926294326782
1.872601866722107,0.1662206500768661,1.752929449081421
1.399863600730896,0.4493866860866546,2.5210039615631104
1.6698486804962158,-0.1056594997644424,3.4076616764068604
1.794338583946228,0.0645785555243492,1.1679301261901855
2.646224975585937,-0.2662024796009063,3.017382860183716
3.5956015586853027,-0.0628740116953849,4.216640949249268
4.129940986633301,0.0936366692185401,5.537130355834961
5.60743522644043,-1.0452765226364136,6.352475166320801
7.968918323516846,-2.7843096256256104,7.318183898925781
10.33297061920166,-4.156632900238037,5.682086944580078
11.418728828430176,1.1593217849731443,6.796733379364014
12.633460998535156,10.636807441711426,12.211115837097168
9.967260360717772,6.314211368560791,9.559653282165527
6.861706733703613,3.774785041809082,10.082076072692873
5.626934051513672,-1.0608196258544922,15.187174797058104
0.3684405088424682,-5.309157848358154,13.879244804382324
-2.253866672515869,2.3700485229492188,13.202757835388184
-2.586165428161621,7.412060260772705,12.656451225280762
-2.4925661087036133,7.051418304443359,10.058008193969728
-1.337376594543457,4.758889198303223,7.257925033569336
0.9818223714828492,2.3277688026428223,5.482859134674072
2.5190746784210205,0.8389984369277954,3.7860281467437744
