Acc_X,Acc_Y,Acc_Z
3.2456765174865723,-1.2550207376480105,2.6417236328125
3.471738576889038,-1.6401426792144775,3.985679864883423
4.782236099243164,-1.226555109024048,5.143070220947266
7.12821102142334,0.6245281100273132,6.011085033416748
9.84859848022461,1.557030439376831,10.992565155029297
11.524727821350098,2.264793872833252,13.068391799926758
10.715940475463867,2.8117709159851074,12.767552375793455
9.308361053466797,-2.6157474517822266,4.860829830169678
11.112924575805664,-10.785318374633787,6.352777004241943
6.75289249420166,-10.824469566345217,8.102930068969727
3.647536277770996,-5.080589771270752,16.190093994140625
0.1464779376983642,2.5786290168762207,20.52450180053711
-0.4671500325202942,1.5197668075561523,19.056474685668945
-0.5781288146972656,-1.9523825645446775,17.289915084838867
-0.9633150100708008,-4.201151847839356,16.21053123474121
-0.7781301140785217,-2.3178746700286865,13.937515258789062
2.108749389648437,-1.388275384902954,11.82093620300293
4.510612487792969,0.2536450028419494,9.053019523620604
7.1994171142578125,2.929250955581665,5.225948810577393
9.40395450592041,4.183516502380371,1.5729426145553589
10.817021369934082,5.033403873443604,-1.7121330499649048
10.509305953979492,5.812638282775879,-6.597970962524414
7.432519912719727,4.88347864151001,-11.565289497375488
5.92705774307251,1.9036118984222408,-19.128028869628903
5.04205322265625,4.750165939331055,-21.28808212280273
1.4943958520889282,5.213863372802734,-23.966215133666992
-0.5384335517883301,2.859275579452514,-26.435714721679688
-2.40543794631958,1.227688550949097,-26.053943634033203
-1.8278933763504028,-2.4941649436950684,-22.8762149810791
6.1886491775512695,-15.193851470947266,-27.92796516418457
13.123961448669434,1.2456029653549194,10.540454864501951
4.150894165039063,2.20491886138916,-12.733590126037598
6.456323146820068,5.042056083679199,-1.7498829364776611
-4.399001598358154,-0.3147388696670532,-5.094482421875
0.357745885848999,-0.4021254181861877,-2.8076107501983643
4.353374004364014,1.0824477672576904,-0.641382098197937
2.245070219039917,3.103553056716919,1.0092064142227173
0.2094973772764206,-2.9367642402648926,-2.033783197402954
1.3059569597244265,-1.1883177757263184,-0.9009968042373656
-0.1621593981981277,0.1758649796247482,-1.172033429145813
-0.1940431743860244,-1.3339579105377195,-0.9777604341506958
0.5253179669380188,-2.1258623600006104,-0.5812945365905762
0.0417177900671958,0.6734194159507751,0.3635705411434173
0.2067763358354568,-0.9048762321472168,0.4542482197284698
0.4210250973701477,-1.2851638793945312,0.470485508441925
-0.4411630928516388,-2.3116438388824463,0.7982214093208313
0.3358091711997986,-1.2828997373580933,0.1504092514514923
1.069278359413147,0.4401877522468567,1.0148208141326904
1.906582236289978,2.8722140789031982,1.810139775276184
2.4537510871887207,0.5702305436134338,2.105956792831421
2.269412040710449,1.8988596200942995,1.7086635828018188
3.0561728477478027,2.235638380050659,2.77180290222168
4.192061424255371,0.9450899362564088,3.1550886631011963
4.944327831268311,0.1147641316056251,5.142062187194824
5.327659130096436,-0.3525959551334381,7.756876945495605
6.671182155609131,-0.3849654495716095,8.898223876953125
8.753223419189453,1.1046509742736816,12.0525541305542
10.61180591583252,0.2922208309173584,16.014413833618164
12.77798557281494,-7.885441303253174,3.918619394302368
13.440958976745604,-10.730610847473145,8.0692720413208
6.773869514465332,-6.759188175201416,12.13449478149414
2.1323437690734863,-8.479874610900879,13.023797035217283
-0.5461592078208923,0.1123902052640914,20.08030128479004
-1.0873165130615234,-2.7103981971740723,16.55083656311035
-1.372134804725647,-5.50269079208374,12.453139305114746
0.0317814946174621,-6.477970123291016,8.706141471862793
2.1683382987976074,-5.439283847808838,4.914829730987549
3.5332682132720947,-2.7064712047576904,4.515200138092041
3.4895122051239014,-0.8485761284828186,3.430991172790528
3.261399030685425,-0.1199598237872123,0.726448655128479
2.8038759231567383,-0.0623564794659614,-1.3789281845092771
2.282454013824463,0.9850372076034546,-2.1385984420776367
2.221449375152588,2.717469930648804,-2.7334372997283936
1.877368211746216,3.660930871963501,-3.2544643878936768
1.5192909240722656,5.8569207191467285,-4.393322467803955
2.1480534076690674,6.357369899749756,-4.932918548583984
3.3917479515075684,4.850162506103516,-6.152719974517822
4.345691204071045,2.630019426345825,-7.070427417755127
3.6675312519073486,0.4327594339847564,-14.320467948913574
3.163632392883301,2.4885494709014893,-15.062495231628418
2.319007873535156,4.134546756744385,-13.11102294921875
1.5322281122207642,3.2214744091033936,-16.281055450439453
0.3947591185569763,-0.5528135299682617,-17.272499084472656
3.231029272079468,0.8004071116447449,-38.20923614501953
13.548097610473633,-0.1246642842888832,-1.4257112741470337
2.904989957809448,1.5816446542739868,4.46978759765625
8.269285202026367,7.116167068481445,-14.397342681884766
1.6424930095672607,0.7237935662269592,4.4048590660095215
-3.863304376602173,-0.9246580004692078,-4.238174915313721
0.653286874294281,-6.984473705291748,-2.7539987564086914
1.2960368394851685,0.945603370666504,-0.5447896718978882
2.7486305236816406,0.2170815616846084,-0.9950560927391052
2.145534038543701,1.135440230369568,-0.9659208059310912
1.678659439086914,2.851325750350952,0.257798284292221
1.3914178609848022,0.0218492094427347,1.1000722646713257
1.0544849634170532,-1.7491174936294556,-0.6103557348251343
0.4814018011093139,-1.6643335819244385,-0.2725014984607696
0.1916024535894394,-0.7960638403892517,-0.471563845872879
0.3084058165550232,0.2330273985862732,0.2458686977624893
1.1321442127227783,0.4608660936355591,0.4143489003181457
1.8455729484558103,-1.6846569776535034,1.4545894861221311
0.009030601941049,-1.5480761528015137,0.6613319516181946
1.389191746711731,0.5922080874443054,1.519355297088623
1.8282749652862549,0.90145742893219,1.1885437965393066
2.0914909839630127,3.3149101734161377,2.0677945613861084
2.6341562271118164,3.48157000541687,2.1293692588806152
3.314413547515869,0.7838877439498901,2.57582950592041
4.249506950378418,1.2289835214614868,3.280828952789306
4.4498291015625,1.7078313827514648,4.308438777923584
4.974252700805664,0.1776951253414154,6.347041606903076
6.991892337799072,-0.3353160917758941,8.681958198547363
9.467416763305664,1.3852471113204956,10.907767295837402
11.852287292480469,3.5699257850646973,15.940414428710938
14.114790916442873,0.7490196228027344,11.558836936950684
14.831683158874512,-6.448098182678223,8.2354736328125
9.23473072052002,-5.642740726470947,10.326128959655762
6.931954860687256,-9.85389804840088,4.5358967781066895
4.80931568145752,-6.8616251945495605,12.143735885620115
0.5598862171173096,-0.630760133266449,19.01383209228516
-0.6960495710372925,-0.9019906520843506,15.207427024841309
-0.2262657880783081,-4.436458110809326,9.973130226135254
1.1790763139724731,-3.844489574432373,8.317790985107422
1.2721730470657349,-4.316741943359375,6.672131538391113
1.93805468082428,-2.5112671852111816,5.849655628204346
2.1994903087615967,-1.3197715282440186,4.554804801940918
2.950026273727417,-0.302495390176773,2.098670482635498
2.7269136905670166,0.0482272021472454,0.2468177080154419
2.920015811920166,-0.0572233647108078,-1.968355417251587
2.0544593334198,0.882904589176178,-4.069063186645508
1.516870379447937,5.50289249420166,-4.173518657684326
2.6275103092193604,5.304726600646973,-6.413915157318115
5.205574035644531,5.055462837219238,-10.226364135742188
6.4602885246276855,3.912271499633789,-15.65310001373291
6.783400535583496,4.763313293457031,-17.181629180908203
3.88871431350708,3.519647121429444,-21.41437530517578
1.11250901222229,2.7974979877471924,-23.90028190612793
-0.4485779404640198,1.344239354133606,-24.843660354614254
-1.2714996337890625,-0.8092799186706543,-23.373872756958008
2.051852226257324,-4.057638168334961,-11.083831787109377
14.483667373657228,4.712913990020752,16.191478729248047
1.1237345933914185,6.889483451843262,-3.2951035499572754
9.287020683288574,-5.575584888458252,-18.399673461914062
7.873746871948242,4.131420612335205,4.00950813293457
-3.822702884674072,1.5242570638656616,-2.0261716842651367
1.1602656841278076,-4.278631210327148,-3.806573152542114
0.984053671360016,0.6167348027229309,-1.0472816228866575
1.9914097785949707,-2.397820949554444,-1.9639099836349487
2.577065706253052,-0.6270169615745544,-1.976958155632019
1.2823752164840698,-0.1663486510515213,-2.029559135437012
0.3151519894599914,-0.3311751782894134,-0.2273461371660232
0.6378384232521057,-1.502900004386902,-0.3355544209480285
0.8334593772888184,-1.3878430128097534,-0.918822169303894
0.0408886447548866,-0.1377697438001632,-1.063022255897522
0.7226270437240601,0.6624320149421692,1.1262835264205933
0.7877185940742493,0.4073372185230255,0.7599974274635315
1.016869306564331,0.103424534201622,0.7259159684181213
1.050876498222351,-0.2084939330816269,1.622688889503479
2.1054532527923584,-3.0482494831085205,2.6375956535339355
-0.5973311066627502,-2.7540860176086426,1.7327736616134644
1.989148736000061,0.5613930821418762,1.4219003915786743
2.6489033699035645,2.062463998794556,1.0233596563339231
4.856974124908447,4.538886070251465,1.9645850658416748
4.83282995223999,3.7195119857788086,2.603455781936645
5.79140043258667,1.053382158279419,5.309855937957764
7.827278614044189,-0.5715252161026001,7.119992733001709
10.514704704284668,-0.0132878646254539,10.491000175476074
13.925359725952148,0.3886964023113251,12.424367904663086
17.576629638671875,-0.7580848336219788,18.28852081298828
9.298247337341309,-2.909097194671631,8.453031539916992
9.567739486694336,-12.664490699768066,1.1186318397521973
8.28931713104248,-9.815939903259276,7.016933441162109
2.476208448410034,-2.162795066833496,18.207427978515625
-1.2045451402664185,2.514356851577759,17.7347412109375
0.1761293411254882,-3.634862184524536,13.316888809204102
0.0121078044176101,-4.398647785186768,11.399774551391602
-0.8504233956336975,-5.333080291748047,10.152270317077637
-0.4661937952041626,-4.189193248748779,7.408465385437012
0.5952264070510864,-2.161994457244873,6.573329925537109
1.1729627847671509,0.0955374240875244,6.372378349304199
1.756241798400879,0.8983089327812195,4.2212677001953125
2.0536892414093018,1.6942683458328247,1.9349064826965328
3.5224742889404297,2.4755635261535645,0.2739385366439819
4.481009483337402,2.4290690422058105,-1.549083948135376
4.093134880065918,2.5890488624572754,-2.9901719093322754
5.347502708435059,3.5809216499328613,-5.151066780090332
6.25521183013916,5.468480110168457,-7.839395046234131
5.289690971374512,5.559832572937012,-10.798518180847168
6.252607345581055,4.277004718780518,-13.388567924499512
5.743192672729492,1.7677216529846191,-14.878923416137695
3.6870675086975098,1.6605629920959473,-17.219661712646484
0.7201675176620483,2.981989622116089,-19.472055435180664
-1.310861110687256,2.048088788986206,-21.495296478271484
-2.007627010345459,0.0428936034440994,-21.32327651977539
-0.7185771465301514,0.3120749294757843,-15.544726371765137
15.301709175109863,-3.941207408905029,8.318843841552734
6.573073387145996,10.603353500366213,5.0777459144592285
1.113724708557129,-0.781383752822876,-15.510576248168944
9.087883949279783,4.548080921173096,-4.615272998809815
3.722126483917236,-0.2705144882202148,-1.113936185836792
-3.226592540740967,-0.9690051674842834,-0.5350180864334106
0.9740665555000304,-3.456822395324707,-2.483555555343628
0.8798342943191528,-3.127878427505493,-3.3279829025268555
2.5208382606506348,0.0336145460605621,-2.5004546642303467
1.418398380279541,2.237527370452881,-1.5555157661437988
0.1125213578343391,1.2206883430480957,-0.6804686188697815
0.3187541365623474,-1.1384472846984863,-0.0867895632982254
0.3332696557044983,-1.5213110446929932,-0.1741245239973068
0.0352690108120441,-0.460299402475357,0.2450114041566848
0.6266148686408997,0.6685659289360046,0.9223519563674928
0.5668900012969971,0.5515146255493164,1.0414737462997437
0.6788233518600464,0.4784498810768127,0.0540668703615665
0.9216893315315248,0.2292280793190002,0.6503801941871643
1.8364547491073608,-2.4158763885498047,1.9622342586517332
0.4332709014415741,-1.4716966152191162,1.3748856782913208
2.2139103412628174,0.157562643289566,1.8908897638320925
2.468770265579224,1.2496753931045532,2.194185256958008
3.057948589324951,4.115584850311279,2.001458644866944
3.381656646728516,4.53887939453125,3.065430164337158
4.094167709350586,3.0732922554016118,3.0047192573547363
5.294546127319336,1.8588297367095947,4.648670196533203
5.944969654083252,0.8210483193397522,6.888157367706299
7.268078327178955,-0.4257182478904724,10.065292358398438
8.82935905456543,0.483621209859848,12.529011726379396
10.31293487548828,1.203147053718567,13.375378608703612
12.150708198547363,-4.139939308166504,1.0211623907089231
13.864919662475586,-7.942071437835693,9.174654006958008
7.104312896728516,-4.329934597015381,9.570845603942873
4.655258655548096,-8.828611373901367,10.567397117614746
1.338554620742798,1.3438056707382202,18.8206787109375
-0.341090977191925,-2.0184919834136963,15.011026382446287
-0.1132144853472709,-4.814494609832764,12.227956771850586
0.3793066143989563,-4.789776802062988,10.159564018249512
1.1981476545333862,-4.065750598907471,8.25059986114502
1.9659785032272337,-1.928718090057373,7.422454833984375
2.872967481613159,-0.6284071803092957,6.599820613861084
3.067523956298828,0.0578434206545352,4.385809898376465
2.8241915702819824,0.857767641544342,3.4621827602386475
2.3816041946411133,1.802639722824097,2.279261827468872
1.939883828163147,2.347562789916992,0.6859789490699768
1.9349231719970703,2.711573839187622,-0.7200672030448914
2.536137819290161,2.899110794067383,-1.9639710187911987
3.927305459976196,3.499499797821045,-3.3101935386657715
4.571881294250488,5.170701026916504,-6.257756233215332
6.291062831878662,5.751303672790527,-10.367191314697266
7.052510738372803,4.7188496589660645,-15.744029998779297
5.566577911376953,3.0383994579315186,-18.628074645996094
2.821793794631958,3.6022469997406006,-21.677143096923828
0.2893523871898651,4.2548017501831055,-23.787487030029297
-0.6178513169288635,0.5712893605232239,-25.593936920166016
-1.0126583576202393,-1.726773381233215,-23.57944869995117
0.4184173345565796,-0.9906004071235656,-18.61541748046875
14.77978801727295,-8.269309997558594,25.971664428710938
5.873693466186523,16.08544158935547,3.52419114112854
-1.936720848083496,4.720128536224365,-17.6888427734375
9.800167083740234,-1.8243898153305051,-4.754568576812744
5.103097438812256,-0.1562167704105377,-1.130013942718506
-3.5106005668640137,-1.1829124689102173,-0.4662083387374878
0.5895720720291138,-2.0174448490142822,-2.9824280738830566
0.340976357460022,-3.015310764312744,-3.351038932800293
2.482612609863281,-0.7620934247970581,-1.3863614797592163
1.461778998374939,0.8962312340736389,-1.8887642621994016
-0.1190881729125976,0.4688591957092285,-1.767032504081726
-0.123515710234642,0.6242269277572632,0.1818651556968689
-0.2285877019166946,-1.849277138710022,-0.5957078337669373
0.2165959775447845,-0.6036628484725952,-0.3235291838645935
0.4433335661888122,0.4393852949142456,0.8192879557609558
0.4105728268623352,1.356768012046814,0.6478066444396973
0.3275939226150512,0.6762486100196838,0.8343940377235413
0.2070044875144958,0.3078162670135498,1.558442234992981
0.0934558436274528,-0.9310643076896667,2.8188304901123047
1.0812796354293823,-6.0058369636535645,3.4809658527374268
-0.6348061561584473,0.0822832882404327,0.4533152878284454
2.068436622619629,1.0468112230300903,1.8240333795547483
2.248931884765625,2.1591038703918457,0.6901254653930664
3.806972742080689,4.190764427185059,2.588275909423828
4.131518840789795,3.2611324787139893,2.906401872634888
4.654409408569336,1.771254062652588,4.499592781066895
4.730774402618408,0.0274689123034477,5.372725009918213
5.331608772277832,0.3810370862483978,7.372653961181641
7.289483070373535,0.3647956848144531,8.928000450134277
7.799158573150635,2.446005582809448,10.78515338897705
7.742777824401855,2.9213783740997314,12.81626319885254
9.172322273254396,-3.0337634086608887,4.468643665313721
14.075812339782717,-6.333466529846191,11.933867454528809
7.397066593170166,-7.460041522979736,9.393930435180664
7.02906608581543,-13.347541809082031,2.370623111724853
5.410531520843506,-7.83467435836792,11.216349601745604
0.0530973486602306,3.035943984985352,17.479276657104492
-2.4448490142822266,3.725983858108521,14.130584716796877
-2.101149082183838,-1.4041333198547363,9.941880226135254
-0.4084991812705993,-4.10426664352417,7.772532939910889
-0.4143763482570648,-5.904200553894043,5.35574197769165
-0.5208966732025146,-3.367643356323242,5.174224376678467
0.0255936831235885,-1.4516619443893433,5.71512508392334
1.6092742681503296,0.0872060656547546,4.271486282348633
2.1816561222076416,0.0994155704975128,1.0505777597427368
1.791379451751709,0.5257053971290588,0.140829250216484
2.34522032737732,1.6827691793441772,-0.4206643104553222
1.9090818166732788,2.0444483757019043,-1.5964940786361694
2.075258255004883,2.308438301086426,-2.297663927078247
3.040570020675659,2.371840715408325,-2.966502904891968
3.1240100860595703,1.9882522821426392,-5.57462215423584
2.422287702560425,2.972961902618408,-10.435365676879885
3.809422254562378,5.609914779663086,-12.36931610107422
5.162188053131104,4.650432586669922,-13.001041412353516
4.484248638153076,0.8315550684928894,-16.31620979309082
1.6625524759292605,0.6298109889030457,-18.928791046142575
-0.8321129083633423,2.7619547843933105,-20.55873680114746
-2.443654060363769,2.477452039718628,-21.787830352783203
-2.225566864013672,0.7341890335083008,-19.879079818725582
7.627934455871582,-5.188786506652832,10.177593231201172
13.388351440429688,4.147890567779541,7.883522510528564
-5.388874053955078,11.811914443969728,-9.373266220092772
12.59589385986328,-7.386565208435059,-14.842100143432615
9.750422477722168,8.621257781982422,0.5836120843887329
-4.999429225921631,-0.6184406280517578,1.3864367008209229
-0.6055132150650024,-2.88486647605896,-3.4511516094207764
-0.038712739944458,-4.715625286102295,-3.7568247318267822
0.282669335603714,-4.050407409667969,-3.7485830783844
0.8631818890571594,0.496743768453598,-1.4702237844467163
0.832097589969635,0.5950231552124023,-1.9671920537948608
0.042779617011547,0.668877124786377,-0.0496695153415203
0.6758845448493958,-0.4660295844078064,0.0441853813827037
0.2439451813697815,0.105317622423172,-0.0629644617438316
0.2135276794433593,0.3082846999168396,-0.3504445850849151
-0.0511888675391674,0.9979264140129088,0.3752421438694
-0.6077215671539307,-0.0369700528681278,0.9693501591682434
0.0568478107452392,-0.4758563339710235,0.9495654106140136
0.4316678941249847,-0.7125135064125061,1.8390791416168213
0.8733548521995544,-4.066915035247803,2.9184958934783936
0.878225564956665,0.1227324157953262,0.8074352741241455
1.5000594854354858,-0.3774559497833252,2.7824482917785645
1.9598388671875,1.3993850946426392,1.8735843896865845
3.137399435043335,2.8199000358581543,2.3066182136535645
4.060122489929199,1.8093534708023071,4.297309398651123
4.886503219604492,0.9989761114120485,5.032206058502197
6.16053581237793,1.132490873336792,6.0024919509887695
7.254763126373291,1.9786220788955688,7.5317535400390625
9.35793113708496,1.835964560508728,12.6508150100708
10.746001243591309,0.4585110247135162,16.66031265258789
10.549784660339355,-4.872821807861328,3.906670570373535
13.634329795837402,-7.251712322235107,6.823825836181641
8.934876441955566,-5.251287937164307,9.888191223144531
3.633531093597412,-9.913846015930176,8.809568405151367
1.4546159505844116,-2.301640510559082,18.31267547607422
-1.3392869234085083,0.5647809505462646,18.773910522460938
-0.617148756980896,-4.270931720733643,13.304743766784668
-0.0366932898759841,-4.303274154663086,10.006058692932127
0.3044852018356323,-4.759232044219971,8.050643920898438
1.0010967254638672,-2.954071283340454,7.006195545196533
1.942382216453552,-1.7763113975524902,6.30424690246582
3.445549249649048,-0.4879407882690429,3.919508695602417
3.252384185791016,0.398163229227066,1.6330618858337402
3.211848735809326,1.097604751586914,0.0147741287946701
2.8185110092163086,1.886170744895935,-2.283372402191162
0.7191316485404968,3.758822202682495,-2.8604185581207275
1.0714261531829834,5.563747882843018,-4.136013507843018
2.032747268676758,6.547919273376465,-6.129074096679688
2.6764235496521,5.69204044342041,-8.40493106842041
4.75718355178833,4.682175159454346,-10.538199424743652
6.473227024078369,3.140826463699341,-13.317858695983888
5.915884494781494,2.750725030899048,-15.063822746276855
2.8028724193573,4.622908115386963,-17.16258430480957
0.4356333017349243,5.254140853881836,-19.50071144104004
-1.47088360786438,2.6669580936431885,-20.75005149841309
-1.6876827478408811,1.962623953819275,-20.56100273132324
4.2289581298828125,-4.416509628295898,-4.841323375701904
13.352219581604004,5.7312421798706055,7.872959613800049
2.113856077194214,10.81579303741455,-2.894644021987915
6.13634729385376,-8.75910472869873,-13.96613311767578
5.418753147125244,4.915740489959717,-0.6146142482757568
-1.5250884294509888,1.3260579109191897,-0.6783241033554077
1.097060203552246,-0.1997334659099578,-2.8193681240081787
0.080405943095684,-2.0162744522094727,-1.7818506956100464
0.6779863834381104,-2.793088436126709,-3.517495632171631
1.4048688411712646,0.4025194346904754,-2.5199007987976074
1.5597375631332395,1.2055355310440063,-1.370100498199463
0.6181507110595703,0.268704205751419,-0.1776026785373687
0.4356213510036468,-0.8719154596328735,-0.0864783301949501
0.3653225898742676,-0.9525232911109924,0.0308798272162675
0.0333109609782695,-0.5851970314979553,-0.1608909368515014
-0.0833090767264366,-0.3688650131225586,0.1612339913845062
-0.2005029469728469,-0.6624335646629333,0.1100004240870475
0.2349570542573928,-0.761985182762146,0.5371415615081787
0.2286867052316665,-1.3167561292648315,0.7507440447807312
-0.0844235718250274,-3.837002038955689,2.413259744644165
0.369903951883316,-0.4775802195072174,1.1788086891174316
1.0363237857818604,0.5073009133338928,1.969546675682068
1.6299484968185425,2.62626576423645,1.597719430923462
3.1073739528656006,4.583015441894531,3.1019182205200195
3.801884412765503,4.067037105560303,3.0616533756256104
4.765213489532471,1.9282997846603396,3.08001708984375
4.962518692016602,0.0025733280926942,4.827596187591553
5.953587055206299,-1.178197145462036,6.892363548278809
8.123958587646484,-1.5882595777511597,10.52939510345459
10.263138771057127,-1.633647918701172,12.47821044921875
13.788955688476562,-2.4721381664276123,15.250152587890623
10.85906219482422,-3.72834587097168,5.22615909576416
13.308624267578123,-10.453203201293944,5.981297016143799
9.319995880126951,-10.45101833343506,8.31804370880127
3.3627614974975586,-5.574113845825195,15.422128677368164
-0.4023594260215759,-0.6818143725395203,17.012937545776367
-0.1045738607645034,-3.287335157394409,14.62123966217041
-0.2606428265571594,-5.599829196929932,11.927009582519531
-0.7649169564247131,-4.636440277099609,10.205917358398438
-0.4439817667007446,-4.39023494720459,6.923051357269287
0.3860520422458648,-2.695295572280884,5.289966106414795
1.3911073207855225,-0.6925277709960938,5.986372470855713
1.770211696624756,-0.1246805340051651,3.506666898727417
1.793291091918945,-0.9983513355255128,1.3915318250656128
2.136542558670044,-0.2727604806423187,0.4400036036968231
2.7756218910217285,-0.3458875715732574,-0.7877539992332458
3.149510145187378,0.0383277274668216,-1.5402752161026
3.9313154220581055,0.9566049575805664,-2.490443468093872
3.671353340148926,3.8281402587890634,-3.457693338394165
3.360696315765381,7.08637285232544,-6.475765228271484
2.9646008014678955,9.575437545776367,-10.92959690093994
4.769466876983643,9.4296875,-12.02467155456543
5.833536148071289,3.691683769226074,-15.048239707946776
3.4278135299682617,0.3579567670822143,-18.805727005004883
0.197536900639534,4.01053524017334,-20.489107131958008
-0.8677738308906555,2.721819400787353,-21.87506675720215
-2.35030198097229,-0.6188008189201355,-22.263822555541992
-0.1234061792492866,-1.3429054021835327,-12.76552677154541
17.205812454223633,-0.3097341060638428,9.09200954437256
4.420665264129639,16.962646484375,3.863144397735596
4.485813140869141,-8.344687461853027,-20.96472930908203
11.577607154846191,6.462704181671143,0.7229382991790771
-2.070920467376709,-2.600512981414795,-0.4922343492507934
-1.4666388034820557,-1.8008198738098145,-2.908809185028076
1.0964064598083496,-1.26158607006073,-2.943784475326538
1.678059220314026,-2.97073745727539,-3.9898409843444815
2.230029821395874,0.186919093132019,-2.3881545066833496
1.798822999000549,1.8758718967437744,-1.4211376905441284
0.1018361151218414,1.5380388498306274,-0.3483286201953888
0.0021173884160816,-1.4718282222747805,-0.3355816900730133
-0.5132547616958618,-1.6613346338272097,0.0942225232720375
-0.7069738507270813,-1.015787124633789,-0.4481599330902099
-0.1326238512992859,0.6110824942588806,-0.3440731167793274
0.4037405252456665,1.178982138633728,0.2467985302209854
0.8692450523376465,0.5157655477523804,0.8593162298202515
0.7149074673652649,-0.0316210649907588,0.688079833984375
1.018697738647461,-0.6205319166183472,1.9990469217300413
0.8441619277000427,-3.733271598815918,2.3430421352386475
1.4954392910003662,-0.5001152157783508,2.0880777835845947
1.3165279626846311,0.0612424686551094,2.069171190261841
2.535762071609497,2.2141788005828857,1.6016976833343506
3.448493480682373,3.3352415561676025,2.243060111999512
4.302972793579102,3.4672930240631104,3.344395160675049
4.304896831512451,1.3151121139526367,4.268950939178467
4.767891883850098,0.5973458290100098,5.880166530609131
6.7218217849731445,0.19976307451725,7.479106903076172
8.786462783813477,0.6654365658760071,9.359271049499512
10.667341232299805,1.095887303352356,14.080501556396484
10.13913345336914,-1.9545414447784424,11.218939781188965
12.70673942565918,-8.71024227142334,4.133371353149414
11.019104957580566,-5.999204635620117,9.609783172607422
6.250529766082764,-7.081959247589111,7.557807922363281
4.344846248626709,-7.637750625610352,11.687735557556152
1.4173710346221924,0.0114561496302485,17.757591247558594
-1.3683406114578247,-1.274872064590454,15.312126159667969
-1.374868869781494,-5.418596267700195,12.242856979370115
-1.1712889671325684,-4.859556674957275,10.789491653442385
-1.1822161674499512,-4.512966156005859,7.8749775886535645
-0.2083570510149002,-2.089385986328125,6.684022903442383
0.8729493021965027,-0.8038226962089539,5.792073726654053
2.443908452987671,-0.1147298961877822,3.1652731895446777
3.6257381439208975,-0.1493906378746032,0.4889088571071625
4.8354997634887695,-0.2336063981056213,-1.199910283088684
5.289887428283691,-0.6416196227073669,-3.2921414375305176
3.506448268890381,3.2264223098754883,-4.797016620635986
3.114163875579834,4.9664506912231445,-5.137653827667236
4.693267822265625,4.7454376220703125,-7.653266429901123
4.402985572814941,5.847071170806885,-9.18393325805664
5.052831172943115,2.300180196762085,-11.936257362365724
5.500649452209473,1.3868730068206787,-12.661547660827637
3.25384521484375,2.107511043548584,-14.035687446594238
1.4346046447753906,3.1435582637786865,-15.532442092895508
-0.2982045710086822,2.3973312377929688,-16.338329315185547
-1.847743034362793,2.486783742904663,-16.646766662597656
-1.7102006673812866,2.624440193176269,-15.70751953125
-0.3479191362857818,1.960323929786682,-13.429466247558594
3.6640894412994394,-1.2954471111297607,1.3737051486968994
15.04852294921875,6.18290901184082,6.5186076164245605
2.450585126876831,7.0439043045043945,-6.752477645874023
8.140256881713867,-2.5036211013793945,-14.027344703674316
7.897106647491455,7.885280132293701,1.53113055229187
-3.2611773014068604,-1.1756538152694702,-1.3331104516983032
-1.485633134841919,-4.476575374603272,-4.1199259757995605
1.8736652135849,-0.9040308594703674,-1.9521387815475464
2.7843263149261475,-1.459890365600586,-2.547391176223755
1.8127498626708984,1.1147469282150269,-1.629029631614685
0.9550468921661376,2.6091558933258057,-1.039445877075195
0.4156162738800049,0.4238470494747162,-0.5784106850624084
-0.1972239166498184,-0.5612877607345581,0.6836198568344116
0.1454850733280182,-2.3636369705200195,-1.002011775970459
-0.0082178115844726,-1.0637643337249756,0.0220962055027484
0.0238102376461029,1.1161457300186155,-0.5785777568817139
0.3469716012477875,0.8766701817512512,0.5356210470199585
0.6084592938423157,0.1988750994205474,0.6201336979866028
0.5071364045143127,-0.185537189245224,1.5882176160812378
0.812065601348877,-0.4274930655956268,2.3881514072418213
1.420465350151062,-3.5773205757141118,3.29004168510437
0.8671558499336243,0.2288576662540435,0.6937039494514465
2.144744873046875,0.653803288936615,2.271324872970581
2.789996862411499,1.7728915214538574,1.6337356567382812
4.234878540039063,2.041878461837769,3.3225550651550293
4.553946971893311,1.53056001663208,3.80302095413208
5.373745918273926,0.7958592772483826,5.1371169090271
6.155269145965576,0.4574100077152252,6.188241958618164
7.663742065429687,0.6413940787315369,9.296568870544434
9.331372261047363,0.8127594590187073,12.554039001464844
10.102319717407228,0.3018532991409302,13.613188743591309
12.06860065460205,-2.855889320373535,5.917173385620117
14.63061237335205,-8.960091590881348,10.24055004119873
9.496170997619627,-8.44975757598877,7.85291862487793
3.854750633239746,-8.550799369812012,9.485270500183104
0.5547112226486206,-1.5249240398406982,17.74022102355957
-1.9516507387161253,0.5765162110328674,17.130475997924805
-1.210708737373352,-4.363170623779297,11.641077995300291
-0.5851434469223022,-4.097286701202393,9.904463768005373
-0.606807291507721,-3.1951184272766118,8.820371627807617
0.0851035863161087,-2.7167282104492188,6.061445713043213
1.1355986595153809,-1.9446005821228027,4.868098735809326
2.505361318588257,-0.2802553474903106,4.426541328430176
2.676979780197144,-0.2899502217769623,1.769197940826416
2.4018797874450684,0.0727534517645835,0.4752538204193115
2.6495985984802246,-0.0279782265424728,-1.1363534927368164
2.629523515701294,0.5153250694274902,-1.7271573543548584
3.7302050590515137,1.6342490911483765,-2.101835250854492
3.5004444122314453,2.146820545196533,-3.3752408027648926
2.083097457885742,5.373373031616211,-7.04301643371582
4.030464172363281,7.910211086273193,-9.84392261505127
7.296665191650391,6.639925479888916,-11.394298553466797
7.147197723388672,0.3128237426280975,-16.011934280395508
2.147531747817993,3.4114460945129395,-20.08749389648437
-0.8892783522605896,8.088558197021484,-21.689809799194336
-1.090938925743103,3.778695583343506,-23.18517303466797
-0.402419239282608,0.9500274062156676,-20.304685592651367
10.347504615783691,-4.206206321716309,-9.47804832458496
11.345610618591309,12.575677871704102,9.044897079467772
-0.2210232466459274,2.297320604324341,-14.338523864746094
11.276605606079102,1.895928740501404,-4.7056803703308105
1.1550520658493042,-0.1889493763446808,-1.0061441659927368
-1.0752403736114502,1.579824686050415,-1.8755987882614136
1.2484698295593262,-2.811253786087036,-2.6954474449157715
1.1279852390289309,-2.1379380226135254,-3.467024087905884
2.0616567134857178,-0.9404979348182678,-2.604697704315185
2.332929372787476,1.40302836894989,-0.2482939809560775
1.2579864263534546,0.6891012787818909,-0.26692596077919
0.3148441612720489,-0.5790588855743408,-0.5164285898208618
0.2205209881067276,-1.179402470588684,-0.1210186034440994
-0.2582666873931885,-0.6281877756118774,0.3587662875652313
0.6179153919219971,-1.8668841123580933,0.9299338459968568
-0.6632176637649536,-1.028345227241516,0.1851230710744857
-0.2031063139438629,-0.4844624400138855,0.0021879179403185
-0.1246328130364418,-0.1164308190345764,-0.3457772433757782
0.5858784317970276,0.3113777041435241,1.091360092163086
1.3652381896972656,0.8910908699035645,1.3477392196655271
0.9703356623649596,1.5178515911102295,1.4337695837020874
1.4453129768371582,1.718052864074707,1.988026022911072
2.168095588684082,1.502435564994812,2.544749021530152
2.9538440704345703,0.8026571273803711,2.841093063354492
4.266476631164551,1.122578501701355,3.0129401683807373
4.251498699188232,1.4673101902008057,4.144985675811768
5.057513236999512,0.1141845881938934,5.653753280639648
6.430436611175537,-0.598961591720581,8.457263946533203
8.348106384277344,-0.1963646113872528,10.642632484436035
9.50922679901123,0.1108500137925148,13.418818473815918
11.35711669921875,-1.2649946212768557,10.00591278076172
12.715560913085938,-8.68697452545166,2.923337697982788
11.666936874389648,-8.338933944702148,12.253180503845217
6.625754833221436,-7.507990837097168,7.599364280700684
4.7201313972473145,-7.8702073097229,10.62874698638916
1.7330987453460691,-1.2160464525222778,14.884737014770508
-0.8235713243484497,-2.7534520626068115,12.855134963989258
-0.5458395481109619,-6.709716320037842,10.144326210021973
-0.6909003853797913,-5.23337459564209,9.620610237121582
-1.178117275238037,-4.576874256134033,7.006656646728516
-0.788399875164032,-2.650205612182617,6.205020427703857
-0.2552433907985687,-1.1331487894058228,6.028759002685547
0.6550397872924805,0.0923208892345428,4.630321025848389
0.615017831325531,-0.1684028357267379,2.7134666442871094
0.5592764616012573,0.3758488297462463,1.6898101568222046
1.321558117866516,0.584391176700592,-0.3271455466747284
2.2024238109588623,1.0887537002563477,-1.3296630382537842
2.407049655914306,1.337432026863098,-2.3469057083129883
2.12786078453064,2.5753962993621826,-3.565915107727051
4.682481288909912,2.1608619689941406,-7.15114688873291
6.158512592315674,4.750877857208252,-9.049371719360352
8.038905143737793,4.574011325836182,-11.20817756652832
8.979451179504395,1.2724878787994385,-14.254227638244627
5.869448661804199,0.3513168692588806,-15.910984992980955
1.741083741188049,4.036309719085693,-17.437664031982422
-0.4556136131286621,5.226613521575928,-18.78633117675781
-1.7495437860488892,2.958637237548828,-18.81780815124512
-1.2223247289657593,2.395719051361084,-16.099990844726562
-0.1760199666023254,3.4211761951446533,-12.246538162231444
3.112872362136841,1.998785138130188,2.2589056491851807
12.13711929321289,3.8974609375,11.155683517456056
3.672292232513428,11.051446914672852,-6.440001964569092
4.86722469329834,-4.8258490562438965,-11.70926570892334
6.972387790679932,4.4170823097229,-0.6647158861160278
0.1291704624891281,1.2052232027053833,0.4318391978740692
-1.2524899244308472,-2.6714401245117188,-3.677817106246948
1.130199313163757,0.4183003604412079,-2.771959066390991
2.2984156608581543,-1.960878849029541,-3.754793882369995
1.741758942604065,-0.6385693550109863,-2.7386045455932617
0.9484596252441406,2.0811352729797363,-1.16926109790802
0.4887617528438568,1.2155554294586182,-0.8593302369117737
0.2282682508230209,-0.5527820587158203,0.7136399745941162
-0.0907044932246208,-1.5623687505722046,0.1566045582294464
0.1350366473197937,-0.3848093748092651,0.569973349571228
-0.0762944519519805,0.588636577129364,1.047274827957153
0.2287123352289199,0.3730440735816955,0.3412035703659057
0.6389048099517822,-0.2258886992931366,1.192654013633728
0.5173289775848389,-1.1510738134384155,1.480400800704956
0.6608848571777344,-1.5176451206207275,2.058225154876709
0.5218240022659302,-2.390392541885376,2.186054944992065
2.140753507614136,0.6668120622634888,1.3418647050857544
1.967198371887207,1.827127814292908,1.8944618701934812
2.633589029312134,3.962138414382935,1.8099132776260376
3.021576404571533,2.968257188796997,2.091558694839477
3.97672700881958,1.0012017488479614,4.200503349304199
4.769453525543213,0.1558590233325958,5.900448322296143
5.41218900680542,-0.9599753022193908,8.059501647949219
7.382538318634033,-0.7742578387260437,9.642623901367188
8.948836326599121,1.1986262798309326,11.560466766357422
9.25209903717041,2.946373224258423,13.336182594299316
8.50255298614502,0.9629603624343872,7.747395992279053
12.633008003234863,-5.599696159362793,11.465043067932127
9.298967361450195,-7.894442558288574,8.140242576599121
5.109649181365967,-10.06507682800293,4.3307294845581055
4.472912788391113,-5.4133124351501465,12.433391571044922
0.9080697298049928,0.2320518791675567,17.462453842163086
-1.087101697921753,0.8521459102630615,12.248208045959473
-1.3835221529006958,-3.652621269226074,7.850794792175293
0.0353810936212539,-3.341474771499634,6.935765266418457
0.2094993889331817,-4.865204334259033,4.668333530426025
0.4107624292373657,-3.7251205444335938,3.455846071243286
1.0684595108032229,-3.140011548995972,4.331656455993652
2.1969919204711914,-2.216355800628662,2.5875020027160645
1.8916112184524536,-3.034031867980957,-0.4081171452999115
0.5040632486343384,-1.834477782249451,-1.3872990608215332
-0.0819910764694213,0.1158538460731506,-1.973787784576416
-0.7550163865089417,1.2127317190170288,-2.982871532440185
-1.4434125423431396,2.2782750129699707,-2.9626972675323486
-0.1046965271234512,2.895566463470459,-4.022673606872559
1.7504645586013794,3.6340837478637695,-5.733669281005859
3.691858291625977,4.509778022766113,-8.824812889099121
6.253035545349121,4.10644006729126,-11.16588020324707
6.792193412780762,3.353764772415161,-11.982993125915527
4.939101696014404,2.7758963108062744,-13.355335235595703
2.516759395599365,3.4997360706329346,-15.577194213867188
-0.1685305535793304,4.995022773742676,-17.14394760131836
-1.379805564880371,4.428680896759033,-18.897480010986328
-1.5857614278793335,3.2658801078796387,-18.929296493530277
6.305790901184082,1.1595700979232788,0.3289241194725036
13.717033386230469,4.986542701721191,5.021180629730225
-1.8731809854507449,12.12325668334961,-2.8406460285186768
5.642330169677734,-6.220582485198975,-13.257439613342283
7.767220497131348,4.258282661437988,-1.762248992919922
-1.8471382856369016,1.3617018461227417,0.34337118268013
0.0648579597473144,-1.1562496423721311,-2.2760727405548096
1.2121577262878418,-1.605728268623352,-2.122763156890869
1.661710262298584,-2.7588839530944824,-2.932504177093506
1.2528938055038452,1.511550784111023,-1.6164288520812988
0.659912645816803,2.045696258544922,-0.8901558518409729
0.2210057228803634,-0.3790220022201538,-1.0062419176101685
0.4013372361660003,-1.2402950525283811,0.0127851320430636
0.3559886515140533,-0.7151930332183838,0.2214695662260055
-0.0472858324646949,0.4431208670139313,0.2392004281282425
0.2172284573316574,0.817396879196167,0.3456203639507293
0.1630421280860901,0.295583039522171,0.2919963002204895
0.3101146519184112,-1.2559436559677124,1.20455002784729
1.0371979475021362,-3.851391553878784,2.7344532012939453
0.0861934348940849,0.0611064583063125,1.254522442817688
1.9454072713851929,0.1523163020610809,1.5299699306488037
1.5537821054458618,0.8244235515594482,1.6590560674667358
1.7914090156555176,2.9847676753997803,2.4832406044006348
2.2932376861572266,2.089123487472534,3.802235126495361
3.052070140838623,0.3670271337032318,3.872092247009277
4.688478469848633,0.8088015913963318,4.674727439880371
5.597344875335693,0.4102783799171448,7.037547111511231
7.084357738494873,-0.6467984914779663,9.169325828552246
9.241440773010254,0.5031896829605103,11.958507537841797
10.38519287109375,0.6080037355422974,15.302428245544434
7.413491725921631,-0.6088148355484009,6.707205772399902
12.79623794555664,-4.581161975860596,8.278718948364258
12.725722312927246,-10.042141914367676,6.625115871429443
7.113405704498291,-9.926039695739746,5.753514766693115
4.532521724700928,-5.056774616241455,12.767240524291992
0.7253207564353943,-0.9494087100028992,15.56401538848877
-1.278265357017517,-1.3043427467346191,14.291848182678224
-2.645840883255005,-3.838963508605957,10.763086318969728
-1.8873590230941768,-3.744382858276367,9.114389419555664
-1.523525357246399,-3.210198879241944,8.045920372009277
-1.2881548404693604,-1.4227715730667114,6.850444793701172
-0.3775258660316467,-1.0083612203598022,4.4490227699279785
1.4961304664611816,-0.1253570318222046,4.23821496963501
2.791195869445801,0.5915381908416748,2.237591028213501
2.7823920249938965,-1.6956974267959597,-0.538152813911438
3.254506826400757,-0.8713600039482117,-1.9360098838806152
4.022378444671631,-0.2333022654056549,-3.8975830078125
1.5734493732452393,4.683224678039551,-3.1450064182281494
1.3070619106292725,4.057873725891113,-6.3384318351745605
2.0056371688842773,5.745798110961914,-9.66445255279541
4.105833530426025,6.080626964569092,-9.139762878417969
7.553173065185547,2.029748916625977,-11.088199615478516
7.25588846206665,-0.7208561897277832,-14.61839771270752
4.197484970092773,2.208070993423462,-16.235870361328125
1.7177141904830933,5.336348533630371,-16.922250747680664
-0.062684565782547,3.707073211669922,-20.13554573059082
-1.5965176820755005,2.105473279953003,-20.44691276550293
-0.4553110599517822,3.876455545425415,-18.30424690246582
8.588981628417969,0.2777770161628723,9.19662380218506
11.530633926391602,6.2972412109375,5.633111953735352
-1.393876314163208,11.850741386413574,-7.246755123138428
7.431114673614502,-7.135317802429199,-11.124445915222168
7.040546417236328,5.407549381256104,-3.451871395111084
-2.029760837554932,2.4040427207946777,3.304362297058105
-0.1699073314666748,-2.3572351932525635,-2.1819252967834477
0.4924847781658172,-4.913569450378418,-2.4231209754943848
1.1921991109848022,-4.070216178894043,-3.392317533493042
2.2664365768432617,3.4708101749420166,-2.024793863296509
0.9588473439216614,3.260918140411377,-1.3536826372146606
0.5014817118644714,-0.3310566842556,-0.8283047676086426
0.4483256638050079,-0.9923989176750184,-0.6360037922859192
-0.2067451626062393,-0.5645285844802856,-0.5847467184066772
0.2262591272592544,-0.3557530343532562,0.0798443779349327
0.3997312784194946,0.3986850082874298,0.200430765748024
0.2275177240371704,0.6335801482200623,0.4677277207374573
0.0141065753996372,0.2809977233409881,0.5486947298049927
-0.6069031357765198,-0.738649845123291,1.6450157165527344
-0.6895280480384827,-0.7131024599075317,2.6444132328033447
0.2268504053354263,-2.9535419940948486,3.3557865619659424
0.8683571219444275,-0.326813668012619,0.5481460690498352
1.931172251701355,0.4188010096549988,2.0097427368164062
2.3619303703308105,1.0926477909088137,2.5185227394104004
3.2029292583465576,1.3913824558258057,3.2988104820251465
4.617347717285156,1.2090394496917725,4.796811580657959
4.717766761779785,1.093930721282959,6.833176136016846
5.590041637420654,-0.5696568489074707,6.762969970703125
8.401517868041992,-1.3627433776855469,9.534346580505373
11.98360824584961,-2.595755100250244,13.594082832336426
10.24862289428711,-4.973884105682373,8.593488693237305
9.95149040222168,-6.057169437408447,3.9071450233459473
14.203378677368164,-11.893675804138184,5.636849880218506
9.133138656616213,-3.810594081878662,10.205602645874023
5.223179340362549,-0.0300073437392711,15.64833927154541
2.298851251602173,-3.416342735290528,14.64783763885498
-0.0882824063301086,-3.388336420059204,15.49077606201172
-2.339110851287842,-2.269453525543213,15.21176815032959
-2.16190242767334,-2.1409432888031006,13.726354598999023
-1.434031963348389,-0.6761522889137268,12.304701805114746
-0.2818619310855865,0.5268574953079224,10.428991317749023
1.0494762659072876,0.569409191608429,7.901423931121826
2.0692052841186523,0.2541156113147735,5.545936584472656
2.528912305831909,0.0296193398535251,3.3753750324249268
3.607423782348633,-0.7026622295379639,0.8176636695861816
4.16105318069458,-1.1025333404541016,-1.2513103485107422
3.713525056838989,-2.0718436241149902,-4.360527038574219
4.033373355865479,0.3728825449943542,-7.784308910369873
4.4923601150512695,7.685678958892822,-8.899808883666992
5.896068572998047,7.422981739044189,-14.036234855651855
6.869908809661865,1.562111735343933,-15.480157852172852
5.578950881958008,-2.302839517593384,-22.072959899902344
-1.147778868675232,7.144260883331299,-23.224374771118164
-1.4066145420074463,4.322237014770508,-26.19836807250977
-0.9101563692092896,-3.718057155609131,-24.094135284423828
21.405141830444336,9.552321434020996,-16.992530822753906
3.20849609375,13.89219570159912,10.017084121704102
8.871160507202148,4.090633392333984,-20.812915802001957
8.262625694274902,-4.326399326324463,0.7514379024505615
-6.370519638061523,1.9814897775650024,-2.266852378845215
1.718695878982544,-4.806217670440674,-1.2231634855270386
1.9031617641448972,-1.2452478408813477,-2.5950348377227783
1.2770036458969116,-2.1936044692993164,-2.90729022026062
2.0444700717926025,1.56894850730896,-1.1850124597549438
1.5455143451690674,2.473173856735229,-0.6042221188545227
1.129109025001526,0.5793477892875671,0.3840705156326294
0.7255797386169434,-1.292808175086975,0.0630002319812774
-0.0056893075816333,-1.2966067790985107,0.327358990907669
-0.2247665822505951,0.3599759340286255,0.4804331064224243
-0.2818379998207092,-0.6036452651023865,0.2841930985450744
-0.1304851919412613,-0.137016087770462,-0.0395109914243221
0.2730291485786438,0.4970531761646271,0.4693418741226196
0.4628754258155823,1.0250226259231567,0.4727645218372345
0.4064669013023376,1.2228037118911743,1.864607572555542
0.662289023399353,-0.3489089012145996,1.006847858428955
0.9481943249702454,-0.2812314033508301,1.7854937314987185
0.696316123008728,-0.2489351332187652,2.1523191928863525
1.6249810457229614,0.6416652202606201,2.2793900966644287
2.867401599884033,1.0306106805801392,2.763000965118408
3.030925989151001,0.7077508568763733,3.62467622756958
3.2328343391418457,1.1792892217636108,4.756723403930664
4.101269245147705,1.4802435636520386,5.954236030578613
5.62497615814209,1.5578019618988037,7.782466888427734
7.33373498916626,1.5447124242782593,10.126482963562012
8.56063461303711,1.3784193992614746,11.815120697021484
11.51502799987793,-4.0831804275512695,5.827085018157959
15.817569732666016,-6.532361030578613,12.35344123840332
10.26259994506836,-4.496810436248779,11.58691692352295
9.073378562927246,-13.704078674316406,4.167184352874756
6.603126525878906,-7.859471321105957,11.028974533081056
2.145347118377685,0.9033111929893494,16.695104598999023
-1.4327231645584106,-0.2697761058807373,14.448281288146973
-1.6170868873596191,-2.7738606929779053,11.595611572265623
-1.73077392578125,-3.2348556518554688,8.949976921081543
-1.556839108467102,-3.778052091598511,6.938557624816895
-1.1010990142822266,-2.2613725662231445,5.918642520904541
-0.0927334576845169,-1.2897517681121826,5.104046821594238
1.2629344463348389,-0.1377628594636917,3.301100730895996
1.7550700902938845,0.0703686997294426,0.9370076060295104
1.7210429906845093,0.1751154959201812,-1.0523443222045898
1.8730095624923704,0.7414125800132751,-2.468679904937744
1.4641534090042114,2.588241577148437,-3.259556293487549
2.418830394744873,4.026726245880127,-4.121307373046875
3.7455027103424072,4.12282133102417,-6.486387729644775
4.88605546951294,5.839738845825195,-8.636451721191406
6.968618392944336,5.203411102294922,-11.13085651397705
7.434499263763428,3.0288124084472656,-12.782027244567873
5.761861801147461,0.6408475041389465,-16.00555419921875
1.829776406288147,3.493140459060669,-16.965576171875
-0.3061865270137787,5.332636833190918,-17.09664535522461
-0.8831701278686523,2.7900357246398926,-18.0859432220459
-0.7269391417503357,2.6120424270629883,-16.64653778076172
0.1032682657241821,3.669837474822998,-13.760570526123049
0.5715539455413818,2.289668560028076,-10.131464958190918
3.81719970703125,-0.669589638710022,6.074285984039307
12.898987770080566,0.1350825875997543,18.637115478515625
0.835124135017395,14.39577865600586,-5.559493541717529
1.939302682876587,-10.1693754196167,-17.058366775512695
12.667088508605955,8.911358833312988,1.1519354581832886
0.1756339073181152,-1.6366335153579712,-0.1116304248571395
-2.675702810287476,0.0264626629650592,-0.7487892508506775
0.3977319002151489,-1.1103705167770386,-2.436047315597534
1.30005943775177,-2.513912439346313,-4.06881046295166
0.8826338648796082,0.93827885389328,-1.8393893241882324
0.453371912240982,1.102383375167847,-1.8333455324172971
0.38924241065979,-0.2476491034030914,-1.549683690071106
-0.3489395678043365,0.1662495285272598,-0.1512117981910705
-0.2122293412685394,-0.2347120642662048,0.4442711174488067
-0.5078058242797852,-1.309502363204956,0.9475790858268738
-0.3113235235214233,-0.2847190201282501,1.0094718933105469
0.0910698175430297,0.4618432819843292,0.898836612701416
0.6710149645805359,0.3397488594055176,0.4781377017498016
0.975799560546875,0.4246680736541748,1.0432287454605105
1.6720370054244995,-1.7217793464660645,2.577016115188598
-0.1140717715024948,-1.0590364933013916,0.5068686604499817
1.9052622318267824,0.142090693116188,1.717381477355957
1.9231746196746824,1.3264708518981934,1.525692582130432
3.148520469665528,3.003479480743408,2.4510231018066406
3.560056686401367,1.8685147762298584,3.3653764724731445
4.245312690734863,1.3081687688827517,4.87983512878418
4.588505268096924,0.8671386241912842,6.343437671661377
6.581912994384766,0.5465978980064392,8.012327194213867
8.761944770812988,1.1575158834457395,9.754366874694824
9.4258451461792,2.2244083881378174,11.924982070922852
8.21209716796875,2.4568066596984863,12.696950912475586
6.921402454376221,-3.270387649536133,3.941115140914917
11.139373779296877,-7.258356094360352,9.35801887512207
7.548649311065674,-6.646160125732422,5.4947123527526855
5.983213901519775,-9.243128776550291,7.066145896911621
5.783265590667725,-2.2740161418914795,14.491573333740234
1.0250380039215088,1.4113014936447144,13.465996742248535
-0.9371577501296996,-2.3329365253448486,9.48288345336914
-1.376821517944336,-3.234677791595459,8.472747802734375
-1.0180213451385498,-4.099335193634033,7.721930503845215
-1.172736883163452,-4.158594608306885,5.025429725646973
-0.9910281896591188,-2.779718399047852,4.124316692352295
-0.115454688668251,-1.5677988529205322,4.702319145202637
0.9417428970336914,0.5479463338851929,3.9998061656951904
1.484832525253296,-0.2127389907836914,1.2954689264297483
1.087844967842102,-0.1736760735511779,0.434319257736206
1.0364803075790403,0.8659642338752747,0.3123944401741028
0.4461620151996612,1.6930142641067505,-0.8389003276824951
-0.6616734266281128,2.800645351409912,-1.0318686962127686
-1.2152166366577148,2.7053093910217285,-1.7429912090301514
-0.6411023139953613,2.692204713821411,-3.047184944152832
0.7469452023506165,3.136935234069824,-5.62379789352417
3.350138664245605,3.489541530609131,-8.249247550964355
6.365848064422607,4.011479377746582,-10.318973541259766
7.790428638458252,3.150681734085083,-12.541155815124512
5.379950523376465,2.655147790908813,-15.963748931884766
1.8897889852523804,2.434391498565674,-19.02008056640625
-1.1430878639221191,3.970860004425049,-21.11774253845215
-2.451538324356079,4.430934429168701,-21.36705207824707
-0.0724774301052093,1.0231189727783203,-12.701375961303713
16.353036880493164,-2.742489814758301,9.512090682983398
3.4171831607818604,11.505126953125,2.671229600906372
1.6208685636520386,-3.769047498703003,-17.479524612426758
10.644502639770508,3.970659732818604,-2.221500396728516
0.4180886745452881,-0.4308469295501709,1.1265918016433716
-1.880989909172058,-1.5124024152755735,-3.23087739944458
1.4140061140060425,-0.8557883501052856,-2.503918409347534
0.6945763826370239,-4.548369884490967,-5.196276664733887
0.7710506916046143,0.452684074640274,-2.2341926097869877
1.8084428310394287,1.664621114730835,-1.7066023349761963
0.8474759459495544,1.2277129888534546,-1.118133306503296
