PacketCounter,SampleTimeFine,Quat_W,Quat_X,Quat_Y,Quat_Z,Acc_X,Acc_Y,Acc_Z,Gyr_X,Gyr_Y,Gyr_Z 
1,986191035,0.75266397,0.08201619,-0.65312034,0.014287087,0.47721922397613525,0.6744891405105591,1.222114086151123,-0.7027009129524231,0.9927166700363159, 0.3766537308692932
2,986207702,0.7527452,0.08265254,-0.6529437,0.014414434,9.67987060546875,1.1027621030807495,1.3006130456924438,1.2188763618469238,0.06813618540763855, -0.5441930294036865
3,986224369,0.75268424,0.08355326,-0.652904,0.014205869,9.689299583435059,1.108674168586731,1.2902584075927734,0.8597862720489502,0.04398340731859207, -0.5347419381141663
4,986241036,0.7525574,0.08438954,-0.6529478,0.01396984,9.736059188842773,1.0933083295822144,1.2951059341430664,1.046323537826538,0.12486830353736877, -0.4700954556465149
5,986257703,0.75246006,0.08474868,-0.6530203,0.01363992,9.706924438476562,1.1010860204696655,1.3267805576324463,1.3578636646270752,0.3634505569934845, -0.36921989917755127
6,986274370,0.75246686,0.085265554,-0.6529429,0.013751233,9.768630981445312,1.1288949251174927,1.3502287864685059,1.3668153285980225,0.43524304032325745, -0.209806427359581
7,986291037,0.75253826,0.08559307,-0.65281755,0.013760655,9.761693954467773,1.1330204010009766,1.349318265914917,1.5145238637924194,0.45593807101249695, 0.02623380906879902
8,986307704,0.7526132,0.08633721,-0.6526206,0.014339478,9.653483390808105,1.1496256589889526,1.3214482069015503,1.2194269895553589,0.3817252516746521, 0.14877775311470032
9,986324371,0.7526495,0.08709612,-0.6524642,0.014949018,9.623766899108887,1.1553932428359985,1.299207091331482,0.8276295065879822,0.05970960110425949, 0.24650302529335022
10,986341038,0.7526398,0.08736285,-0.65243834,0.015014287,9.652798652648926,1.1232938766479492,1.3278493881225586,0.46034350991249084,-0.3385102450847626, 0.3510156571865082
11,986357705,0.7526132,0.08739188,-0.6524679,0.014892231,9.696470260620117,1.1054389476776123,1.364449381828308,0.42622730135917664,-0.574992299079895, 0.4565655589103699
12,986374372,0.7526117,0.08732023,-0.65248257,0.014748148,9.752542495727539,1.0955783128738403,1.3918706178665161,0.31714287400245667,-0.4947989284992218, 0.5260656476020813
13,986391039,0.7526013,0.08757932,-0.65245295,0.015044635,9.730201721191406,1.0864367485046387,1.365835428237915,0.6591235399246216,-0.6186363101005554, 0.5516142845153809
14,986407706,0.7525871,0.087771304,-0.652438,0.0152905695,9.760895729064941,1.0623881816864014,1.3406643867492676,0.9399667978286743,-0.6415468454360962, 0.5094174146652222
15,986424373,0.7525834,0.08778574,-0.65243834,0.01537466,9.701436996459961,1.1087555885314941,1.3116549253463745,0.7256270051002502,-0.48903611302375793, 0.45328712463378906
16,986441040,0.75256824,0.08810741,-0.65240276,0.015783852,9.67817497253418,1.0936044454574585,1.3154330253601074,0.48093605041503906,-0.4358128607273102, 0.2913636565208435
17,986457707,0.75258595,0.08702597,-0.65255594,0.0145495385,9.746194839477539,1.0760302543640137,1.329670786857605,0.8294481039047241,-0.32051733136177063, 0.19499588012695312
18,986474374,0.7525905,0.0871871,-0.6525243,0.014766483,9.725899696350098,1.0655884742736816,1.3015835285186768,0.9475098848342896,-0.09538169205188751, 0.2121179848909378
19,986491041,0.75255525,0.088878594,-0.65228903,0.016738318,9.68232536315918,1.1113858222961426,1.317466378211975,1.025884747505188,-0.034910108894109726, 0.11609596759080887
20,986507708,0.752531,0.09068074,-0.6520123,0.01882206,9.776543617248535,1.0836862325668335,1.3587559461593628,0.8569689393043518,0.1704973578453064, 0.04167826473712921
21,986524375,0.7526126,0.09063156,-0.65192664,0.018765658,9.923638343811035,1.1116491556167603,1.4502094984054565,1.3920438289642334,0.7961643934249878, 0.027181476354599
22,986541042,0.75274235,0.090714715,-0.6517602,0.018934885,9.920768737792969,1.0636496543884277,1.4241068363189697,1.102671504020691,1.2289677858352661, 0.27143698930740356
23,986557709,0.75297725,0.09036522,-0.65154505,0.018665573,9.7669677734375,1.146755576133728,1.347832202911377,1.4904606342315674,2.2232143878936768, 0.4735468327999115
24,986574376,0.75321096,0.091824315,-0.65101504,0.020523213,9.478401184082031,1.130569338798523,1.2109428644180298,0.9119081497192383,2.7584428787231445, 0.5780978798866272
25,986591043,0.7534205,0.092586644,-0.65063167,0.021539839,9.379014015197754,1.082842230796814,1.1114658117294312,1.316550612449646,2.47304105758667, 0.5696969032287598
26,986607710,0.7535714,0.091857284,-0.6505852,0.020766478,9.424369812011719,1.0923798084259033,1.2216626405715942,1.454795002937317,1.530954360961914, 0.4152779281139374
27,986624377,0.75356174,0.092834964,-0.65041906,0.021944717,9.576025009155273,1.0955604314804077,1.4333367347717285,0.4398404657840729,0.37008431553840637, 0.2656356990337372
28,986641044,0.7535099,0.09293599,-0.6504605,0.022065818,9.788976669311523,1.0661498308181763,1.5304596424102783,0.4359729588031769,-0.47354039549827576, 0.14138849079608917
29,986657711,0.75340015,0.09219628,-0.6507216,0.02120091,9.80209732055664,1.0753967761993408,1.552059531211853,0.06959610432386398,-1.5397841930389404, 0.07091516256332397
30,986674378,0.75318396,0.09205083,-0.6509986,0.021008573,9.725930213928223,1.1097456216812134,1.534084677696228,-0.26013535261154175,-2.5989973545074463, 0.0015303586842492223
31,986691045,0.7529209,0.09217027,-0.6512811,0.021163225,9.946270942687988,1.0858863592147827,1.5774298906326294,-0.3699498772621155,-3.088904857635498, 0.20960794389247894
32,986707712,0.7527393,0.090609476,-0.65176404,0.019421006,9.731729507446289,1.0780038833618164,1.4478070735931396,-0.43610742688179016,-2.858031749725342, 0.35668885707855225
33,986724379,0.75257933,0.089546666,-0.65212727,0.018325105,9.563331604003906,1.1684043407440186,1.1288477182388306,-0.8003072738647461,-2.4855587482452393, 0.5818629264831543
34,986741046,0.7523653,0.08984982,-0.6523208,0.01873627,9.462306022644043,1.133135199546814,1.0467296838760376,0.05954312905669212,-2.4345638751983643, 0.44196635484695435
35,986757713,0.7522005,0.088728525,-0.6526997,0.01745939,9.56144905090332,1.0562853813171387,1.1873605251312256,0.9743648171424866,-2.108642578125, 0.38239121437072754
36,986774380,0.7520177,0.08840544,-0.65296346,0.017110951,9.733074188232422,1.0848829746246338,1.3737443685531616,0.8196128010749817,-2.018690586090088, 0.38107216358184814
37,986791047,0.7518532,0.088884175,-0.6530737,0.017641151,9.747992515563965,1.1555047035217285,1.3942440748214722,-0.5667449235916138,-1.7864729166030884, -0.043426331132650375
38,986807714,0.7516954,0.087588884,-0.6534697,0.016111085,9.661835670471191,1.0790042877197266,1.3497223854064941,-0.9210071563720703,-2.269195795059204, -0.12481068819761276
39,986824381,0.7514802,0.08696511,-0.65382016,0.015297214,9.544897079467773,1.1622234582901,1.3395793437957764,-2.5089948177337646,-2.879585027694702, -0.5751076936721802
40,986841048,0.7513065,0.084542304,-0.6544026,0.012192154,9.609702110290527,0.8218259215354919,1.2527109384536743,-2.924342632293701,-2.920910596847534, -1.638175368309021
41,986857715,0.7510708,0.08316163,-0.6548869,0.010016766,9.7172212600708,0.753700852394104,1.2500925064086914,-0.4715938866138458,-3.0193662643432617, -2.620102643966675
42,986874382,0.75075775,0.08299889,-0.65527934,0.00910918,9.940447807312012,0.9244393706321716,1.426208734512329,-0.735353410243988,-3.6247217655181885, -3.3220951557159424
43,986891049,0.75044745,0.08235408,-0.65573585,0.0075552575,9.969277381896973,0.9984406232833862,1.429114818572998,-0.9003249406814575,-3.705082654953003, -3.8304696083068848
44,986907716,0.7501527,0.081947766,-0.6561378,0.0062284213,9.874733924865723,1.1011141538619995,1.2798761129379272,-0.8060957789421082,-3.506788730621338, -4.078540802001953
45,986924383,0.74989796,0.07997997,-0.656694,0.0030934329,9.728450775146484,1.1917989253997803,1.2241379022598267,-0.052621301263570786,-3.065443277359009, -4.119905471801758
46,986941050,0.7496742,0.08209682,-0.65667856,0.0047034556,9.730731964111328,1.23856520652771,1.1954289674758911,0.2943987548351288,-2.3908941745758057, -3.7194504737854004
47,986957717,0.74951833,0.082608745,-0.6567925,0.0046590087,9.742544174194336,1.280339002609253,1.1832395792007446,1.819058895111084,-1.5689444541931152, -2.709606170654297
48,986974384,0.74942684,0.08127387,-0.65707415,0.0027703403,9.803827285766602,1.4270142316818237,1.275749683380127,2.194873809814453,-0.9257197976112366, -1.455108642578125
49,986991051,0.74941176,0.082128726,-0.65698045,0.0036990584,9.895452499389648,1.4033745527267456,1.3446533679962158,1.8637784719467163,-0.02740558795630932, -0.02184763178229332
50,987007718,0.74949795,0.07924667,-0.6572461,0.00070829934,9.821407318115234,1.366255283355713,1.2252010107040405,1.0866507291793823,0.7907727956771851, 1.4514267444610596
51,987024385,0.7496639,0.07955262,-0.6570183,0.0015612734,9.620072364807129,1.2839953899383545,1.0549486875534058,0.5153979659080505,1.671170949935913, 2.322335720062256
52,987041052,0.7498636,0.077738166,-0.65700954,0.00007069163,9.519186973571777,1.1749627590179443,1.062677025794983,0.9587282538414001,2.087877035140991, 2.7370309829711914
53,987057719,0.75010365,0.07944205,-0.65652627,0.0026696082,9.951470375061035,1.1068910360336304,1.3301194906234741,1.0344904661178589,2.6145122051239014, 3.058405876159668
54,987074386,0.75043464,0.07800655,-0.6563232,0.0016489672,10.065160751342773,1.0981519222259521,1.5647802352905273,1.692941665649414,3.5569703578948975, 2.9255402088165283
55,987091053,0.7509231,0.078693286,-0.65567774,0.0029411977,10.253076553344727,1.029123067855835,1.8028265237808228,3.2798025608062744,5.4153642654418945, 2.5002927780151367
56,987107720,0.7517974,0.07944579,-0.654581,0.003555981,10.04990291595459,1.0806244611740112,1.85628080368042,11.224254608154297,10.301799774169922, -0.1662137359380722
57,987124387,0.7531504,0.08166774,-0.6527414,0.0048618163,9.611586570739746,0.9342111349105835,1.2738397121429443,18.169221878051758,16.148056030273438, -4.0975799560546875
58,987141054,0.75427616,0.083561815,-0.651191,0.0059509343,9.25761890411377,0.9212228059768677,0.7192344665527344,17.49832534790039,13.763617515563965, -3.341541051864624
59,987157721,0.7550318,0.084878996,-0.6501353,0.006834314,8.960081100463867,1.34583580493927,0.8119263648986816,9.7062406539917,9.06006908416748, -2.1193883419036865
60,987174388,0.7556141,0.08332788,-0.6496776,0.0047977166,9.199219703674316,1.2563024759292603,1.024925947189331,0.6081414818763733,5.971619606018066, -1.3580107688903809
61,987191055,0.75599277,0.08470789,-0.64904416,0.006435102,9.636636734008789,1.1689013242721558,1.357062578201294,-0.003803485305979848,4.09363317489624, -0.10437174141407013
62,987207722,0.75627565,0.083216734,-0.6489205,0.0049710735,10.054253578186035,1.0782932043075562,1.829921841621399,-0.2944948375225067,2.806978940963745, 1.028010606765747
63,987224389,0.75649565,0.08660953,-0.6481757,0.009030334,10.047015190124512,1.1428625583648682,1.9633156061172485,3.9690403938293457,3.126126289367676, 0.8610543012619019
64,987241056,0.75663525,0.09291864,-0.646998,0.016221993,9.892940521240234,1.0497620105743408,1.7544779777526855,8.160828590393066,3.5916247367858887, 0.17349405586719513
65,987257723,0.7568208,0.09622243,-0.6462092,0.019427095,9.753969192504883,1.025673270225525,1.5194249153137207,15.027502059936523,4.421121120452881, -1.0288374423980713
66,987274390,0.7570345,0.098431945,-0.6455641,0.021381553,9.703242301940918,1.092036485671997,1.421884298324585,13.600719451904297,4.3132524490356445, -1.1433517932891846
67,987291057,0.7571255,0.10318455,-0.64454263,0.026055947,9.553833961486816,1.2068461179733276,1.3891512155532837,16.10186767578125,4.344257354736328, -1.9730759859085083
68,987307724,0.757118,0.10795617,-0.6435558,0.030885214,9.229079246520996,1.4441659450531006,1.2303180694580078,10.249879837036133,2.9695310592651367, -2.231724977493286
69,987324391,0.7573458,0.107381664,-0.6434478,0.029523969,9.077421188354492,1.4632797241210938,0.9623286128044128,5.480958461761475,2.397291421890259, -2.480961561203003
70,987341058,0.75737333,0.11046224,-0.6427515,0.032469116,8.953385353088379,1.4427103996276855,0.9194790124893188,5.077673435211182,2.138411045074463, -2.4647998809814453
71,987357725,0.7575018,0.11287987,-0.64208484,0.03430085,8.93626594543457,1.488903284072876,1.1041202545166016,12.477316856384277,3.8012535572052, -2.889946460723877
72,987374392,0.7578375,0.114675365,-0.6413166,0.03528743,9.115086555480957,1.5945684909820557,1.6728575229644775,16.36042022705078,6.189360618591309, -2.953775405883789
73,987391059,0.75837904,0.11541164,-0.6405079,0.035931263,9.72374153137207,1.3728615045547485,1.8778531551361084,7.8626604080200195,7.0954060554504395, -0.3060463070869446
74,987407726,0.75908285,0.11520953,-0.6397262,0.035645023,11.029441833496094,0.3913980722427368,1.7637234926223755,-3.516329765319824,6.825657844543457, -1.3864284753799438
75,987424393,0.75920236,0.116301574,-0.6393449,0.036386818,9.987686157226562,0.15517839789390564,2.026101589202881,7.463561058044434,2.5728793144226074, -1.4796714782714844
76,987441060,0.75826263,0.1189982,-0.6399429,0.036752194,8.224288940429688,1.862803339958191,4.495087146759033,11.72836971282959,-8.361135482788086, -10.05754280090332
77,987457727,0.756722,0.119415395,-0.64187366,0.033317007,8.655445098876953,1.0021843910217285,4.160266399383545,-13.307863235473633,-20.36533546447754, -17.983346939086914
78,987474394,0.75426567,0.11955874,-0.644968,0.028378658,9.72250747680664,0.08943288028240204,1.708319902420044,-21.53970718383789,-32.013607025146484, -23.552776336669922
79,987491061,0.7515912,0.11961553,-0.64830613,0.02240764,9.84764289855957,1.3419913053512573,0.25453391671180725,-28.396026611328125,-35.390384674072266, -28.678922653198242
80,987507728,0.74923533,0.118675895,-0.65140134,0.015454393,10.596911430358887,0.8352959156036377,0.3717648386955261,-31.11809539794922,-32.151546478271484, -28.634897232055664
81,987524395,0.74706274,0.11852827,-0.65401614,0.010554413,10.152759552001953,2.8214926719665527,1.0551748275756836,-31.127607345581055,-29.28449058532715, -23.734724044799805
82,987541062,0.7448929,0.11766116,-0.6566999,0.006011701,9.58264446258545,1.929160475730896,1.0080221891403198,-24.596508026123047,-27.840822219848633, -17.429046630859375
83,987557729,0.7423309,0.11846366,-0.65946674,0.003863558,9.2785005569458,1.9446653127670288,0.830386221408844,-3.970390796661377,-27.987102508544922, -12.477996826171875
84,987574396,0.73954415,0.12033081,-0.6622568,0.00333337,9.201552391052246,2.5202059745788574,1.1834843158721924,8.944452285766602,-27.81366539001465, -8.990381240844727
85,987591063,0.7371246,0.11844683,-0.66529524,-0.000060192997,9.446271896362305,3.060636043548584,1.2766900062561035,-23.457792282104492,-29.699234008789062, -6.18571662902832
86,987607730,0.7350143,0.11463396,-0.66827446,-0.0047052912,9.700005531311035,2.5198023319244385,0.6497645378112793,-39.215240478515625,-29.03382682800293, -3.6312708854675293
87,987624397,0.73327476,0.11058795,-0.67081666,-0.009132746,9.879780769348145,1.7625210285186768,0.4361788034439087,-39.70922088623047,-24.93486213684082, -1.728371262550354
88,987641064,0.73181826,0.10633936,-0.6730175,-0.01347923,9.776848793029785,2.4063148498535156,0.5477665662765503,-40.60212707519531,-21.821489334106445, -0.6355326175689697
89,987657731,0.730686,0.10189943,-0.6748304,-0.017839983,9.324311256408691,1.855959415435791,0.3698512613773346,-41.90850067138672,-18.375337600708008, -0.023487018421292305
90,987674398,0.73023325,0.09677195,-0.6759382,-0.022414137,10.674704551696777,2.734426259994507,-0.10111669450998306,-46.925716400146484,-11.885619163513184, 1.6936472654342651
91,987691065,0.73088026,0.08774413,-0.67621994,-0.029012633,10.382852554321289,3.423292398452759,-0.7876072525978088,-76.78971099853516,-4.502078056335449, 9.342794418334961
92,987707732,0.7325478,0.077351585,-0.6754452,-0.034122247,11.165817260742188,2.5526726245880127,-1.2447463274002075,-77.58466339111328,6.303540229797363, 22.867900848388672
93,987724399,0.73516566,0.06936544,-0.6734677,-0.034076877,11.682817459106445,3.197885274887085,-1.145709753036499,-42.34679412841797,20.249752044677734, 37.2911491394043
94,987741066,0.7390716,0.060848895,-0.6701236,-0.031707842,12.03396224975586,2.9719443321228027,-0.2790229320526123,-35.23843765258789,34.274620056152344, 51.25069046020508
95,987757733,0.74425197,0.057898562,-0.66497093,-0.023466073,12.662826538085938,0.5696595907211304,1.3701196908950806,19.147930145263672,53.117225646972656, 55.06089782714844
96,987774400,0.75108826,0.06478055,-0.6569407,-0.009937032,14.94608211517334,1.6579720973968506,5.974855422973633,92.5171127319336,79.1045913696289, 36.17977523803711
97,987791067,0.75616664,0.07853993,-0.6495988,0.008077115,14.347476959228516,4.003178596496582,7.449093818664551,149.16656494140625,69.7537612915039, 28.44830894470215
98,987807734,0.756095,0.09739534,-0.6466268,0.026619025,9.312557220458984,6.814485549926758,4.806606769561768,180.56727600097656,23.624652862548828, 11.27967643737793
99,987824401,0.74999774,0.12389909,-0.6477748,0.05040075,6.928056240081787,7.5638227462768555,5.666924476623535,245.802001953125,-22.803895950317383, 8.710774421691895
100,987841068,0.7400373,0.15127088,-0.6514284,0.07143606,4.652037620544434,6.024422645568848,1.302614688873291,240.76849365234375,-55.786903381347656, -5.211719512939453
101,987857735,0.7257773,0.17739747,-0.6589045,0.08730608,4.900461196899414,10.563846588134766,-2.3863279819488525,214.6732635498047,-99.06558227539062, -19.2873592376709
102,987874402,0.7112403,0.19509345,-0.6692932,0.09012534,8.88895034790039,11.43825912475586,-1.3695745468139648,112.03321075439453,-125.34410858154297, -41.73991012573242
103,987891069,0.69858956,0.20588455,-0.68027824,0.08249695,9.147711753845215,8.084782600402832,-1.1040189266204834,27.361207962036133,-129.1041259765625, -60.68214797973633
104,987907736,0.6889018,0.2116602,-0.69023687,0.06470997,7.868593692779541,9.351201057434082,2.688774585723877,-47.731040954589844,-121.78353118896484, -88.70951080322266
105,987924403,0.6852352,0.20978624,-0.69651514,0.036183,7.747716426849365,4.912960529327393,6.5550456047058105,-141.883544921875,-88.36493682861328, -110.80414581298828
106,987941070,0.68596125,0.20814383,-0.697177,0.008822747,5.494545936584473,-1.474817156791687,7.38596773147583,-139.91014099121094,-39.944313049316406, -115.4961929321289
107,987957737,0.6894995,0.2133908,-0.69208926,-0.008223483,5.496421813964844,-3.258347988128662,7.674078464508057,-61.44833755493164,14.33409309387207, -108.61235046386719
108,987974404,0.6978273,0.22194411,-0.68078756,-0.01749746,7.157442569732666,-2.8189520835876465,6.990149974822998,-16.001136779785156,77.60386657714844, -96.78955841064453
109,987991071,0.71095717,0.22978207,-0.66421837,-0.023542818,7.200011253356934,-1.7888339757919312,5.613684177398682,-12.183290481567383,129.71937561035156, -85.83294677734375
110,988007738,0.7302052,0.22905988,-0.64284396,-0.032919217,8.703569412231445,-1.7608200311660767,2.7490670680999756,-79.64253234863281,174.13262939453125, -69.99059295654297
111,988024405,0.75279367,0.22309947,-0.61783415,-0.04253577,11.809432983398438,-3.1238956451416016,-2.4171695709228516,-113.12153625488281,205.42660522460938, -53.45615005493164
112,988041072,0.77416295,0.21822837,-0.59237504,-0.046262898,16.53110122680664,-5.389202117919922,-10.411904335021973,-80.85922241210938,212.18353271484375, -29.25264549255371
113,988057739,0.79161,0.21249798,-0.5711036,-0.045153875,18.991304397583008,-5.843964576721191,-15.012063980102539,-58.80379104614258,181.8206787109375, 4.171213626861572
114,988074406,0.8015838,0.20970039,-0.55861384,-0.037945263,13.36378288269043,-3.158801555633545,-22.181047439575195,-5.574290752410889,115.8302993774414, 35.44635009765625
115,988091073,0.80297995,0.20786855,-0.5575374,-0.034148607,7.03133487701416,0.026548165827989578,-26.986515045166016,1.4653398990631104,17.03700828552246, 26.592565536499023
116,988107740,0.7942913,0.20688933,-0.5702004,-0.034199297,6.950892448425293,-5.318676471710205,-31.692956924438477,8.369653701782227,-100.8958511352539, 19.21074867248535
117,988124407,0.7699641,0.22503598,-0.5965991,-0.024163367,7.200545310974121,7.6149797439575195,-38.467315673828125,177.1725616455078,-216.29222106933594, 14.644156455993652
118,988141074,0.74142236,0.22195347,-0.6319642,-0.04063263,23.081512451171875,22.87371253967285,9.763941764831543,-37.13666915893555,-323.1075134277344, -24.9984188079834
119,988157741,0.7219338,0.19561446,-0.6594607,-0.07522105,20.642683029174805,-5.232119560241699,18.97388458251953,-250.46888732910156,-278.36175537109375, -24.378780364990234
120,988174408,0.6885832,0.21373305,-0.6894863,-0.069137916,18.619773864746094,0.6718339323997498,-11.300660133361816,175.25160217285156,-277.27685546875, -28.531362533569336
121,988191075,0.6649488,0.20602375,-0.7128299,-0.08526979,-0.48266443610191345,-3.783414125442505,-1.8334829807281494,-70.14370727539062,-243.75767517089844, -16.827932357788086
122,988207742,0.64503676,0.19775413,-0.73084956,-0.10334268,14.803852081298828,3.0547239780426025,-3.890305995941162,-90.75701904296875,-204.21087646484375, -28.225080490112305
123,988224409,0.62749636,0.19809742,-0.7445424,-0.11252812,17.16469955444336,4.561163425445557,-1.9686483144760132,-14.261176109313965,-154.8305206298828, -36.27894592285156
124,988241076,0.61063063,0.20257337,-0.7572219,-0.11273592,11.226139068603516,1.95685613155365,-5.584707260131836,47.81404495239258,-131.74139404296875, -19.692176818847656
125,988257743,0.5981378,0.19856262,-0.7671199,-0.11971351,14.351943016052246,5.545299530029297,-4.102928638458252,-31.428638458251953,-113.18944549560547, -4.539188861846924
126,988274410,0.5865561,0.19536819,-0.77656215,-0.1213862,14.668088912963867,4.056283950805664,-4.463698387145996,-1.6926615238189697,-98.6459732055664, 13.129714012145996
127,988291077,0.57577133,0.190401,-0.7857798,-0.12159361,16.62779426574707,8.234522819519043,-1.9177961349487305,-2.2494208812713623,-93.04275512695312, 28.757726669311523
128,988307744,0.5663362,0.1862728,-0.7938142,-0.12010383,17.86583137512207,5.796916961669922,-3.8000643253326416,7.677735328674316,-78.410888671875, 30.592472076416016
129,988324411,0.5573236,0.18354747,-0.8015197,-0.11518243,15.396257400512695,4.664297103881836,-3.2829971313476562,31.163896560668945,-69.47736358642578, 36.08488845825195
130,988341078,0.54999816,0.17900884,-0.808159,-0.11107226,15.476744651794434,3.6778128147125244,-1.1740564107894897,16.875904083251953,-58.756202697753906, 42.8205451965332
131,988357745,0.5422753,0.17566378,-0.8150954,-0.103438385,16.13255500793457,3.5215041637420654,1.4165018796920776,41.83405685424805,-57.185020446777344, 49.378997802734375
132,988374412,0.533838,0.17240827,-0.8224762,-0.09394423,12.639034271240234,5.920748233795166,6.163580894470215,53.96731185913086,-61.07377624511719, 55.62358856201172
133,988391079,0.5248057,0.16975905,-0.82974195,-0.08537728,10.999659538269043,3.9566256999969482,7.844334602355957,51.9307746887207,-65.4617919921875, 48.30034255981445
134,988407746,0.51397604,0.1684471,-0.83774626,-0.075070255,8.987874031066895,2.357231616973877,4.770142078399658,69.52012634277344,-76.36954498291016, 46.733638763427734
135,988424413,0.49419942,0.17571963,-0.8491416,-0.0620353,10.587206840515137,9.569823265075684,-1.5821630954742432,127.84977722167969,-132.9029541015625, 6.1750407218933105
136,988441080,0.4666594,0.17606239,-0.8641127,-0.06738526,14.300422668457031,10.049673080444336,5.365816593170166,8.097467422485352,-215.8584747314453, -14.475627899169922
137,988457747,0.43567604,0.17544487,-0.87939674,-0.07789113,15.856584548950195,-0.858627438545227,10.170757293701172,-20.911033630371094,-244.84494018554688, -26.202899932861328
138,988474414,0.40324098,0.18660101,-0.89354146,-0.06450371,17.75981330871582,-6.784911155700684,14.941781044006348,160.11221313476562,-216.24908447265625, -28.266542434692383
139,988491081,0.37347445,0.20267928,-0.9044371,-0.03783631,16.527034759521484,-1.7581151723861694,20.281295776367188,250.4532012939453,-173.17221069335938, -25.17289924621582
140,988507748,0.3520294,0.21727468,-0.910321,-0.013523894,15.46883487701416,4.388477802276611,20.574886322021484,219.26806640625,-113.94563293457031, -26.872791290283203
141,988524415,0.3410632,0.22767763,-0.91205204,-6.582395e-7,15.208645820617676,8.817200660705566,18.93000602722168,125.99163818359375,-56.44733428955078, -31.6984806060791
142,988541082,0.34080672,0.23531897,-0.9101858,0.006135226,13.060284614562988,8.807930946350098,15.479324340820312,57.08401870727539,6.07858943939209, -36.930545806884766
143,988557749,0.35092515,0.24013647,-0.90504307,0.009128244,12.89211654663086,7.764423847198486,9.441899299621582,14.77910327911377,72.4986801147461, -32.01387023925781
144,988574416,0.37214676,0.24007906,-0.89655185,0.007993951,13.797727584838867,6.668582916259766,7.698222637176514,-40.302650451660156,142.22314453125, -17.634811401367188
145,988591083,0.40175,0.2383956,-0.8841219,0.009648206,13.996915817260742,4.298747539520264,2.9932243824005127,-40.522186279296875,207.7751007080078, -7.297929763793945
146,988607750,0.4381342,0.23859954,-0.8664635,0.018699225,13.674703598022461,7.083184242248535,-1.2032225131988525,-0.9215214252471924,274.8017883300781, -7.2219390869140625
147,988624417,0.4805237,0.24111919,-0.84261584,0.030939031,13.010598182678223,7.112651824951172,-3.4281198978424072,16.222383499145508,333.8122253417969, -21.922792434692383
148,988641084,0.52671355,0.2477547,-0.8118987,0.04484964,12.540600776672363,6.070227146148682,-5.931442737579346,34.83625030517578,380.3167419433594, -51.904571533203125
149,988657751,0.57572085,0.2528845,-0.77588576,0.050953675,10.530963897705078,3.881681442260742,-7.248697757720947,-17.291118621826172,402.5237121582031, -81.1923828125
150,988674418,0.6266134,0.2501356,-0.73680466,0.04366675,12.983084678649902,1.9499139785766602,-9.638337135314941,-122.1983413696289,404.52203369140625, -98.00855255126953
151,988691085,0.6793467,0.2351986,-0.69456464,0.027382854,17.92302131652832,-1.6647642850875854,-11.427141189575195,-222.78199768066406,416.3956604003906, -81.32853698730469
152,988707752,0.7271483,0.22058642,-0.6497845,0.019431982,24.17934226989746,-5.5786285400390625,-19.555776596069336,-173.31027221679688,419.353759765625, -47.80754852294922
153,988724419,0.7644801,0.2123406,-0.60825795,0.022452177,23.14291000366211,3.7380189895629883,-29.78891372680664,-77.51451873779297,373.9775695800781, -15.831692695617676
154,988741086,0.790575,0.20689295,-0.57589847,0.022963293,18.148996353149414,6.446406364440918,-30.965864181518555,-58.9455451965332,277.0725402832031, -25.744094848632812
155,988757753,0.8053364,0.20598586,-0.5554535,0.021780543,9.15858268737793,-0.9880642890930176,-34.245208740234375,-27.35847282409668,166.3538818359375, -34.14204025268555
156,988774420,0.80736345,0.21039072,-0.55079204,0.022992812,4.555783748626709,-2.7707204818725586,-35.72900390625,26.37422752380371,34.56287384033203, -17.05419158935547
157,988791087,0.79914093,0.21013385,-0.5628686,0.019912224,3.226834774017334,-2.282728433609009,-32.189449310302734,-3.9363536834716797,-101.43994903564453, 2.494440793991089
158,988807754,0.78067505,0.20898695,-0.58880395,0.01345399,5.332674980163574,-1.6615207195281982,-32.744850158691406,-9.220184326171875,-221.31216430664062, 8.79361343383789
159,988824421,0.7519753,0.20485914,-0.6265397,-0.0037701959,14.196182250976562,9.071616172790527,-27.959686279296875,-55.38467788696289,-340.885498046875, -18.9794864654541
160,988841088,0.7277291,0.18387155,-0.65966463,-0.038001124,26.419872283935547,2.6832425594329834,23.325124740600586,-222.40460205078125,-322.0700988769531, -40.32147216796875
161,988857755,0.6981703,0.18057382,-0.6905412,-0.055714678,19.492399215698242,-8.465559959411621,-8.167144775390625,-52.39925765991211,-310.4187927246094, -42.20295333862305
162,988874422,0.66751564,0.18179384,-0.718728,-0.06931186,12.669238090515137,-1.341056227684021,-1.2403353452682495,-10.799744606018066,-296.0347900390625, -47.92558288574219
163,988891089,0.642201,0.17773302,-0.74046105,-0.08778684,4.034985542297363,2.584329128265381,-6.120359420776367,-68.8070068359375,-248.9043426513672, -49.77468490600586
164,988907756,0.6219952,0.17897516,-0.7557886,-0.09936603,12.281269073486328,8.113252639770508,-3.921161413192749,-20.364730834960938,-183.1095428466797, -50.97304153442383
165,988924423,0.6070562,0.18353884,-0.76598656,-0.105171315,11.999615669250488,3.9350876808166504,-4.529499530792236,13.928044319152832,-124.6057357788086, -46.17655563354492
166,988941090,0.5951711,0.18309727,-0.77486813,-0.10874869,15.819226264953613,7.489188194274902,-4.165682315826416,0.01435006782412529,-103.97533416748047, -9.98037338256836
167,988957757,0.58795005,0.18005249,-0.7807643,-0.11092004,12.189103126525879,3.9149351119995117,-8.053321838378906,-11.192194938659668,-67.22184753417969, 9.383708953857422
168,988974424,0.58262014,0.17783792,-0.78560656,-0.108397156,16.81682777404785,8.436931610107422,-6.150333404541016,14.235971450805664,-46.41484832763672, 24.023902893066406
169,988991091,0.5786684,0.1774277,-0.7894491,-0.10214021,22.35350227355957,6.252651214599609,-1.8959605693817139,39.24384307861328,-29.138925552368164, 29.05070686340332
170,989007758,0.57330924,0.18098398,-0.79393893,-0.09067888,21.771373748779297,3.8569633960723877,-3.2593860626220703,85.49270629882812,-30.359975814819336, 27.98641586303711
171,989024425,0.5672954,0.18503815,-0.7987321,-0.07722687,19.25802230834961,3.056892156600952,2.7846622467041016,99.35333251953125,-32.44158935546875, 33.03015899658203
172,989041092,0.55986094,0.19290146,-0.8036783,-0.058705404,16.020566940307617,1.5995603799819946,4.312458515167236,143.9829864501953,-32.511592864990234, 31.290634155273438
173,989057759,0.54937196,0.19956185,-0.8104945,-0.038269535,13.572809219360352,3.53192400932312,9.476961135864258,154.77886962890625,-54.66208267211914, 46.5295524597168
174,989074426,0.5393052,0.20650202,-0.8162279,-0.016695105,9.498997688293457,2.4115707874298096,10.952171325683594,161.35845947265625,-46.73664855957031, 47.91520690917969
175,989091093,0.51570266,0.21596086,-0.82909095,0.004481234,3.634351968765259,11.846357345581055,-8.25222396850586,188.5684356689453,-149.56195068359375, 40.89619445800781
176,989107760,0.48817527,0.20963462,-0.8471049,-0.012312237,11.216514587402344,18.781574249267578,9.550884246826172,-78.20281982421875,-246.02027893066406, 4.11883020401001
177,989124427,0.45696637,0.20402613,-0.86522365,-0.030715246,15.206304550170898,-2.2270212173461914,6.475504398345947,-79.7307357788086,-270.2111511230469, -5.522517204284668
178,989141094,0.42111972,0.21327825,-0.8813838,-0.01826153,18.567293167114258,-3.3941450119018555,14.15312385559082,156.67401123046875,-245.32261657714844, -0.785635232925415
179,989157761,0.38945377,0.22290425,-0.89366645,-0.000020973537,15.042850494384766,1.7808034420013428,21.603723526000977,186.1949005126953,-200.3953857421875, 8.498135566711426
180,989174428,0.36673835,0.23008208,-0.90135807,0.010911542,10.445008277893066,5.958730697631836,21.732973098754883,121.02218627929688,-144.4756622314453, -3.0548250675201416
181,989191095,0.35038832,0.23868452,-0.9054334,0.021172985,12.856282234191895,7.338064193725586,17.668161392211914,110.72103118896484,-97.21485137939453, -19.738697052001953
182,989207762,0.33934736,0.24693424,-0.9071475,0.03082993,16.193758010864258,10.178155899047852,11.092413902282715,97.80339050292969,-59.53524398803711, -23.602853775024414
183,989224429,0.33824417,0.24917966,-0.9069696,0.03011067,15.384373664855957,7.196744441986084,9.72987174987793,2.67443585395813,-9.579339981079102, -15.63736343383789
184,989241096,0.3454268,0.24909475,-0.90433955,0.02832417,15.11099910736084,4.856225967407227,6.2263288497924805,-23.047670364379883,46.36469650268555, -9.496872901916504
185,989257763,0.3615,0.24733046,-0.8986226,0.02496092,13.039883613586426,5.690979480743408,3.4876909255981445,-51.455650329589844,106.55073547363281, -9.825570106506348
186,989274430,0.3867516,0.24408022,-0.8890656,0.020263148,12.251739501953125,6.384563446044922,0.8896574378013611,-78.3366470336914,170.78387451171875, -12.068251609802246
187,989291097,0.42050022,0.24069372,-0.8746038,0.017727908,12.160264015197754,5.232406139373779,-1.264460563659668,-79.05158996582031,239.45077514648438, -14.89293384552002
188,989307764,0.46116883,0.23911756,-0.8542322,0.020821847,12.820000648498535,4.613016128540039,-2.095086097717285,-50.70315933227539,307.3169250488281, -20.112693786621094
189,989324431,0.5075989,0.2394042,-0.8272482,0.026260354,12.961241722106934,4.1823225021362305,-2.9601023197174072,-39.564117431640625,365.811279296875, -35.29926300048828
190,989341098,0.55775225,0.24167202,-0.7934086,0.031784378,13.938101768493652,3.1738882064819336,-5.144407272338867,-37.07394790649414,410.8187255859375, -58.21389389038086
191,989357765,0.6101887,0.24108453,-0.75403476,0.031301886,13.58669662475586,2.0594494342803955,-6.539768695831299,-83.43456268310547,435.2706298828125, -75.3720474243164
192,989374432,0.66340154,0.23573865,-0.7096581,0.026665146,19.149755477905273,0.9134686589241028,-8.111526489257812,-125.23527526855469,454.5715637207031, -76.60774230957031
193,989391099,0.7153077,0.22502027,-0.6612332,0.021713594,25.782285690307617,-1.2710239887237549,-15.203632354736328,-148.47129821777344,467.2913818359375, -58.19116973876953
194,989407766,0.7596971,0.21241449,-0.61419636,0.022433033,25.56805992126465,-2.1190969944000244,-26.161611557006836,-120.62625122070312,435.45458984375, -18.51088523864746
195,989424433,0.7905907,0.21160324,-0.5737669,0.03133544,20.770402908325195,2.776325225830078,-33.52778625488281,-5.785861492156982,354.2832946777344, -13.93587589263916
196,989441100,0.80940014,0.21092847,-0.54701245,0.034031462,9.754220008850098,7.015987873077393,-36.580284118652344,-15.058406829833984,223.52352905273438, -25.760080337524414
197,989457767,0.8172823,0.20924826,-0.5359601,0.031809792,5.878511905670166,-6.660333633422852,-36.03636169433594,-27.11127471923828,88.53324890136719, -23.971481323242188
198,989474434,0.81349653,0.20870055,-0.54196143,0.030751087,3.4990527629852295,-4.105627059936523,-35.79623031616211,-3.525463819503784,-48.49544143676758, 5.387324333190918
199,989491101,0.8005606,0.20326258,-0.56322086,0.02386616,4.170670986175537,-3.3463680744171143,-30.49395751953125,-42.79819107055664,-174.92726135253906, 14.826587677001953
200,989507768,0.77895665,0.19914044,-0.59445757,0.013779996,5.709564685821533,2.710573434829712,-34.146080017089844,-37.57401657104492,-267.8628845214844, 7.485509395599365
201,989524435,0.75037867,0.178458,-0.6361379,-0.020326823,19.168825149536133,10.029054641723633,-6.698945999145508,-216.16668701171875,-383.49346923828125, -38.40459060668945
202,989541102,0.7229402,0.16310847,-0.6692329,-0.05367367,23.349374771118164,-0.6872994303703308,10.519309043884277,-187.90969848632812,-332.4473876953125, -67.97024536132812
203,989557769,0.6929348,0.16584064,-0.698391,-0.067737244,16.818445205688477,-1.7513097524642944,-3.688483953475952,-7.718551158905029,-296.5245361328125, -60.669639587402344
204,989574436,0.66450816,0.1778642,-0.72223926,-0.07185947,12.906145095825195,3.504492998123169,0.9138868451118469,80.04371643066406,-247.99070739746094, -63.30303955078125
205,989591103,0.6415971,0.1762909,-0.7413834,-0.08732478,15.795004844665527,1.200505018234253,-2.3544623851776123,-47.516048431396484,-219.80044555664062, -50.61587142944336
206,989607770,0.6230265,0.17412476,-0.755763,-0.101690255,13.499261856079102,2.341670513153076,-4.882808208465576,-52.61111831665039,-175.7313690185547, -45.922813415527344
207,989624437,0.60725427,0.17584537,-0.7672306,-0.10806559,10.233794212341309,5.8709306716918945,-4.058189392089844,0.15854725241661072,-136.4734649658203, -33.42299270629883
208,989641104,0.59669125,0.17544957,-0.77509785,-0.11135712,12.183670997619629,7.942035675048828,-5.882711887359619,-1.3572320938110352,-91.84294891357422, -9.83609676361084
209,989657771,0.5900649,0.17367372,-0.78056324,-0.11127421,12.900773048400879,6.597340106964111,-6.77509880065918,4.402128219604492,-58.01918029785156, 11.512211799621582
210,989674438,0.585659,0.169671,-0.78508055,-0.108921684,17.115392684936523,7.024568557739258,-4.512207508087158,4.1929240226745605,-41.26383972167969, 33.24571228027344
211,989691105,0.5829974,0.16795816,-0.78812295,-0.10376253,21.545740127563477,6.2999653816223145,-4.156478404998779,25.470050811767578,-20.990131378173828, 31.755107879638672
212,989707772,0.5787918,0.17039014,-0.79204726,-0.09288945,21.589744567871094,3.454535961151123,-0.7758293151855469,75.5053939819336,-23.444570541381836, 32.05983352661133
213,989724439,0.573303,0.174853,-0.796542,-0.07918994,19.475486755371094,1.9236574172973633,3.135449171066284,100.89893341064453,-28.25567626953125, 32.007205963134766
214,989741106,0.566201,0.18082014,-0.8017525,-0.062558256,14.50314712524414,0.8785874843597412,4.924191474914551,125.28018951416016,-35.76905822753906, 35.224056243896484
215,989757773,0.55595917,0.1853733,-0.80901945,-0.04509843,12.481982231140137,3.4596011638641357,9.924636840820312,129.19509887695312,-60.8520393371582, 47.38893127441406
216,989774440,0.54456234,0.18701018,-0.81702054,-0.030928422,8.508099555969238,1.59062659740448,11.987668991088867,101.53280639648438,-75.4054946899414, 51.60716247558594
217,989791107,0.52303934,0.19418916,-0.8297793,-0.013672381,4.237091064453125,6.810525417327881,-4.802977085113525,153.73373413085938,-145.1844940185547, 35.99706268310547
218,989807774,0.4927714,0.19457258,-0.8479297,-0.018263293,13.09011459350586,17.53112030029297,5.010389804840088,16.8536376953125,-244.2660675048828, 2.6437697410583496
219,989824441,0.4592139,0.18688667,-0.8676024,-0.038240384,17.54206657409668,-0.826103925704956,4.02513313293457,-95.47958374023438,-290.3811950683594, -0.6877483129501343
220,989841108,0.42080134,0.19375154,-0.8856808,-0.03092903,18.297027587890625,-4.132716178894043,9.801569938659668,119.13294219970703,-275.5640869140625, -4.732694625854492
221,989857775,0.38305253,0.20652618,-0.9003133,-0.007349094,16.243106842041016,-0.5751563310623169,16.63555908203125,233.71453857421875,-238.84811401367188, 1.8335858583450317
222,989874442,0.35256273,0.2173163,-0.91014713,0.010282562,13.280651092529297,3.9218032360076904,20.735078811645508,181.0977783203125,-190.02175903320312, -7.999855041503906
223,989891109,0.33079547,0.22675994,-0.9157824,0.022294939,13.812132835388184,7.924098491668701,20.877269744873047,129.98585510253906,-133.75851440429688, -20.051916122436523
224,989907776,0.31948894,0.23318323,-0.91808605,0.025898272,14.368110656738281,9.239940643310547,15.694327354431152,54.464820861816406,-73.15347290039062, -26.90546417236328
225,989924443,0.32040444,0.23520747,-0.9173505,0.022063728,14.714302062988281,8.592223167419434,14.242792129516602,-21.101030349731445,-0.6180749535560608, -22.490345001220703
226,989941110,0.33368015,0.23192203,-0.91363955,0.011514399,13.402989387512207,5.573269844055176,10.09785270690918,-94.6121826171875,73.71250915527344, -10.472734451293945
227,989957777,0.35679498,0.22770186,-0.90599805,0.0041086674,12.659883499145508,4.393224716186523,4.465533256530762,-92.35899353027344,149.55528259277344, -4.452407360076904
228,989974444,0.38857478,0.22407125,-0.89374936,0.0037457843,12.625418663024902,4.509520530700684,0.6861248016357422,-60.4727897644043,225.84324645996094, 1.6922175884246826
229,989991111,0.42686555,0.22437222,-0.8759094,0.015023292,12.06274127960205,5.397369384765625,-2.464690923690796,11.688495635986328,298.6834411621094, -0.12108374387025833
230,990007778,0.47057357,0.22979417,-0.85122204,0.034300663,12.807914733886719,5.702496528625488,-4.05224084854126,67.26606750488281,363.34613037109375, -18.536762237548828
231,990024445,0.517195,0.24140339,-0.81901914,0.058664985,13.124231338500977,5.25675106048584,-6.513978481292725,114.25749969482422,411.45501708984375, -50.774654388427734
232,990041112,0.5652374,0.25412035,-0.7812239,0.07495956,11.598825454711914,4.9480085372924805,-7.5555338859558105,72.62185668945312,425.64141845703125, -95.50963592529297
233,990057779,0.6154505,0.25804377,-0.74125546,0.07193544,15.970573425292969,3.4422576427459717,-8.427705764770508,-68.11701965332031,416.6531677246094, -128.23782348632812
234,990074446,0.6691146,0.24339467,-0.7004406,0.049272843,20.35890769958496,0.09879270195960999,-12.246652603149414,-252.71713256835938,412.3636779785156, -119.93643188476562
235,990091113,0.7195418,0.21912983,-0.6583831,0.027817486,24.749666213989258,-6.391180515289307,-18.470924377441406,-285.50042724609375,407.9111022949219, -69.11949157714844
236,990107780,0.757381,0.20701851,-0.6187157,0.026614072,21.87766456604004,-4.542255878448486,-29.890108108520508,-115.02906036376953,367.4132995605469, -18.06361961364746
237,990124447,0.7829534,0.20338292,-0.58699316,0.032538023,17.742584228515625,3.941568613052368,-30.458528518676758,-24.686582565307617,282.7558898925781, -3.5827109813690186
238,990141114,0.7989394,0.20136367,-0.56579477,0.032017782,8.498348236083984,2.720466375350952,-32.723514556884766,-31.069461822509766,178.40013122558594, -27.957918167114258
239,990157781,0.8042284,0.19966467,-0.5589907,0.029669888,4.9095964431762695,-5.789318561553955,-34.93635559082031,-24.912452697753906,55.49610900878906, -16.959753036499023
240,990174448,0.7994151,0.19334511,-0.5683022,0.024210874,2.9254348278045654,-0.8911054730415344,-32.138973236083984,-51.94816970825195,-75.37958526611328, 7.710246562957764
241,990191115,0.7861041,0.18034889,-0.591101,0.010693558,2.64642333984375,-0.008923202753067017,-29.031171798706055,-111.2119140625,-192.01483154296875, 8.885468482971191
242,990207782,0.7607922,0.17055772,-0.6261221,-0.008769631,4.816903591156006,11.0735445022583,-36.587059020996094,-104.18730163574219,-314.2638244628906, -20.16057014465332
243,990224449,0.7345095,0.1497768,-0.6602969,-0.04550422,27.16925048828125,7.417616844177246,14.480236053466797,-235.18450927734375,-334.65777587890625, -63.997589111328125
244,990241116,0.7064357,0.1444067,-0.68932253,-0.07021422,29.537919998168945,-3.7295472621917725,3.6248764991760254,-102.36422729492188,-299.7905578613281, -78.96902465820312
245,990257783,0.67382276,0.15855518,-0.7183204,-0.069564044,12.800606727600098,-9.778837203979492,-3.4201865196228027,117.29651641845703,-286.680419921875, -50.63972854614258
246,990274450,0.64585793,0.15923105,-0.74195784,-0.083736524,7.348974704742432,8.029340744018555,-2.555569887161255,-26.078685760498047,-261.5453186035156, -56.5462760925293
247,990291117,0.6263582,0.15472096,-0.75690174,-0.1040986,10.96064567565918,1.8904536962509155,-5.7399492263793945,-94.93750762939453,-189.56202697753906, -62.09437561035156
248,990307784,0.6089039,0.16472398,-0.7687473,-0.10549799,9.410780906677246,5.4908576011657715,-4.883877754211426,61.85126876831055,-135.04312133789062, -57.78733444213867
249,990324451,0.5959471,0.1675202,-0.7776552,-0.109712735,13.756386756896973,9.035019874572754,-3.921837568283081,9.60373592376709,-107.42029571533203, -31.533071517944336
250,990341118,0.5881348,0.16574518,-0.7834458,-0.11330955,12.880796432495117,5.532841682434082,-6.924559593200684,-14.065184593200684,-69.95010375976562, -4.225224018096924
251,990357785,0.58242023,0.16310748,-0.78833896,-0.11271382,14.963213920593262,6.914923191070557,-5.555829048156738,1.9599742889404297,-50.9417610168457, 17.98432731628418
252,990374452,0.5786285,0.16111307,-0.79193455,-0.10987118,20.721466064453125,8.462478637695312,-2.752601385116577,13.589292526245117,-32.3557243347168, 23.525455474853516
253,990391119,0.5741881,0.1629518,-0.79589397,-0.10152646,22.38064956665039,4.076965808868408,-2.564362049102783,59.85044860839844,-28.455881118774414, 24.432392120361328
254,990407786,0.56865036,0.16612072,-0.80048174,-0.09093887,20.98430633544922,1.968814730644226,1.0555394887924194,79.076904296875,-33.62080383300781, 25.857158660888672
255,990424453,0.56232285,0.17269221,-0.80506945,-0.07637885,17.331003189086914,0.3953700065612793,4.563776016235352,115.18714141845703,-31.46959114074707, 22.064945220947266
256,990441120,0.5529833,0.17831364,-0.8117029,-0.05960081,13.198958396911621,2.3903636932373047,7.886965751647949,128.49539184570312,-54.10983657836914, 36.65089416503906
257,990457787,0.54334337,0.1808027,-0.81856716,-0.04512799,10.621376037597656,2.3652045726776123,11.338207244873047,104.25379943847656,-60.98772430419922, 45.49129867553711
258,990474454,0.5316392,0.18483867,-0.8260785,-0.028091177,5.919984817504883,2.074108600616455,3.5471558570861816,127.3201904296875,-71.60025024414062, 46.513832092285156
259,990491121,0.5045354,0.19499183,-0.8409562,-0.014664623,6.798841953277588,19.292274475097656,-6.316679000854492,150.22093200683594,-189.52760314941406, 4.970753192901611
260,990507788,0.47585073,0.1864182,-0.85870504,-0.037948787,14.820052146911621,7.238913536071777,5.5842437744140625,-124.51239776611328,-259.7265930175781, -10.194009780883789
261,990524455,0.44256833,0.19142278,-0.8752474,-0.037851024,18.035694122314453,-7.158563137054443,7.984811782836914,63.69247055053711,-249.59877014160156, -16.59807014465332
262,990541122,0.4061882,0.20754854,-0.88987154,-0.007980284,16.823835372924805,-4.004666805267334,15.370682716369629,280.3462219238281,-220.64048767089844, 3.601128578186035
263,990557789,0.37598374,0.21960355,-0.90015304,0.011622908,10.824336051940918,5.776515960693359,21.400333404541016,197.0318145751953,-185.9228057861328, -6.073087692260742
264,990574456,0.35579014,0.22604674,-0.90668935,0.015190592,9.748194694519043,7.241026878356934,21.18178939819336,68.57034301757812,-138.36817932128906, -19.194374084472656
265,990591123,0.34295523,0.23186067,-0.9101471,0.015962353,13.295642852783203,7.698030948638916,15.557974815368652,38.643375396728516,-89.5588150024414, -27.61372947692871
266,990607790,0.3377025,0.23605326,-0.9110252,0.016405126,14.3112211227417,6.806325912475586,12.057022094726562,21.10869598388672,-36.66734313964844, -23.146629333496094
267,990624457,0.341644,0.23662516,-0.90945035,0.013713517,13.230949401855469,5.417220592498779,9.471419334411621,-21.45359992980957,21.67530059814453, -12.739538192749023
268,990641124,0.35419777,0.23547776,-0.9049505,0.012610593,13.147768020629883,4.161046981811523,5.080786228179932,-29.207876205444336,84.92839813232422, -3.8175148963928223
269,990657791,0.37520695,0.23341061,-0.89697456,0.013272966,12.324424743652344,5.2788004875183105,1.718241810798645,-33.805580139160156,148.7868194580078, -0.147169828414917
270,990674458,0.4044618,0.23165913,-0.88456684,0.016921457,11.512575149536133,5.59588623046875,-0.04387888312339783,-27.35651969909668,215.75143432617188, -2.2137932777404785
271,990691125,0.44078618,0.23143022,-0.8669208,0.0244158,11.89320182800293,6.205583095550537,-1.9431111812591553,-10.350383758544922,279.25347900390625, -9.868424415588379
272,990707792,0.48295897,0.23288171,-0.8434069,0.03437492,12.700007438659668,5.889285564422607,-3.062563896179199,1.1412640810012817,335.60809326171875, -22.637672424316406
273,990724459,0.52932775,0.23791665,-0.8131116,0.045362912,13.328856468200684,5.470510005950928,-4.67095947265625,13.884608268737793,383.39129638671875, -51.74412155151367
274,990741126,0.57878107,0.24175493,-0.77728456,0.048947725,13.249160766601562,4.020355701446533,-5.824621677398682,-35.24383544921875,409.2049255371094, -81.9273910522461
275,990757793,0.62994874,0.24081393,-0.73703885,0.04412846,16.17951774597168,2.139019012451172,-7.354795932769775,-100.63314819335938,423.8091125488281, -97.73865509033203
276,990774460,0.681921,0.23259358,-0.6925628,0.03522475,21.562185287475586,0.6724603176116943,-9.323724746704102,-153.04795837402344,441.91241455078125, -85.8397445678711
277,990791127,0.73045576,0.22108772,-0.6454754,0.03027079,26.40371322631836,-2.711878776550293,-17.548568725585938,-143.7061309814453,445.1196594238281, -55.11332702636719
278,990807794,0.7683874,0.2129087,-0.6025481,0.034446526,23.506315231323242,2.494706869125366,-28.175846099853516,-71.23646545410156,390.67852783203125, -15.64576244354248
279,990824461,0.79456055,0.20698477,-0.56967014,0.03614915,16.058225631713867,6.761943817138672,-30.544410705566406,-55.012996673583984,285.18585205078125, -20.668275833129883
280,990841128,0.8096263,0.20508495,-0.54886013,0.034613434,6.851570129394531,-2.2365641593933105,-33.32167053222656,-33.07243728637695,170.7024688720703, -34.16929626464844
281,990857795,0.81225544,0.21061505,-0.5427091,0.03673363,4.583597660064697,-9.017308235168457,-35.12065124511719,35.94490432739258,46.10362243652344, -18.324668884277344
282,990874462,0.8040753,0.21246885,-0.5541186,0.035676923,2.5001707077026367,-3.234633207321167,-31.468585968017578,14.632855415344238,-95.44447326660156, 5.6317458152771
283,990891129,0.7880836,0.20630454,-0.57938206,0.026061283,4.990118026733398,-4.9144392013549805,-27.32282066345215,-54.441551208496094,-211.945556640625, 10.988203048706055
284,990907796,0.7599678,0.20054322,-0.6181852,0.0088780895,7.473738670349121,10.974237442016602,-36.913299560546875,-67.76716613769531,-344.1871032714844, -10.259907722473145
285,990924463,0.73092407,0.18334427,-0.6568969,-0.024932854,27.591629028320312,3.08017897605896,8.585981369018555,-197.19444274902344,-369.4949951171875, -48.31534957885742
286,990941130,0.70428896,0.17167702,-0.68667746,-0.054574084,18.663698196411133,3.231396436691284,8.019803047180176,-155.02647399902344,-307.71502685546875, -63.105533599853516
287,990957797,0.67320246,0.18689129,-0.7133192,-0.0551912,22.963727951049805,-4.55902099609375,-1.8986494541168213,116.41168212890625,-269.42578125, -54.833221435546875
288,990974464,0.6456264,0.19794278,-0.73522997,-0.058501568,10.368755340576172,-0.27222269773483276,-2.99000883102417,77.65177154541016,-235.43063354492188, -51.82324981689453
289,990991131,0.6261976,0.19210304,-0.7515907,-0.07800349,13.639843940734863,4.785973072052002,-3.541767120361328,-92.55670166015625,-198.53079223632812, -42.59562683105469
290,991007798,0.61010355,0.1951718,-0.7629961,-0.086710826,7.97349739074707,3.428629159927368,-6.145469665527344,-5.446017265319824,-141.004150390625, -46.8639030456543
291,991024465,0.59720254,0.19925569,-0.77195024,-0.087972976,9.197275161743164,10.957038879394531,-4.937417984008789,32.139137268066406,-103.4040298461914, -22.327356338500977
292,991041132,0.5898643,0.1978228,-0.7777257,-0.08982889,12.183399200439453,7.607694149017334,-6.054042816162109,-3.148500919342041,-65.0306396484375, 3.6256022453308105
293,991057799,0.5852735,0.19497311,-0.7820762,-0.088304736,16.706151962280273,7.074921607971191,-7.500376224517822,4.607422828674316,-40.885841369628906, 24.697608947753906
294,991074466,0.5827085,0.19256757,-0.78514713,-0.08314268,19.914112091064453,5.288467884063721,-3.8465089797973633,22.499940872192383,-19.74315643310547, 36.44956970214844
295,991091133,0.5796441,0.19217065,-0.7883095,-0.07517624,23.484481811523438,3.0777742862701416,-2.0686962604522705,46.4436149597168,-18.058372497558594, 36.61870574951172
296,991107800,0.5754679,0.1937409,-0.7919104,-0.064648695,20.800764083862305,2.3616714477539062,1.177312970161438,69.89605712890625,-21.58875846862793, 36.06477355957031
297,991124467,0.5701818,0.19953232,-0.79538524,-0.049419027,17.27651023864746,1.0064492225646973,4.662344455718994,113.67631530761719,-19.18014907836914, 30.93125343322754
298,991141134,0.56129336,0.20479603,-0.8012096,-0.032740977,13.414108276367188,2.882600784301758,8.382519721984863,125.32833099365234,-46.50082778930664, 41.41385269165039
299,991157801,0.54970706,0.20728974,-0.809007,-0.01900274,9.528850555419922,2.552950382232666,12.939570426940918,102.77567291259766,-73.97954559326172, 47.476009368896484
300,991174468,0.5329179,0.21046668,-0.8195562,-0.0055309627,6.354254722595215,2.827798366546631,5.008272647857666,111.74337768554688,-113.89447021484375, 45.920143127441406
301,991191135,0.5039837,0.2195946,-0.835307,0.0064021037,8.756357192993164,16.291339874267578,1.4777204990386963,142.71620178222656,-203.54493713378906, 13.844247817993164
302,991207802,0.47171387,0.21274164,-0.855622,-0.011754413,14.367592811584473,8.123494148254395,4.789607048034668,-80.52714538574219,-283.366943359375, 8.584144592285156
303,991224469,0.4351352,0.21038997,-0.8750437,-0.02631119,15.143606185913086,-0.637164831161499,6.626547336578369,-38.39927673339844,-300.38067626953125, -7.8611345291137695
304,991241136,0.3982146,0.21648704,-0.89112306,-0.021414068,17.361408233642578,-5.9064412117004395,12.073446273803711,103.85698699951172,-262.9622497558594, -5.4625115394592285
305,991257803,0.36523426,0.2263741,-0.90294224,-0.007388507,15.138662338256836,1.6660358905792236,17.587127685546875,163.643798828125,-213.3015594482422, -9.55097770690918
306,991274470,0.340182,0.23483758,-0.9105598,0.0029796534,12.510393142700195,4.077714443206787,18.12937355041504,124.86487579345703,-159.5945281982422, -16.02293586730957
307,991291137,0.32223216,0.24379306,-0.9146117,0.014740139,14.001989364624023,8.066941261291504,15.430915832519531,123.43878936767578,-104.81310272216797, -21.703502655029297
308,991307804,0.31318912,0.24962969,-0.9160275,0.022171859,15.233421325683594,7.771216869354248,12.7878999710083,74.78116607666016,-50.13564682006836, -16.9271240234375
309,991324471,0.3135376,0.2516958,-0.9151759,0.028224554,14.051231384277344,5.405500411987305,9.653571128845215,42.32002639770508,11.891103744506836, -1.4159821271896362
310,991341138,0.32386053,0.25123,-0.9115393,0.033076975,12.363685607910156,4.628269195556641,6.280357360839844,12.64726734161377,78.91837310791016, 5.209375858306885
311,991357805,0.34392312,0.25027704,-0.90430564,0.036194284,11.082588195800781,6.266910076141357,3.37622332572937,-15.287278175354004,145.0028076171875, -3.9987239837646484
312,991374472,0.37315136,0.24960406,-0.8926631,0.040112194,10.201861381530762,5.976372241973877,0.4484623372554779,-24.277833938598633,213.71405029296875, -13.666791915893555
313,991391139,0.41040692,0.25019884,-0.8756647,0.04667147,10.41206169128418,6.595245361328125,-1.0158271789550781,-17.086267471313477,280.9656677246094, -26.013490676879883
314,991407806,0.45434806,0.2513994,-0.85291046,0.053948257,11.807689666748047,6.038085460662842,-1.865664005279541,-20.688213348388672,338.5981140136719, -39.60422134399414
315,991424473,0.5029992,0.25450632,-0.82361865,0.06221745,13.258934020996094,5.195279598236084,-3.896174669265747,-14.625029563903809,387.7687072753906, -60.65291213989258
316,991441140,0.55633,0.25578567,-0.7880348,0.06381119,14.00230598449707,3.448936700820923,-5.409510612487793,-64.28813171386719,425.2878723144531, -86.35863494873047
317,991457807,0.6113351,0.25167495,-0.7480527,0.057849966,14.521378517150879,0.12333852052688599,-8.149121284484863,-126.96405029296875,440.4208984375, -94.51807403564453
318,991474474,0.66644955,0.23777157,-0.70507056,0.046747,20.123870849609375,-0.841137170791626,-13.209491729736328,-193.7180938720703,448.8028564453125, -71.06425476074219
319,991491141,0.71690804,0.22049104,-0.6601213,0.040825456,26.012102127075195,-3.771230936050415,-22.293241500854492,-175.967041015625,445.0176696777344, -32.76486587524414
320,991507808,0.7550192,0.21755406,-0.61656636,0.049624264,23.634868621826172,0.8853612542152405,-34.99667739868164,-20.16468048095703,400.69891357421875, -19.894363403320312
321,991524475,0.7792097,0.22069764,-0.58381265,0.057340194,15.587525367736816,2.7661283016204834,-37.3892707824707,23.757610321044922,282.45050048828125, -30.482236862182617
322,991541142,0.79009897,0.22379887,-0.5677111,0.05798425,6.476474761962891,-0.2691175639629364,-39.847389221191406,8.522439956665039,129.73406982421875, -37.740867614746094
323,991557809,0.78941965,0.21902174,-0.571112,0.051745173,2.939122438430786,-4.420180320739746,-36.812416076660156,-51.30159378051758,-28.163406372070312, -9.799732208251953
324,991574476,0.777933,0.21053702,-0.5905386,0.041936405,2.4277000427246094,-2.6140050888061523,-33.68855667114258,-75.04833221435547,-161.09934997558594, 13.310367584228516
325,991591143,0.75363195,0.196275,-0.62704104,0.018299581,6.574590682983398,10.249676704406738,-46.85490036010742,-148.68629455566406,-322.45733642578125, -8.735689163208008
326,991607810,0.7285591,0.1815483,-0.66034526,-0.013642088,28.285520553588867,9.185076713562012,25.142803192138672,-185.70068359375,-319.68902587890625, -53.66934585571289
327,991624477,0.70151824,0.18500423,-0.68764013,-0.028228156,23.94029998779297,-15.880366325378418,-7.126641273498535,-13.692217826843262,-275.61676025390625, -56.83148956298828
328,991641144,0.6698306,0.20346391,-0.71370566,-0.023535734,12.33520221710205,-1.8659026622772217,-2.620119333267212,155.49058532714844,-264.2268981933594, -37.61953353881836
329,991657811,0.6477155,0.19824414,-0.73429435,-0.044451177,7.303807735443115,7.6320319175720215,-2.633686065673828,-93.56436157226562,-231.72900390625, -45.52706527709961
330,991674478,0.62997466,0.1963831,-0.7489872,-0.059867837,12.757967948913574,1.0371456146240234,-7.095183372497559,-58.618980407714844,-174.93832397460938, -44.51512908935547
331,991691145,0.61217904,0.20747763,-0.760958,-0.055974737,8.50029182434082,7.79805850982666,-4.444062232971191,95.89433288574219,-132.03598022460938, -31.32904624938965
332,991707812,0.6007326,0.20643812,-0.77004045,-0.059511855,14.785802841186523,8.188429832458496,-4.776059627532959,-4.198062896728516,-101.97681427001953, -0.7240591049194336
333,991724479,0.5936164,0.20077886,-0.77677804,-0.06263985,15.00650691986084,6.199304103851318,-6.140383243560791,-28.1533145904541,-70.7468490600586, 23.923612594604492
334,991741146,0.5886268,0.19648087,-0.781761,-0.061348613,20.75609588623047,6.032338619232178,-3.744666337966919,-2.63273286819458,-45.58966064453125, 33.196353912353516
335,991757813,0.58400345,0.19720455,-0.78558356,-0.053935867,23.74879264831543,4.1950531005859375,-2.7701799869537354,49.6567497253418,-28.664600372314453, 29.526809692382812
336,991774480,0.57921404,0.19973984,-0.78911155,-0.043800205,21.00855827331543,1.7595624923706055,1.7183620929718018,71.79882049560547,-24.17226791381836, 30.11685562133789
337,991791147,0.57190275,0.20428805,-0.79393667,-0.029299552,17.02777862548828,1.2827345132827759,4.0188984870910645,107.41043090820312,-36.63835144042969, 37.48356628417969
338,991807814,0.5619816,0.2080377,-0.80043614,-0.014116876,13.842632293701172,3.547962188720703,9.536080360412598,112.06188201904297,-56.90399932861328, 46.259403228759766
339,991824481,0.5484717,0.21237041,-0.80874866,0.0018559889,10.490808486938477,3.4352543354034424,13.117377281188965,124.08637237548828,-82.7813949584961, 48.32593536376953
340,991841148,0.53098404,0.2158581,-0.81924605,0.017241618,6.856743812561035,2.6625187397003174,5.731560230255127,123.53340911865234,-114.32926177978516, 54.05912780761719
341,991857815,0.50140536,0.22780362,-0.83395636,0.0348598,8.688475608825684,15.52276611328125,0.22860872745513916,184.5229949951172,-195.715576171875, 22.274316787719727
342,991874482,0.46798125,0.22459002,-0.85446066,0.021214843,14.012544631958008,11.221156120300293,7.025055885314941,-42.230262756347656,-283.19036865234375, 11.61611557006836
343,991891149,0.43072557,0.22222279,-0.8746779,0.005593297,16.37637710571289,0.9847925305366516,6.8952531814575195,-44.98490905761719,-308.24957275390625, 0.4906446039676666
344,991907816,0.39260167,0.22591747,-0.891521,0.0039968905,18.220705032348633,-3.8248345851898193,11.527170181274414,58.85082244873047,-282.56103515625, 0.37279343605041504
345,991924483,0.35874853,0.23148373,-0.9042174,0.010300348,15.708539009094238,0.3723956048488617,17.141870498657227,105.7925796508789,-233.34584045410156, 3.5593819618225098
346,991941150,0.33256778,0.23582028,-0.91297305,0.016367292,13.394460678100586,2.528447151184082,17.20451545715332,89.41133117675781,-176.63250732421875, 3.7745978832244873
347,991957817,0.31309935,0.24174908,-0.91800606,0.028136859,15.620036125183105,7.176019191741943,15.012951850891113,118.47003173828125,-117.30413055419922, 0.05524560064077377
348,991974484,0.30258802,0.2434397,-0.920808,0.03592652,17.769865036010742,9.143464088439941,11.800468444824219,69.92339324951172,-62.14632797241211, 12.869856834411621
349,991991151,0.30292797,0.23963007,-0.92170775,0.035598364,12.967288970947266,4.803286552429199,8.220564842224121,-10.438533782958984,-2.1036531925201416, 25.004953384399414
350,992007818,0.31193268,0.23650134,-0.9193263,0.040056773,11.44087028503418,4.611353397369385,5.553185939788818,7.905828952789307,67.10868835449219, 23.158029556274414
351,992024485,0.33154345,0.23262998,-0.91341263,0.04049457,10.902777671813965,8.183893203735352,3.1877241134643555,-35.32029724121094,135.21131896972656, 10.599620819091797
352,992041152,0.36200312,0.22809264,-0.9030014,0.038939893,9.347687721252441,6.128872394561768,0.4281800389289856,-65.34378814697266,210.47760009765625, 0.09090863913297653
353,992057819,0.40087795,0.22592834,-0.8868323,0.042214155,9.531426429748535,6.898582458496094,-1.2502539157867432,-41.04815673828125,283.9706726074219, -13.837212562561035
354,992074486,0.44718263,0.2250099,-0.8644669,0.045778338,9.598647117614746,6.014639377593994,-2.0620861053466797,-45.52788162231445,346.4773864746094, -32.30672073364258
355,992091153,0.49826273,0.22813044,-0.8347783,0.05325576,10.076555252075195,3.062922954559326,-3.5621955394744873,-14.8779296875,402.24981689453125, -56.98834991455078
356,992107820,0.55175585,0.2353314,-0.7977037,0.062079255,11.880732536315918,3.261291980743408,-4.798095703125,5.736098766326904,442.1616516113281, -88.1538314819336
357,992124487,0.60714614,0.23806927,-0.7554595,0.063071206,13.4270658493042,2.2422378063201904,-5.579593181610107,-55.07838821411133,461.5595397949219, -102.46192169189453
358,992141154,0.66349167,0.2322423,-0.70909834,0.05497295,20.25343894958496,3.2742695808410645,-9.645038604736328,-137.9698486328125,472.7129211425781, -103.0577392578125
359,992157821,0.71790606,0.2147506,-0.660916,0.041030113,28.417543411254883,0.0577276349067688,-18.328258514404297,-216.0696563720703,466.906982421875, -75.06922149658203
360,992174488,0.76100504,0.20292397,-0.6148553,0.040579006,26.96396255493164,-4.108182430267334,-27.291309356689453,-110.88735961914062,423.60272216796875, -28.047521591186523
361,992191155,0.7888632,0.20347929,-0.57779074,0.049488686,17.54647445678711,2.2356786727905273,-35.54888153076172,12.122175216674805,322.31585693359375, -14.839470863342285
362,992207822,0.8031245,0.2073522,-0.5560417,0.053048998,7.262644290924072,1.726440191268921,-38.40464401245117,22.31157875061035,177.4550018310547, -31.08173942565918
363,992224489,0.8050314,0.20827486,-0.5531547,0.050659344,2.406564712524414,-2.464977979660034,-36.81517791748047,-6.233099937438965,19.58489418029785, -21.288265228271484
364,992241156,0.79692656,0.20226866,-0.5676815,0.041632384,2.105558156967163,-2.4703009128570557,-33.034881591796875,-61.8167839050293,-121.1719970703125, -3.336989164352417
365,992257823,0.77974254,0.19475001,-0.59441453,0.027308559,3.5429835319519043,1.0027927160263062,-31.761816024780273,-81.8592300415039,-229.78138732910156, -6.902419567108154
366,992274490,0.751887,0.17162806,-0.63648653,-0.009737643,13.231989860534668,8.942968368530273,-38.19465637207031,-247.33660888671875,-382.74273681640625, -42.26667785644531
367,992291157,0.7215956,0.16185436,-0.67191005,-0.040498123,27.782270431518555,4.951624870300293,23.771692276000977,-148.49464416503906,-349.8736572265625, -75.81109619140625
368,992307824,0.69254357,0.15018912,-0.70195824,-0.07128527,22.5152530670166,-3.6670024394989014,-5.428841590881348,-160.6864013671875,-318.7239074707031, -72.74398803710938
369,992324491,0.66001904,0.15768112,-0.73029506,-0.078619175,19.215702056884766,-8.983160018920898,-0.6740694046020508,46.48896408081055,-293.7386474609375, -57.1317138671875
370,992341158,0.63245296,0.16017877,-0.75240034,-0.09077567,11.470399856567383,3.029486894607544,-4.3038225173950195,-9.113572120666504,-248.61981201171875, -58.309749603271484
371,992357825,0.6114413,0.16138893,-0.7677352,-0.10332573,11.185253143310547,3.8318772315979004,-5.096482276916504,-28.217710494995117,-186.58628845214844, -56.69049072265625
372,992374492,0.5948545,0.16661532,-0.7788433,-0.108586594,9.488677978515625,8.093503952026367,-4.54960298538208,19.25358009338379,-134.58889770507812, -48.77811813354492
373,992391159,0.58313924,0.16824475,-0.7869994,-0.110791504,12.5049467086792,9.743483543395996,-6.446174621582031,13.179697036743164,-95.69393920898438, -16.68488311767578
374,992407826,0.57576895,0.16722263,-0.79258513,-0.1110666,13.88936710357666,8.645021438598633,-6.943192958831787,6.082414627075195,-61.72435760498047, 5.802309989929199
375,992424493,0.5708319,0.16525234,-0.7968987,-0.10860709,19.543445587158203,6.5372314453125,-3.692016839981079,13.51801586151123,-41.07505416870117, 22.216222763061523
376,992441160,0.5663752,0.16603756,-0.80088145,-0.101191595,23.74858856201172,6.064625263214111,-4.0373711585998535,50.7749137878418,-29.621440887451172, 26.477842330932617
377,992457827,0.5608894,0.17040752,-0.805266,-0.08894463,22.270166397094727,2.8716917037963867,1.479263424873352,92.8548812866211,-29.030210494995117, 25.17580223083496
378,992474494,0.5545005,0.17829533,-0.8095882,-0.0728498,18.2171630859375,0.29273533821105957,5.007787227630615,128.82720947265625,-27.4130916595459, 19.748722076416016
379,992491161,0.54535323,0.1848956,-0.815678,-0.055435557,14.566067695617676,0.9544966220855713,8.186769485473633,135.60891723632812,-48.84999465942383, 32.57196807861328
380,992507828,0.53422,0.1904784,-0.8227851,-0.036772665,11.973360061645508,1.5251468420028687,12.800164222717285,141.80377197265625,-62.94380187988281, 43.40445327758789
381,992524495,0.5209626,0.19412243,-0.83097893,-0.01972092,8.724228858947754,2.0001823902130127,4.734297752380371,128.7510528564453,-81.94429016113281, 49.295127868652344
382,992541162,0.49542132,0.20683017,-0.84366786,-0.0020761862,6.259439945220947,17.530467987060547,-0.2834581434726715,181.70152282714844,-166.42282104492188, 3.961294651031494
383,992557829,0.4666652,0.20141612,-0.8609349,-0.02112836,11.510468482971191,10.01848316192627,5.487967014312744,-88.09221649169922,-253.19410705566406, -9.192399978637695
384,992574496,0.435329,0.19933857,-0.8771188,-0.037624113,16.03606414794922,-2.009005069732666,7.0826921463012695,-58.645751953125,-261.20068359375, -22.554027557373047
385,992591163,0.4015103,0.21107306,-0.89092344,-0.02220989,19.42363929748535,-8.297893524169922,12.658004760742188,177.9938507080078,-222.05471801757812, -14.37304401397705
386,992607830,0.37012738,0.22520657,-0.9012601,0.0042756256,13.530673027038574,0.16743165254592896,16.01210594177246,248.3211212158203,-181.5897216796875, -3.312865734100342
387,992624497,0.34581414,0.2364424,-0.90775657,0.022043291,10.761321067810059,4.209657669067383,16.35129737854004,176.1136474609375,-141.79678344726562, -13.668651580810547
388,992641164,0.32653707,0.24935825,-0.910697,0.042722397,11.569042205810547,5.979808330535889,13.454059600830078,190.762451171875,-97.76445770263672, -23.676212310791016
389,992657831,0.31301722,0.2609447,-0.9110458,0.06264252,14.514888763427734,9.906706809997559,9.155937194824219,174.05694580078125,-57.08980941772461, -23.05486488342285
390,992674498,0.3102038,0.26549524,-0.9101363,0.070272125,15.380962371826172,9.950418472290039,9.3403902053833,63.43848419189453,-6.60371732711792, -12.145593643188477
391,992691165,0.3197746,0.26353434,-0.9077794,0.0650449,11.9041166305542,5.218373775482178,6.141186237335205,-52.62957763671875,53.364749908447266, -7.361967086791992
392,992707832,0.33844936,0.26146364,-0.90193886,0.059963558,9.705083847045898,4.511516094207764,3.4416582584381104,-66.8392105102539,117.98485565185547, -16.730228424072266
393,992724499,0.36591524,0.25969914,-0.89191735,0.05609229,10.314423561096191,5.944089889526367,1.1733644008636475,-72.66104125976562,184.2003631591797, -26.947669982910156
394,992741166,0.4013068,0.25820842,-0.87704474,0.055444762,10.210803031921387,5.705142974853516,-1.4998102188110352,-64.42554473876953,250.62811279296875, -32.19070053100586
395,992757833,0.4432577,0.25894332,-0.85603285,0.060654774,10.310894966125488,5.160401344299316,-2.104306697845459,-32.22799301147461,316.7201232910156, -42.76750564575195
396,992774500,0.489911,0.26240718,-0.8282903,0.071169145,11.743162155151367,4.553907871246338,-2.9392950534820557,1.765467643737793,373.31304931640625, -56.49015426635742
397,992791167,0.5399412,0.26808524,-0.79360116,0.082410164,12.975086212158203,5.22088623046875,-4.420703411102295,10.656730651855469,416.3000183105469, -80.71141052246094
398,992807834,0.59358174,0.26939604,-0.7536388,0.0843531,14.280874252319336,4.4627299308776855,-5.582594871520996,-60.02866744995117,441.0668029785156, -103.05757141113281
399,992824501,0.65021384,0.25925615,-0.7105104,0.071997866,17.930788040161133,3.9757440090179443,-7.622140407562256,-184.74827575683594,449.8294677734375, -109.6607894897461
400,992841168,0.70668894,0.23575467,-0.6650319,0.052378297,26.475616455078125,0.6758657693862915,-13.371813774108887,-278.78564453125,453.4420166015625, -81.04765319824219
401,992857835,0.75379366,0.21633008,-0.61874515,0.04638126,29.99985694885254,-5.573417663574219,-24.265432357788086,-181.253662109375,435.33087158203125, -31.59891128540039
402,992874502,0.78553355,0.2145929,-0.5776992,0.056134876,21.753494262695312,2.324151039123535,-32.16120529174805,-1.474907398223877,361.0918273925781, -12.814078330993652
403,992891169,0.80540013,0.21388431,-0.5496558,0.058847554,10.270288467407227,6.429043292999268,-34.27713394165039,-11.735930442810059,233.6451416015625, -31.28602409362793
404,992907836,0.8137148,0.21517399,-0.5371077,0.05553266,5.862405300140381,-6.190647125244141,-37.15840530395508,-12.994940757751465,95.31192016601562, -44.70794677734375
405,992924503,0.8096784,0.21653408,-0.5429573,0.05226546,2.1633636951446533,-4.086704730987549,-35.9854850769043,-1.425284504890442,-52.35725021362305, -12.97233772277832
406,992941170,0.79619336,0.20933387,-0.56626153,0.0400505,2.61125111579895,-1.3323534727096558,-31.647445678710938,-74.92776489257812,-194.31533813476562, -1.5294913053512573
407,992957837,0.7729233,0.20375594,-0.6003988,0.024388961,5.8477277755737305,3.2013936042785645,-35.04568099975586,-68.5827865600586,-296.53662109375, -8.384867668151855
408,992974504,0.7450425,0.17742427,-0.6427868,-0.016051931,19.622081756591797,6.782453536987305,-2.0981273651123047,-276.5469970703125,-390.1471252441406, -41.825157165527344
409,992991171,0.71791244,0.16104148,-0.6750914,-0.054031346,21.68642234802246,6.571222305297852,8.748547554016113,-216.6227569580078,-330.97955322265625, -85.07391357421875
410,993007838,0.68696266,0.16290268,-0.70465255,-0.07078272,29.044574737548828,-8.660917282104492,-1.915319800376892,-24.622697830200195,-305.1128234863281, -69.24394989013672
411,993024505,0.6558633,0.17707649,-0.7302197,-0.07257246,12.142219543457031,-4.907655715942383,-2.9665379524230957,104.26518249511719,-264.2563171386719, -63.14902877807617
412,993041172,0.63182676,0.176215,-0.74966097,-0.08804656,13.450173377990723,4.080888271331787,-2.94716739654541,-44.07078552246094,-225.3907928466797, -53.45289993286133
413,993057839,0.61346585,0.17771298,-0.7628496,-0.10068969,7.889103412628174,4.812950134277344,-4.748105525970459,-29.87493324279785,-164.17137145996094, -57.39638137817383
414,993074506,0.59826106,0.18441534,-0.7730209,-0.10253708,10.853302955627441,11.142754554748535,-4.059150218963623,42.759002685546875,-118.10589599609375, -40.5954704284668
415,993091173,0.5886916,0.1878918,-0.7794706,-0.102785006,12.709321022033691,6.353908061981201,-7.0135178565979,28.30742073059082,-73.12511444091797, -17.495624542236328
416,993107840,0.58226603,0.18768008,-0.7844975,-0.10152139,14.674479484558105,8.452871322631836,-5.875889301300049,16.414743423461914,-51.17170715332031, 8.777865409851074
417,993124507,0.57830656,0.18696862,-0.78807324,-0.0976987,19.221830368041992,7.195255756378174,-3.9700076580047607,24.075233459472656,-29.145145416259766, 21.590068817138672
418,993141174,0.57438344,0.18877067,-0.7916655,-0.08783775,21.843345642089844,2.523996591567993,-4.167744159698486,66.82378387451172,-19.67717170715332, 31.96132469177246
419,993157841,0.57019764,0.19321066,-0.79509294,-0.07329362,20.428333282470703,4.779018878936768,-0.22121582925319672,102.9943618774414,-12.921540260314941, 35.526302337646484
420,993174508,0.56569433,0.1985402,-0.7982137,-0.058540765,19.546815872192383,1.6873390674591064,3.9200387001037598,107.96866607666016,-12.95041561126709, 30.780763626098633
421,993191175,0.5578205,0.20563509,-0.80316657,-0.03839656,14.939720153808594,-0.6693452596664429,7.583958625793457,149.86293029785156,-30.825759887695312, 43.02627182006836
422,993207842,0.54858077,0.21143395,-0.8087295,-0.017664665,11.464934349060059,1.2149319648742676,13.171154022216797,150.32830810546875,-40.59514617919922, 52.76742935180664
423,993224509,0.5384253,0.21303198,-0.8152976,-0.0023839597,5.847446441650391,1.410640001296997,9.775485038757324,105.77063751220703,-58.38747024536133, 56.84707260131836
424,993241176,0.5124305,0.22399917,-0.82890844,0.012272572,3.476181983947754,17.159135818481445,-7.274972915649414,160.39939880371094,-174.36497497558594, 12.071270942687988
425,993257843,0.48456073,0.21731466,-0.84727407,-0.010126278,13.679586410522461,11.750370025634766,5.233516216278076,-110.33826446533203,-257.3049621582031, -10.061235427856445
426,993274510,0.4513324,0.21642332,-0.865403,-0.023196073,18.729536056518555,-6.036483287811279,6.2463059425354,-28.42938995361328,-273.7136535644531, -13.316787719726562
427,993291177,0.41200486,0.23303753,-0.88087565,0.0020118768,16.9335880279541,-3.3478951454162598,12.506815910339355,262.3702392578125,-242.46420288085938, -3.8497323989868164
428,993307844,0.37651017,0.24795362,-0.892115,0.029836906,13.977852821350098,0.523314356803894,17.34084129333496,267.3104248046875,-203.54615783691406, 6.938187599182129
429,993324511,0.3479665,0.26156473,-0.89850986,0.05642458,13.019862174987793,3.449219226837158,18.61873435974121,245.53549194335938,-150.7209930419922, 2.103590965270996
430,993341178,0.32782662,0.27268875,-0.9012868,0.07650605,13.882142066955566,10.033587455749512,17.3966007232666,185.77969360351562,-101.3678207397461, -7.749001502990723
431,993357845,0.31797564,0.27962965,-0.9019492,0.084775895,13.259882926940918,10.970640182495117,14.51259994506836,85.2038345336914,-53.245384216308594, -17.62885284423828
432,993374512,0.31872773,0.28259304,-0.9007296,0.085089736,13.244734764099121,9.844548225402832,10.773472785949707,8.13655948638916,3.26173734664917, -20.0078125
433,993391179,0.33209908,0.28006732,-0.8974356,0.07669691,12.786016464233398,7.312151908874512,7.499902725219727,-80.92159271240234,71.94373321533203, -16.42710304260254
434,993407846,0.3557079,0.27453062,-0.8909314,0.0659276,11.04497241973877,5.187265872955322,3.805661201477051,-120.37335968017578,139.2274627685547, -14.853105545043945
435,993424513,0.3866798,0.26968074,-0.87973464,0.061793707,11.26083755493164,4.93247127532959,0.1702825129032135,-89.77090454101562,207.9140167236328, -15.03883171081543
436,993441180,0.42415124,0.26583892,-0.86321694,0.06544026,11.538663864135742,5.816790580749512,-1.9252527952194214,-49.79917526245117,275.3624267578125, -13.038894653320312
437,993457847,0.4666852,0.26507375,-0.840315,0.07623573,12.016067504882812,6.289571285247803,-3.3344199657440186,-4.754758358001709,335.778564453125, -24.287250518798828
438,993474514,0.51305705,0.26846853,-0.8101788,0.091145754,13.125486373901367,6.660930156707764,-4.952780723571777,29.176000595092773,386.6258544921875, -50.15198516845703
439,993491181,0.56281835,0.27244562,-0.7739054,0.10039838,13.596261024475098,6.499112129211426,-6.356982231140137,-2.7134504318237305,416.53497314453125, -86.64510345458984
440,993507848,0.61569494,0.26968655,-0.7341388,0.09607037,14.88257122039795,4.742879390716553,-7.278156280517578,-104.5812759399414,426.0574645996094, -111.94532012939453
441,993524515,0.67095536,0.25308028,-0.6925604,0.078292385,20.985095977783203,1.062135934829712,-11.249799728393555,-234.56039428710938,430.2213134765625, -103.94942474365234
442,993541182,0.72318745,0.22589439,-0.64978266,0.06127419,27.4626407623291,-6.319782733917236,-18.624584197998047,-274.0596923828125,428.6326599121094, -50.6903190612793
443,993557849,0.7614412,0.212788,-0.6088129,0.06538891,24.174352645874023,-1.6086044311523438,-30.799665451049805,-88.79939270019531,384.41046142578125, -0.1627427190542221
444,993574516,0.7872713,0.20744683,-0.57632816,0.07082202,16.479530334472656,6.147952079772949,-31.662221908569336,-28.474079132080078,287.1876220703125, -7.974501132965088
445,993591183,0.80148095,0.20809832,-0.5561505,0.070853725,7.992470741271973,-2.7093565464019775,-35.313026428222656,-7.137019157409668,164.7005615234375, -37.74730682373047
446,993607850,0.80305326,0.212396,-0.5521555,0.07154346,5.0095391273498535,-6.063703536987305,-35.9045524597168,25.45041275024414,27.226369857788086, -18.897842407226562
447,993624517,0.7945817,0.21000865,-0.56588835,0.06562884,2.217369794845581,-0.39096730947494507,-32.4080924987793,-30.79911231994629,-114.3300552368164, 0.6540461778640747
448,993641184,0.7782684,0.20095135,-0.5927198,0.050994318,4.385494709014893,-3.513204336166382,-27.74462127685547,-95.96154022216797,-225.33465576171875, 1.4530531167984009
449,993657851,0.7506144,0.19776578,-0.6296072,0.032588817,6.154757499694824,13.280624389648438,-32.06282043457031,-67.95674133300781,-332.15155029296875, -24.790857315063477
450,993674518,0.7256339,0.1732584,-0.66587454,-0.0069699828,25.085777282714844,4.30976676940918,9.384075164794922,-273.4117736816406,-340.8260803222656, -42.60759353637695
451,993691185,0.69963324,0.16380891,-0.69451886,-0.03639026,18.867765426635742,1.0157904624938965,1.7418711185455322,-150.78948974609375,-294.909423828125, -69.89553833007812
452,993707852,0.66883516,0.17312783,-0.7216836,-0.04312291,23.342180252075195,-8.481892585754395,-0.7769517302513123,52.98613357543945,-280.59759521484375, -53.25198745727539
453,993724519,0.6410589,0.1788521,-0.74453133,-0.052238103,11.282242774963379,0.5347697138786316,-3.976623058319092,19.730968475341797,-249.76690673828125, -50.944091796875
454,993741186,0.61951256,0.17744899,-0.7616298,-0.06809232,12.139782905578613,3.073416233062744,-4.022970676422119,-56.01264190673828,-203.4495086669922, -48.99070358276367
455,993757853,0.60156703,0.18301289,-0.77394164,-0.07508772,8.854048728942871,6.596855640411377,-4.325779438018799,13.446892738342285,-150.19345092773438, -51.86960983276367
456,993774520,0.58783996,0.18633977,-0.7832807,-0.078700565,12.409762382507324,9.217818260192871,-5.482666015625,15.393634796142578,-112.3951187133789, -27.460735321044922
457,993791187,0.5785337,0.18541217,-0.790219,-0.0804703,13.335406303405762,7.809473991394043,-6.663782596588135,1.2354364395141602,-78.87399291992188, 2.3049564361572266
458,993807854,0.5726553,0.18421401,-0.7949536,-0.07861496,18.47486114501953,7.0310444831848145,-5.441144943237305,14.31236457824707,-47.05156707763672, 17.323768615722656
459,993824521,0.5678115,0.18305698,-0.7991725,-0.073513135,22.69483757019043,4.878897666931152,-4.412038326263428,30.692739486694336,-35.33747482299805, 29.755647659301758
460,993841188,0.5626092,0.18404384,-0.8034309,-0.06401475,22.798173904418945,2.4978389739990234,1.3332599401474,63.7456169128418,-31.007017135620117, 34.89025115966797
461,993857855,0.5573535,0.18915051,-0.80690706,-0.04980464,19.741687774658203,2.080247640609741,2.1957550048828125,105.51036071777344,-20.793733596801758, 29.172138214111328
462,993874522,0.54960924,0.19493689,-0.81172234,-0.032197252,16.3480281829834,0.10256808251142502,6.041816234588623,130.73219299316406,-35.36598587036133, 39.15884017944336
463,993891189,0.5404475,0.19961183,-0.8172512,-0.013129452,12.870861053466797,0.6162772178649902,14.290103912353516,136.82666015625,-44.60171127319336, 51.37441635131836
464,993907856,0.52978516,0.20333712,-0.82338005,0.005268609,6.712207794189453,1.2888652086257935,11.638444900512695,131.7730712890625,-56.7619514465332, 54.828487396240234
465,993924523,0.50217,0.21491732,-0.8373286,0.022738175,2.819566488265991,16.25318717956543,-9.024842262268066,178.67825317382812,-183.19366455078125, 18.512285232543945
466,993941190,0.47349614,0.2054917,-0.85647094,-0.0057067913,13.418120384216309,14.406890869140625,7.549928665161133,-157.30731201171875,-271.6711730957031, -10.952073097229004
467,993957857,0.441135,0.20213597,-0.8740242,-0.02496433,19.810312271118164,-8.60009479522705,5.29542350769043,-77.95864868164062,-275.342529296875, -19.004575729370117
468,993974524,0.40301973,0.21722753,-0.88902795,-0.0041260943,19.102022171020508,-3.1675801277160645,13.694453239440918,226.49964904785156,-243.71969604492188, -13.054708480834961
469,993991191,0.36987668,0.22918114,-0.9002368,0.015532907,14.058518409729004,-0.007993221282958984,18.281042098999023,203.0427703857422,-205.20811462402344, -2.7615909576416016
470,994007858,0.3438985,0.24014553,-0.9071502,0.033805463,11.954192161560059,3.144516944885254,19.280757904052734,181.17437744140625,-152.55406188964844, -7.686062335968018
471,994024525,0.32503158,0.25099376,-0.9102575,0.05280391,13.904892921447754,8.393353462219238,16.70477867126465,174.7052764892578,-98.48182678222656, -13.091784477233887
472,994041192,0.31509387,0.2579004,-0.91107124,0.06444449,15.426034927368164,9.607498168945312,12.915522575378418,105.49337768554688,-49.22674560546875, -11.902143478393555
473,994057859,0.3157119,0.25941443,-0.910111,0.06876562,14.169118881225586,7.971574783325195,11.862031936645508,30.26410675048828,9.690632820129395, -1.6521660089492798
474,994074526,0.3271353,0.25663948,-0.9069383,0.067688964,12.503190994262695,6.019951343536377,7.330011367797852,-30.873111724853516,74.09152221679688, 4.505651473999023
475,994091193,0.34880638,0.25239056,-0.90028566,0.06418077,11.556779861450195,7.0812153816223145,3.918227195739746,-65.7123031616211,141.91993713378906, -2.639129400253296
476,994107860,0.38026494,0.2464482,-0.88948166,0.05902945,11.165607452392578,7.378000736236572,1.244815707206726,-94.99456787109375,210.15771484375, -7.571983814239502
477,994124527,0.41946194,0.24095976,-0.87332237,0.057431955,11.01073169708252,7.984221935272217,-0.9145420789718628,-82.9194564819336,277.2076721191406, -13.199169158935547
478,994141194,0.46495357,0.23707716,-0.8509255,0.059487898,11.810115814208984,7.612154006958008,-2.609149932861328,-64.23506164550781,338.3809814453125, -24.989713668823242
479,994157861,0.51508343,0.23644942,-0.8212867,0.065340005,13.194144248962402,6.962045669555664,-3.659165382385254,-36.163455963134766,393.5691833496094, -45.41851806640625
480,994174528,0.5691117,0.23714495,-0.7842946,0.06896729,14.718018531799316,6.5475687980651855,-5.003036022186279,-47.0841064453125,437.5157470703125, -74.28520965576172
481,994191195,0.62585515,0.23484111,-0.74089247,0.06506946,16.20600700378418,4.852367401123047,-6.354609489440918,-100.86690521240234,466.55792236328125, -99.15478515625
482,994207862,0.68196195,0.22581695,-0.69328946,0.05731367,21.670639038085938,0.6668957471847534,-10.630704879760742,-146.71517944335938,478.3597412109375, -87.95684051513672
483,994224529,0.7340411,0.211252,-0.64331275,0.05201593,30.501544952392578,-2.07151198387146,-18.27529525756836,-153.96739196777344,476.59088134765625, -52.22393798828125
484,994241196,0.77374023,0.2055955,-0.5962518,0.059504505,26.401161193847656,1.9560794830322266,-30.86524772644043,-35.82297134399414,422.92279052734375, -18.682313919067383
485,994257863,0.8018491,0.20134382,-0.5591646,0.06192096,16.835966110229492,7.31138801574707,-34.153785705566406,-37.1318244934082,315.4967041015625, -32.721282958984375
486,994274530,0.81685805,0.201038,-0.5374407,0.059030816,7.732690811157227,-0.7331923842430115,-37.46683120727539,-24.55809211730957,172.3852081298828, -50.28937530517578
487,994291197,0.81984943,0.20122549,-0.53327364,0.054544244,4.080765247344971,-5.92802095413208,-39.4117431640625,-18.51951789855957,27.99269676208496, -32.07209777832031
488,994307864,0.8110525,0.20066012,-0.54739803,0.04780415,2.1693577766418457,-3.8022356033325195,-35.62114334106445,-21.827852249145508,-120.16549682617188, -12.502452850341797
489,994324531,0.79214966,0.19723633,-0.57640845,0.036750704,5.522371768951416,-4.27910852432251,-30.451078414916992,-45.186012268066406,-245.4176025390625, -2.0361058712005615
490,994341198,0.76183647,0.20569074,-0.61358535,0.028463745,8.429941177368164,9.38990592956543,-27.935110092163086,43.730552673339844,-333.7237854003906, -20.198637008666992
491,994357865,0.7360766,0.1837603,-0.65137506,-0.011593886,24.64641571044922,3.55370831489563,8.96504020690918,-256.4508056640625,-356.212890625, -58.13360595703125
492,994374532,0.70770484,0.17083803,-0.68412036,-0.044139016,22.937902450561523,3.440340995788574,2.2847628593444824,-173.92550659179688,-332.4010925292969, -66.8379135131836
493,994391199,0.67671895,0.1747002,-0.7127933,-0.05880062,21.37616539001465,-7.472534656524658,0.18513572216033936,-6.390915870666504,-298.9866638183594, -64.31704711914062
494,994407866,0.646489,0.18520014,-0.737187,-0.06564025,13.595010757446289,-3.234347343444824,-3.6981263160705566,60.23893737792969,-263.4261779785156, -65.61490631103516
495,994424533,0.62316054,0.18206346,-0.755976,-0.083813235,13.301351547241211,5.766421318054199,-3.539888858795166,-69.22135925292969,-224.18592834472656, -51.0258674621582
496,994441200,0.6045253,0.184663,-0.76901376,-0.09522041,8.695942878723145,3.6448347568511963,-5.286837100982666,-18.597095489501953,-163.4477996826172, -56.26374816894531
497,994457867,0.58862066,0.19022568,-0.77981335,-0.0960813,11.70718002319336,9.31298542022705,-5.183192253112793,44.53306198120117,-124.4202880859375, -29.129615783691406
498,994474534,0.5784696,0.18974149,-0.7871845,-0.09855107,13.452587127685547,8.738224983215332,-6.846750736236572,1.7305221557617188,-85.84829711914062, -3.8213095664978027
499,994491201,0.57141477,0.18837297,-0.79271203,-0.09802522,17.450654983520508,6.571237087249756,-6.124349117279053,9.189949035644531,-58.4963493347168, 12.625667572021484
500,994507868,0.56616414,0.18763441,-0.7972153,-0.09327332,21.389991760253906,6.1633219718933105,-4.853090286254883,31.727283477783203,-38.83592987060547, 25.633712768554688
501,994524535,0.5606966,0.1898225,-0.8015899,-0.08390906,23.065767288208008,3.579871892929077,-1.5139288902282715,68.64722442626953,-31.861398696899414, 27.137636184692383
502,994541202,0.55457103,0.19431834,-0.80604905,-0.07054772,20.287263870239258,2.260122537612915,1.138619065284729,100.5562973022461,-29.516782760620117, 29.375219345092773
503,994557869,0.54828805,0.20249128,-0.8097623,-0.05160539,16.332414627075195,-0.05076543241739273,4.475543975830078,145.4327850341797,-18.592981338500977, 29.026504516601562
504,994574536,0.5395041,0.20884249,-0.8150591,-0.03160883,13.63494873046875,1.6271746158599854,8.906485557556152,148.54959106445312,-37.99385452270508, 44.28956604003906
505,994591203,0.5314143,0.21088752,-0.82031244,-0.014604816,10.588030815124512,0.40901851654052734,12.265592575073242,114.93116760253906,-39.563499450683594, 57.319766998291016
506,994607870,0.5164967,0.2183425,-0.8279665,0.0054398277,3.6700172424316406,5.684854507446289,-1.9727388620376587,162.11866760253906,-82.32601165771484, 40.65264129638672
507,994624537,0.48949048,0.22182575,-0.8433168,0.0030980562,8.311315536499023,23.623910903930664,0.8446236848831177,38.47611999511719,-211.97154235839844, -4.122872352600098
508,994641204,0.46362472,0.20713279,-0.8608517,-0.032910604,15.12903118133545,-0.5342879295349121,5.897543907165527,-219.3756561279297,-263.8800048828125, -8.336297988891602
509,994657871,0.42943722,0.21450505,-0.8767894,-0.028500108,18.439250946044922,-8.14752197265625,9.679176330566406,101.8477554321289,-245.77955627441406, -14.3886137008667
510,994674538,0.39442796,0.22933467,-0.8898401,-0.0041650855,14.970455169677734,-0.40530645847320557,17.286039352416992,244.5896759033203,-211.8609619140625, -5.152449131011963
511,994691205,0.3666332,0.24117157,-0.898446,0.014545066,11.127674102783203,0.9149875044822693,19.392383575439453,190.5972137451172,-165.14344787597656, -8.911620140075684
512,994707872,0.34566697,0.25360233,-0.90278405,0.034378674,9.761500358581543,3.66670560836792,17.683917999267578,188.23733520507812,-110.88202667236328, -17.45595932006836
513,994724539,0.3305932,0.26717123,-0.90337884,0.056875885,13.272997856140137,9.39663314819336,14.747082710266113,198.23947143554688,-61.43415069580078, -25.989381790161133
514,994741206,0.32425866,0.27576354,-0.90211916,0.07065833,16.351642608642578,10.009765625,11.573136329650879,117.69440460205078,-17.390636444091797, -21.510011672973633
515,994757873,0.32773498,0.27855322,-0.89947057,0.07714383,15.198606491088867,7.957174301147461,9.650632858276367,41.792781829833984,35.150611877441406, -9.020929336547852
516,994774540,0.341325,0.27700582,-0.8948165,0.07790406,14.169402122497559,4.866168022155762,4.577421188354492,-21.546894073486328,93.22593688964844, -4.206253528594971
517,994791207,0.36369905,0.2751148,-0.88660896,0.07719824,11.702068328857422,7.117881774902344,2.286499500274658,-46.14923095703125,152.7977294921875, -16.967687606811523
518,994807874,0.39552775,0.27137163,-0.87437147,0.07341878,12.062445640563965,8.102086067199707,-0.002741515636444092,-85.18358612060547,215.59275817871094, -25.948184967041016
519,994824541,0.43527138,0.267752,-0.85654885,0.07191768,11.660181045532227,7.550814151763916,-1.8500776290893555,-83.02507019042969,282.5341491699219, -34.832786560058594
520,994841208,0.48172024,0.26481032,-0.83211225,0.07355843,13.137256622314453,6.478170871734619,-3.280144691467285,-71.52713012695312,347.3366394042969, -44.81391143798828
521,994857875,0.5337835,0.26250666,-0.800308,0.075319044,13.809345245361328,5.9249114990234375,-4.774807453155518,-75.24883270263672,403.8855895996094, -64.21951293945312
522,994874542,0.5898997,0.25842595,-0.76150316,0.07312801,14.984942436218262,2.9066898822784424,-6.404288291931152,-107.27738189697266,445.86328125, -83.60520935058594
523,994891209,0.64619476,0.25181663,-0.71686643,0.07158089,18.182323455810547,-0.9537919759750366,-8.714244842529297,-111.67691040039062,473.0930480957031, -78.19612121582031
524,994907876,0.7008543,0.23908003,-0.66833586,0.07051038,26.892696380615234,-1.2231955528259277,-12.407820701599121,-131.97006225585938,486.4542236328125, -51.913997650146484
525,994924543,0.74782795,0.22983533,-0.61792874,0.07806322,32.542320251464844,-2.6444385051727295,-23.292295455932617,-62.210758209228516,472.9418029785156, -25.923011779785156
526,994941210,0.782851,0.22612543,-0.5727382,0.08934764,24.823389053344727,2.361359119415283,-29.93949317932129,-2.00956130027771,398.83819580078125, -15.828189849853516
527,994957877,0.8050146,0.2273454,-0.539807,0.094203405,12.642889022827148,2.444843292236328,-35.59574890136719,11.369126319885254,269.9264221191406, -43.011878967285156
528,994974544,0.8160575,0.22265896,-0.5260807,0.08782039,3.622267723083496,-0.625082790851593,-38.99730682373047,-58.340667724609375,109.49960327148438, -46.120513916015625
529,994991211,0.8165599,0.21157603,-0.5318572,0.07479169,2.7911534309387207,-5.299328327178955,-34.475826263427734,-114.17843627929688,-43.47934341430664, -24.108192443847656
530,995007878,0.8054349,0.20394719,-0.55295616,0.06261323,2.446784019470215,-6.140565872192383,-32.9061279296875,-82.82875061035156,-171.82977294921875, -3.7990810871124268
531,995024545,0.78464425,0.2001487,-0.584487,0.05147245,5.828893184661865,-2.8068032264709473,-25.802392959594727,-48.7852783203125,-265.8977355957031, 6.080927848815918
532,995041212,0.7543507,0.20164293,-0.62373793,0.035308782,7.756450653076172,16.182100296020508,-22.225109100341797,-30.227214813232422,-354.0771484375, -28.327909469604492
533,995057879,0.72899896,0.17383902,-0.661929,-0.0138206845,24.131275177001953,7.215784549713135,7.369566917419434,-330.53857421875,-365.72528076171875, -75.80606079101562
534,995074546,0.7010932,0.16342506,-0.6926858,-0.044135325,19.736112594604492,-4.667028427124023,-2.1932034492492676,-155.02182006835938,-316.0567932128906, -69.45690155029297
535,995091213,0.6703912,0.17580308,-0.7191952,-0.04927116,14.133657455444336,-1.4912331104278564,0.8795624375343323,76.5134506225586,-273.7577819824219, -62.415348052978516
536,995107880,0.6441675,0.1839935,-0.74016136,-0.05793508,20.30140495300293,0.13602744042873383,-2.7707126140594482,32.541297912597656,-231.8470001220703, -63.285823822021484
537,995124547,0.62257993,0.18271546,-0.7572753,-0.074458845,16.017141342163086,-0.2328948676586151,-2.95111083984375,-56.80015563964844,-205.00221252441406, -53.04166793823242
538,995141214,0.6039669,0.18564725,-0.77047956,-0.084385924,10.404667854309082,4.689218997955322,-3.932573080062866,-10.22404670715332,-162.45272827148438, -50.176780700683594
539,995157881,0.5892923,0.1907367,-0.7802112,-0.08732212,10.246379852294922,9.83316707611084,-6.253279209136963,28.76698112487793,-117.04261779785156, -34.69882583618164
540,995174548,0.5791992,0.19344419,-0.7869754,-0.088193595,13.029173851013184,8.418025016784668,-6.422186374664307,22.456607818603516,-79.16987609863281, -14.5919771194458
541,995191215,0.5724824,0.19470142,-0.7918582,-0.08553459,16.564167022705078,6.632941722869873,-5.909915447235107,30.19856071472168,-49.62434768676758, 6.8978590965271
542,995207882,0.56756383,0.1944165,-0.7960833,-0.079533,20.338951110839844,5.431950092315674,-4.724076747894287,39.58218765258789,-33.74713897705078, 28.587339401245117
543,995224549,0.5636326,0.19492519,-0.7996232,-0.07018376,21.946399688720703,2.746171236038208,-3.0576112270355225,59.34080123901367,-20.894731521606445, 36.837032318115234
544,995241216,0.56048536,0.1996524,-0.8018764,-0.054679617,21.502351760864258,2.154245615005493,1.9408048391342163,107.90513610839844,-1.4896129369735718, 35.97376251220703
545,995257883,0.55578494,0.20190047,-0.8054351,-0.040176626,17.593482971191406,0.8228864669799805,6.729907035827637,95.53596496582031,-17.67563819885254, 46.81927490234375
546,995274550,0.5492199,0.20592864,-0.80961424,-0.021821532,12.425568580627441,-0.21269188821315765,11.094219207763672,126.51554107666016,-24.895187377929688, 51.88978576660156
547,995291217,0.5420364,0.20646347,-0.81457824,-0.005696817,8.046029090881348,2.3757989406585693,14.000923156738281,102.00726318359375,-35.38445281982422, 63.8260612487793
548,995307884,0.52248734,0.2141344,-0.8252697,0.009162629,0.8461492657661438,10.676895141601562,-5.071072101593018,139.46487426757812,-127.92648315429688, 26.779613494873047
549,995324551,0.49348325,0.21465085,-0.84284794,-0.0027587705,9.198356628417969,19.03462028503418,3.0995147228240967,-24.61604118347168,-245.23452758789062, -17.89280891418457
550,995341218,0.46418768,0.20694031,-0.8606456,-0.031547617,16.17894172668457,-1.622618317604065,5.493358612060547,-149.5526123046875,-272.95257568359375, -26.836803436279297
551,995357885,0.42878774,0.2217014,-0.87554663,-0.020207578,19.477603912353516,-6.5816521644592285,10.522188186645508,167.8173370361328,-238.17405700683594, -37.34385299682617
552,995374552,0.39319226,0.24107848,-0.88724554,0.008778534,15.307190895080566,-2.021047592163086,16.240375518798828,287.51611328125,-202.89320373535156, -18.201807022094727
553,995391219,0.36321953,0.2582646,-0.8944043,0.03758461,11.694414138793945,0.8042508363723755,16.788686752319336,271.46044921875,-156.99949645996094, -13.202066421508789
554,995407886,0.3407412,0.27310127,-0.8975166,0.061445788,11.824217796325684,8.30982780456543,19.53739356994629,222.975341796875,-109.42422485351562, -20.156177520751953
555,995424553,0.32768804,0.28374678,-0.8981432,0.07380878,14.492141723632812,10.404716491699219,16.082548141479492,125.7627182006836,-65.73993682861328, -29.697864532470703
556,995441220,0.32415572,0.290271,-0.89687383,0.07927139,14.6245698928833,9.346043586730957,12.867609024047852,56.52271270751953,-14.521706581115723, -28.155359268188477
557,995457887,0.33111852,0.29118398,-0.8940642,0.07888141,14.318525314331055,7.397559642791748,10.37663745880127,-11.955109596252441,44.57939910888672, -15.268510818481445
558,995474554,0.34805802,0.28784242,-0.88913846,0.07372667,13.104269981384277,5.840732574462891,4.697402477264404,-69.60810852050781,103.1143798828125, -9.549782752990723
559,995491221,0.37398288,0.28287014,-0.8805685,0.06871091,12.253040313720703,5.600647449493408,2.8621575832366943,-88.51123046875,167.62054443359375, -10.997519493103027
560,995507888,0.40760052,0.27780074,-0.8671599,0.06872194,12.79037094116211,7.005800724029541,-0.6592206358909607,-70.94210815429688,236.28482055664062, -10.486940383911133
561,995524555,0.4484835,0.2738181,-0.84755737,0.07438574,12.985025405883789,6.592291831970215,-1.8988120555877686,-45.077232360839844,307.16949462890625, -16.277076721191406
562,995541222,0.49465114,0.27289483,-0.82060736,0.086330816,14.049354553222656,6.713988304138184,-3.908076524734497,-5.195589065551758,370.8863525390625, -31.10024642944336
563,995557889,0.5460688,0.27286977,-0.7862993,0.09531525,14.0258207321167,8.04673957824707,-5.644650936126709,-24.33511734008789,419.53045654296875, -62.96849060058594
564,995574556,0.60150754,0.2682627,-0.7467615,0.092582494,14.510448455810547,5.669722080230713,-7.511428356170654,-109.04780578613281,442.0754089355469, -94.47242736816406
565,995591223,0.65772265,0.25648686,-0.7034521,0.08228616,19.499414443969727,2.7362773418426514,-9.369789123535156,-176.7316436767578,452.461669921875, -96.33879852294922
566,995607890,0.7130602,0.23332267,-0.6575489,0.06881696,29.266550064086914,-0.895275890827179,-14.339452743530273,-240.86520385742188,461.0165100097656, -59.77806854248047
567,995624557,0.7582435,0.22075602,-0.60906833,0.07328023,31.566165924072266,-4.71464729309082,-23.938241958618164,-90.41162872314453,451.77435302734375, -19.321876525878906
568,995641224,0.7893702,0.22036435,-0.56651783,0.085978806,21.440690994262695,6.245151996612549,-31.137121200561523,25.63887596130371,368.9673767089844, -11.602672576904297
569,995657891,0.8095426,0.21925327,-0.5376712,0.086482674,10.060563087463379,4.173737049102783,-35.00904846191406,-17.575267791748047,234.74008178710938, -47.733760833740234
570,995674558,0.81756973,0.22103669,-0.52510494,0.08359314,5.0403971672058105,-8.937216758728027,-37.26158905029297,-5.695098400115967,93.34732055664062, -45.556453704833984
571,995691225,0.8134147,0.22067185,-0.53225875,0.079760134,1.845963478088379,-5.017180442810059,-37.5306282043457,-14.233777046203613,-60.7024040222168, -6.4343581199646
572,995707892,0.79915774,0.21605894,-0.5566339,0.06945898,3.2548017501831055,-2.8267159461975098,-31.929521560668945,-56.02018356323242,-200.5559539794922, 4.472424507141113
573,995724559,0.77584386,0.21457945,-0.5903385,0.059354715,7.75343132019043,-4.709671497344971,-30.2226505279541,-29.245859146118164,-286.9389953613281, 11.706937789916992
574,995741226,0.74689376,0.2021843,-0.63273495,0.030305646,12.618444442749023,17.098773956298828,-9.72376537322998,-159.91830444335938,-379.0641784667969, -29.983049392700195
575,995757893,0.7226263,0.17751735,-0.66787356,-0.015623087,24.457040786743164,5.943358898162842,11.265918731689453,-301.5268859863281,-342.1897888183594, -73.71540069580078
576,995774560,0.6927562,0.18269461,-0.69700915,-0.029837906,26.67274284362793,-9.366891860961914,-4.5762858390808105,-1.152828574180603,-296.4477233886719, -60.93742370605469
577,995791227,0.6611631,0.2015417,-0.7221477,-0.027344603,8.905874252319336,-2.9356942176818848,-1.4062070846557617,145.51963806152344,-261.7943420410156, -52.698394775390625
578,995807894,0.637387,0.20006198,-0.7428035,-0.044232033,16.914947509765625,5.358309745788574,-2.610583782196045,-54.97737503051758,-233.3701629638672, -44.738460540771484
579,995824561,0.61933064,0.19989273,-0.75692,-0.05953943,8.804738998413086,2.6864547729492188,-5.0313720703125,-50.99648666381836,-173.02183532714844, -51.68952178955078
580,995841228,0.6032238,0.20831722,-0.7674581,-0.061102867,11.021439552307129,6.868455410003662,-4.746127605438232,52.98623275756836,-125.24028778076172, -41.99864196777344
581,995857895,0.59184146,0.21109575,-0.7754091,-0.062476855,13.958937644958496,10.069449424743652,-5.486152648925781,22.7484130859375,-91.72439575195312, -13.095553398132324
582,995874562,0.5848428,0.21015045,-0.7809113,-0.06303889,14.118371963500977,6.8760223388671875,-5.920304298400879,4.597453594207764,-58.863922119140625, 8.480758666992188
583,995891229,0.5801816,0.2088637,-0.78500986,-0.05937268,19.660825729370117,4.8772053718566895,-5.837952613830566,21.99679946899414,-34.76183319091797, 26.307722091674805
584,995907896,0.5762517,0.20759182,-0.78872484,-0.05247056,22.314712524414062,3.1559808254241943,-3.171160936355591,38.3541259765625,-24.736982345581055, 38.78446578979492
585,995924563,0.5725644,0.2089132,-0.79168177,-0.042020388,22.339736938476562,2.377352476119995,0.3830432891845703,67.28153228759766,-14.619125366210938, 37.62528610229492
586,995941230,0.568261,0.21110925,-0.79474944,-0.029763903,17.35808563232422,1.853257656097412,4.364278793334961,81.54176330566406,-15.842670440673828, 39.78232955932617
587,995957897,0.56206745,0.2148301,-0.79859436,-0.013246755,14.503279685974121,0.6638683080673218,7.1237993240356445,113.7816390991211,-23.03999900817871, 48.705299377441406
588,995974564,0.55578643,0.21473773,-0.803108,0.0027035382,11.282064437866211,3.16414213180542,13.648740768432617,96.2119140625,-27.654027938842773, 68.31658172607422
589,995991231,0.5432564,0.219117,-0.81024075,0.01924768,2.073425531387329,7.541772842407227,6.582319259643555,125.92593383789062,-71.8587646484375, 49.863643646240234
590,996007898,0.5167168,0.22490786,-0.8257982,0.021863231,3.8157730102539062,17.67864990234375,-6.233295440673828,73.76848602294922,-202.76132202148438, 4.658095359802246
591,996024565,0.48900214,0.2171643,-0.84480447,-0.0047629005,14.014608383178711,7.0775227546691895,4.633167743682861,-138.84140014648438,-264.8316955566406, -16.54072380065918
592,996041232,0.45490986,0.22208117,-0.8623367,-0.010619452,20.019075393676758,-6.538043022155762,6.403364181518555,34.06818389892578,-265.78570556640625, -22.63597297668457
593,996057899,0.4148806,0.24031079,-0.87742645,0.015755408,16.928762435913086,-3.2863144874572754,13.310954093933105,275.74658203125,-243.63954162597656, -5.174968242645264
594,996074566,0.37953806,0.25557724,-0.88825,0.040539104,13.266910552978516,1.370079517364502,16.73333740234375,250.36257934570312,-206.00469970703125, 0.520867109298706
595,996091233,0.35175,0.26752916,-0.89508986,0.059285384,12.42220687866211,4.470666885375977,18.323291778564453,192.73239135742188,-159.64053344726562, -4.067221641540527
596,996107900,0.33080804,0.27937344,-0.8981947,0.07591638,13.466451644897461,9.219568252563477,17.68805503845215,168.51327514648438,-112.81541442871094, -18.068340301513672
597,996124567,0.31932944,0.2876336,-0.899094,0.083224595,13.876690864562988,9.958592414855957,13.895814895629883,85.99710083007812,-65.87407684326172, -26.152647018432617
598,996141234,0.31835473,0.29247054,-0.8976966,0.085161164,13.214797973632812,7.757966995239258,12.499917984008789,26.060779571533203,-4.983065605163574, -27.19451332092285
599,996157901,0.32751864,0.2939879,-0.89390177,0.08510361,13.76676082611084,6.050893306732178,7.670244216918945,-12.324311256408691,60.39984893798828, -21.733739852905273
600,996174568,0.34811425,0.291209,-0.8875404,0.07928593,12.573075294494629,6.180807590484619,4.304660797119141,-78.90349578857422,127.0130386352539, -20.13410758972168
601,996191235,0.37815025,0.28596875,-0.8772783,0.07488466,11.80968952178955,4.490508556365967,1.4078278541564941,-92.85710144042969,197.93862915039062, -14.649820327758789
602,996207902,0.41520765,0.2814458,-0.861567,0.07806315,11.519978523254395,6.355449676513672,-1.4811588525772095,-56.25435256958008,268.8968200683594, -13.56163501739502
603,996224569,0.45858276,0.27871498,-0.8392803,0.08734352,12.08169937133789,6.111021995544434,-2.9170610904693604,-23.659515380859375,335.9585266113281, -22.74532699584961
604,996241236,0.5065321,0.2795965,-0.8093092,0.10134081,12.93258285522461,6.404181003570557,-4.764904022216797,10.808418273925781,393.55718994140625, -46.01791000366211
605,996257903,0.55922395,0.28042546,-0.7724922,0.10902529,12.99665641784668,6.473573207855225,-6.6857590675354,-28.902484893798828,431.86297607421875, -84.00096893310547
606,996274570,0.6154386,0.27438605,-0.7315751,0.103663735,14.293360710144043,5.559324264526367,-8.266491889953613,-128.4404296875,446.56207275390625, -108.1236572265625
607,996291237,0.6733614,0.25745738,-0.6874326,0.08796131,21.51626205444336,3.3413379192352295,-10.426867485046387,-227.6781768798828,457.3312683105469, -104.4124984741211
608,996307904,0.7268309,0.23685528,-0.64010483,0.076700225,30.805503845214844,-4.347951889038086,-19.102657318115234,-214.0000457763672,461.3642578125, -69.5278549194336
609,996324571,0.76503164,0.23360945,-0.5937798,0.08705894,27.160030364990234,-3.8221065998077393,-32.080989837646484,-8.213305473327637,415.52001953125, -28.52381706237793
610,996341238,0.79014045,0.23400342,-0.55826795,0.09621925,16.459671020507812,7.799764156341553,-33.93408966064453,20.496498107910156,301.9741516113281, -24.708215713500977
611,996357905,0.8046042,0.2322671,-0.53848696,0.09325519,5.626622200012207,1.4978469610214233,-35.51283645629883,-31.232389450073242,158.4536590576172, -50.00742721557617
612,996374572,0.8076073,0.2304197,-0.53580004,0.08715458,3.993105173110962,-8.297117233276367,-36.20979309082031,-36.388946533203125,17.404129028320312, -32.343994140625
613,996391239,0.7996123,0.22731444,-0.55022556,0.07874363,2.1847641468048096,-4.164155960083008,-33.31719207763672,-44.93338394165039,-120.1847915649414, -7.085512638092041
614,996407906,0.7834732,0.2184288,-0.578332,0.06317394,4.073209285736084,-3.5565237998962402,-28.051088333129883,-98.67969512939453,-233.56488037109375, 1.149329423904419
615,996424573,0.7564974,0.21200329,-0.6173424,0.040682893,8.019441604614258,10.212021827697754,-30.56546974182129,-101.57792663574219,-346.34796142578125, -24.83659553527832
616,996441240,0.7307296,0.19503435,-0.6542054,0.0034113997,27.76427459716797,2.221116304397583,10.947715759277344,-220.5746612548828,-348.0479431152344, -60.03307342529297
617,996457907,0.7034053,0.18943924,-0.6847574,-0.021010118,20.4446964263916,-3.8256213665008545,-0.3112587332725525,-103.17743682861328,-306.6434631347656, -54.98744583129883
618,996474574,0.67366755,0.20273948,-0.7102114,-0.025863532,18.915061950683594,-3.4956350326538086,1.1634478569030762,82.67325592041016,-265.2376403808594, -56.48712921142578
619,996491241,0.6484348,0.20925246,-0.7310735,-0.035745785,15.727633476257324,1.305715799331665,-1.6908009052276611,19.682636260986328,-230.28958129882812, -52.456180572509766
620,996507908,0.6284929,0.21046783,-0.7471172,-0.050162368,15.04371166229248,1.450958251953125,-4.031098365783691,-35.6270751953125,-190.17129516601562, -51.7107048034668
621,996524575,0.6109102,0.21439643,-0.759843,-0.058839887,9.86435604095459,6.196977138519287,-3.52900767326355,1.0012086629867554,-154.5414276123047, -44.87612533569336
622,996541242,0.59675205,0.21798523,-0.7696675,-0.06310212,11.741378784179688,9.317073822021484,-4.993910789489746,16.47589874267578,-118.14622497558594, -27.3774356842041
623,996557909,0.5863831,0.2171935,-0.7775869,-0.06588569,13.182658195495605,9.632638931274414,-5.185702323913574,-0.1103682667016983,-90.00367736816406, 0.7648106813430786
624,996574576,0.57888085,0.21671769,-0.7833858,-0.06509549,15.952794075012207,7.0190935134887695,-4.965869426727295,15.12254810333252,-60.69692611694336, 11.696825981140137
625,996591243,0.57224846,0.21663643,-0.7886806,-0.059864342,18.576019287109375,5.351120948791504,-4.546096324920654,39.145042419433594,-47.29721450805664, 26.872276306152344
626,996607910,0.56628686,0.21626955,-0.79355204,-0.053126965,19.26436996459961,4.542543888092041,-1.3793871402740479,45.06403732299805,-39.987403869628906, 33.91436004638672
627,996624577,0.5606285,0.21934053,-0.7974256,-0.041211538,18.81915855407715,2.6279282569885254,2.0952842235565186,85.96044921875,-25.69080352783203, 33.83811569213867
628,996641244,0.5533086,0.22381647,-0.80193996,-0.025465168,15.519460678100586,1.777465581893921,5.395773410797119,115.14613342285156,-31.370656967163086, 41.255428314208984
629,996657911,0.5437107,0.22834833,-0.80757016,-0.008175429,13.284327507019043,2.3095762729644775,9.45086669921875,127.67037200927734,-46.11030960083008, 48.014469146728516
630,996674578,0.532557,0.23188424,-0.8139752,0.007585454,9.204913139343262,-0.03974372148513794,10.456707000732422,118.07249450683594,-60.49053955078125, 48.88747024536133
631,996691245,0.5134494,0.24255528,-0.8226103,0.029141327,6.172975063323975,4.5965800285339355,-1.4849954843521118,189.28781127929688,-104.68727111816406, 34.081199645996094
632,996707912,0.48402405,0.2503388,-0.8379177,0.03074914,9.947196006774902,19.582273483276367,2.4382331371307373,82.1910629272461,-219.35992431640625, -6.768660068511963
633,996724579,0.45643505,0.23910752,-0.8570235,-0.0024140868,15.0895414352417,2.4582626819610596,6.988430976867676,-185.08436584472656,-277.5110778808594, -6.477303981781006
634,996741246,0.42302364,0.24433212,-0.87252146,-0.0077296803,18.252952575683594,-7.897536754608154,11.260916709899902,40.35635757446289,-254.76748657226562, -22.168228149414062
635,996757913,0.38901645,0.25814816,-0.8842809,0.00857869,15.47789192199707,-1.4449501037597656,17.456897735595703,195.8146209716797,-211.20431518554688, -17.3509464263916
636,996774580,0.36161277,0.26987693,-0.89213514,0.022315022,12.0878267288208,3.0720672607421875,18.724149703979492,163.1304473876953,-165.60354614257812, -18.897611618041992
637,996791247,0.34154427,0.2817167,-0.8958897,0.036948953,13.441637992858887,6.939172267913818,19.453954696655273,156.07997131347656,-109.2617416381836, -26.022937774658203
638,996807914,0.33045894,0.29110497,-0.89648634,0.04865584,15.884449005126953,8.575360298156738,15.226621627807617,115.91988372802734,-52.0675163269043, -26.0718936920166
639,996824581,0.32889768,0.29659495,-0.8946657,0.058580026,15.671942710876465,7.857453346252441,12.360759735107422,78.05047607421875,9.392687797546387, -13.978111267089844
640,996841248,0.33843184,0.2970767,-0.8905742,0.06393212,14.217385292053223,5.861513137817383,8.735602378845215,17.07030487060547,75.06236267089844, -2.493358612060547
641,996857915,0.35795608,0.29594055,-0.88297063,0.0681914,12.667137145996094,5.640048980712891,4.8089518547058105,-12.145037651062012,142.58058166503906, -6.615868091583252
642,996874582,0.38694265,0.29370883,-0.8711514,0.07145829,12.27072811126709,6.697513580322266,1.8723104000091553,-38.07526779174805,208.71592712402344, -15.34532642364502
643,996891249,0.42410514,0.29101822,-0.8541833,0.07625476,12.353053092956543,7.142073154449463,-0.8406456112861633,-44.04903030395508,274.6134948730469, -22.837570190429688
644,996907916,0.468135,0.28813785,-0.831262,0.082644254,12.95691204071045,6.939420223236084,-2.2702012062072754,-45.819435119628906,335.599365234375, -32.45943069458008
645,996924583,0.5167853,0.28709304,-0.80128825,0.09191428,14.023110389709473,5.938222885131836,-4.193790912628174,-28.573049545288086,389.44439697265625, -50.12098693847656
646,996941250,0.5696703,0.28617054,-0.76423436,0.09761336,14.693562507629395,5.365401268005371,-6.10658073425293,-51.73262023925781,430.9592590332031, -80.00660705566406
647,996957917,0.6244854,0.28160304,-0.7219111,0.09778898,15.622430801391602,2.3456530570983887,-8.229524612426758,-95.4116439819336,453.5218811035156, -94.05511474609375
648,996974584,0.679606,0.26869187,-0.6761961,0.09327192,22.280378341674805,2.041456699371338,-11.467079162597656,-153.04586791992188,466.3888854980469, -79.58440399169922
649,996991251,0.7307891,0.25076145,-0.6283351,0.09089211,29.517669677734375,-2.782979965209961,-19.985313415527344,-158.0191192626953,465.60394287109375, -47.79035186767578
650,997007918,0.7695179,0.2429904,-0.5818287,0.10135921,27.823808670043945,0.030359409749507904,-29.594114303588867,-31.235944747924805,421.2095947265625, -17.291934967041016
651,997024585,0.79613906,0.23938726,-0.5450595,0.10847457,17.379940032958984,5.955225944519043,-33.31050109863281,-9.343179702758789,313.5563659667969, -27.166601181030273
652,997041252,0.81124294,0.23719037,-0.5236742,0.10673022,7.084287643432617,0.6593999266624451,-38.24712371826172,-27.711288452148438,171.43772888183594, -47.042232513427734
653,997057919,0.81531465,0.23353808,-0.5202361,0.100384645,4.234612941741943,-6.704031944274902,-35.25151062011719,-47.81053161621094,26.16428565979004, -30.14754295349121
654,997074586,0.80846155,0.23003231,-0.5337946,0.09240774,2.3949222564697266,-5.499131202697754,-33.83226013183594,-47.24401092529297,-110.06993865966797, -5.196863651275635
655,997091253,0.79234755,0.22635323,-0.5606806,0.08116174,4.914731502532959,-4.86976957321167,-28.753446578979492,-54.21721649169922,-222.45362854003906, 4.119623184204102
656,997107920,0.7647283,0.23242332,-0.5969466,0.06946487,5.194497108459473,10.43655014038086,-30.941709518432617,9.637993812561035,-323.4745788574219, -15.011611938476562
657,997124587,0.74089426,0.20749389,-0.6381642,0.027733115,25.318235397338867,1.79468834400177,4.623655319213867,-285.4174499511719,-366.62518310546875, -39.16062927246094
658,997141254,0.7161583,0.19641411,-0.6697186,-0.004042087,23.43240737915039,2.5054643154144287,9.84793758392334,-167.8388671875,-309.83837890625, -62.666481018066406
659,997157921,0.68539727,0.20956731,-0.69729286,-0.009764072,26.379444122314453,-9.95987319946289,-2.6491076946258545,79.64311218261719,-282.426025390625, -51.51898193359375
660,997174588,0.6554911,0.22669879,-0.72029847,-0.010462717,7.550060272216797,0.6006899476051331,-1.3011503219604492,120.84413146972656,-249.334716796875, -53.92282485961914
661,997191255,0.6355275,0.22234876,-0.7387096,-0.031214602,13.015652656555176,6.9249348640441895,-3.0663974285125732,-91.23591613769531,-212.27511596679688, -44.347469329833984
662,997207922,0.618297,0.22596203,-0.75160736,-0.041675128,7.728423118591309,4.4197678565979,-4.979348182678223,-9.470414161682129,-156.91043090820312, -47.52421951293945
663,997224589,0.6032916,0.23139907,-0.7619482,-0.043922927,9.626517295837402,10.369787216186523,-4.556640625,36.571163177490234,-121.25140380859375, -25.321779251098633
664,997241256,0.5937755,0.23047602,-0.76945573,-0.047431782,13.124547958374023,8.555428504943848,-6.489326000213623,-5.928760051727295,-84.6962890625, 0.07174938917160034
665,997257923,0.5870032,0.22778152,-0.7753592,-0.0485926,15.581751823425293,5.5120038986206055,-5.854931354522705,-5.549427032470703,-60.50295639038086, 17.463422775268555
666,997274590,0.5820927,0.22397448,-0.7802671,-0.046767745,20.025897979736328,5.260613441467285,-4.901288032531738,2.6746277809143066,-42.30989456176758, 34.485782623291016
667,997291257,0.57753414,0.22232279,-0.7843978,-0.041802425,22.21468162536621,3.515653371810913,-3.183044672012329,27.400344848632812,-31.901304244995117, 34.33296585083008
668,997307924,0.5719969,0.22407398,-0.7883703,-0.0329111,21.016498565673828,2.9312500953674316,0.9881343245506287,63.56559371948242,-29.756654739379883, 30.905811309814453
669,997324591,0.5655175,0.22880168,-0.7921078,-0.020134827,17.494571685791016,1.9696438312530518,4.735964775085449,97.79373931884766,-27.557662963867188, 29.32244300842285
670,997341258,0.55578685,0.23404846,-0.79768443,-0.0047168955,13.29156494140625,2.9258296489715576,9.08635139465332,119.67736053466797,-48.51820373535156, 39.064327239990234
671,997357925,0.5428356,0.23848489,-0.8052102,0.009574753,10.118897438049316,4.251275062561035,13.293156623840332,115.78585815429688,-75.87013244628906, 42.17206954956055
672,997374592,0.52730656,0.24101315,-0.81451494,0.020641088,6.535187721252441,1.321858286857605,9.477673530578613,95.10281372070312,-102.41338348388672, 43.79427719116211
673,997391259,0.5023547,0.24935071,-0.8272566,0.03333058,7.2645392417907715,9.060773849487305,-0.5483682155609131,140.4774627685547,-166.1286163330078, 24.16581153869629
674,997407926,0.47227943,0.25189582,-0.84438074,0.02285776,13.929738998413086,13.328476905822754,7.557082653045654,-3.3391802310943604,-248.8966064453125, -14.070358276367188
675,997424593,0.44198844,0.24683794,-0.86238664,-0.0026436902,16.46756362915039,-0.21404467523097992,7.422678470611572,-114.76664733886719,-278.2729797363281, -17.001970291137695
676,997441260,0.41063824,0.2547285,-0.8754836,-0.004337283,17.551156997680664,-7.647404193878174,14.81802749633789,67.5698471069336,-229.38465881347656, -29.92999839782715
677,997457927,0.38126406,0.2686099,-0.88451105,0.011268183,13.574997901916504,-1.4584959745407104,16.490964889526367,184.9811553955078,-176.14500427246094, -24.430810928344727
678,997474594,0.35865325,0.28074974,-0.8899065,0.024787253,13.720340728759766,6.314818382263184,17.058557510375977,155.56166076660156,-129.7649383544922, -26.561473846435547
679,997491261,0.3446572,0.28935018,-0.89242184,0.032733656,15.765334129333496,6.593717575073242,15.17288875579834,96.83076477050781,-80.6601333618164, -25.570556640625
680,997507928,0.33792153,0.29655087,-0.89219284,0.043116376,14.237156867980957,6.309615135192871,11.428481101989746,94.87423706054688,-25.00513458251953, -18.201213836669922
681,997524595,0.3406295,0.3002135,-0.8894101,0.052856162,13.651833534240723,6.53376579284668,9.137365341186523,64.40477752685547,38.14763641357422, -5.878859043121338
682,997541262,0.35388744,0.29945016,-0.88409173,0.058953788,12.373502731323242,5.379366397857666,5.434723854064941,11.071203231811523,102.29906463623047, 3.7135257720947266
683,997557929,0.37709337,0.2965386,-0.875134,0.06329518,10.815348625183105,5.670494079589844,3.1631383895874023,-23.734539031982422,168.5987091064453, 1.0583544969558716
684,997574596,0.40891016,0.29241154,-0.86174905,0.06839068,11.064407348632812,6.123764514923096,0.7384178638458252,-37.90149688720703,233.775634765625, -2.3429110050201416
685,997591263,0.44812092,0.2876048,-0.8431089,0.07509205,11.477825164794922,6.8143310546875,-1.0633352994918823,-42.629764556884766,295.8058776855469, -7.716785430908203
686,997607930,0.49397177,0.28228012,-0.81821954,0.082627885,12.577962875366211,6.041983127593994,-2.0513949394226074,-49.25297164916992,355.442138671875, -17.7618350982666
687,997624597,0.5440929,0.279293,-0.78560674,0.09370562,14.196385383605957,5.6636061668396,-3.8858182430267334,-25.277175903320312,411.2783203125, -36.1209602355957
688,997641264,0.59805524,0.27514002,-0.7460355,0.10029531,14.324499130249023,5.9313507080078125,-5.738592147827148,-56.845703125,450.2975769042969, -62.27936553955078
689,997657931,0.65350986,0.2662674,-0.7015566,0.09922348,16.369346618652344,3.734583854675293,-7.611505031585693,-115.05558776855469,467.0810852050781, -79.771484375
690,997674598,0.70883787,0.24736838,-0.6541971,0.09156616,25.261028289794922,2.792877435684204,-11.905112266540527,-189.90737915039062,474.440185546875, -66.19277954101562
691,997691265,0.7563673,0.23111032,-0.60503775,0.09179571,33.56282043457031,-2.3144469261169434,-23.366168975830078,-127.53011322021484,460.13311767578125, -37.920494079589844
692,997707932,0.7894077,0.22835669,-0.56046873,0.10278051,22.61290740966797,3.099813938140869,-33.012481689453125,7.381800651550293,385.2691955566406, -22.028409957885742
693,997724599,0.8101888,0.22649993,-0.5299907,0.10678082,9.988570213317871,5.257269859313965,-36.90456008911133,-5.683475017547607,251.02215576171875, -32.67483139038086
694,997741266,0.81924266,0.2234289,-0.51819277,0.10196926,3.8955581188201904,-1.5183746814727783,-38.1711311340332,-40.3690299987793,92.55086517333984, -39.597660064697266
695,997757933,0.81620145,0.22239532,-0.5243728,0.09689864,3.356954336166382,-7.688958168029785,-37.57926940917969,-24.134424209594727,-52.509029388427734, -12.328349113464355
