Acc_X,Acc_Y,Acc_Z
5.867562294006348,6.281165599822998,-1.049616456031799
0.6645936965942383,0.8167555928230286,-3.199158191680908
1.6281667947769165,-3.215564012527466,-4.322510719299316
2.408479928970337,-0.2772387862205505,-0.4153223633766174
2.8739166259765625,-1.5598721504211426,-1.2361100912094116
2.5424816608428955,0.3818954527378082,-0.0135674830526113
1.3652949333190918,1.9786092042922971,0.4020000696182251
0.7489446401596069,0.1407179236412048,0.2607035040855407
-0.0030185200739651,-2.0908362865448,-0.5114117860794067
-0.3161852359771728,-1.9040273427963257,0.0639819651842117
-0.2329534441232681,-1.6314069032669067,-0.0631407052278518
0.0720205679535865,-1.6809399127960205,0.0968086421489715
1.1463632583618164,-1.2437448501586914,1.2137854099273682
1.544180393218994,-0.2245853394269943,1.489241361618042
2.0424396991729736,-0.694438636302948,2.620811939239502
4.243566513061523,-1.368432641029358,3.6148970127105713
4.686701774597168,-0.1847266852855682,4.698507308959961
5.264168739318848,0.487450361251831,6.581756114959717
6.942487716674805,2.35387659072876,7.064342498779297
8.441617012023926,3.093885898590088,8.307496070861816
7.710694313049316,3.214730262756348,5.023469924926758
8.087897300720215,2.5972917079925537,8.77729606628418
10.212078094482422,-1.2508615255355835,14.129046440124512
14.139917373657228,-3.865731239318848,14.239143371582031
13.873510360717772,-4.333094596862793,14.080931663513184
12.809679985046388,-6.157532691955566,3.964653730392456
14.68234157562256,-14.081722259521484,4.307767391204834
2.824317693710327,-5.536514759063721,23.056819915771484
-3.226015090942383,-3.289670467376709,21.75187492370605
-2.415707588195801,-3.7765469551086426,18.83520126342773
1.9476439952850344,-4.474023342132568,13.346818923950195
5.618729591369629,-3.78825569152832,8.222346305847168
6.99772310256958,-1.067403793334961,4.342320442199707
5.81963586807251,-1.0458494424819946,0.6697417497634888
3.152100086212158,-3.8296966552734375,-3.342893600463867
0.903827428817749,-0.8994913697242737,-5.407788276672363
-0.2062942683696746,3.701632022857666,-6.858236312866211
1.1573084592819214,8.014230728149414,-8.845993041992188
0.1936721801757812,5.155113220214844,-15.499357223510742
2.173429489135742,0.3643611669540405,-15.662607192993164
3.007291316986084,-1.0209888219833374,-16.07514762878418
3.503756046295166,0.0531180091202259,-18.58259391784668
2.923710346221924,4.227296352386475,-16.118244171142578
2.837465524673462,1.4923096895217896,-17.02862548828125
1.107596516609192,0.6413248181343079,-21.275409698486328
2.4785308837890625,3.891468048095703,-22.75448608398437
7.872308731079102,4.879303932189941,-17.868854522705078
7.444248676300049,4.608932495117188,12.237180709838867
5.517005920410156,11.843491554260254,-4.1724348068237305
6.350569248199463,0.9401835203170776,-8.916849136352539
2.812873363494873,-1.7789746522903442,-4.637205123901367
1.1156789064407349,-1.6486945152282717,-2.147552490234375
0.3908853232860565,-1.1436562538146973,-2.2243893146514893
0.2555286288261413,-2.0435261726379395,-3.451836109161377
0.5963082313537598,-0.2108444571495056,-0.9457007646560668
1.4886670112609863,0.4716325402259826,-0.4467670321464538
1.0253078937530518,-0.1196621805429458,-0.3811682462692261
0.1079907119274139,-0.2908630073070526,-0.7458004951477051
-0.1342722028493881,-0.5810413360595703,0.5938088297843933
-0.0092521598562598,0.2552652359008789,0.4857141077518463
0.1164293587207794,2.559165000915528,0.6339322328567505
0.3686566650867462,1.852733850479126,0.2316002547740936
0.3065789937973022,-0.1562042981386184,1.659049391746521
0.0770176947116851,-0.9101163744926452,1.1910442113876345
0.0859602093696594,-1.3578717708587646,1.5894999504089355
0.4886106252670288,-1.0835120677947998,0.5444956421852112
0.9249320030212402,-1.010520339012146,0.9503164887428284
1.8396414518356323,-0.943308174610138,1.0945347547531128
2.2994191646575928,-0.3036765456199646,2.3312222957611084
2.136420726776123,-0.621189534664154,3.498204231262207
2.7868587970733643,-1.617453932762146,4.540727138519287
5.208434104919434,-0.8022608160972595,6.482644557952881
9.863862991333008,2.17571759223938,7.829371452331543
15.876994132995604,2.48303771018982,10.867111206054688
21.18125534057617,3.0759482383728027,14.998254776000977
19.82085227966309,1.2665319442749023,18.56814193725586
10.843377113342283,0.0694616436958313,10.93746852874756
3.1332836151123047,-2.0444507598876958,2.9614171981811523
-0.0056882202625274,-5.566091537475586,9.585248947143556
0.0572471991181373,-12.768702507019045,12.207908630371094
0.6393720507621765,-4.460025310516357,18.294219970703125
-0.9635273218154908,-0.8641744256019592,14.70753288269043
-0.7058894634246826,0.943259596824646,11.144842147827148
-0.0693169832229614,1.3283889293670654,8.797195434570312
0.0608401149511337,-0.1148686856031417,6.673343658447266
-0.1244952902197837,1.0284053087234497,4.868141174316406
0.0516169965267181,1.44624125957489,3.343592405319214
0.2455463260412216,2.3465733528137207,2.2589237689971924
0.5151739716529846,2.3479721546173096,0.1638011038303375
1.3059873580932615,3.9982964992523193,-2.0759780406951904
1.9304876327514648,5.222650051116943,-4.780772686004639
3.159653186798096,4.902163028717041,-7.577785491943359
5.0125837326049805,3.423387289047241,-11.31382942199707
5.533353328704834,1.0744327306747437,-15.124319076538086
5.096975326538086,2.206399440765381,-17.675676345825195
2.423068046569824,1.7123425006866455,-21.809499740600582
-0.6622135639190674,-0.785102903842926,-25.164655685424805
0.2325411140918731,-2.3746166229248047,-23.87662124633789
4.452359676361084,-7.379444122314453,-17.502954483032227
5.166322231292725,0.5946905612945557,9.786280632019045
5.823951721191406,14.281708717346191,3.754633665084839
7.250939846038818,-6.480213165283203,-24.68167304992676
9.954110145568848,6.291280746459961,2.2619924545288086
0.3984418511390686,-0.0018658898770809,-1.5745903253555298
1.066550850868225,-0.3786292672157287,-2.2252864837646484
-0.4018711149692535,-2.98612904548645,-2.7184436321258545
2.612020254135132,-1.9823973178863523,-0.1418861746788025
2.3155760765075684,0.9054720401763916,-0.2915935814380646
0.7960305213928223,1.1020740270614624,-0.7306437492370605
0.0412880145013332,-0.1098182126879692,-0.0955764055252075
-0.1850453019142151,-1.1733263731002808,-0.5967562794685364
-0.6745464205741882,-1.2143181562423706,-0.4161835014820099
-1.0646631717681885,-0.8806815147399902,-0.8506953120231628
-0.3549913167953491,-0.1929969042539596,-0.1709783971309662
0.6199425458908081,0.5499599575996399,0.9577375054359436
0.8079175353050232,0.1827512383460998,1.85300874710083
0.9111391305923462,1.8523486852645876,1.89828622341156
1.306023120880127,2.774209499359131,2.75382924079895
2.152498245239258,1.4393689632415771,1.7150280475616455
2.6807847023010254,0.8991714119911194,3.5652034282684326
2.9575064182281494,-0.4604566395282745,4.6102681159973145
4.397017002105713,-0.803917407989502,6.111809730529785
5.991518497467041,-0.4129163920879364,8.336508750915527
8.730755805969238,0.2896691560745239,10.455567359924316
12.642769813537598,0.4518532752990722,10.801403999328612
17.500917434692383,-2.35200309753418,13.677990913391112
17.048978805541992,-0.7230793833732605,11.920697212219238
12.531041145324709,-3.1383774280548096,7.566498279571533
5.268276214599609,-9.437360763549805,0.6661384701728821
3.051469564437866,-10.806777954101562,18.61074447631836
-2.455495595932007,-2.8902571201324463,17.04338836669922
0.2339849174022674,-5.21406888961792,15.358891487121582
0.095757246017456,-0.4198451936244964,13.33990478515625
1.860055923461914,-0.398123562335968,9.560038566589355
2.569019079208374,-0.0750599727034568,7.485123634338379
3.060708999633789,2.0207085609436035,6.089819431304932
3.404269933700561,1.1895873546600342,4.151414394378662
2.227013349533081,1.3519327640533447,2.531614065170288
0.6644895672798157,1.6069761514663696,0.8328592777252197
0.96240895986557,1.6308481693267822,-1.640607833862305
1.643554449081421,2.137009859085083,-3.452757835388184
1.5560022592544556,3.585618734359741,-5.394602298736572
2.172727108001709,3.7752413749694815,-7.476741313934326
5.690188407897949,1.732433199882507,-10.755940437316896
9.51298713684082,0.2356058210134506,-12.501748085021973
9.167844772338867,-0.2616704404354095,-14.350707054138184
5.296036243438721,3.423503398895264,-18.038694381713867
1.7895087003707886,3.3864846229553223,-20.452186584472656
-0.3630733788013458,1.016071319580078,-22.55565452575684
-1.372206687927246,2.959879159927368,-20.584815979003903
1.564891338348389,3.112867593765259,-17.916698455810547
3.1088404655456543,4.141595840454102,-7.019441604614258
4.667141914367676,2.5660030841827397,12.606775283813477
5.73679780960083,10.368776321411133,-3.4445784091949463
9.724543571472168,4.257512092590332,-4.881634712219238
6.560019493103027,3.2035388946533203,-1.8058212995529173
4.604677200317383,2.499441146850586,-0.6633086204528809
1.7789833545684814,-1.3393100500106812,-0.8474491238594055
-0.4098053276538849,-4.2946295738220215,-3.222209930419922
-0.0030003562569618,-4.338059902191162,-5.839887619018555
0.9785031080245972,-1.4577795267105105,-2.4793150424957275
0.8738507628440857,-0.0718505382537841,-2.455502510070801
1.283110737800598,1.642215609550476,-1.4906203746795654
0.4659833014011383,1.261255383491516,-0.4236766993999481
0.331184983253479,-0.7543638348579407,0.4792719483375549
0.1711962223052978,-0.716940701007843,0.2824854850769043
0.1031672060489654,0.2885692119598388,0.8026118278503418
0.6137533187866211,0.3847649991512298,0.3005601465702057
0.793893575668335,-0.1013449653983116,0.7684007883071899
0.5060297846794128,0.0381772331893444,0.4517428874969482
0.1702405363321304,0.1835833340883255,0.6772763133049011
0.5418606400489807,-0.1674800366163253,1.8225864171981807
0.5700830221176147,-1.1150970458984375,2.686612129211426
0.8257858753204346,-0.7983835935592651,1.999832272529602
1.490963578224182,-0.2977949380874634,2.03209924697876
2.452660083770752,-0.0298628453165292,1.2890831232070925
3.54736590385437,0.6279486417770386,2.188372611999512
3.450747013092041,0.8063800930976868,2.6499197483062744
4.288907527923584,0.767838716506958,5.164392471313477
5.6792521476745605,1.50366473197937,4.721949100494385
7.50712251663208,1.623777985572815,7.734649181365967
8.243066787719727,1.292069435119629,6.123220443725586
9.19345760345459,1.932780742645264,8.05716609954834
11.545415878295898,-1.2671968936920166,10.039111137390137
13.044495582580566,-2.90506649017334,13.088990211486816
8.52441120147705,-3.591470956802368,9.219433784484863
3.992996215820313,-3.712480306625366,-0.5854403376579285
3.838403224945069,-6.374287128448486,2.8248815536499023
1.0028798580169678,-5.162588596343994,15.819366455078123
-1.7591066360473633,-1.3109768629074097,16.40004539489746
-1.9644407033920288,-4.701622009277344,12.461804389953612
-0.9726155400276184,-4.538161277770996,10.619959831237791
-0.3990880250930786,-2.556504249572754,9.270075798034668
-0.0002585053443908,-1.5087250471115112,6.845734596252441
0.5285027027130127,-0.6501732468605042,4.937623023986816
1.207756280899048,-0.1414952129125595,3.787220239639282
2.0707547664642334,0.0170429795980453,2.29491662979126
3.07638955116272,0.0397676527500152,0.6215797662734985
3.607891082763672,-0.4378564953804016,-0.0289965271949768
4.004493713378906,-0.248413473367691,-0.6430448293685913
4.33523416519165,-0.3881151378154754,-1.5280117988586426
4.502758979797363,0.5976518988609314,-1.9151611328125
4.493383884429932,2.937903642654419,-2.4398679733276367
2.5431487560272217,6.118124961853027,-2.780489921569824
3.322894334793091,3.607370376586914,-9.493792533874512
4.647435188293457,4.428621768951416,-10.474401473999023
3.234740257263184,0.6040917634963989,-11.74063777923584
1.0168910026550293,2.428799629211426,-15.96861743927002
-1.7109131813049316,3.0431606769561768,-18.830686569213867
-2.622097969055176,1.1101672649383545,-19.83134651184082
-1.727448582649231,-0.527461588382721,-19.497594833374023
0.4022429883480072,0.3459945619106293,-16.526309967041016
6.42402982711792,-4.514163017272949,0.3505911231040954
7.241333484649658,6.026853084564209,6.681305885314941
10.462347984313965,7.870762348175049,-3.5140719413757324
7.280389308929443,-1.661770582199097,-7.268649578094482
5.887199878692627,3.9251086711883545,-4.579349994659424
1.710183024406433,0.9148707389831544,-0.9395530819892884
0.2859722971916199,-2.2680275440216064,-5.355713367462158
0.1738670617341995,-3.5517282485961914,-5.241160869598389
0.8223434090614319,-1.05184006690979,-3.650937080383301
1.423350214958191,0.6271048188209534,-1.4804408550262451
0.6988032460212708,1.2507661581039429,-1.0712040662765503
-0.222845122218132,-0.3629579544067383,-0.7408386468887329
-0.6605300307273865,-0.4514773488044739,-0.2716946899890899
-0.823116660118103,-0.7571689486503601,-1.0340334177017212
-0.4474732279777527,0.7412769794464111,-0.8273826837539673
0.8022948503494263,1.1686023473739624,-0.0850660055875778
1.2179062366485596,1.1349446773529053,0.5059352517127991
1.0687540769577026,0.4258292019367218,0.4871234893798828
0.7458146810531616,-0.3512635827064514,1.990225434303284
0.4179915189743042,-0.979944348335266,2.5278728008270264
0.5301216840744019,-0.8884514570236206,2.709282636642456
1.5698224306106567,-0.1388053297996521,2.978774309158325
1.943296313285828,0.3599869310855865,2.360084056854248
2.356206178665161,0.4831023514270782,2.0801000595092773
2.5815834999084477,-0.1423171311616897,3.9261281490325928
2.8648641109466557,-0.4822399318218231,4.147980213165283
3.7998244762420654,0.3306262493133545,4.258633613586426
4.398195743560791,1.1528398990631104,5.335975646972656
5.683469772338867,1.622575759887695,7.730466365814209
8.708327293395996,1.285281538963318,10.791020393371582
11.465764999389648,0.3963850140571594,12.27984619140625
12.23561668395996,-1.01249098777771,9.955076217651367
10.706531524658203,-0.5474969744682312,7.725030899047852
8.697283744812012,-4.453640460968018,0.212954968214035
7.7984795570373535,-7.521121978759766,2.997099637985229
2.832075357437134,-5.534017562866211,18.041872024536133
-1.216535568237305,-2.7253243923187256,15.80414867401123
-0.3673665821552276,-6.652276039123535,12.578900337219238
0.2514616847038269,-3.8956353664398193,11.30422306060791
0.8290910720825195,-3.6424949169158936,8.720008850097656
0.9002426862716675,-2.128709554672241,7.0656280517578125
1.4956824779510498,0.3091265857219696,6.148886680603027
2.0758306980133057,0.4863131046295166,3.8102874755859375
1.98530113697052,0.443108856678009,1.631015658378601
2.045410394668579,1.183240294456482,0.9891427755355836
2.089815616607666,1.3729110956192017,0.064223900437355
1.9139765501022337,1.1889570951461792,-0.6899732351303101
1.5917763710021973,1.0216578245162964,-1.598250389099121
1.3733795881271362,1.864004135131836,-1.9083420038223269
1.8222193717956543,1.4207708835601809,-3.7167892456054688
3.2544851303100586,2.925114154815674,-5.031907558441162
5.155848026275635,4.883477687835693,-6.469846248626709
6.176907539367676,3.465638399124145,-9.99621295928955
6.399542331695557,1.2856621742248535,-12.09609603881836
4.987039089202881,1.577027440071106,-13.775663375854492
2.378528594970703,5.735694408416748,-16.900474548339844
-1.9891340732574463,5.20578145980835,-20.360248565673828
-3.6613693237304688,2.652413845062256,-21.77611923217773
-2.2735795974731445,3.0106449127197266,-20.893903732299805
0.943429708480835,4.701163768768311,-15.76200008392334
5.070833206176758,5.065840721130371,5.862792491912842
4.007030963897705,2.4197168350219727,20.130126953125
7.245079517364502,1.9785624742507932,-9.810029983520508
9.239583969116213,-2.290465831756592,-2.537261247634888
6.019052505493164,2.5223255157470703,-1.7101359367370603
5.522702217102051,2.532264471054077,-3.0829105377197266
2.328756093978882,2.065391063690185,-2.414586067199707
-0.5765179991722107,-0.30424964427948,-6.100804805755615
-0.6839876174926758,-2.378304243087769,-6.4700026512146
-0.152080088853836,-1.362007975578308,-5.304886341094971
0.7298901081085205,-0.1726819723844528,-2.252136707305908
0.8088369965553284,0.2330184131860733,0.0631567239761352
-0.1856603622436523,-0.4081861674785614,-0.0796815976500511
-0.7175774574279785,-0.9738380908966064,-0.09261105209589
-0.6251146197319031,-0.5636417865753174,-0.2046139687299728
-0.0217366628348827,0.4307072162628174,0.1369877904653549
0.100222110748291,1.4256640672683716,-1.011815071105957
0.262203961610794,1.6098661422729492,0.098362922668457
-0.1316607743501663,0.9152895212173462,1.922342658042908
-0.1491797715425491,0.1014633849263191,2.697056531906128
0.2319386154413223,-0.6783110499382019,3.3494815826416016
0.5504112243652344,-0.9043356776237488,2.0389745235443115
0.2472391426563263,0.1241895332932472,0.9255669116973876
0.0902112051844596,0.3563990890979767,-0.1424725353717804
0.9886792302131652,-0.1330027878284454,0.7666289806365967
2.2216241359710693,-0.3223125040531158,1.570481300354004
2.5998423099517822,0.3269343376159668,1.4165459871292114
3.0921144485473637,0.6746475696563721,3.414133071899414
4.560693264007568,0.4438438415527344,5.318234443664551
6.311504364013672,1.50507652759552,6.697400569915772
8.864733695983887,3.5262885093688965,6.975778579711914
11.344273567199709,3.960785627365112,8.911881446838379
14.26993179321289,-0.1509757488965988,14.03355598449707
14.885947227478027,-2.45976996421814,12.268350601196287
12.402292251586914,-1.5466091632843018,15.901062965393066
6.33547830581665,-6.96190071105957,4.729668140411377
3.959690809249878,-8.151886940002441,-4.84562873840332
5.8354268074035645,-8.331122398376465,7.345166683197021
-1.225672721862793,-1.5501039028167725,19.690439224243164
-3.0037472248077397,0.1100129187107086,15.225600242614746
-2.9584946632385254,-3.167445182800293,10.948514938354492
-2.872307538986206,-1.7068039178848269,10.32516098022461
-2.2788631916046143,-2.914323091506958,8.173434257507324
-1.579902172088623,-2.0061473846435547,5.918922424316406
-0.9228827357292176,-0.8665697574615479,4.202676296234131
-0.1228754520416259,-0.9383772611618042,2.88834547996521
0.7008790373802185,-0.6197672486305237,1.1810455322265625
1.5245877504348757,-0.4520633816719055,0.0649618729948997
1.8305795192718504,-0.9702745079994202,-0.6921104192733765
1.590428113937378,-1.1523559093475342,-1.488666296005249
2.050847291946411,-0.6758037805557251,-1.8265570402145384
2.839456558227539,0.3570475578308105,-2.033279657363892
2.78895115852356,2.6358978748321533,-3.2939164638519287
2.444369316101074,4.091831207275391,-5.741934299468994
3.945132970809937,4.553127765655518,-10.067849159240724
6.576539516448975,4.265006065368652,-10.166714668273926
6.6452178955078125,-1.1437171697616575,-12.94929027557373
2.980531692504883,5.216372489929199,-18.28419685363769
-1.8519870042800903,9.83141803741455,-22.45556259155273
-1.4386568069458008,4.724993705749512,-24.13383674621582
1.641852855682373,-2.5468556880950928,-21.551326751708984
8.940430641174316,-0.4464565217494964,11.851222038269045
7.3735504150390625,12.079828262329102,-0.2857432961463928
6.100861072540283,2.6890761852264404,-6.935117244720459
4.965964794158936,-3.3575236797332764,-6.995621681213379
1.9485615491867063,2.5153684616088867,-1.8230435848236084
1.1282941102981567,-0.6811196208000183,-2.74390196800232
-0.5876808166503906,-2.2382075786590576,-4.336833953857422
0.1917459070682525,-1.1675291061401367,-3.407503843307495
1.4483773708343506,1.196627855300903,-2.06071400642395
1.149180293083191,2.840885877609253,-1.039368987083435
0.1093305349349975,0.94996839761734,-1.3174487352371216
-0.1171602234244346,0.1844581365585327,-1.0709997415542605
-0.6131099462509155,0.039745595306158,0.1774957329034805
-0.866849958896637,-0.337401807308197,-0.9595478177070618
-0.7528640031814575,-0.5914570689201355,-0.4348302781581878
-0.2130918055772781,-0.2568487823009491,0.4022115767002105
0.4746537506580353,0.2622780799865722,0.4575203359127044
0.4953315854072571,0.2755683362483978,0.8392139077186584
0.8837176561355591,0.2369729578495025,0.8954694867134094
1.412203311920166,0.3288977742195129,1.6237833499908447
1.7486371994018557,0.3878391981124878,2.393756628036499
1.663013935089111,0.5300988554954529,3.214284420013428
1.8028420209884644,0.2466755658388137,2.3383471965789795
2.038881063461304,0.8496503233909607,3.71903920173645
2.3325321674346924,0.1073854491114616,3.847089052200317
3.390021562576294,0.5273801684379578,4.816394805908203
4.178813934326172,0.3522082865238189,6.257420539855957
5.434985637664795,0.990225315093994,6.742090225219727
6.449946880340576,2.6792261600494385,7.085139751434326
8.031447410583496,2.6799333095550537,8.55518913269043
10.235370635986328,1.1070786714553833,11.187155723571776
11.082432746887209,-1.3406803607940674,11.150495529174805
9.348929405212402,-1.154374361038208,7.302252292633057
7.689580917358398,-5.42130708694458,2.357579469680786
5.703256607055664,-6.672805309295654,0.3002484738826751
6.289829254150391,-6.037439346313477,13.13642120361328
-0.4794698357582092,-0.9503774642944336,16.43091583251953
0.6862068772315979,-2.42205023765564,10.648587226867676
1.2856590747833252,-4.122087478637695,8.655527114868164
0.810195803642273,-2.9255788326263428,8.29107666015625
0.4858148396015167,-1.3209127187728882,7.308341979980469
0.5366694927215576,-0.7235805988311768,6.6532979011535645
0.5730154514312744,-0.555126428604126,5.457456111907959
0.732253909111023,-0.6557359099388123,3.1462552547454834
0.0869649350643158,-0.5606433749198914,1.8883527517318728
-0.2877035140991211,-0.4630911648273468,1.3677161931991575
-0.3375847339630127,-0.3694026172161102,0.6541470289230347
-0.2427389025688171,-0.5006797313690186,-0.2408612966537475
0.4781573414802551,0.1103224232792854,-0.8398135304450989
1.802316665649414,0.5883058309555054,-1.9534640312194824
2.15282678604126,3.206216335296631,-3.6224753856658936
3.0701072216033936,3.831696510314941,-6.500883102416992
5.1571245193481445,4.505142211914063,-9.697352409362791
7.983519554138184,3.30776309967041,-11.496445655822754
8.357203483581543,0.7504215240478516,-14.681466102600098
5.222665786743164,3.1401655673980717,-18.43851852416992
0.0013766586780548,4.783724784851074,-21.625534057617188
-1.8768503665924072,1.6214946508407593,-23.93655776977539
-1.0282617807388306,0.1405701786279678,-22.679468154907227
2.1070070266723637,1.7442461252212524,-15.538497924804688
6.060627460479736,-2.7743265628814697,19.904451370239254
3.3368256092071533,10.412006378173828,4.3648881912231445
7.511286735534668,4.882857799530029,-6.351564884185791
7.821539878845215,-2.282338380813598,-6.117918014526367
5.676000595092773,0.8086695671081543,-3.0145153999328613
1.787203669548035,2.9102909564971924,0.7740595936775208
-0.0903221294283866,-1.0691547393798828,-3.4843192100524902
-0.9578942656517028,-2.507009983062744,-3.4930315017700195
0.3015116155147552,-3.3612871170043945,-3.40449333190918
1.271807312965393,-0.4562079012393951,-3.662978172302246
1.3306819200515747,2.2071852684021,-2.0937952995300293
0.947388768196106,3.145853042602539,-0.3380955755710602
0.4233670830726623,1.1736308336257937,-0.015438855625689
-0.5732479095458984,-1.390524983406067,0.2690742909908294
-0.7574480772018433,-1.970103621482849,-1.181967854499817
-0.2021144479513168,-0.0482343845069408,-0.8042137026786804
0.5547667741775513,1.0343462228775024,0.1655646860599517
0.9770554900169371,1.1204273700714111,0.4330938756465912
0.9665258526802064,0.5991470217704773,0.6593968272209167
0.4373292028903961,0.0472479797899723,1.2989044189453125
-0.0062042195349931,-0.1587687134742736,1.8290274143218996
0.0913940072059631,-0.6927261352539062,2.061220169067383
0.5533359050750732,-0.4737831354141235,2.596474885940552
1.4128724336624146,0.1870103329420089,1.0653023719787598
2.1300816535949707,1.234508037567139,1.0164555311203003
2.453176021575928,0.1398874223232269,1.3866782188415527
3.1217041015625,0.01173622533679,3.1727309226989746
4.254592418670654,-0.3597049415111542,4.173515319824219
5.8806233406066895,0.4214034676551819,6.102924823760986
7.408796787261963,2.3415470123291016,6.34450626373291
9.406041145324709,3.396370410919189,7.311684608459473
11.390463829040527,1.0087591409683228,10.887948036193848
12.68584442138672,-1.1242640018463137,9.446001052856444
12.871415138244627,-1.8308113813400269,9.785357475280762
9.326752662658691,-2.4546358585357666,12.020851135253906
5.812699794769287,-6.591226100921631,1.0877740383148191
3.972775936126709,-7.289790630340576,-3.23715615272522
4.6515302658081055,-6.824609756469727,12.503500938415527
-1.000844955444336,0.1129642054438591,19.08784866333008
-0.7347548604011536,-2.8006129264831543,12.098820686340332
-0.7110409736633301,-3.865299224853516,9.511033058166504
-0.9289070963859558,-1.2121986150741575,10.638952255249023
-0.5965734720230103,-1.6275659799575806,8.479023933410645
-0.0641370266675949,-0.9112748503684998,6.26831579208374
0.549592137336731,0.7399562001228333,5.478002071380615
1.2405154705047607,0.9272510409355164,3.571904182434082
1.940469741821289,0.9467368721961976,1.5936609506607056
3.0322725772857666,1.570976972579956,0.8185113072395325
3.5762767791748047,1.6714297533035278,-0.0012631118297576
3.554043292999268,2.1207275390625,-0.6586331725120544
3.89383602142334,2.801734685897827,-0.8228330016136169
4.132514476776123,3.48852801322937,-1.69048810005188
4.356058597564697,5.004781723022461,-3.2308034896850586
4.502648830413818,4.182844638824463,-8.340873718261719
6.904544830322266,2.825005292892456,-11.699034690856934
6.79522705078125,0.657364010810852,-12.596524238586426
4.827259063720703,2.7232766151428223,-15.318681716918944
0.7817798852920532,5.0093512535095215,-19.772537231445312
-2.992966413497925,4.578136920928955,-23.745424270629883
-1.711919188499451,1.8963110446929927,-23.02857780456543
2.2715401649475098,1.6397998332977295,-18.517793655395508
7.274942874908447,-4.925827503204346,10.46560001373291
5.638131618499756,6.70463228225708,6.098225116729736
8.848329544067383,6.0657734870910645,-8.21428394317627
8.675070762634277,-1.4556655883789062,-6.953993797302246
5.670074462890625,1.3999677896499634,-3.6612277030944815
3.3094828128814697,4.093696117401123,-0.7595581412315369
1.0993932485580444,-1.1239174604415894,-3.75311017036438
0.197906881570816,-1.534406065940857,-4.081464767456055
1.060105800628662,-1.498706340789795,-3.701197862625122
1.9897449016571045,1.9039608240127563,-2.4399120807647705
1.345854878425598,1.8319610357284544,-1.0536181926727295
0.2373695373535156,0.15216164290905,-1.1810455322265625
0.1156467869877815,-0.6399599313735962,-0.4564013183116913
-0.4236598908901214,-1.311912178993225,-0.4232931137084961
-0.6660406589508057,-0.6851516962051392,-0.1810278594493866
-0.045444332063198,-0.0531488992273807,0.3918166756629944
0.7748486995697021,0.7203609943389893,0.5360333323478699
1.193824052810669,0.6188441514968872,0.8307397365570068
0.8634372353553772,0.322606474161148,1.3534053564071655
0.4366008341312408,0.0986407473683357,1.3115428686141968
0.9432708621025084,0.0607653521001338,2.042010307312012
0.7580690979957581,-0.4100368916988373,2.127830982208252
1.390897274017334,-0.1570686548948288,2.297389268875122
2.2310616970062256,1.0585341453552246,2.0897209644317627
2.626861810684204,1.1604222059249878,1.3044031858444214
2.9613869190216064,0.6434136629104614,2.250401020050049
3.493096113204956,0.6694482564926147,2.297539234161377
3.837690830230713,0.6487013101577759,3.865486860275269
5.21500825881958,0.388746827840805,4.861304759979248
7.416370391845703,0.4527329802513122,8.295068740844727
9.1676607131958,1.0253033638000488,7.715254306793213
10.22793197631836,2.0706145763397217,6.981559753417969
12.492363929748535,0.4992012977600097,9.5560941696167
11.405936241149902,-0.854418158531189,12.027054786682127
7.8871846199035645,0.1673228442668914,9.824854850769045
4.666354656219482,-5.619981288909912,3.441828727722168
2.542505979537964,-7.978085517883301,-3.758156299591065
6.961400508880615,-7.501032829284668,8.428403854370117
-0.667852520942688,-0.6214574575424194,19.347585678100582
-0.6058436036109924,0.3508675694465637,12.492828369140623
0.398148626089096,-2.269970655441284,9.01487922668457
-0.0766486749053001,-0.8630238175392151,9.400031089782717
-0.3397926688194275,-0.9477083683013916,7.496909141540527
0.2749587297439575,-1.8104288578033447,6.124924182891846
0.669136106967926,-1.937539339065552,5.280055522918701
1.090268850326538,-1.2479619979858398,3.556945323944092
0.986573338508606,-1.5711945295333862,2.278395891189575
0.8145444989204407,-0.7332669496536255,1.293612718582153
1.0614681243896484,-0.8856674432754517,0.103297010064125
1.2178690433502195,-0.1959392726421356,-0.4652696549892425
2.069922685623169,0.6493975520133972,-0.7027879953384399
3.008938789367676,0.8666496872901917,-2.591336965560913
3.07533860206604,1.9862769842147827,-4.023241996765137
4.262247562408447,3.5182924270629883,-5.142735958099365
6.079424858093262,2.793215274810791,-9.037075996398926
8.038912773132324,3.195124864578247,-12.213262557983398
6.519793510437012,1.2845048904418943,-14.337681770324709
3.327919244766236,4.28975248336792,-18.17510032653809
-1.732691764831543,5.512969970703125,-22.43099594116211
-0.9933463335037231,3.030525922775269,-23.36036872863769
0.861083447933197,-1.488927721977234,-23.45146942138672
9.501995086669922,2.60974645614624,6.128756999969482
7.8894734382629395,16.312557220458984,4.322685241699219
7.57491397857666,2.5643327236175537,-9.350841522216797
8.72795581817627,-3.2876217365264893,-9.009652137756348
2.4137392044067383,4.782918930053711,2.9050698280334477
0.6030510067939758,-1.4238580465316772,-1.9271565675735476
-0.6732754707336426,-4.261625289916992,-3.7961513996124263
-0.072536215186119,-2.9971067905426025,-5.051476955413818
1.797471523284912,0.3940297365188598,-3.3581748008728027
1.6817169189453125,3.784534215927124,-1.528889536857605
0.97195565700531,2.389928340911865,-0.8346388936042786
0.3377633094787597,0.4882080852985382,-0.9251469969749452
-0.3087395429611206,-0.5626971125602722,-0.3650874197483063
-1.3275468349456787,-0.6311602592468262,-0.6360964179039001
-0.7935251593589783,-1.0658034086227417,-0.5678727626800537
0.5123935341835022,-0.169014886021614,0.2900130152702331
1.3219743967056274,1.270139217376709,0.3463583588600158
1.4490662813186646,0.8512971997261047,0.5416302680969238
1.0782278776168823,0.2354329526424408,0.9173266887664796
1.0841442346572876,-0.4790079891681671,2.174997568130493
0.953542947769165,-0.4025615751743316,3.0551962852478027
1.0900394916534424,-0.1144250705838203,2.8913402557373047
2.009472131729126,0.6030794382095337,2.490630388259888
2.7761056423187256,0.6810975670814514,2.5896196365356445
3.456938505172729,0.5831621289253235,2.7597506046295166
2.9726953506469727,0.6496922969818115,2.390239953994751
3.8095779418945312,0.8966707587242126,3.4653141498565674
5.387280464172363,0.8583672642707825,5.345767021179199
7.085058212280273,1.1709216833114624,7.036139965057373
7.457284927368164,1.6727107763290403,8.251747131347656
7.240149021148682,2.0472211837768555,6.867191791534424
9.594770431518556,1.154902100563049,8.065240859985352
12.302722930908203,-1.7831032276153564,11.437806129455566
9.692947387695312,-2.072404623031616,11.24687671661377
6.855137348175049,-3.364649772644043,3.988382816314697
4.9548516273498535,-6.590887546539307,-4.918208122253418
7.500873565673828,-5.6005449295043945,6.18433952331543
-0.5107851624488831,-0.7836664915084839,18.77155303955078
-1.898397207260132,-0.1158911660313606,13.36933422088623
-0.9637531042099,-4.122984886169434,9.140997886657717
-0.8587957620620728,-1.583274006843567,9.587635040283203
-0.4953899979591369,-1.8540154695510864,8.25971508026123
0.2860956490039825,-1.069457769393921,6.172479629516602
0.9709903001785278,-0.3639732599258423,4.841847896575928
1.7880598306655884,0.4552993774414062,3.982394218444824
1.97154438495636,0.8399642109870911,2.6070361137390137
2.1412410736083984,0.5737302303314209,0.8387415409088135
2.240039110183716,0.6003154516220093,-0.6692332029342651
1.9876923561096191,0.2919200658798218,-1.0104546546936035
1.8695472478866575,1.0245286226272583,-1.3867032527923584
2.065192461013794,2.394981861114502,-2.2316551208496094
1.857864499092102,2.879162073135376,-4.063326835632324
2.185882329940796,4.088141918182373,-6.152309417724609
3.788351058959961,4.2442169189453125,-8.097307205200195
6.300202369689941,2.6151247024536133,-9.45559024810791
7.1589789390563965,-0.0655611082911491,-12.381186485290527
5.03176736831665,2.408300876617432,-14.937170028686523
1.03078293800354,5.177309036254883,-18.1208610534668
-1.8855215311050413,2.714871883392334,-21.46055221557617
-2.030313491821289,1.52194344997406,-21.1416130065918
1.0829311609268188,3.429572343826294,-18.39000701904297
7.722742080688477,-2.403907299041748,6.982697010040283
4.099931716918945,2.9967873096466064,11.37193202972412
5.161177158355713,7.360434055328369,-5.049279689788818
6.603421688079834,1.5936577320098877,-4.93708086013794
5.6644439697265625,-2.923647880554199,-6.495166778564453
3.373542070388794,0.8114805221557617,-1.5525717735290527
1.6573597192764282,2.1411285400390625,-1.3827030658721924
0.4179559051990509,-1.1351689100265503,-3.881684064865112
0.2806630134582519,-1.393403172492981,-2.785181999206543
1.684001922607422,-0.3469747006893158,-2.050373315811157
1.7558445930480957,1.6981937885284424,-2.0782032012939453
0.4442834854125976,1.9887630939483645,-1.648167848587036
-0.0309215579181909,0.3542658388614654,-1.1662135124206543
-0.2092264145612716,-1.0814213752746582,-0.3045292794704437
-0.1484242081642151,-0.5545052289962769,0.3267190456390381
-0.1145119220018386,0.4929706752300262,0.1566680520772934
-0.1629843264818191,0.2585621476173401,0.6424129605293274
0.3572331070899963,-0.1441539973020553,0.3616378605365753
0.3265232145786285,0.4684873223304748,1.4083406925201416
0.3958356976509094,0.5587396621704102,1.4426264762878418
0.5633901953697205,-0.1448195278644561,1.833700180053711
1.0201588869094849,-0.0857781842350959,1.745233178138733
1.6028387546539309,-0.0693599954247474,2.338723659515381
2.3212485313415527,0.7046651840209961,1.5415589809417725
2.653450965881348,1.2822593450546265,2.2904326915740967
3.0992331504821777,1.541762113571167,2.562441349029541
3.7605814933776855,1.0928715467453003,2.3036582469940186
4.146683692932129,0.5805748105049133,3.137312650680542
5.510008335113525,-0.2734368443489074,5.761017322540283
7.0274152755737305,-0.122320532798767,7.8438005447387695
8.082714080810547,0.0262234583497047,8.096319198608398
9.210232734680176,2.06329083442688,8.046031951904297
12.02744483947754,-0.204038605093956,13.025930404663086
11.234271049499512,-3.959402084350586,12.311542510986328
7.852447032928467,-3.763961315155029,5.4405694007873535
5.220929145812988,-3.051365375518799,0.6625939607620239
7.826277256011963,-5.576857566833496,2.679781913757324
2.6154797077178955,-4.468810558319092,16.22142219543457
-0.822327733039856,1.281694769859314,17.140485763549805
-2.029150009155273,-5.3855085372924805,11.58902072906494
-1.0218496322631836,-4.475345611572266,10.186450004577637
-0.2291789948940277,-3.490862369537353,8.957289695739746
0.7396634221076965,-2.8673036098480225,6.517140865325928
1.3718938827514648,-0.7624213099479675,5.89809513092041
1.8557709455490112,0.6632328629493713,4.418276309967041
2.0210421085357666,-0.1505112498998642,2.0472686290740967
1.9222559928894043,0.2169541269540786,0.4946155846118927
1.9943528175354004,-0.2142331600189209,-0.5601183176040649
1.744621992111206,-0.5623549222946167,-1.2858307361602783
1.3228622674942017,-0.8604655265808105,-2.5702292919158936
0.5443882346153259,-1.9501677751541135,-4.289872646331787
-0.4859439730644226,0.5468944907188416,-5.248863220214844
1.3373150825500488,0.9083429574966432,-6.588758945465088
3.749456644058228,2.7449371814727783,-7.703794956207275
5.938571929931641,3.24272894859314,-9.034510612487791
6.466259956359863,1.4752269983291626,-11.890769004821776
5.431487560272217,0.4044235646724701,-14.462997436523438
2.508150815963745,2.5985119342803955,-14.886775970458984
-0.0113029330968856,4.341733455657959,-16.146821975708008
-1.342759609222412,2.726311683654785,-18.095361709594727
-0.9688425660133362,1.466201901435852,-18.79449844360352
2.119710922241211,3.332519054412842,-10.484089851379396
6.991762161254883,4.839701652526856,8.810576438903809
6.985515117645264,14.570257186889648,1.59601092338562
8.042221069335938,-0.264956533908844,-7.5556321144104
7.457004547119141,-5.578772068023682,-7.453042030334473
1.7608704566955566,5.3154296875,1.4316006898880005
0.0973090156912803,-2.1195576190948486,-3.570584297180176
-0.6216533780097961,-2.3795416355133057,-3.8318533897399902
0.8096871972084045,-1.6460925340652466,-4.091278553009033
1.8715778589248655,1.552839994430542,-2.611201763153076
1.2191336154937744,3.3970181941986084,-0.9904095530509948
0.1739130914211273,0.2694222629070282,-1.1676286458969116
-0.3982047438621521,-0.7188835740089417,-0.7724379301071167
-0.6452881693840027,-0.5733939409255981,-1.29817795753479
-1.299939513206482,-0.3174591362476349,-1.6910216808319092
-0.2316499799489975,0.1869755238294601,-0.0410165227949619
1.0036879777908323,1.6641550064086914,0.8372740745544434
0.9462944269180298,1.5928562879562378,0.1725237816572189
0.5300939679145813,0.8008571267127991,0.9960212707519532
0.4368899464607239,-0.0334649011492729,1.9370040893554688
0.3635053336620331,-0.8497846722602844,2.6170661449432373
0.6410894393920898,-1.5691741704940796,2.7184414863586426
1.3956280946731567,-0.2894412279129028,2.1503801345825195
2.5592405796051025,1.6246931552886963,1.8222260475158687
2.733795166015625,1.8303297758102417,2.1526308059692383
2.615079164505005,1.4939165115356443,2.7167038917541504
2.8881876468658447,0.6355382204055786,2.202493190765381
3.947436571121216,0.1356578022241592,4.430299282073975
5.829658031463623,0.1912683844566345,5.865023136138916
7.483553886413574,1.2486279010772705,7.113739967346191
8.817218780517578,1.955667495727539,8.962472915649414
9.803558349609377,1.8050705194473269,8.661015510559082
11.35729694366455,1.296477437019348,8.77744197845459
11.37692165374756,-1.137315034866333,10.208887100219728
7.720047950744629,-2.203824996948242,10.391145706176758
4.22542142868042,-2.6588022708892822,3.266155481338501
3.17720365524292,-5.625128746032715,-5.540682792663574
6.549205780029297,-7.11423397064209,9.127306938171388
-2.0090787410736084,-0.1424170732498169,20.809839248657227
-1.5501861572265625,0.34080371260643,13.78946590423584
-0.2686811089515686,-4.309204578399658,8.566587448120117
-0.2414988130331039,0.1495488584041595,10.043282508850098
-0.6152515411376953,-1.4796438217163086,8.224210739135742
-0.172120988368988,-0.3800192475318908,6.3018646240234375
0.5478559136390686,-0.355083703994751,5.571798801422119
1.3447871208190918,1.0143076181411743,4.214931964874268
1.8152824640274048,0.9702659249305724,1.813475489616394
1.934925198554993,0.1456489562988281,-0.1350508779287338
2.247049570083618,1.0160224437713623,-0.9929043054580688
2.606416940689087,0.7838811874389648,-1.9657920598983765
3.135060310363769,1.5592843294143677,-2.8075709342956543
3.7658419609069824,2.812122344970703,-3.8343405723571777
4.559694290161133,3.714157104492188,-7.070013046264648
5.647976875305176,3.952982187271118,-10.676149368286133
6.583316326141357,4.206632137298584,-12.109238624572754
5.442354679107666,1.635955810546875,-15.53742790222168
1.3965238332748413,3.898443937301636,-19.971830368041992
-1.4520978927612305,3.3415677547454834,-24.36958885192871
-2.1616311073303223,4.458802223205566,-26.095312118530277
-0.2093660533428192,1.892013907432556,-22.977296829223636
8.222243309020996,-3.146022081375122,11.445070266723633
3.450771808624268,0.7535881400108337,12.71473789215088
5.987801551818848,0.0299437120556831,-9.990702629089355
7.878195762634277,1.3972195386886597,-3.52213454246521
5.787903785705566,0.5739256739616394,-6.899736404418945
5.123062133789063,4.24574089050293,1.1258059740066528
0.1875483989715576,0.0338338576257228,-1.9919010400772093
-1.416581153869629,-3.924863815307617,-3.907099485397339
-0.6845605969429016,-4.763490676879883,-5.636158466339111
1.0291756391525269,-0.0945625007152557,-3.1177749633789062
0.9888694882392884,2.544220447540283,-1.436205506324768
0.933590292930603,1.8317184448242188,-0.623022198677063
0.4219724833965301,0.0694032981991767,0.055448479950428
-0.1101932153105735,-0.4427129030227661,0.2422352880239486
-0.5701831579208374,-0.5278623104095459,-0.1011479347944259
-0.8135315179824829,-0.7362896203994751,0.0954092442989349
-0.4582265615463257,-0.5401353240013123,0.6317167282104492
0.0080640325322747,0.6759088039398193,1.31623637676239
0.5414787530899048,0.9989451169967652,2.0465621948242188
0.7056733965873718,0.5727791786193848,1.48208749294281
0.5967885255813599,-0.1032486036419868,0.7256004214286804
0.6451449990272522,-0.4342661798000335,1.554623007774353
1.138299584388733,-0.6028362512588501,0.8788604140281677
2.5851922035217285,-0.0088524967432022,0.4765244126319885
3.828763008117676,1.312412977218628,1.7384121417999268
4.434269905090332,1.1223797798156738,3.903873443603516
5.894367218017578,0.9188987016677856,4.6385698318481445
8.204325675964355,1.3417898416519165,6.847553730010986
11.73904037475586,1.573869228363037,9.388136863708496
15.92486572265625,0.6791683435440063,13.162084579467772
15.572349548339844,-2.8223981857299805,16.500577926635742
10.640352249145508,-3.0733211040496826,9.056424140930176
6.608958721160889,-0.626497209072113,2.9888124465942383
4.69298791885376,-4.432248592376709,2.0853278636932373
1.9964406490325928,-8.717103958129883,14.07293701171875
-0.0467771515250206,-1.3981142044067385,18.12311553955078
-1.4083294868469238,-4.402478694915772,14.127270698547363
-0.1020728349685669,-3.0618178844451904,11.757091522216797
0.3062466979026794,-3.774212598800659,9.563940048217772
0.5605319738388062,-1.601446509361267,7.074153900146484
1.1631362438201904,-0.0928031355142593,5.521105766296387
1.7577979564666748,0.618790864944458,3.953858137130737
1.92921781539917,1.4136263132095337,2.459306240081787
1.9751594066619875,0.6710359454154968,0.9913877248764038
2.313884258270264,0.1506772935390472,-0.5234363675117493
2.2550394535064697,-0.4205647110939026,-1.1266324520111084
2.0716705322265625,-0.049962144345045,-2.0248966217041016
1.039421558380127,2.30713415145874,-2.163157224655152
0.5165044665336609,3.642799615859986,-3.344922542572021
1.0740870237350464,4.681989192962647,-6.422824382781982
2.6054623126983643,3.510402202606201,-9.166836738586426
5.651965618133545,1.781234622001648,-10.67726707458496
6.174082279205322,0.5509381294250488,-12.78948211669922
4.6404876708984375,2.041009426116944,-15.78844928741455
1.820728063583374,3.748541593551636,-18.28129005432129
-2.018083333969116,3.025172233581543,-21.70235061645508
-1.7846542596817017,0.4835525155067444,-20.954496383666992
1.9189186096191408,1.650241136550903,-17.200746536254883
6.020245552062988,0.4814824163913727,6.68501091003418
5.251911640167236,13.585843086242676,5.249092102050781
7.54317569732666,9.47622776031494,0.5676559209823608
5.687322616577148,-5.325784206390381,-11.27774429321289
7.639058113098144,-1.2398618459701538,-7.510488510131836
1.3244736194610596,1.2573213577270508,2.194995164871216
-0.4274541139602661,-0.8094008564949036,-4.671813011169434
0.353845477104187,-2.0057742595672607,-3.7243945598602295
1.4718900918960571,1.2921600341796875,-2.891841173171997
1.9767403602600095,3.57955002784729,-1.4551457166671753
0.5554249882698059,1.1392053365707395,-1.4072190523147583
-0.0796089917421341,-0.344750165939331,-0.8637222647666931
-0.6868625283241272,-0.5926415920257568,-1.3372130393981934
-0.8294012546539307,-0.6231775283813477,-0.8254331946372986
-0.6388683915138245,-0.2538199424743652,-0.3833771646022796
0.120631642639637,0.4662650227546692,0.2919969856739044
0.5177799463272095,0.2558941841125488,0.5564857125282288
0.53104567527771,0.4283522069454193,0.9822458028793336
0.5755921006202698,0.0876170173287391,1.809553384780884
0.967497169971466,-0.0625151023268699,1.6127877235412598
1.305373191833496,-0.2639065682888031,2.5096914768218994
1.843350887298584,0.0549138262867927,2.4831435680389404
1.7055779695510864,0.8370766639709473,1.8507909774780276
2.0370264053344727,1.1784906387329102,2.515141725540161
2.530680656433105,1.3844364881515503,2.974484205245972
2.982672452926636,1.3303226232528689,2.413641452789306
3.336118459701538,1.2513532638549805,2.7595791816711426
4.301524639129639,0.7512551546096802,4.171125411987305
5.1735615730285645,0.8605805039405823,5.948054790496826
5.553656578063965,1.1442863941192627,6.673139572143555
6.673315525054932,2.567736387252808,6.17482852935791
9.983109474182127,2.0641558170318604,9.758818626403809
12.768671035766602,1.2078715562820437,11.02079963684082
13.370464324951172,0.1025032326579094,10.913872718811035
8.991506576538086,-1.6983813047409058,9.302061080932615
5.112016677856445,-5.8294878005981445,-1.0498720407485962
7.995839595794678,-5.803720474243164,-0.1460003107786178
1.7221177816390991,-5.962348461151123,17.639596939086914
-2.2266592979431152,3.450040817260742,17.281810760498047
0.2242784649133682,-3.950053215026856,10.275066375732422
0.5891106128692627,-1.972651720046997,9.71947193145752
0.3560873568058014,-0.3214467763900757,8.716634750366211
0.5958986282348633,-0.7319438457489014,7.173498153686523
0.5993198156356812,-0.6817027926445007,6.296980857849121
1.0747363567352295,0.0071976445615291,5.407821178436279
1.0666043758392334,-0.4090045392513275,3.0733559131622314
0.6159253120422363,-0.1482772827148437,1.3052611351013184
0.5989263653755188,0.4109192788600921,0.0913233831524849
1.226765275001526,0.4631118178367615,-0.9763408303260804
2.090562582015991,0.976661503314972,-2.188311815261841
3.3631763458251958,1.4635097980499268,-3.536635160446167
4.780177116394043,2.137126445770264,-5.243607521057129
5.761699676513672,1.922513961791992,-9.518723487854004
7.065976619720459,3.0376734733581543,-12.380959510803224
7.772716999053955,3.2675726413726807,-14.40848159790039
5.313414573669434,2.6543192863464355,-18.97023582458496
0.5057247281074524,4.383636951446533,-22.95820426940918
-2.192988157272339,2.83440375328064,-26.20106506347656
-2.012784719467163,2.0597405433654785,-25.309450149536133
1.1204447746276855,0.9416695833206176,-20.74551773071289
7.696344375610352,-6.237069606781006,19.1105899810791
2.9554388523101807,7.210345268249512,8.439667701721191
6.515866279602051,3.594266891479492,-6.283969879150391
7.616560459136963,0.7476744651794434,-3.472661018371582
5.647828102111816,-0.922418773174286,-4.468677997589111
3.612718343734741,1.7647602558135986,-1.1109650135040283
0.7860227227210999,1.52239191532135,-2.666452169418335
-1.0179675817489624,-3.733335733413696,-5.000508785247803
-0.4403032660484314,-3.0079808235168457,-3.834131002426148
0.8501660823822021,-0.8806847333908081,-3.4665606021881104
0.8039563298225403,2.035640954971313,-2.274780511856079
0.8921116590499878,2.6468281745910645,-1.0102310180664062
0.5533654689788818,0.8689453601837158,-0.3134492337703705
-0.4157553911209106,-0.3249571621417999,-0.1839445829391479
-0.4121670126914978,-0.1847974359989166,-0.1188745349645614
-0.0911410674452781,-0.4555416405200958,0.7254197001457214
0.0353993028402328,0.4064361453056335,0.5460321307182312
0.1222643330693245,0.9234265089035034,0.9827607870101928
0.3989989459514618,0.9444817304611206,1.3546056747436523
0.2829979956150055,0.029829679057002,1.9278770685195925
0.2300837337970733,0.0127070071175694,1.68183696269989
0.2873853147029876,-0.6329489946365356,1.4411041736602783
0.5812474489212036,-0.6956099271774292,1.4871991872787476
1.272833228111267,-0.3288299143314361,1.2908624410629272
2.318997859954834,0.6955661773681641,1.038030982017517
3.125250101089477,1.2799639701843262,1.5878304243087769
3.761641979217529,0.8850305676460266,3.1981277465820312
5.62224006652832,0.830362856388092,5.16904878616333
8.023109436035156,1.2745130062103271,6.0606608390808105
10.739825248718262,1.9284791946411133,9.792932510375977
12.135109901428224,0.9644218683242798,12.209795951843262
12.838641166687012,0.587756335735321,10.332170486450195
10.840453147888184,-0.9615159034729004,9.143477439880373
6.359091758728027,-3.492872953414917,4.027698040008545
4.3853254318237305,-3.171564102172852,1.797269582748413
4.1204705238342285,-6.484925746917725,11.546395301818848
1.042298436164856,-1.3890548944473269,18.10625267028809
-0.5182846188545227,-3.765111923217773,14.78765106201172
-0.1425078213214874,-5.571197509765625,11.676261901855469
0.5514557957649231,-4.419497013092041,10.235797882080078
1.0488219261169434,-3.864239931106568,7.516744136810303
1.452794909477234,-2.09466552734375,6.149423122406006
2.0171656608581543,-0.4462958574295044,5.302335739135742
2.107431411743164,-0.2579165995121002,3.25296688079834
1.937418818473816,-0.1969476342201233,1.5216615200042725
1.6727147102355957,0.5917184948921204,0.5892547369003296
1.3126983642578125,0.6475847363471985,-0.0341817773878574
1.0778110027313232,0.8650850057601929,-0.9897590279579164
0.5915160179138184,1.3535665273666382,-1.9694548845291135
-0.084863856434822,2.535012722015381,-2.4118173122406006
-0.155490443110466,2.7550299167633057,-3.8371622562408447
1.092434048652649,3.2586381435394287,-6.369975090026856
3.634756803512573,3.6096396446228023,-7.608376979827881
6.04209566116333,3.114331722259521,-8.740544319152832
6.725858688354492,1.4895424842834473,-12.105241775512695
5.104708671569824,1.5367958545684814,-15.533210754394531
1.1950342655181885,2.959716320037842,-17.79369354248047
-2.0121045112609863,2.336869239807129,-21.37412452697754
-2.131113290786743,1.4581685066223145,-22.24675941467285
0.8441357612609863,3.0081889629364014,-18.56182289123535
5.201991081237793,0.2264988720417022,-0.7710006237030029
4.248823642730713,7.164563179016113,13.806279182434082
6.709289073944092,9.965353965759276,-2.7024178504943848
9.281731605529783,-2.410334825515747,-9.45330047607422
7.395218849182129,-1.9302709102630613,-3.63088321685791
1.796755313873291,4.782112121582031,2.6799893379211426
1.4214705228805542,0.0240741595625877,-3.57291579246521
-0.1425604969263076,-0.8439028263092041,-4.052901744842529
0.4998766183853149,-0.9612789154052734,-4.899836540222168
1.0713881254196167,0.4151060879230499,-4.238608360290527
0.6948781609535217,2.0873665809631348,-2.312552690505981
0.3530816733837127,0.9078959822654724,-1.3677752017974854
0.2089174389839172,0.0086920205503702,-0.4830123484134674
-0.4116643369197845,-0.3775095343589782,-0.4934883117675781
-0.8370538949966431,0.1107053905725479,-0.1857273876667022
-0.656073808670044,-0.0651845335960388,-0.4663948714733124
-0.2411110997200012,0.6165708899497986,-0.140208750963211
0.3757112920284271,1.118094801902771,0.2763969004154205
0.826724112033844,1.035158395767212,1.3357402086257937
0.7701847553253174,0.131998062133789,1.345292091369629
1.0974847078323364,-0.3961317241191864,1.3576730489730835
1.2457598447799685,-0.1944011747837066,1.861104965209961
1.334273099899292,1.167996525764465,2.241093397140503
1.667060613632202,1.101853370666504,2.4142305850982666
2.237213134765625,0.6802675127983093,2.606626033782959
