PacketCounter,SampleTimeFine,Quat_W,Quat_X,Quat_Y,Quat_Z,Acc_X,Acc_Y,Acc_Z,Gyr_X,Gyr_Y,Gyr_Z 
1,268904013,0.6579906,-0.1180757,-0.720199,-0.18552612,0.442928671836853,-0.5591697096824646,-1.242705225944519,-0.9100324511528015,0.6954140663146973, -0.08324787765741348
2,268920680,0.6587416,-0.11672736,-0.71950394,-0.18640909,9.639006614685059,1.4149917364120483,-1.035213589668274,0.3034016489982605,0.009739229455590248, 2.658822536468506
3,268937347,0.65588045,-0.114669554,-0.72219795,-0.18735509,10.384357452392578,0.7277376055717468,-0.35552898049354553,-0.056924231350421906,1.9901899099349976, 2.6864583492279053
4,268954014,0.6580241,-0.11457882,-0.72104913,-0.18429387,9.898720741271973,0.9441549777984619,-0.4232526421546936,6.722290992736816,5.177576065063477, 1.4787815809249878
5,268970681,0.66076463,-0.114139825,-0.7191176,-0.18229741,9.27325439453125,1.3218880891799927,-0.9030081629753113,7.864978313446045,9.475890159606934, -1.8937143087387085
6,268987348,0.66224116,-0.11108854,-0.7185874,-0.18090907,8.664748191833496,0.8186410665512085,-1.424856424331665,13.280094146728516,13.74738597869873, -6.20681095123291
7,269004015,0.66202676,-0.10822521,-0.719572,-0.17951061,8.47254753112793,0.6224834322929382,-0.758925199508667,13.94975757598877,12.887276649475098, -11.389961242675781
8,269020682,0.6616744,-0.10544453,-0.72054,-0.1785793,9.5133695602417,-0.5689352750778198,0.7988772392272949,7.772869110107422,7.985172748565674, -16.26254653930664
9,269037349,0.6627784,-0.1033869,-0.7201595,-0.17721829,10.153627395629883,0.04659383371472359,2.123112916946411,7.7539448738098145,1.683314561843872, -21.905147552490234
10,269054016,0.66492283,-0.10162159,-0.71834207,-0.17758258,10.361090660095215,-0.14516177773475647,2.2236926555633545,0.821369469165802,-4.319029808044434, -27.587562561035156
11,269070683,0.66729134,-0.09967031,-0.7161546,-0.17863595,10.98447036743164,0.49233731627464294,0.6000074744224548,-0.3469126224517822,-9.667296409606934, -32.44572067260742
12,269087350,0.66868293,-0.09881559,-0.7141556,-0.18188088,9.91866397857666,2.156562328338623,0.6498972773551941,-9.812161445617676,-9.529176712036133, -36.0234375
13,269104017,0.66937286,-0.09812586,-0.7121472,-0.18750422,10.934951782226562,2.595970392227173,-0.389146089553833,-23.530885696411133,-7.750495910644531, -37.56412124633789
14,269120684,0.66929585,-0.0969531,-0.7109614,-0.19281398,10.581314086914062,1.969085454940796,-0.5881267189979553,-19.722734451293945,-8.18143367767334, -33.27780532836914
15,269137351,0.66903836,-0.09485114,-0.71052766,-0.19632052,9.651152610778809,2.8766236305236816,-0.32313236594200134,-6.318800449371338,-7.144018650054932, -27.94596290588379
16,269154018,0.6690684,-0.09129972,-0.7106145,-0.19758335,9.423477172851562,2.583730459213257,-1.5155631303787231,11.926776885986328,-4.488404273986816, -20.591140747070312
17,269170685,0.6690435,-0.08826887,-0.71088976,-0.1980548,8.636026382446289,2.969609498977661,-1.100878357887268,12.904057502746582,-1.8171716928482056, -12.6612548828125
18,269187352,0.66868854,-0.08628361,-0.71115196,-0.19918261,9.451061248779297,2.5003843307495117,-1.3555535078048706,4.285357475280762,-1.6644800901412964, -8.848549842834473
19,269204019,0.6679707,-0.08468884,-0.7116932,-0.20033887,10.10279655456543,2.342602491378784,-0.3308464586734772,2.1396665573120117,-2.8958239555358887, -7.439671993255615
20,269220686,0.6672136,-0.08349672,-0.7123754,-0.20093714,10.27021598815918,3.1649677753448486,-0.025502972304821014,3.187533140182495,-4.567500591278076, -3.397935152053833
21,269237353,0.66651744,-0.08299134,-0.7130148,-0.20118885,9.233725547790527,3.4321625232696533,-0.23551161587238312,1.8104530572891235,-5.639840126037598, 2.3895819187164307
22,269254020,0.6658869,-0.08253904,-0.7136499,-0.20121096,9.183755874633789,2.6040971279144287,-0.09597507864236832,2.7763595581054688,-5.531716346740723, 4.804911136627197
23,269270687,0.6652145,-0.08230314,-0.7142441,-0.20142274,9.690711975097656,2.1185739040374756,0.22684593498706818,0.8152715563774109,-5.935628890991211, 4.71822452545166
24,269287354,0.6645263,-0.08240903,-0.7146493,-0.2022126,10.023488998413086,1.4165908098220825,0.5686770677566528,-3.7815492153167725,-5.813366413116455, 2.9867677688598633
25,269304021,0.6640553,-0.08265296,-0.7145296,-0.20407526,10.462610244750977,1.0786710977554321,-0.6172857284545898,-10.198943138122559,-2.679358720779419, -2.071927547454834
26,269320688,0.66369927,-0.08207905,-0.71442366,-0.20582785,9.567639350891113,0.7043647766113281,-1.0452659130096436,-5.966928005218506,-0.6671084761619568, -6.9676289558410645
27,269337355,0.663301,-0.08094868,-0.7144595,-0.20742908,9.672870635986328,1.1250306367874146,-0.6501359343528748,-2.6831235885620117,-0.10420531034469604, -10.572464942932129
28,269354022,0.6628235,-0.07913011,-0.7147937,-0.208503,9.348808288574219,1.8094826936721802,-0.17283210158348083,3.3308374881744385,-0.8794764876365662, -12.712703704833984
29,269370689,0.6622825,-0.07735489,-0.7151724,-0.20958741,9.353681564331055,2.5110864639282227,0.39673519134521484,3.119417190551758,-1.5290660858154297, -12.911842346191406
30,269387356,0.6616252,-0.075744614,-0.7156094,-0.21075603,9.219776153564453,2.9298810958862305,0.7936637997627258,2.0725104808807373,-2.978912591934204, -12.482229232788086
31,269404023,0.6605757,-0.075657755,-0.71594673,-0.2129229,9.482392311096191,2.9830992221832275,0.3960339426994324,-9.976051330566406,-6.717665672302246, -9.655099868774414
32,269420690,0.65891135,-0.07740765,-0.71633565,-0.21611844,9.268621444702148,2.9157581329345703,0.4057949185371399,-23.548131942749023,-12.40814208984375, -5.92748498916626
33,269437357,0.65639055,-0.08046666,-0.71736926,-0.21922173,8.99963092803955,3.010503053665161,0.31362199783325195,-28.455772399902344,-21.783227920532227, -0.4831473231315613
34,269454024,0.65351725,-0.084390186,-0.7187246,-0.22187613,9.170295715332031,2.819474935531616,-1.3272260427474976,-29.79424476623535,-26.6931095123291, 5.308640956878662
35,269470691,0.65094686,-0.08740758,-0.7204964,-0.22251529,9.900161743164062,3.0414726734161377,-0.7498751878738403,-15.052521705627441,-26.280759811401367, 10.17947769165039
36,269487358,0.6486103,-0.09076955,-0.7221225,-0.22272128,10.195016860961914,2.424126148223877,-0.5729575157165527,-14.554778099060059,-25.041166305541992, 14.36020278930664
37,269504025,0.6482016,-0.09036637,-0.723416,-0.2198591,9.501826286315918,2.5567424297332764,-0.43566370010375977,18.131616592407227,-10.037942886352539, 12.32731819152832
38,269520692,0.64879954,-0.0890078,-0.7242168,-0.21597879,8.850112915039062,2.98909592628479,-2.289686441421509,27.338199615478516,-1.9690470695495605, 13.899540901184082
39,269537359,0.64934736,-0.08943412,-0.7245012,-0.21318494,9.847001075744629,2.2610433101654053,-1.7257530689239502,13.036445617675781,-1.1943223476409912, 18.348363876342773
40,269554026,0.64997435,-0.0905366,-0.7244888,-0.21083796,11.327685356140137,1.9663426876068115,-0.6596422791481018,7.318949222564697,0.1975574791431427, 19.859907150268555
41,269570693,0.6506233,-0.092301235,-0.7243864,-0.20840918,11.377654075622559,3.030838966369629,0.27054688334465027,4.632494926452637,-0.3408288061618805, 23.2988338470459
42,269587360,0.6505344,-0.09536005,-0.7247198,-0.20613754,11.351341247558594,3.249819278717041,1.5267373323440552,-1.7101396322250366,-8.038646697998047, 27.769777297973633
43,269604027,0.64962006,-0.098262526,-0.726311,-0.20201622,11.7711763381958,3.537198305130005,2.1174569129943848,9.570283889770508,-19.417375564575195, 33.408599853515625
44,269620694,0.64800656,-0.099114805,-0.72953343,-0.195051,10.758689880371094,4.532986640930176,3.654099464416504,34.873802185058594,-30.0069580078125, 34.011756896972656
45,269637361,0.64569896,-0.09876396,-0.7336619,-0.18724088,11.034415245056152,5.055732250213623,3.8662328720092773,45.44076919555664,-37.527748107910156, 30.732654571533203
46,269654028,0.6441703,-0.097238936,-0.7370228,-0.17996413,15.104365348815918,1.649256706237793,-0.9779275059700012,47.737125396728516,-29.31175422668457, 24.605684280395508
47,269670695,0.6438643,-0.09261639,-0.74037755,-0.16941766,17.606718063354492,1.6764568090438843,0.9129344820976257,78.76972198486328,-21.266767501831055, 24.546628952026367
48,269687362,0.64887434,-0.07931879,-0.7413688,-0.15179914,18.961528778076172,4.215058326721191,4.748736381530762,153.80862426757812,21.53700828552246, 19.093002319335938
49,269704029,0.6505799,-0.06255379,-0.7461226,-0.12701972,12.16426944732666,5.951852321624756,0.41565558314323425,208.07626342773438,-13.490084648132324, 28.29859161376953
50,269720696,0.64899623,-0.045474652,-0.7523963,-0.10313125,7.900452613830566,7.213337421417236,-1.7198898792266846,204.88458251953125,-36.32552719116211, 20.185091018676758
51,269737363,0.6461618,-0.023163479,-0.75841177,-0.08215908,4.5931243896484375,10.126468658447266,-3.541088581085205,212.75192260742188,-36.22880554199219, -19.455629348754883
52,269754030,0.64175636,-0.014358052,-0.76141506,-0.09049823,4.8883843421936035,14.993453979492188,5.553619861602783,-1.8234015703201294,-32.94468307495117, -78.01994323730469
53,269770697,0.6399996,-0.013479002,-0.75950605,-0.11562725,-0.15177522599697113,6.728911876678467,8.470751762390137,-126.87550354003906,-1.8767338991165161, -106.25159454345703
54,269787364,0.64262813,-0.02024158,-0.75012404,-0.15470466,1.251082181930542,1.0938407182693481,10.116244316101074,-238.4559783935547,47.329750061035156, -123.18184661865234
55,269804031,0.65169334,-0.026458457,-0.7332815,-0.19207877,2.4733009338378906,-4.6780219078063965,10.87278938293457,-234.14154052734375,111.74800872802734, -111.45274353027344
56,269820698,0.6677319,-0.026499059,-0.7107876,-0.21957512,6.082067489624023,-4.924073696136475,4.557471752166748,-162.59100341796875,176.77378845214844, -89.92363739013672
57,269837365,0.6892603,-0.023144169,-0.6834771,-0.23925704,8.174942970275879,-3.1375508308410645,1.4456127882003784,-115.20779418945312,228.96026611328125, -63.182857513427734
58,269854032,0.7133446,-0.0125045795,-0.65503657,-0.24881814,10.2378568649292,-2.3026576042175293,-2.3714475631713867,-34.78420639038086,256.9685974121094, -46.268714904785156
59,269870699,0.7376022,0.0034192617,-0.62678385,-0.25114432,13.125436782836914,-0.4633059501647949,-3.873544931411743,23.669710159301758,266.28082275390625, -35.215904235839844
60,269887366,0.76036114,0.018606221,-0.5985673,-0.25143993,15.281888008117676,0.5469440221786499,-4.566658973693848,28.343109130859375,259.7975769042969, -25.01497459411621
61,269904033,0.78028333,0.028510517,-0.57072973,-0.25419077,16.291227340698242,2.1409857273101807,-5.433216571807861,-8.838973045349121,238.24180603027344, -21.668724060058594
62,269920700,0.79635847,0.030150931,-0.54434556,-0.26190156,15.308177947998047,2.836702823638916,-6.833112716674805,-69.8399887084961,201.64437866210938, -22.89154815673828
63,269937367,0.8077038,0.026646243,-0.52246475,-0.27191064,12.338521957397461,1.9698647260665894,-8.512550354003906,-98.09915924072266,151.3526153564453, -24.29884910583496
64,269954034,0.8133919,0.021863718,-0.5088333,-0.28107727,9.432775497436523,1.3038861751556396,-11.225747108459473,-86.24896240234375,84.79039764404297, -24.496183395385742
65,269970701,0.81324136,0.016373804,-0.50533557,-0.2881086,8.139547348022461,-0.10971368849277496,-13.795166015625,-62.84685134887695,8.509010314941406, -20.111814498901367
66,269987368,0.80765253,0.010606244,-0.51244396,-0.2915243,8.278277397155762,-0.6550868153572083,-13.746233940124512,-30.77097511291504,-67.87052917480469, -8.820778846740723
67,270004035,0.79766506,0.0014483253,-0.52690583,-0.2934263,10.540165901184082,0.7019197940826416,-11.470020294189453,-29.683137893676758,-129.04092407226562, 2.9385986328125
68,270020702,0.78558296,-0.007335621,-0.54501504,-0.29285547,12.428274154663086,4.5506439208984375,4.247982025146484,-11.717509269714355,-154.21749877929688, 10.75826358795166
69,270037369,0.77527857,-0.01439087,-0.55749464,-0.29654023,13.201437950134277,8.297148704528809,18.049116134643555,-29.574504852294922,-113.49655151367188, -14.699736595153809
70,270054036,0.76462215,-0.013651793,-0.5745822,-0.29158545,17.83995246887207,-4.82670783996582,-5.101581573486328,54.8406867980957,-125.90141296386719, 0.7400705814361572
71,270070703,0.7517861,-0.008924555,-0.59467036,-0.28479013,16.614334106445312,3.7612478733062744,-0.6377081871032715,88.9090347290039,-141.37745666503906, -11.23638916015625
72,270087370,0.7381321,-0.010010647,-0.61235154,-0.2829955,17.235240936279297,-2.3949179649353027,-0.2524601221084595,33.4755859375,-142.91683959960938, -15.000700950622559
73,270104037,0.72471935,-0.009001028,-0.62935483,-0.28038132,15.770234107971191,-2.059746265411377,0.3808012902736664,46.26948165893555,-134.13328552246094, -20.007963180541992
74,270120704,0.7129527,-0.008220179,-0.64353985,-0.27836582,10.014167785644531,4.187774181365967,-0.0005959570407867432,37.19673156738281,-113.27149963378906, -19.407167434692383
75,270137371,0.70340306,-0.0065211616,-0.655435,-0.2749308,9.028202056884766,6.429752349853516,-1.9255332946777344,43.58894348144531,-90.61390686035156, -12.024188995361328
76,270154038,0.6958504,-0.005801482,-0.6649796,-0.27122113,8.477299690246582,7.6621928215026855,-1.2614928483963013,35.5888557434082,-71.99990844726562, -2.0407252311706543
77,270170705,0.68986195,-0.0059317863,-0.673046,-0.26657957,9.16421127319336,6.048195838928223,-1.2237181663513184,32.9698600769043,-59.392478942871094, 9.760528564453125
78,270187372,0.6845705,-0.009461724,-0.67957675,-0.2635324,9.236191749572754,6.294707298278809,-1.0486717224121094,6.6646013259887695,-55.02873611450195, 19.575416564941406
79,270204039,0.6794558,-0.018013407,-0.68430763,-0.2640807,8.989883422851562,4.970165729522705,-1.6856294870376587,-37.00621032714844,-54.59415054321289, 26.93939208984375
80,270220706,0.6741273,-0.029065516,-0.68827456,-0.26643232,8.8134126663208,2.683232307434082,-2.2004101276397705,-58.54844284057617,-56.28311538696289, 30.3125057220459
81,270237373,0.66836405,-0.038382806,-0.6927084,-0.26827508,8.656693458557129,2.6150245666503906,-0.8810596466064453,-47.312103271484375,-57.33164596557617, 23.69685935974121
82,270254040,0.6622032,-0.047751606,-0.6966582,-0.27179846,9.206141471862793,2.737605571746826,0.0601336732506752,-56.496280670166016,-56.69841384887695, 15.736188888549805
83,270270707,0.65581495,-0.05802644,-0.6998063,-0.2771483,10.432807922363281,1.1705067157745361,-0.705303430557251,-70.8566665649414,-55.36955642700195, 11.735857009887695
84,270287374,0.6495525,-0.06684998,-0.702918,-0.28199145,10.163163185119629,1.3108229637145996,-1.2814908027648926,-61.85531997680664,-52.11130905151367, 7.2502970695495605
85,270304041,0.64347804,-0.07466748,-0.7057591,-0.2868187,9.831966400146484,1.6562963724136353,-1.1182339191436768,-57.70151901245117,-48.07997131347656, 2.914405345916748
86,270320708,0.63757896,-0.08025908,-0.70925844,-0.28983507,9.897782325744629,1.7773187160491943,-0.711915135383606,-37.64961242675781,-46.73148727416992, 0.11659689247608185
87,270337375,0.6318754,-0.08273846,-0.7139594,-0.29008627,9.558650970458984,3.0662195682525635,0.018310796469449997,-8.001893043518066,-46.471920013427734, -3.2672839164733887
88,270354042,0.6258937,-0.084079474,-0.7194112,-0.28919795,9.086994171142578,3.742967367172241,0.45308056473731995,3.918860673904419,-49.652103424072266, -4.858580112457275
89,270370709,0.61935395,-0.08407902,-0.725937,-0.28696236,9.331735610961914,2.8160603046417236,0.628759503364563,18.238094329833984,-55.35914993286133, -7.351330280303955
90,270387376,0.6119848,-0.083162434,-0.7335352,-0.28369868,9.69620418548584,2.5678822994232178,0.4170638918876648,28.94830894470215,-63.097843170166016, -9.830259323120117
91,270404043,0.60354996,-0.0822606,-0.74209654,-0.2797384,10.192856788635254,2.237940788269043,-0.044680655002593994,33.73614501953125,-73.18098449707031, -9.523406982421875
92,270420710,0.5944621,-0.08076088,-0.7513712,-0.27483484,10.636336326599121,2.316673994064331,-0.1550910472869873,42.062713623046875,-79.06981658935547, -10.430505752563477
93,270437377,0.5846927,-0.0792616,-0.7610527,-0.26953888,10.64411449432373,3.6842727661132812,-0.7486812472343445,44.50727081298828,-84.69882202148438, -10.456930160522461
94,270454044,0.5745272,-0.07781156,-0.7708085,-0.26404285,10.953923225402832,2.231659173965454,-2.2583184242248535,45.306156158447266,-87.46827697753906, -10.17432975769043
95,270470711,0.5641827,-0.0764615,-0.7807749,-0.25737572,10.759729385375977,3.05759334564209,-0.746158242225647,51.39840316772461,-90.15435791015625, -5.591094017028809
96,270487378,0.5530132,-0.076251,-0.79090166,-0.25067338,10.907185554504395,3.5263383388519287,-0.769197940826416,47.065425872802734,-97.47714233398438, -0.9359011054039001
97,270504045,0.5406395,-0.07610495,-0.8018184,-0.2429088,10.905387878417969,2.9902265071868896,-0.47486016154289246,53.38390350341797,-107.95866394042969, 0.9511955380439758
98,270520712,0.5265406,-0.07566672,-0.8139885,-0.23335116,11.686969757080078,2.5827836990356445,-0.07622051239013672,65.61466979980469,-122.88499450683594, 2.4131696224212646
99,270537379,0.5100118,-0.07522567,-0.82770056,-0.22167772,12.979501724243164,2.291409492492676,-0.1676487922668457,78.74317169189453,-143.54884338378906, 5.260174751281738
100,270554046,0.49044704,-0.07530701,-0.8426838,-0.20898557,14.685999870300293,4.559613227844238,4.1638078689575195,83.13970947265625,-167.0582275390625, 6.385435104370117
101,270570713,0.46827373,-0.07646214,-0.8580068,-0.19671775,17.859935760498047,5.801027297973633,5.903025150299072,76.41759490966797,-185.48992919921875, 7.278440952301025
102,270587380,0.44492126,-0.07578399,-0.87358385,-0.1820807,20.402965545654297,6.319041728973389,7.812777042388916,96.3416976928711,-193.1433563232422, 2.4184987545013428
103,270604047,0.4240812,-0.06979657,-0.8883963,-0.16135707,24.066030502319336,5.065887928009033,9.224387168884277,149.89378356933594,-173.61915588378906, -7.241965293884277
104,270620714,0.4033773,-0.062650055,-0.90298814,-0.13406867,22.314037322998047,5.69473934173584,8.659223556518555,193.5800323486328,-175.6986541748047, 5.090681076049805
105,270637381,0.38083908,-0.06160334,-0.91576344,-0.11200071,19.537511825561523,6.444967269897461,8.373588562011719,142.13275146484375,-187.0074920654297, 27.757171630859375
106,270654048,0.361122,-0.06298193,-0.92633194,-0.08679806,11.48332691192627,2.123821496963501,1.056204915046692,155.39749145507812,-168.10067749023438, 54.64429473876953
107,270670715,0.34683368,-0.05498168,-0.9349043,-0.051359043,12.752481460571289,8.788090705871582,-5.060783386230469,245.11538696289062,-128.0320281982422, 24.741539001464844
108,270687382,0.3395922,-0.0531436,-0.9379901,-0.04502981,13.706541061401367,13.693429946899414,7.834698677062988,44.408851623535156,-61.15810012817383, 0.07757601886987686
109,270704049,0.33932593,-0.054195143,-0.937807,-0.049385924,5.89089298248291,1.9198566675186157,6.764035701751709,-28.90542221069336,-6.6232476234436035, -2.271136522293091
110,270720716,0.3471704,-0.050539803,-0.9351299,-0.04950869,4.720599174499512,3.012300729751587,6.548707962036133,11.687398910522461,50.9462776184082, -19.030324935913086
111,270737383,0.36217493,-0.046508875,-0.9293222,-0.055017993,3.747148275375366,5.489663124084473,5.879323482513428,-20.421154022216797,105.98575592041016, -30.644495010375977
112,270754050,0.38320586,-0.044769593,-0.92000717,-0.06881953,4.579991817474365,4.799211502075195,4.61497688293457,-78.20917510986328,154.62623596191406, -33.04564666748047
113,270770717,0.40954465,-0.04272511,-0.90728724,-0.085310385,5.223733901977539,3.3723361492156982,2.8673200607299805,-94.1551513671875,197.7755126953125, -38.39645767211914
114,270787384,0.44153816,-0.03916045,-0.8906216,-0.10150791,6.360667705535889,2.2830984592437744,2.064586639404297,-88.55872344970703,244.67491149902344, -42.52623748779297
115,270804051,0.47842544,-0.0343102,-0.86961585,-0.11704866,7.615291595458984,1.503085732460022,0.9425159692764282,-82.26818084716797,288.275146484375, -43.79988098144531
116,270820718,0.51923084,-0.027593298,-0.8440226,-0.1313929,9.371745109558105,1.1806271076202393,0.20437756180763245,-71.72437286376953,327.80712890625, -46.7765007019043
117,270837385,0.5629391,-0.01886827,-0.8135343,-0.14458889,11.204575538635254,0.010631963610649109,-1.1953351497650146,-61.765830993652344,363.56683349609375, -50.767948150634766
118,270854052,0.6081049,-0.0070869997,-0.7783602,-0.15592836,12.829184532165527,-0.22995279729366302,-2.705880641937256,-44.051170349121094,392.6191101074219, -58.66646194458008
119,270870719,0.652859,0.007434401,-0.73907715,-0.16578571,14.614882469177246,-0.6031525731086731,-4.102231979370117,-29.161813735961914,410.5803527832031, -67.4114990234375
120,270887386,0.6954882,0.020992393,-0.69626063,-0.17628695,18.01344108581543,-0.43290987610816956,-6.03673791885376,-40.65509033203125,414.8335266113281, -68.11260986328125
121,270904053,0.7345808,0.03097216,-0.65140325,-0.18736559,21.263399124145508,1.879266619682312,-9.896661758422852,-62.9511833190918,403.6502685546875, -58.55782699584961
122,270920720,0.76792043,0.030028882,-0.60612947,-0.20494863,23.483823776245117,6.934921741485596,-13.843629837036133,-146.64109802246094,365.46710205078125, -50.26396942138672
123,270937387,0.79331565,0.020469034,-0.56459796,-0.22684944,20.24483871459961,2.8612890243530273,-19.47100257873535,-203.67916870117188,300.8216552734375, -47.77909469604492
124,270954054,0.8088399,0.016095717,-0.5350606,-0.24337086,14.641016006469727,1.463883876800537,-22.9547061920166,-134.85328674316406,207.576904296875, -52.66314697265625
125,270970721,0.81601125,0.011041554,-0.51841027,-0.2554504,10.145462989807129,1.6647577285766602,-26.64986228942871,-100.29524993896484,106.36931610107422, -38.26959228515625
126,270987388,0.8146631,0.0043447143,-0.51691085,-0.26288489,7.52212381362915,-0.22608286142349243,-27.675745010375977,-66.27994537353516,-9.600419998168945, -20.282804489135742
127,271004055,0.80468667,-0.0021709818,-0.53183085,-0.2638764,9.821444511413574,-0.7221642136573792,-24.6033878326416,-13.005859375,-129.8450469970703, -0.09189107269048691
128,271020722,0.79069793,-0.004782717,-0.554505,-0.2594191,15.570793151855469,8.291841506958008,5.543924808502197,42.0467414855957,-178.67886352539062, 8.180710792541504
129,271037389,0.7785656,-0.014080323,-0.56953806,-0.26318085,15.862242698669434,3.096235752105713,14.644949913024902,-39.33531188964844,-141.63497924804688, -7.215583324432373
130,271054056,0.7651575,-0.015775569,-0.58926016,-0.2589554,16.73555564880371,-2.047305107116699,-6.52056884765625,41.210174560546875,-159.27859497070312, 2.9351303577423096
131,271070723,0.7501133,-0.018053997,-0.60903674,-0.25705776,15.405998229980469,6.3480753898620605,-3.7862133979797363,28.51830291748047,-166.22402954101562, -10.285046577453613
132,271087390,0.73553413,-0.023451798,-0.62575924,-0.25858325,13.693731307983398,0.2908998727798462,-2.5218522548675537,-7.484348297119141,-153.11898803710938, -13.54134750366211
133,271104057,0.7225039,-0.025594784,-0.64066595,-0.2586124,12.919700622558594,-2.6393561363220215,-1.6324834823608398,12.337241172790527,-131.38336181640625, -17.119789123535156
134,271120724,0.7113582,-0.023037117,-0.654276,-0.2556604,11.90673542022705,2.7144792079925537,-0.15249234437942505,46.80715560913086,-108.57719421386719, -19.827552795410156
135,271137391,0.7018965,-0.022460425,-0.6648369,-0.25461593,9.790467262268066,4.441677093505859,-0.9605453610420227,23.332178115844727,-89.19978332519531, -16.868595123291016
136,271154058,0.69403154,-0.02209267,-0.6735955,-0.2531829,9.046972274780273,6.506777763366699,-0.5007033348083496,21.137598037719727,-73.5285873413086, -10.867632865905762
137,271170725,0.6877072,-0.023449322,-0.6802537,-0.25251573,9.928475379943848,4.774580478668213,-0.39501965045928955,5.859861850738525,-59.220760345458984, -3.3018381595611572
138,271187392,0.6826686,-0.023109954,-0.6863189,-0.24979235,10.796606063842773,2.7934229373931885,-1.0662288665771484,22.66206169128418,-47.75360107421875, 0.921112060546875
139,271204059,0.6785157,-0.021218413,-0.69184417,-0.24600445,10.447891235351562,2.46669602394104,-1.313767910003662,34.12702941894531,-38.488895416259766, 0.1417611986398697
140,271220726,0.6750057,-0.017930249,-0.6970214,-0.2412623,10.177261352539062,1.758350133895874,-0.8573206663131714,44.66470718383789,-31.51774024963379, -0.9977147579193115
141,271237393,0.67181605,-0.014144793,-0.7019705,-0.23601046,10.655096054077148,1.4002494812011719,-0.3051483929157257,49.076961517333984,-28.136394500732422, -0.5900207757949829
142,271254060,0.6687297,-0.010435396,-0.7067203,-0.23073426,10.07840347290039,2.2150590419769287,-0.873579204082489,48.519989013671875,-26.87070083618164, -0.08923561125993729
143,271270727,0.665758,-0.0067156903,-0.71139723,-0.2250232,9.196008682250977,3.548557996749878,-0.673801600933075,50.57078170776367,-25.992155075073242, 1.9428541660308838
144,271287394,0.66306454,-0.0036609843,-0.71564406,-0.21951306,8.836417198181152,4.262341499328613,-0.6206427812576294,45.85643768310547,-23.71390724182129, 4.723109722137451
145,271304061,0.66032183,-0.0014837123,-0.7198755,-0.2138981,8.79068374633789,4.045806407928467,-1.5228360891342163,42.38838577270508,-25.231231689453125, 9.496614456176758
146,271320728,0.65748024,0.00015268536,-0.72402054,-0.20860091,9.14836311340332,3.5416176319122314,-0.3537037670612335,38.22490310668945,-26.097396850585938, 10.634034156799316
147,271337395,0.6543,0.0017035981,-0.7284472,-0.2031103,9.854142189025879,2.4673120975494385,-0.6148464679718018,39.22663879394531,-29.235477447509766, 11.464518547058105
148,271354062,0.65050775,0.0030353672,-0.7333221,-0.1976605,9.375654220581055,2.454237699508667,0.39186716079711914,38.691871643066406,-34.66746520996094, 11.472984313964844
149,271370729,0.64595747,0.0034871083,-0.7384216,-0.19354711,9.20398235321045,2.836117744445801,0.0350211039185524,28.36465835571289,-40.83406066894531, 8.873477935791016
150,271387396,0.64065397,0.0032866828,-0.7438862,-0.19022483,9.00825023651123,3.5513601303100586,0.04167533665895462,21.998655319213867,-47.25947189331055, 7.681848049163818
151,271404063,0.6343945,0.0028757886,-0.7501365,-0.18663071,9.01052188873291,3.9170925617218018,-0.060048907995224,23.539871215820312,-55.98366165161133, 8.782486915588379
152,271420730,0.6271323,0.0009455085,-0.75682414,-0.18417895,9.397490501403809,4.1611785888671875,0.38244444131851196,11.62551212310791,-65.14509582519531, 10.44900131225586
153,271437397,0.61893153,-0.0016067184,-0.764123,-0.18176268,10.86544132232666,2.2527341842651367,-0.706524133682251,9.608238220214844,-73.59088134765625, 12.452366828918457
154,271454064,0.6100348,-0.0034162947,-0.77229327,-0.1772274,11.824431419372559,1.3005024194717407,0.1385955810546875,24.999170303344727,-80.15042877197266, 16.6572322845459
155,271470731,0.60044837,-0.005326446,-0.7809845,-0.17174685,11.598483085632324,1.129771113395691,-0.22779422998428345,30.20802116394043,-86.33064270019531, 20.2036190032959
156,271487398,0.5897327,-0.009099612,-0.7900145,-0.16736135,10.993331909179688,1.9808764457702637,-0.047940924763679504,17.050809860229492,-96.10905456542969, 24.23198127746582
157,271504065,0.577513,-0.014473143,-0.7996615,-0.1637408,10.961861610412598,4.226602077484131,0.1694696992635727,7.045504093170166,-108.7628402709961, 28.032617568969727
158,271520732,0.5629693,-0.02145677,-0.8103795,-0.1609061,10.745180130004883,6.236263275146484,1.10829758644104,-2.630930185317993,-127.74716186523438, 31.162761688232422
159,271537399,0.54539967,-0.029705025,-0.8226561,-0.15777902,10.87099552154541,6.0703277587890625,1.3864963054656982,-4.473452568054199,-152.3727569580078, 35.99860382080078
160,271554066,0.5244349,-0.03740329,-0.8368801,-0.15231878,12.70425033569336,5.508681297302246,3.242720127105713,12.373086929321289,-179.0933837890625, 37.76985168457031
161,271570733,0.50032216,-0.042808224,-0.85263246,-0.14444232,16.04413414001465,6.763431549072266,6.58521842956543,35.52215576171875,-201.4506072998047, 29.742687225341797
162,271587400,0.4754263,-0.041969083,-0.86895627,-0.13085702,20.151418685913086,6.338253974914551,8.244494438171387,91.07888793945312,-204.30838012695312, 11.98411750793457
163,271604067,0.4510174,-0.036224715,-0.8848658,-0.11083251,21.013587951660156,4.34574556350708,6.077398300170898,145.6726837158203,-198.5523223876953, 4.367982387542725
164,271620734,0.42629665,-0.02870974,-0.9002909,-0.08320825,21.044191360473633,5.258426189422607,4.9256911277771,197.18069458007812,-200.52093505859375, 17.09768295288086
165,271637401,0.40197116,-0.026628938,-0.9134694,-0.057308935,18.362661361694336,3.87866473197937,6.92581844329834,169.58804321289062,-195.25152587890625, 46.5075569152832
166,271654068,0.38171735,-0.023785213,-0.9237071,-0.022172274,12.44609260559082,6.410684108734131,1.596982717514038,229.47247314453125,-163.96998596191406, 69.61962890625
167,271670735,0.36501294,-0.020098248,-0.9307779,0.0038173427,10.088516235351562,10.695594787597656,-4.71046257019043,173.89630126953125,-132.01303100585938, 41.71185302734375
168,271687402,0.35369986,-0.020111373,-0.93513066,0.004746367,14.477104187011719,14.15399169921875,4.394225597381592,5.481207847595215,-87.31317901611328, 3.207571029663086
169,271704069,0.3487831,-0.026121093,-0.93679154,-0.009480629,6.109888076782227,3.429788589477539,4.549842834472656,-104.94267272949219,-38.198848724365234, 5.494800090789795
170,271720736,0.35128483,-0.027990479,-0.9356801,-0.017849287,6.577214241027832,2.1872308254241943,3.551995277404785,-55.98246765136719,14.996411323547363, -6.183722972869873
171,271737403,0.3608913,-0.027730526,-0.9318864,-0.02400902,4.050865650177002,6.630245685577393,4.320891380310059,-35.5153923034668,66.61590576171875, -13.163188934326172
172,271754070,0.37619206,-0.03048672,-0.9252146,-0.039093427,3.8495707511901855,6.091537952423096,4.30302095413208,-99.3302993774414,111.11846160888672, -14.335253715515137
173,271770737,0.3972333,-0.031594828,-0.9156004,-0.053699326,4.765643119812012,2.1919660568237305,2.0900936126708984,-91.40896606445312,155.2649688720703, -21.306909561157227
174,271787404,0.42341056,-0.02878186,-0.9031626,-0.06475159,5.205190658569336,2.3730385303497314,0.8913845419883728,-58.2279167175293,195.75405883789062, -33.7454833984375
175,271804071,0.45359734,-0.02570909,-0.8873358,-0.07889284,5.981861114501953,3.101127862930298,0.6242719292640686,-77.3476791381836,231.08041381835938, -41.8313102722168
176,271820738,0.48710522,-0.023556182,-0.8676305,-0.09690941,7.3599653244018555,1.7117445468902588,0.2983736991882324,-105.36066436767578,263.4564514160156, -45.74589538574219
177,271837405,0.5236708,-0.021346372,-0.8437501,-0.11575458,8.868611335754395,1.23980712890625,-0.3942379951477051,-112.42862701416016,295.68310546875, -46.17675018310547
178,271854072,0.5626766,-0.018153396,-0.81556386,-0.13387151,10.70177936553955,1.48896324634552,-2.0071418285369873,-107.80986785888672,325.87890625, -46.73683166503906
179,271870739,0.6034162,-0.012348148,-0.7830162,-0.15040705,12.360279083251953,1.4316343069076538,-3.090843677520752,-92.7002944946289,354.65313720703125, -53.17219543457031
180,271887406,0.6444664,-0.002674932,-0.7466756,-0.16471708,14.310481071472168,1.16036057472229,-3.487757921218872,-68.64033508300781,375.9578552246094, -64.14704132080078
181,271904073,0.68451214,0.0073513584,-0.70645994,-0.17973278,17.460147857666016,0.7060363292694092,-4.497126579284668,-75.31201934814453,388.5313415527344, -70.19883728027344
182,271920740,0.7223975,0.017419146,-0.6638715,-0.1926483,21.248950958251953,0.3163418769836426,-7.335568428039551,-67.73737335205078,389.6869812011719, -63.43532943725586
183,271937407,0.75622195,0.026424684,-0.6212265,-0.20373552,21.67049217224121,4.002661228179932,-9.871132850646973,-64.58622741699219,370.7450256347656, -55.13475799560547
184,271954074,0.78370816,0.032098528,-0.5812121,-0.21671253,19.882112503051758,5.229350566864014,-11.847597122192383,-85.44593048095703,325.7439270019531, -59.249454498291016
185,271970741,0.8034913,0.038025133,-0.5483132,-0.22871165,17.396167755126953,2.4951424598693848,-14.492015838623047,-68.20113372802734,258.136962890625, -64.97041320800781
186,271987408,0.8161492,0.04140877,-0.52404225,-0.23992945,13.39173698425293,0.04240207374095917,-18.671058654785156,-64.2282485961914,180.9037628173828, -60.213348388671875
187,272004075,0.8216566,0.037142407,-0.50988656,-0.25202546,10.015568733215332,-0.054083168506622314,-21.25278091430664,-91.97025299072266,86.74763488769531, -46.75755310058594
188,272020742,0.81949544,0.02710313,-0.5086535,-0.26261064,7.704401016235352,-0.8138303160667419,-22.518827438354492,-95.3661880493164,-21.49521827697754, -28.179443359375
189,272037409,0.80929524,0.014690633,-0.5217023,-0.26954132,7.847372531890869,0.19529996812343597,-20.876861572265625,-69.0882339477539,-132.4397735595703, -11.29085636138916
190,272054076,0.7936652,0.0014519132,-0.5440876,-0.27214506,14.435897827148438,2.7107443809509277,-7.244241237640381,-40.7142448425293,-203.81434631347656, 6.572021961212158
191,272070743,0.780675,-0.0077476525,-0.56145656,-0.2743237,14.463780403137207,6.546209335327148,21.15382194519043,-26.68857765197754,-158.31378173828125, -1.362898826599121
192,272087410,0.7699046,-0.0118961055,-0.5775965,-0.27108687,15.217944145202637,-7.425556659698486,-0.7596874237060547,19.416486740112305,-134.6469268798828, 12.573004722595215
193,272104077,0.7572821,-0.008306097,-0.5979484,-0.26251334,15.28290843963623,3.8560242652893066,-5.901854991912842,89.36402893066406,-149.9983367919922, 5.693387508392334
194,272120744,0.7437938,-0.01046174,-0.6155818,-0.26023176,15.887691497802734,2.4267418384552,-1.6908156871795654,28.427629470825195,-148.88150024414062, -4.913323402404785
195,272137411,0.73034275,-0.013220859,-0.63153857,-0.2599698,14.935094833374023,-0.1170736774802208,-0.7135021686553955,13.689391136169434,-140.80194091796875, -12.612141609191895
196,272154078,0.7179063,-0.014317966,-0.64581174,-0.25948605,12.212105751037598,0.9531201124191284,-0.6158730387687683,20.048572540283203,-124.7994384765625, -16.960355758666992
197,272170745,0.7071442,-0.013920339,-0.65812874,-0.25810903,9.828106880187988,4.864649772644043,-0.2197699248790741,27.98785972595215,-105.02369689941406, -16.143871307373047
198,272187412,0.6982144,-0.014888333,-0.6679008,-0.25726208,9.1705904006958,6.550836086273193,1.2489862442016602,14.54977798461914,-86.6858139038086, -8.951858520507812
199,272204079,0.6909885,-0.017071133,-0.6755801,-0.2565842,9.494270324707031,6.238391876220703,1.02761709690094,4.388014316558838,-70.99565887451172, -0.7694063782691956
200,272220746,0.6849114,-0.019207247,-0.6821617,-0.25531024,11.0492525100708,2.330899477005005,-0.628137469291687,5.645054340362549,-60.45220947265625, 4.172138214111328
201,272237413,0.6795543,-0.019195648,-0.6885268,-0.25252452,11.184679985046387,1.8079270124435425,-1.0552728176116943,22.488304138183594,-52.464019775390625, 2.4444081783294678
202,272254080,0.67497194,-0.017061349,-0.6945223,-0.24851733,10.30875015258789,1.74082350730896,-1.4310797452926636,37.62656784057617,-43.494815826416016, -0.6076299548149109
203,272270747,0.67118114,-0.014371356,-0.6996723,-0.24447572,9.95497989654541,2.488835573196411,-0.890109121799469,38.99622344970703,-34.789764404296875, -1.751413106918335
204,272287414,0.6680602,-0.011039362,-0.7042757,-0.2399365,9.560324668884277,3.563192844390869,-1.6579852104187012,43.49226379394531,-27.9990177154541, -1.4280494451522827
205,272304081,0.6654418,-0.008422857,-0.7082102,-0.23570126,8.828269958496094,4.246396541595459,-1.547288417816162,37.62947463989258,-23.610090255737305, 1.5125876665115356
206,272320748,0.6631157,-0.006887258,-0.7116331,-0.23196746,8.795409202575684,4.154304504394531,-1.2286338806152344,29.440383911132812,-21.527320861816406, 5.027431488037109
207,272337415,0.66089296,-0.0053595924,-0.7149829,-0.22801627,9.432506561279297,3.879209518432617,-0.1364508420228958,30.343570709228516,-20.699386596679688, 6.267643451690674
208,272354082,0.65844893,-0.004088317,-0.7184662,-0.22413217,9.453909873962402,3.4972264766693115,-0.3772125542163849,29.071516036987305,-22.836076736450195, 6.890408039093018
209,272370749,0.6552727,-0.0045484565,-0.72203207,-0.22196175,9.17209243774414,2.989091396331787,-0.39641427993774414,12.894743919372559,-29.480510711669922, 6.565860271453857
210,272387416,0.6511245,-0.0068956767,-0.7258082,-0.22179313,8.946471214294434,2.7707862854003906,-0.33242881298065186,-5.245227813720703,-38.106422424316406, 5.4365234375
211,272404083,0.6458386,-0.01098989,-0.7301215,-0.2229232,8.899077415466309,3.7933335304260254,0.4616960883140564,-18.750333786010742,-48.825862884521484, 6.600797176361084
212,272420750,0.63964075,-0.017117571,-0.7348282,-0.22493221,8.783164024353027,4.33203125,-0.04731510207056999,-31.62619400024414,-58.28563690185547, 11.561469078063965
213,272437417,0.63278276,-0.02356656,-0.74022454,-0.22604984,9.292840957641602,3.0942399501800537,-0.6593675017356873,-27.529258728027344,-65.323486328125, 16.118852615356445
214,272454084,0.62573594,-0.026644291,-0.7469352,-0.22323248,9.709924697875977,2.2997066974639893,0.2475859522819519,9.233441352844238,-67.4310073852539, 15.604504585266113
215,272470751,0.61756086,-0.029420504,-0.7545427,-0.22004235,10.434131622314453,2.8492650985717773,0.6585928201675415,13.657997131347656,-76.78236389160156, 13.738358497619629
216,272487418,0.60785234,-0.031647444,-0.7634624,-0.21596207,10.896403312683105,2.144266128540039,0.5193443894386292,22.30018424987793,-89.80052185058594, 12.077136993408203
217,272504085,0.5965287,-0.034241162,-0.77338237,-0.21180445,10.821937561035156,2.398590087890625,0.7104703187942505,22.35150718688965,-103.15945434570312, 11.662251472473145
218,272520752,0.58359057,-0.03789989,-0.7840007,-0.20815587,10.614767074584961,2.7480640411376953,0.13087937235832214,15.957573890686035,-116.20265197753906, 12.695509910583496
219,272537419,0.5691632,-0.041853078,-0.7953908,-0.20409633,10.72121524810791,3.383077383041382,-0.4215807318687439,17.761343002319336,-128.00119018554688, 13.593256950378418
220,272554086,0.55319667,-0.04534123,-0.8076471,-0.19905813,10.929129600524902,3.7032411098480225,0.3759736120700836,25.752460479736328,-139.57887268066406, 12.494710922241211
221,272570753,0.5350165,-0.048077933,-0.8213154,-0.1920602,11.752219200134277,3.244964122772217,0.00006085634231567383,40.7881965637207,-157.03294372558594, 12.342445373535156
222,272587420,0.51433545,-0.050600402,-0.836236,-0.18332568,13.46390151977539,5.148858547210693,3.5606067180633545,52.280399322509766,-176.27203369140625, 13.800296783447266
223,272604087,0.49161378,-0.052466676,-0.8519175,-0.17262672,16.66887664794922,6.245263576507568,5.557699680328369,66.305908203125,-190.98867797851562, 14.187381744384766
224,272620754,0.46811265,-0.051681597,-0.8677849,-0.15858522,19.353124618530273,6.236137866973877,7.386023044586182,95.01570129394531,-194.85321044921875, 9.010692596435547
225,272637421,0.44590804,-0.047186203,-0.8829036,-0.13936011,22.848526000976562,4.214025497436523,7.038575172424316,137.78201293945312,-183.28367614746094, 5.268272876739502
226,272654088,0.4255884,-0.038480263,-0.89721054,-0.1113894,21.314760208129883,5.165632247924805,7.691137313842773,203.82513427734375,-169.05067443847656, 8.563183784484863
227,272670755,0.40596232,-0.030016208,-0.90972817,-0.081783324,18.01710319519043,5.625296592712402,5.966153144836426,212.23582458496094,-161.0538330078125, 15.951501846313477
228,272687422,0.38693315,-0.026893754,-0.9203105,-0.05087657,14.643864631652832,3.695876359939575,3.326066493988037,204.70437622070312,-155.93821716308594, 53.933692932128906
229,272704089,0.36984676,-0.02446096,-0.9285358,-0.02089454,6.828293323516846,6.356489181518555,-4.677227973937988,196.6515350341797,-137.99261474609375, 57.155696868896484
230,272720756,0.35777926,-0.018725343,-0.93359226,-0.006999742,18.47886848449707,13.757131576538086,1.5556143522262573,102.89756774902344,-94.7145004272461, -3.3046371936798096
231,272737423,0.35328698,-0.024758484,-0.9350061,-0.018411634,7.1341447830200195,3.8053503036499023,8.842355728149414,-87.19835662841797,-35.11033630371094, 11.184542655944824
232,272754090,0.35639715,-0.026134418,-0.9336437,-0.024648659,6.088052272796631,0.3758544623851776,5.310309886932373,-41.534629821777344,19.707454681396484, -4.765201568603516
233,272770757,0.36636516,-0.024067782,-0.9297212,-0.028567374,4.04233455657959,5.896885395050049,4.122425556182861,-17.402185440063477,69.84333801269531, -19.606660842895508
234,272787424,0.38223547,-0.02404375,-0.92286354,-0.04050714,3.8830504417419434,6.029229164123535,3.8262879848480225,-73.22006225585938,115.67543029785156, -24.98723030090332
235,272804091,0.40332428,-0.024843112,-0.91304797,-0.055281635,4.937713146209717,3.3635261058807373,2.238386631011963,-93.15059661865234,156.59678649902344, -25.175586700439453
236,272820758,0.42919505,-0.023469226,-0.90035367,-0.06785354,4.9723920822143555,2.417860984802246,0.27713295817375183,-73.50021362304688,194.87496948242188, -30.361652374267578
237,272837425,0.45931828,-0.020075401,-0.88446105,-0.079703666,5.881126403808594,3.2727906703948975,0.2452337145805359,-63.84559631347656,231.3846893310547, -38.18606185913086
238,272854092,0.4931438,-0.01671689,-0.86472344,-0.0937216,7.319018840789795,2.1705482006073,0.4818720817565918,-78.69383239746094,266.2406005859375, -42.17319869995117
239,272870759,0.5301259,-0.01200768,-0.84105676,-0.10698634,8.891562461853027,1.0411207675933838,-0.12979769706726074,-71.80977630615234,299.0115966796875, -45.1113395690918
240,272887426,0.5695598,-0.0053682146,-0.81320566,-0.11945513,10.848976135253906,1.1944717168807983,-1.3427478075027466,-63.072113037109375,329.7265930175781, -51.210609436035156
241,272904093,0.6107508,0.003627264,-0.7808764,-0.13115911,12.146343231201172,0.20615632832050323,-2.823974609375,-53.216068267822266,358.9935302734375, -59.754478454589844
242,272920760,0.6522487,0.017400417,-0.7448515,-0.13951921,13.931769371032715,0.06013314425945282,-3.6721887588500977,-18.638029098510742,380.64739990234375, -71.1595687866211
243,272937427,0.6924822,0.032030895,-0.70530427,-0.14828454,16.780170440673828,0.5429602265357971,-4.606305122375488,-20.12468719482422,390.9407653808594, -78.99864196777344
244,272954094,0.72991836,0.044962544,-0.66368985,-0.15720576,20.4876766204834,1.2329939603805542,-6.821928977966309,-30.696229934692383,385.6723327636719, -74.8376235961914
245,272970761,0.7628776,0.05131049,-0.62194735,-0.16901682,21.618501663208008,4.892246723175049,-9.38548469543457,-75.9477310180664,358.24114990234375, -64.31077575683594
246,272987428,0.7894789,0.04827672,-0.58260036,-0.18700181,20.464014053344727,4.418781280517578,-12.903677940368652,-146.75588989257812,306.015380859375, -63.232635498046875
247,273004095,0.8077842,0.04786485,-0.5513556,-0.20298074,16.544673919677734,1.5497212409973145,-17.19041633605957,-111.54957580566406,233.67654418945312, -70.99633026123047
248,273020762,0.8183514,0.04568558,-0.5296677,-0.2183254,12.731805801391602,2.3227081298828125,-19.680917739868164,-103.37564086914062,150.02012634277344, -68.66638946533203
249,273037429,0.82178015,0.03480224,-0.51818454,-0.23441647,9.582627296447754,1.5879137516021729,-23.12405014038086,-137.85726928710938,54.312442779541016, -48.84770584106445
250,273054096,0.817301,0.021797853,-0.52019346,-0.24686605,8.02811050415039,-1.6921476125717163,-24.289268493652344,-113.5589828491211,-51.66149139404297, -30.346376419067383
251,273070763,0.8049153,0.01160524,-0.53716826,-0.25184757,11.113603591918945,-0.6022254824638367,-19.309370040893555,-44.71236038208008,-157.2776641845703, -9.767570495605469
252,273087430,0.79005075,0.0043866616,-0.55908996,-0.25143465,14.620229721069336,5.511532306671143,8.660102844238281,0.2590213716030121,-187.5857391357422, 5.080480575561523
253,273104097,0.778306,-0.0056351935,-0.5739246,-0.25459573,15.289899826049805,-3.0576939582824707,12.393902778625488,-40.96381378173828,-142.2499542236328, 1.656904697418213
254,273120764,0.76562774,-0.0031429084,-0.5942994,-0.24619606,15.493167877197266,-3.184331178665161,-6.87028169631958,81.48241424560547,-154.43382263183594, 12.067978858947754
255,273137431,0.7503672,-0.00417563,-0.61433053,-0.24398698,15.932578086853027,8.03312873840332,-4.65114688873291,36.94392776489258,-168.8014678955078, -10.689924240112305
256,273154098,0.7352329,-0.010486541,-0.63135564,-0.24639978,14.3548002243042,1.7447102069854736,-1.6175827980041504,-14.901432037353516,-161.37814331054688, -11.819451332092285
257,273170765,0.7215777,-0.014668246,-0.64646935,-0.24736232,13.297600746154785,-2.3555197715759277,-1.5131354331970215,-0.9768612384796143,-141.81964111328125, -11.117715835571289
258,273187432,0.7098429,-0.014047249,-0.6599311,-0.24579835,10.097457885742188,3.9623301029205322,0.1600254476070404,31.454055786132812,-117.23478698730469, -16.615785598754883
259,273204099,0.700251,-0.014367811,-0.67037195,-0.24503878,9.398392677307129,4.671604156494141,0.2667642831802368,18.392976760864258,-94.37174987792969, -12.295129776000977
260,273220766,0.6925177,-0.014258045,-0.6789021,-0.2435321,9.271350860595703,5.828760623931885,0.5767806768417358,20.847015380859375,-76.078125, -7.305915355682373
261,273237433,0.68628526,-0.014641481,-0.6856855,-0.24214439,10.845481872558594,3.073245048522949,-0.5647162199020386,15.248294830322266,-61.65651321411133, -2.8099193572998047
262,273254100,0.68116134,-0.012430038,-0.6920865,-0.23849764,11.240323066711426,1.904050588607788,-1.0440781116485596,37.61339569091797,-50.61223220825195, -2.5011277198791504
263,273270767,0.67662036,-0.00867263,-0.6981683,-0.2338185,10.71466064453125,2.4451427459716797,-0.7648062109947205,49.32387161254883,-43.94908142089844, -4.0622878074646
264,273287434,0.67258763,-0.005638308,-0.7034479,-0.22968554,10.115483283996582,3.3365402221679688,-1.4004954099655151,42.08729934692383,-38.9701042175293, -2.276637077331543
265,273304101,0.66921127,-0.0030560582,-0.70797175,-0.22566123,9.696087837219238,3.3950557708740234,-1.1932862997055054,38.30533218383789,-33.0573616027832, 0.4828358292579651
266,273320768,0.6661887,-0.0005025473,-0.712251,-0.22111306,9.125497817993164,3.9057650566101074,-1.0462545156478882,40.36964416503906,-30.30760955810547, 3.5979695320129395
267,273337435,0.6633612,0.001253136,-0.7161745,-0.21689816,8.98744010925293,4.293643951416016,-0.9884784817695618,34.58627700805664,-28.9654598236084, 6.2949628829956055
268,273354102,0.66051245,0.0021200536,-0.7198466,-0.21340133,9.260275840759277,3.72403621673584,-1.0264164209365845,26.62864112854004,-29.295856475830078, 7.3849968910217285
269,273370769,0.6573943,0.0026290282,-0.72362053,-0.21023688,9.261191368103027,3.328627347946167,-0.4679911732673645,23.514623641967773,-31.65827178955078, 7.266306400299072
270,273387436,0.653723,0.0015191503,-0.72735983,-0.20878716,9.316411018371582,3.0175390243530273,-0.6009829044342041,7.6548357009887695,-36.65554428100586, 6.776904582977295
271,273404103,0.64921236,-0.001703233,-0.7311322,-0.20968163,9.487171173095703,3.1701269149780273,-0.5294414162635803,-13.501849174499512,-44.092132568359375, 5.6053619384765625
272,273420770,0.6440091,-0.0063137026,-0.7351346,-0.21163616,9.753519058227539,3.0279672145843506,-0.6394258737564087,-24.686338424682617,-50.61672592163086, 6.856488227844238
273,273437437,0.6384182,-0.009680415,-0.74005383,-0.21130347,9.43380069732666,1.8434760570526123,-1.1034919023513794,-6.299154758453369,-54.95296859741211, 10.097336769104004
274,273454104,0.63204557,-0.013666612,-0.7456691,-0.21049815,9.321977615356445,3.0012454986572266,0.3486579656600952,-5.63560676574707,-62.93143081665039, 14.132725715637207
275,273470771,0.62490606,-0.017998384,-0.7518017,-0.20967259,9.748915672302246,2.1612658500671387,0.18261900544166565,-6.354458332061768,-69.64935302734375, 14.839221000671387
276,273487438,0.6169676,-0.020971706,-0.75895566,-0.20711684,10.120677947998047,2.6396067142486572,-0.9454226493835449,9.795782089233398,-76.45575714111328, 13.969602584838867
277,273504105,0.60798174,-0.02346499,-0.76715374,-0.20318286,10.256731033325195,2.5813469886779785,0.2536921203136444,20.400266647338867,-85.875, 15.662141799926758
278,273520772,0.5977619,-0.026127307,-0.7760228,-0.19946666,10.134206771850586,3.9002950191497803,0.4178052246570587,19.257556915283203,-95.43156433105469, 13.815966606140137
279,273537439,0.5861385,-0.029136248,-0.7856151,-0.19596455,10.542783737182617,3.130648374557495,0.19315871596336365,17.47500991821289,-106.35164642333984, 12.734747886657715
280,273554106,0.5730076,-0.03216824,-0.7961247,-0.19186813,10.432634353637695,2.983161449432373,-0.22123394906520844,21.519227981567383,-118.37686157226562, 13.045522689819336
281,273570773,0.55785006,-0.036102716,-0.8075771,-0.18793553,11.021535873413086,3.3810744285583496,0.1928611546754837,17.878803253173828,-134.36276245117188, 14.456709861755371
282,273587440,0.54072785,-0.039520066,-0.8201883,-0.18260163,11.379531860351562,3.0596179962158203,0.7449025511741638,28.652637481689453,-149.43238830566406, 14.140339851379395
283,273604107,0.5212479,-0.042327747,-0.83423567,-0.17481326,13.242900848388672,3.315406084060669,2.042832374572754,45.93598175048828,-168.00973510742188, 16.477563858032227
284,273620774,0.49972558,-0.045036193,-0.8491347,-0.16497435,15.775016784667969,5.274134635925293,4.40374755859375,58.51115036010742,-183.30712890625, 20.546701431274414
285,273637441,0.4769519,-0.046364926,-0.8645177,-0.15158014,18.99799346923828,5.98688268661499,7.423184871673584,84.19671630859375,-191.89366149902344, 23.147884368896484
286,273654108,0.45420983,-0.0445833,-0.87968767,-0.13362496,21.432910919189453,6.030498027801514,8.817646980285645,121.33312225341797,-189.33045959472656, 19.727737426757812
287,273670775,0.43312934,-0.039165318,-0.8938326,-0.10921906,21.986730575561523,4.9060211181640625,7.384319305419922,171.3274383544922,-174.83810424804688, 19.730831146240234
288,273687442,0.41141143,-0.03349896,-0.907002,-0.08346277,19.92300796508789,6.50597620010376,6.297733306884766,179.47964477539062,-176.1396026611328, 22.031940460205078
289,273704109,0.391063,-0.033648748,-0.9178238,-0.059474625,16.102588653564453,2.1578736305236816,6.300464630126953,150.97903442382812,-163.9681396484375, 54.66706466674805
290,273720776,0.3734035,-0.03198231,-0.9266703,-0.028797662,6.959669589996338,7.167843341827393,-1.043020248413086,197.91136169433594,-142.5596466064453, 62.758174896240234
291,273737443,0.35964677,-0.026529677,-0.9326561,-0.010169879,18.930856704711914,11.059441566467285,-4.175284385681152,131.14321899414062,-106.90497589111328, 9.144396781921387
292,273754110,0.35410175,-0.028885096,-0.9346145,-0.016545825,10.69430160522461,9.584234237670898,7.854043006896973,-47.22972106933594,-40.295963287353516, -1.2796659469604492
293,273770777,0.3566853,-0.032641,-0.9332903,-0.026071923,5.450286865234375,0.36244457960128784,7.177391529083252,-69.60435485839844,20.34518814086914, 1.6420412063598633
294,273787444,0.3673184,-0.0300627,-0.9292873,-0.0244736,5.210257530212402,1.535698652267456,4.133388042449951,18.624595642089844,77.1944351196289, -9.695878028869629
295,273804111,0.38392988,-0.025971109,-0.92270124,-0.023372592,4.064759254455566,6.3604583740234375,2.475646495819092,20.060855865478516,122.28336334228516, -19.076560974121094
296,273820778,0.40496752,-0.02385047,-0.91350794,-0.030597605,4.8203444480896,5.8909478187561035,1.296903371810913,-37.58207321166992,158.44081115722656, -27.348634719848633
297,273837445,0.4300206,-0.022683721,-0.9015384,-0.042388283,5.387368202209473,2.7666680812835693,0.13716642558574677,-68.82646942138672,191.96798706054688, -32.762813568115234
298,273854112,0.4589759,-0.020037675,-0.88655245,-0.054451838,6.0318989753723145,2.33616304397583,-0.13261207938194275,-66.43276977539062,225.58148193359375, -41.12833023071289
299,273870779,0.49166742,-0.017264219,-0.867918,-0.06843916,7.1872687339782715,2.7480194568634033,0.1648731529712677,-78.6129379272461,260.22393798828125, -46.08761215209961
300,273887446,0.52742547,-0.014262252,-0.8453195,-0.08398871,8.546802520751953,2.155909299850464,-0.5709540843963623,-88.68341064453125,292.2547912597656, -50.81771469116211
301,273904113,0.56549025,-0.00945533,-0.81874543,-0.09893295,10.190674781799316,2.2260677814483643,-1.8055541515350342,-80.68611145019531,321.1061706542969, -57.40524673461914
302,273920780,0.6047457,-0.003131178,-0.78808266,-0.114887066,11.545331001281738,2.9196243286132812,-3.2162301540374756,-83.21434783935547,344.85107421875, -68.79728698730469
303,273937447,0.6440956,0.00525289,-0.75362486,-0.13100739,12.612815856933594,1.7013356685638428,-4.002651691436768,-78.54368591308594,362.8352966308594, -80.50240325927734
304,273954114,0.6822688,0.016258026,-0.71624684,-0.14572507,15.641629219055176,2.1089611053466797,-4.697098731994629,-62.3083610534668,372.12994384765625, -89.0447769165039
305,273970781,0.71883136,0.027945971,-0.67627585,-0.15859309,19.223764419555664,1.180840253829956,-6.87617301940918,-52.352298736572266,377.3310241699219, -85.64066314697266
306,273987448,0.75243765,0.039844885,-0.6355295,-0.1683812,20.551908493041992,2.7170350551605225,-8.622639656066895,-37.43235397338867,368.26324462890625, -74.80339813232422
307,274004115,0.7810946,0.048865937,-0.5960571,-0.17949775,19.822708129882812,6.499028205871582,-10.165095329284668,-55.31806945800781,336.41302490234375, -74.50287628173828
308,274020782,0.8029979,0.05353385,-0.5609882,-0.19396132,18.285961151123047,4.876324653625488,-13.992274284362793,-84.74114990234375,278.65655517578125, -81.49119567871094
309,274037449,0.8178937,0.056841005,-0.53348815,-0.20786946,15.233270645141602,0.09631937742233276,-16.925691604614258,-77.46649932861328,208.32862854003906, -79.73947143554688
310,274054116,0.8261519,0.053996135,-0.51500547,-0.2220971,11.746773719787598,-1.6922013759613037,-19.65928077697754,-97.80608367919922,124.47579956054688, -64.97314453125
311,274070783,0.8271752,0.04531012,-0.50839204,-0.23508765,8.569242477416992,-3.0894250869750977,-23.6481876373291,-105.82267761230469,23.118925094604492, -43.93274688720703
312,274087450,0.8196413,0.035260607,-0.51681775,-0.24463175,7.429286479949951,-1.67246413230896,-21.968965530395508,-74.61703491210938,-93.31035614013672, -28.750089645385742
313,274104117,0.80570817,0.020989615,-0.53632355,-0.2505021,13.129615783691406,-0.20632609724998474,-13.454427719116211,-65.19229888916016,-184.5807342529297, -1.1205021142959595
314,274120784,0.79218864,0.01182199,-0.55583966,-0.25167415,15.965935707092285,5.507473945617676,17.081972122192383,-19.66553497314453,-173.55467224121094, 6.785951137542725
315,274137451,0.7809585,0.005381223,-0.57238376,-0.24990448,16.060394287109375,-7.039183616638184,4.393000602722168,1.1405599117279053,-143.7553253173828, 16.121417999267578
316,274154118,0.76697075,0.010529367,-0.595194,-0.23956056,16.360689163208008,3.458306312561035,-5.930183410644531,108.00904083251953,-168.06468200683594, 11.96593952178955
317,274170785,0.75139767,0.0032344824,-0.6142368,-0.241049,16.24867820739746,4.681097507476807,-2.161147356033325,-12.153226852416992,-175.99169921875, -2.401172399520874
318,274187452,0.73640984,-0.0027488286,-0.6314943,-0.24271055,14.211658477783203,-2.1041171550750732,-1.1759448051452637,-9.08063793182373,-162.1107177734375, -7.888818264007568
319,274204119,0.7227141,-0.0040313546,-0.64725226,-0.24234839,12.569620132446289,-0.27766573429107666,-1.7069065570831299,21.029802322387695,-141.10533142089844, -15.898918151855469
320,274220786,0.7112553,-0.002586547,-0.660466,-0.24061221,9.388490676879883,5.081282138824463,-0.2547089159488678,36.509944915771484,-114.01058197021484, -17.429763793945312
321,274237453,0.70229703,-0.0013812678,-0.6705817,-0.23895063,9.363936424255371,4.980656623840332,-1.2207050323486328,29.91291618347168,-87.92407989501953, -12.492661476135254
322,274254120,0.69553363,0.0005844758,-0.67847186,-0.2364508,9.433098793029785,5.4878458976745605,-0.2672537565231323,33.84189224243164,-65.82394409179688, -8.301955223083496
323,274270787,0.690037,0.003429747,-0.68532884,-0.23272699,11.391338348388672,2.4882736206054688,-0.20103254914283752,42.068031311035156,-53.56607437133789, -4.478107929229736
324,274287454,0.6849966,0.0072544143,-0.691774,-0.22842066,11.168737411499023,2.421569585800171,-0.3599933385848999,48.78772735595703,-47.90713882446289, -5.617213249206543
325,274304121,0.68031156,0.010780717,-0.69770795,-0.22419587,9.848541259765625,3.1924822330474854,-1.0653603076934814,46.178977966308594,-44.30418395996094, -4.057097434997559
326,274320788,0.6761729,0.013094321,-0.70282537,-0.22057943,9.479191780090332,3.4633896350860596,-1.0806394815444946,36.299068450927734,-39.792274475097656, -0.3018231689929962
327,274337455,0.6726001,0.015144179,-0.7073835,-0.21676832,9.398592948913574,4.286688804626465,-1.3363161087036133,35.12387466430664,-34.853546142578125, 2.689964771270752
328,274354122,0.66981864,0.016505912,-0.71113247,-0.21298239,9.231290817260742,4.249186992645264,-1.8127737045288086,30.537376403808594,-28.304170608520508, 7.0249481201171875
329,274370789,0.66796285,0.017203288,-0.7138964,-0.20947984,9.076998710632324,4.006302356719971,-2.053234338760376,24.556493759155273,-20.252538681030273, 10.221843719482422
330,274387456,0.66664016,0.017898014,-0.7161571,-0.20588744,9.061675071716309,3.454242706298828,-2.2219293117523193,24.18354606628418,-15.33068561553955, 11.363783836364746
331,274404123,0.66558105,0.018737817,-0.7181339,-0.20232281,9.209639549255371,3.2921407222747803,-0.679469645023346,24.300296783447266,-12.527939796447754, 10.864179611206055
332,274420790,0.66437197,0.019667028,-0.72024685,-0.198665,9.579023361206055,2.800755739212036,-0.6284018754959106,25.37735366821289,-13.77319622039795, 10.660916328430176
333,274437457,0.6626655,0.019874262,-0.7226154,-0.1957205,9.494744300842285,3.2549915313720703,-0.03364912047982216,18.97085952758789,-18.50141143798828, 10.331852912902832
334,274454124,0.6602679,0.018999962,-0.7252885,-0.194016,9.486111640930176,2.9322774410247803,0.10190396010875702,8.399906158447266,-24.96393394470215, 9.170683860778809
335,274470791,0.65682393,0.016776057,-0.7285403,-0.19372655,9.263874053955078,3.1401009559631348,0.3337884247303009,-3.8703396320343018,-34.813961029052734, 8.159493446350098
336,274487458,0.6519798,0.013108516,-0.7327946,-0.19432701,9.330389022827148,2.8942768573760986,0.1967584639787674,-13.349040985107422,-48.4025993347168, 9.628742218017578
337,274504125,0.6460642,0.011880086,-0.7389209,-0.19093442,10.312512397766113,2.168835163116455,1.063329815864563,20.314329147338867,-58.59037399291992, 13.978836059570312
338,274520792,0.6386,0.007345193,-0.7458185,-0.1894493,10.519118309020996,2.441129684448242,1.1105198860168457,-2.907383918762207,-74.40339660644531, 20.329204559326172
339,274537459,0.62947357,0.0025586449,-0.75418925,-0.18696257,10.43245792388916,2.748363733291626,1.3836771249771118,3.120112419128418,-89.7046127319336, 23.926671981811523
340,274554126,0.61840296,-0.0024091387,-0.763911,-0.18442388,10.18954086303711,3.673210859298706,0.22050419449806213,4.389013290405273,-105.89403533935547, 22.616941452026367
341,274570793,0.60540664,-0.008439274,-0.77459943,-0.18277787,10.162750244140625,4.293887138366699,1.4771040678024292,-3.605271100997925,-121.47052001953125, 21.9505672454834
342,274587460,0.5910092,-0.014628279,-0.7858671,-0.18140374,10.183690071105957,3.4624693393707275,-0.11585237085819244,-5.0532145500183105,-131.56118774414062, 19.882951736450195
343,274604127,0.5746911,-0.02040131,-0.79831916,-0.17888668,10.827284812927246,3.44645357131958,0.3704029321670532,4.099980354309082,-146.3729248046875, 19.772920608520508
344,274620794,0.5563445,-0.025036598,-0.8120433,-0.17447075,11.254486083984375,3.507972002029419,0.3322960436344147,20.302268981933594,-161.4353485107422, 18.36460304260254
345,274637461,0.53540564,-0.02865343,-0.8273105,-0.16756377,13.098370552062988,3.581738233566284,2.2131187915802,39.55657196044922,-181.04962158203125, 18.82464599609375
346,274654128,0.51236767,-0.031478487,-0.8434082,-0.1585928,15.931657791137695,5.603191375732422,4.602433681488037,54.745426177978516,-195.61141967773438, 19.348527908325195
347,274670795,0.48814043,-0.031965867,-0.85982823,-0.14626369,18.973535537719727,6.048047065734863,6.9895243644714355,82.60395050048828,-201.90838623046875, 16.255582809448242
348,274687462,0.46573558,-0.025804136,-0.8752802,-0.12770882,21.130725860595703,5.319697380065918,7.564859390258789,141.1919708251953,-182.69369506835938, -0.09787169843912125
349,274704129,0.44483292,-0.01622377,-0.88971096,-0.10136651,21.288066864013672,3.804797887802124,5.712817668914795,198.43569946289062,-168.90762329101562, 5.776105880737305
350,274720796,0.42230564,-0.008597583,-0.90337723,-0.07412122,18.391450881958008,6.76296854019165,5.715272903442383,197.29403686523438,-178.1057586669922, 19.46500015258789
351,274737463,0.40073252,-0.006233859,-0.9148511,-0.049219105,15.554621696472168,2.967296600341797,5.313780784606934,166.419189453125,-168.4683074951172, 46.017581939697266
352,274754130,0.3819772,-0.0022115866,-0.9240127,-0.017015047,8.444720268249512,5.539531707763672,-1.1657054424285889,216.29637145996094,-144.22833251953125, 56.78512191772461
353,274770797,0.36767673,0.005749585,-0.92989504,0.008728498,13.092849731445312,10.676445007324219,-2.7847063541412354,185.27371215820312,-106.75155639648438, 15.42733097076416
354,274787464,0.36091146,0.0043330146,-0.932578,0.0047699623,10.57371711730957,11.076748847961426,7.654660701751709,-28.378040313720703,-51.12491226196289, -0.23560121655464172
355,274804131,0.36130163,-0.0004735808,-0.9324215,-0.007162017,5.55458927154541,0.09434700012207031,6.085357189178467,-87.95230102539062,1.5723744630813599, 1.4210631847381592
356,274820798,0.36881936,-0.00008094101,-0.9294355,-0.01106661,5.373046875,2.539454698562622,3.768233060836792,-23.696264266967773,54.473297119140625, -11.632092475891113
357,274837465,0.3823155,0.00080977986,-0.9238628,-0.017661193,3.932260274887085,6.863713264465332,2.5555334091186523,-39.815452575683594,99.24575805664062, -21.168962478637695
358,274854132,0.400118,-0.0011547632,-0.91590756,-0.031904142,4.799068927764893,5.348860263824463,0.9320125579833984,-96.17943572998047,132.4633026123047, -22.609773635864258
359,274870799,0.42215365,-0.0032076947,-0.9052574,-0.04780712,5.298056125640869,3.1001970767974854,-0.5697634816169739,-107.4216079711914,166.523681640625, -25.65581703186035
360,274887466,0.448172,-0.00407001,-0.8917154,-0.06300204,5.851219177246094,3.0511679649353027,-0.0901065468788147,-100.41424560546875,200.08921813964844, -29.645776748657227
361,274904133,0.47789818,-0.0053297053,-0.87478477,-0.07960514,7.15674352645874,2.5841453075408936,0.3740510940551758,-111.65020751953125,233.13807678222656, -29.841093063354492
362,274920800,0.5106793,-0.0060222484,-0.8544201,-0.095588,8.284316062927246,1.5560013055801392,-0.4114169180393219,-107.83553314208984,263.0838317871094, -29.415462493896484
363,274937467,0.5459359,-0.005711017,-0.8304677,-0.11065658,9.87368106842041,1.7520321607589722,-1.6161084175109863,-101.19659423828125,290.8576965332031, -30.34140396118164
364,274954134,0.5829653,-0.0042664493,-0.80285466,-0.124731705,10.912514686584473,1.9183144569396973,-2.5738630294799805,-94.002197265625,315.5633239746094, -31.594396591186523
365,274970801,0.62137175,-0.0008820789,-0.77136487,-0.1374523,12.301100730895996,2.2732818126678467,-2.2523610591888428,-82.05735778808594,340.36541748046875, -35.579750061035156
366,274987468,0.66040915,0.0051258416,-0.7361279,-0.1481535,14.790762901306152,1.5451246500015259,-2.6049063205718994,-63.66227340698242,362.23858642578125, -40.24888610839844
367,275004135,0.6987941,0.013917042,-0.6978273,-0.15662286,17.073974609375,1.1932566165924072,-3.8722376823425293,-42.964195251464844,375.7823791503906, -44.97500228881836
368,275020802,0.73469085,0.026531518,-0.6580954,-0.16259275,19.437725067138672,1.7312794923782349,-6.484934329986572,-13.896943092346191,375.1420593261719, -54.1473388671875
369,275037469,0.76666945,0.038101073,-0.61827374,-0.16883208,21.406700134277344,3.2453999519348145,-9.302781105041504,-19.79886245727539,356.74169921875, -55.19275665283203
370,275054136,0.7934568,0.044030976,-0.5801731,-0.17857023,19.075124740600586,4.503526210784912,-10.92789363861084,-61.19027328491211,318.2366027832031, -55.285369873046875
371,275070803,0.8131549,0.046121355,-0.5478707,-0.19102342,16.356597900390625,3.488680362701416,-13.923969268798828,-83.70230102539062,252.9429168701172, -61.72981643676758
372,275087470,0.8255314,0.04448899,-0.52413756,-0.2044476,12.989495277404785,0.4464561343193054,-19.28468132019043,-94.65711975097656,172.43008422851562, -60.05876159667969
373,275104137,0.8306233,0.039901007,-0.5116842,-0.21599181,9.707763671875,-2.1761627197265625,-23.81589698791504,-86.62703704833984,78.80603790283203, -45.56317138671875
374,275120804,0.8273546,0.034208793,-0.51409763,-0.22364771,7.060244083404541,-1.1394639015197754,-24.461212158203125,-54.96007537841797,-35.827964782714844, -27.86812973022461
375,275137471,0.81586725,0.025478657,-0.5309754,-0.22754519,10.281818389892578,-0.5033895969390869,-20.325763702392578,-34.85734176635742,-150.71438598632812, -5.01378870010376
376,275154138,0.80103165,0.018825023,-0.55408293,-0.22580199,15.379003524780273,4.372220039367676,7.729949951171875,7.6615400314331055,-193.4518280029297, 14.875432014465332
377,275170805,0.7883427,0.00851822,-0.5707029,-0.22965533,16.232263565063477,0.6150497794151306,13.850802421569824,-44.12400817871094,-155.9740447998047, 0.46873655915260315
378,275187472,0.77409434,0.006094007,-0.5916953,-0.2250283,16.786773681640625,-3.466301202774048,-6.066736698150635,38.93378829956055,-172.9569549560547, 13.271578788757324
379,275204139,0.75781804,0.0015409087,-0.6123192,-0.2253328,14.978333473205566,6.714595317840576,-3.332237720489502,7.025156497955322,-182.6702880859375, -7.549068450927734
380,275220806,0.74240535,-0.0034161746,-0.6304843,-0.2265229,13.617337226867676,-1.5664355754852295,-2.4079015254974365,-2.6470253467559814,-166.8140411376953, -9.112318992614746
381,275237473,0.72825396,-0.0042219907,-0.6470012,-0.22587204,12.781294822692871,0.4253700375556946,-2.2298996448516846,23.97861671447754,-146.49200439453125, -15.750076293945312
382,275254140,0.71651804,-0.002915755,-0.6604414,-0.22452377,10.030701637268066,4.245398044586182,-1.0311285257339478,32.96726608276367,-117.06398010253906, -17.83098602294922
383,275270807,0.70764166,-0.0018863648,-0.67030317,-0.22345869,9.731331825256348,5.015174388885498,-0.44481825828552246,24.800758361816406,-86.8989028930664, -13.469538688659668
384,275287474,0.7009301,-0.0016377608,-0.67758447,-0.22265218,9.640800476074219,5.206671237945557,0.16844400763511658,15.88752555847168,-65.58297729492188, -7.741089820861816
385,275304141,0.6952781,-0.00400404,-0.6831228,-0.22341844,11.093520164489746,3.890488862991333,0.20111212134361267,-6.667804718017578,-56.2540168762207, -1.4660106897354126
386,275320808,0.6901751,-0.0068326066,-0.6881697,-0.22368367,11.153796195983887,2.808755397796631,0.009821958839893341,-7.269799709320068,-52.083831787109375, 3.967669725418091
387,275337475,0.6854138,-0.009317571,-0.693007,-0.2232999,10.368583679199219,3.0618395805358887,-0.4433037042617798,-2.8866147994995117,-49.006019592285156, 5.956060409545898
388,275354142,0.68118966,-0.009911421,-0.6977547,-0.22140694,9.60774040222168,2.9796488285064697,-0.9649630188941956,13.166565895080566,-43.22526550292969, 4.89329719543457
389,275370809,0.67746323,-0.009829257,-0.7021322,-0.21899268,9.58742618560791,3.0833702087402344,-1.123396873474121,18.290983200073242,-38.13225173950195, 4.876195907592773
390,275387476,0.67406666,-0.011523383,-0.70573044,-0.21782142,9.345953941345215,3.6478171348571777,-1.2868213653564453,2.8725736141204834,-35.51495361328125, 8.214497566223145
391,275404143,0.6709305,-0.014611905,-0.70871687,-0.217622,9.25173568725586,3.2797906398773193,-1.1592686176300049,-9.195899963378906,-33.440792083740234, 10.92660140991211
392,275420810,0.6679373,-0.017870545,-0.7114883,-0.21754329,9.352313041687012,2.952686309814453,-0.04497472569346428,-10.866633415222168,-32.008060455322266, 11.442811965942383
393,275437477,0.66479856,-0.020689307,-0.7144103,-0.21733178,9.60014533996582,3.131267547607422,-0.21514034271240234,-7.975764751434326,-32.7933349609375, 9.670044898986816
394,275454144,0.6613016,-0.022919051,-0.7178206,-0.2165387,9.632574081420898,2.611793041229248,-0.16742108762264252,-1.7495735883712769,-36.011409759521484, 8.836264610290527
395,275470811,0.657361,-0.023800315,-0.72200257,-0.21452919,9.635025978088379,2.1635777950286865,-0.07171925157308578,11.485682487487793,-39.91230010986328, 6.928847789764404
396,275487478,0.6526944,-0.023864696,-0.727059,-0.21167421,9.574409484863281,2.3924145698547363,0.39892852306365967,20.553476333618164,-46.42401885986328, 5.475513458251953
397,275504145,0.64702773,-0.023771388,-0.73299676,-0.20858082,9.28426742553711,3.162135124206543,0.42360684275627136,23.572647094726562,-55.21768569946289, 4.15440034866333
398,275520812,0.6401681,-0.023891648,-0.7399617,-0.20511204,9.322942733764648,2.8681795597076416,0.0836380124092102,25.798704147338867,-66.19599151611328, 5.027497291564941
399,275537479,0.6325821,-0.023001133,-0.74785376,-0.20006475,9.696686744689941,3.021718978881836,0.4797523617744446,39.492862701416016,-72.82594299316406, 5.656682014465332
400,275554146,0.6235822,-0.023674507,-0.7564386,-0.19592333,9.901728630065918,3.025880813598633,0.2833326458930969,28.773473739624023,-85.14805603027344, 7.7059102058410645
401,275570813,0.61362135,-0.02506876,-0.7654484,-0.1921704,10.533841133117676,3.313718557357788,0.7264042496681213,24.074771881103516,-92.91155242919922, 8.430854797363281
402,275587480,0.60230285,-0.026722826,-0.7753303,-0.18809652,11.028250694274902,2.842377185821533,-0.710822343826294,25.58625602722168,-104.17693328857422, 9.21506404876709
403,275604147,0.5899179,-0.028392017,-0.7858662,-0.18331765,11.298712730407715,2.370534896850586,0.09928764402866364,29.971952438354492,-112.73625183105469, 10.708759307861328
404,275620814,0.5760549,-0.030493334,-0.7971513,-0.17827263,11.117948532104492,2.315005302429199,-0.27464672923088074,30.31226348876953,-124.39916229248047, 12.110844612121582
405,275637481,0.56034636,-0.033642765,-0.8092124,-0.17336577,11.133261680603027,2.4364278316497803,0.2996000349521637,25.97876739501953,-138.87933349609375, 14.87814998626709
406,275654148,0.54251724,-0.03656336,-0.82241267,-0.16726036,11.808370590209961,2.5239813327789307,0.48383408784866333,34.39146041870117,-155.12208557128906, 15.434886932373047
407,275670815,0.5221297,-0.03909551,-0.8370555,-0.1587154,13.84426212310791,3.3529274463653564,2.6668076515197754,50.6828727722168,-175.1868896484375, 19.024330139160156
408,275687482,0.499813,-0.040317483,-0.85262483,-0.14694564,17.125736236572266,5.573334693908691,5.507199287414551,74.45822143554688,-189.14137268066406, 20.709692001342773
409,275704149,0.47853142,-0.034785282,-0.86809206,-0.12733455,20.36627769470215,6.156601905822754,8.78936767578125,143.88070678710938,-178.19781494140625, 9.14594554901123
410,275720816,0.4591864,-0.0236689,-0.88245136,-0.09933654,22.347007751464844,4.506414413452148,7.566240310668945,211.88052368164062,-160.28668212890625, 5.3949737548828125
411,275737483,0.43696624,-0.015341042,-0.89676636,-0.068084545,21.765487670898438,7.118080139160156,5.657100677490234,222.37078857421875,-180.20529174804688, 30.660688400268555
412,275754150,0.41142043,-0.015188179,-0.91017336,-0.045688786,18.450716018676758,6.220493793487549,7.313266754150391,142.43844604492188,-201.01547241210938, 53.05450439453125
413,275770817,0.38854623,-0.014916951,-0.92114353,-0.017436093,12.787995338439941,4.53701639175415,3.3714406490325928,178.9866485595703,-178.1190643310547, 70.02616882324219
414,275787484,0.37069854,-0.011045162,-0.92865497,0.0078072925,11.495625495910645,9.106236457824707,-2.101790428161621,169.6534881591797,-136.35543823242188, 40.184635162353516
415,275804151,0.36002904,-0.01298252,-0.932847,0.0027078348,14.953139305114746,14.741512298583984,7.920031547546387,-38.119232177734375,-79.45240783691406, -0.15607526898384094
416,275820818,0.3573889,-0.020791912,-0.93356913,-0.017029699,6.987105846405029,1.7044579982757568,8.45753002166748,-145.65631103515625,-18.084192276000977, 1.476216435432434
417,275837485,0.36353058,-0.02293736,-0.9309113,-0.026909467,5.741725921630859,0.01750091090798378,5.915674686431885,-67.59819030761719,45.77425003051758, -9.181026458740234
418,275854152,0.37747228,-0.021009743,-0.9252267,-0.03208328,4.493758678436279,5.340439796447754,4.277443885803223,-26.6425838470459,103.24272155761719, -21.58906364440918
419,275870819,0.39752734,-0.02041357,-0.9163625,-0.042840026,5.1540093421936035,6.371367454528809,3.2510173320770264,-65.4074935913086,150.8934783935547, -25.78409767150879
420,275887486,0.42223483,-0.021018188,-0.90446436,-0.056751546,5.999225616455078,3.391176700592041,0.7921962141990662,-88.78579711914062,188.58848571777344, -25.02385902404785
421,275904153,0.45160577,-0.01872271,-0.8894751,-0.06734997,6.39946985244751,2.2660064697265625,-0.4301092326641083,-60.287288665771484,227.2330780029297, -31.172330856323242
422,275920820,0.4851018,-0.0140779475,-0.8709761,-0.07667582,7.515681743621826,2.5070245265960693,-0.058818519115448,-46.32597732543945,264.3164978027344, -39.210975646972656
423,275937487,0.52195495,-0.008783106,-0.84845114,-0.087274335,8.861355781555176,1.984246850013733,-0.250986784696579,-53.57370376586914,298.35400390625, -45.187782287597656
424,275954154,0.5613222,-0.0016750115,-0.82185733,-0.097291015,10.081896781921387,1.4397820234298706,-1.8782151937484741,-45.972007751464844,328.7146301269531, -51.916656494140625
425,275970821,0.6021804,0.008476741,-0.7911627,-0.10662561,11.821414947509766,3.0804343223571777,-3.3598809242248535,-33.11860275268555,355.0533142089844, -65.43502044677734
426,275987488,0.6430613,0.020050982,-0.7565132,-0.11729589,12.320467948913574,2.381429433822632,-4.346157073974609,-37.32795715332031,372.6066589355469, -78.91998291015625
427,276004155,0.6829662,0.033732302,-0.7183288,-0.12815364,15.060738563537598,2.280921697616577,-4.681666851043701,-31.894073486328125,384.8846435546875, -91.9566650390625
428,276020822,0.72114694,0.047024872,-0.6771869,-0.13839757,18.66617774963379,0.6514095067977905,-6.735796928405762,-32.96755599975586,390.13092041015625, -89.36653137207031
429,276037489,0.7563427,0.057147358,-0.6346616,-0.14793548,21.94805908203125,2.6382863521575928,-8.445331573486328,-45.76668930053711,380.4047546386719, -74.42359161376953
430,276054156,0.7867978,0.06218597,-0.5930351,-0.15934865,21.223651885986328,6.118415832519531,-11.026442527770996,-77.65432739257812,349.2470703125, -66.49024963378906
431,276070823,0.80986905,0.064769804,-0.55665433,-0.17335854,17.94618797302246,5.031854152679443,-14.42590618133545,-92.73593139648438,287.0648193359375, -76.40947723388672
432,276087490,0.82510847,0.06881086,-0.5289644,-0.18616654,15.065106391906738,0.8140270709991455,-16.500469207763672,-66.17327117919922,211.14968872070312, -80.7496566772461
433,276104157,0.8335767,0.069551535,-0.5106686,-0.19882229,11.725141525268555,-0.8069136142730713,-18.633325576782227,-69.19982147216797,129.2678680419922, -72.16537475585938
434,276120824,0.8354475,0.062531255,-0.50311005,-0.21212746,9.211904525756836,-1.015721321105957,-20.93674659729004,-98.1845932006836,33.86088562011719, -52.56990051269531
435,276137491,0.8295991,0.051605355,-0.50878245,-0.22414923,7.750661849975586,-0.9023929834365845,-19.54212188720703,-93.63377380371094,-73.76811981201172, -37.29293441772461
436,276154158,0.8171698,0.037579972,-0.52555835,-0.23368758,8.978217124938965,-2.253119468688965,-17.50209617614746,-83.23780822753906,-163.83734130859375, -18.500551223754883
437,276170825,0.80143297,0.024459066,-0.5478485,-0.23868239,15.943324089050293,-0.5862504839897156,-3.44162654876709,-52.080665588378906,-203.98727416992188, -0.1609753519296646
438,276187492,0.7905429,0.017608527,-0.56296664,-0.24041797,12.433760643005371,4.0273919105529785,22.72134780883789,-17.820207595825195,-135.27700805664062, 0.8976496458053589
439,276204159,0.7813545,0.018109035,-0.5785395,-0.23334447,16.620088577270508,-7.802323818206787,-2.286428928375244,56.85127639770508,-118.15007781982422, 23.196931838989258
440,276220826,0.76900524,0.027807666,-0.599152,-0.221077,17.231767654418945,6.462918758392334,-4.815289497375488,135.40794372558594,-142.36489868164062, 9.91901969909668
441,276237493,0.7553457,0.02098676,-0.61557704,-0.22378072,16.94342613220215,5.989269733428955,-0.4032270610332489,-19.76774787902832,-153.51535034179688, -3.967883586883545
442,276254160,0.74203986,0.017355364,-0.6315687,-0.22404696,14.82444953918457,-4.516557216644287,0.28048017621040344,6.394124507904053,-144.48753356933594, -4.302059173583984
443,276270827,0.7292775,0.017550444,-0.646463,-0.22345504,12.02584171295166,1.4888088703155518,-0.011580467224121094,27.881423950195312,-130.54006958007812, -15.916796684265137
444,276287494,0.7184057,0.017213559,-0.658565,-0.22335944,9.009780883789062,5.762834548950195,-0.7419657111167908,18.46915626525879,-109.03064727783203, -13.487276077270508
445,276304161,0.709782,0.018339297,-0.66843987,-0.22149897,8.6603364944458,5.694241523742676,-0.3688419461250305,30.02978515625,-85.39665222167969, -8.159700393676758
446,276320828,0.70304143,0.019996798,-0.67644376,-0.21853465,9.839349746704102,5.211605072021484,-0.12838266789913177,34.57829666137695,-66.69413757324219, -2.5552122592926025
447,276337495,0.6974694,0.022689926,-0.6833792,-0.21451141,10.3720064163208,3.144702911376953,-0.43874090909957886,42.758304595947266,-54.41179275512695, -0.6220917105674744
448,276354162,0.6925206,0.02594031,-0.68949693,-0.21056305,10.922651290893555,1.7085679769515991,-0.989020586013794,43.809181213378906,-46.76314163208008, -2.8096516132354736
449,276370829,0.6882201,0.029626945,-0.69485563,-0.20652261,10.386200904846191,2.280764579772949,-1.531722903251648,45.09627151489258,-39.448673248291016, -3.6578989028930664
450,276387496,0.68480414,0.033756256,-0.69938445,-0.20190452,10.146103858947754,2.6537842750549316,-1.2279400825500488,48.579864501953125,-30.564550399780273, -1.9660917520523071
451,276404163,0.6819881,0.039116524,-0.70359606,-0.1957427,9.756861686706543,3.673151731491089,-0.73076331615448,61.22881317138672,-24.131641387939453, 0.13245169818401337
452,276420830,0.6795277,0.044166416,-0.7075184,-0.18896967,9.505828857421875,3.813155174255371,-0.9816809296607971,62.25572204589844,-21.32776641845703, 4.900905132293701
453,276437497,0.677228,0.0479578,-0.7111024,-0.18274549,9.422479629516602,3.510469436645508,-1.0724267959594727,53.22628402709961,-20.784807205200195, 8.568065643310547
454,276454164,0.67485446,0.051468167,-0.71473515,-0.17628545,9.401076316833496,3.523742437362671,-0.2193940430879593,53.16514587402344,-21.66265106201172, 10.965191841125488
455,276470831,0.67226154,0.054484542,-0.7185421,-0.16968645,9.280404090881348,3.056694507598877,-0.6268389821052551,51.851375579833984,-24.126190185546875, 13.836002349853516
456,276487498,0.6692249,0.056453917,-0.72260743,-0.16367532,9.044909477233887,3.1903069019317627,-0.5554471015930176,44.58732604980469,-28.97327423095703, 15.870320320129395
457,276504165,0.6656605,0.05744986,-0.7269636,-0.158493,9.064416885375977,2.9010396003723145,-0.36528533697128296,36.53547286987305,-34.368316650390625, 16.41607666015625
458,276520832,0.66141427,0.057832707,-0.73178816,-0.15386099,9.144885063171387,3.5279507637023926,-0.23004794120788574,31.76023292541504,-40.83066177368164, 16.407005310058594
459,276537499,0.6566287,0.057560563,-0.73687565,-0.150134,8.925954818725586,4.184498310089111,-0.04217332601547241,24.72299575805664,-45.81914520263672, 15.132272720336914
460,276554166,0.65122104,0.056610025,-0.7423564,-0.14701615,8.800370216369629,4.398149013519287,-0.3047153949737549,19.250078201293945,-51.70906066894531, 15.350845336914062
461,276570833,0.64508444,0.055277545,-0.74833006,-0.14426753,8.809959411621094,3.720999002456665,-0.029849834740161896,16.472885131835938,-58.18107604980469, 15.121975898742676
462,276587500,0.6381403,0.053942993,-0.7549087,-0.14135282,9.76789665222168,2.363975763320923,-0.32836517691612244,18.209291458129883,-64.99532318115234, 15.316287994384766
463,276604167,0.6305556,0.052221585,-0.7618927,-0.1385364,10.874585151672363,1.8913079500198364,-0.1400507241487503,16.672239303588867,-70.527587890625, 16.41490364074707
464,276620834,0.62217605,0.050244614,-0.7694317,-0.13545424,11.109413146972656,2.0360183715820312,0.21445834636688232,17.743581771850586,-77.28726196289062, 18.344545364379883
465,276637501,0.61199504,0.046335943,-0.7779786,-0.1344055,10.376790046691895,3.6218700408935547,0.05578145384788513,0.29088637232780457,-93.67034149169922, 18.530658721923828
466,276654168,0.60003644,0.038879097,-0.7871536,-0.13723853,9.512866020202637,4.586891174316406,-0.1320730596780777,-34.203311920166016,-110.36392974853516, 19.740768432617188
467,276670835,0.5857278,0.029948426,-0.79759544,-0.14095415,9.237171173095703,5.7645745277404785,0.22693434357643127,-43.260982513427734,-129.9815673828125, 22.235376358032227
468,276687502,0.5689797,0.022347065,-0.80976194,-0.14159305,9.357096672058105,5.522188663482666,0.16507188975811005,-18.859222412109375,-148.43280029296875, 25.37363052368164
469,276704169,0.54956645,0.013372828,-0.823214,-0.14183378,12.126736640930176,2.983586311340332,1.1558072566986084,-20.268781661987305,-169.60501098632812, 32.191986083984375
470,276720836,0.52780205,0.0076460517,-0.8383505,-0.13614474,15.632638931274414,3.5486443042755127,3.421222686767578,27.449886322021484,-185.63442993164062, 34.07426071166992
471,276737503,0.5043888,0.0027547525,-0.8538419,-0.128604,18.702051162719727,4.001303195953369,6.178346633911133,41.60356903076172,-195.65969848632812, 34.44560241699219
472,276754170,0.4804666,0.0003256068,-0.86901176,-0.118197486,20.755510330200195,3.5023467540740967,8.034828186035156,66.70568084716797,-195.46282958984375, 29.476638793945312
473,276770837,0.45938185,0.0047711967,-0.8826308,-0.09954311,22.463138580322266,3.4556033611297607,7.477243423461914,137.4885711669922,-167.96466064453125, 17.933124542236328
474,276787504,0.43729874,0.007901131,-0.8959196,-0.0776901,20.60255241394043,4.318225860595703,5.379858016967773,152.58103942871094,-173.97830200195312, 35.338130950927734
475,276804171,0.4135569,0.005804641,-0.90844566,-0.06053062,19.09050750732422,5.700021743774414,6.429567337036133,107.6458511352539,-185.11346435546875, 52.52582931518555
476,276820838,0.3921173,0.0028978281,-0.9191261,-0.03799105,11.800710678100586,5.332240104675293,3.2429091930389404,138.13307189941406,-165.77297973632812, 73.80955505371094
477,276837505,0.37431878,0.0031413794,-0.9271601,-0.015808959,9.320292472839355,9.319756507873535,-3.917628765106201,143.62811279296875,-134.88478088378906, 53.887657165527344
478,276854172,0.36475646,0.0029334477,-0.93099993,-0.0135506885,17.174867630004883,15.75987720489502,7.9830169677734375,14.875082969665527,-72.05262756347656, 6.355586528778076
479,276870839,0.36430207,-0.0029698815,-0.93102694,-0.021550264,4.900144100189209,3.865868330001831,8.989620208740234,-65.46082305908203,-5.102504730224609, 17.9284610748291
480,276887506,0.37177163,-0.0028344402,-0.92810845,-0.019815082,5.364429950714111,2.1709582805633545,5.553902626037598,11.718557357788086,53.624176025390625, 4.902060508728027
481,276904173,0.3860336,0.000585499,-0.9223329,-0.016734257,4.634766578674316,7.551026344299316,4.128480434417725,28.446664810180664,104.65679168701172, -11.618280410766602
482,276920840,0.40642735,-0.00062582747,-0.91328937,-0.026817212,4.626701354980469,8.020517349243164,4.543410778045654,-67.6758041381836,151.61553955078125, -16.45450782775879
483,276937507,0.4322658,-0.004058156,-0.900698,-0.043280765,5.5341691970825195,3.104348659515381,2.36545467376709,-114.54732513427734,195.32257080078125, -19.28715705871582
484,276954174,0.46335447,-0.0039386973,-0.88436866,-0.05638741,6.556148529052734,3.36663556098938,1.9236438274383545,-84.17987060546875,239.9084014892578, -29.635934829711914
485,276970841,0.49889946,-0.002988156,-0.8637631,-0.070739694,7.738096237182617,3.815016269683838,1.2032368183135986,-90.65160369873047,280.9991455078125, -36.810203552246094
486,276987508,0.53787416,0.00011453626,-0.8388502,-0.08379679,9.341243743896484,2.1537716388702393,-0.6974145174026489,-77.60444641113281,317.1829833984375, -43.377288818359375
487,277004175,0.5793699,0.0064731245,-0.8094854,-0.0949863,11.764753341674805,2.5626959800720215,-2.0889155864715576,-57.367427825927734,350.11224365234375, -53.79981994628906
488,277020842,0.6225058,0.015563104,-0.77515036,-0.106708676,13.0466947555542,1.880646824836731,-3.238572597503662,-52.7675666809082,380.87457275390625, -70.27437591552734
489,277037509,0.66495943,0.02743307,-0.7372865,-0.11612575,13.973848342895508,-0.6298117637634277,-4.213140964508057,-31.111297607421875,394.7028503417969, -76.09200286865234
490,277054176,0.7052188,0.04072795,-0.69662327,-0.12539516,17.45018196105957,1.00003981590271,-5.560644149780273,-25.90997886657715,397.5830078125, -84.93650817871094
491,277070843,0.74210024,0.050648574,-0.6544123,-0.13589242,20.63157081604004,2.154787063598633,-8.37553882598877,-48.31532287597656,385.809326171875, -78.07643127441406
492,277087510,0.7738333,0.055965964,-0.61295015,-0.14947374,20.993946075439453,5.622705459594727,-10.592901229858398,-83.55955505371094,353.4826354980469, -77.73248291015625
493,277104177,0.79916227,0.05495438,-0.5746173,-0.16773571,19.94046401977539,4.2751312255859375,-14.056249618530273,-131.29486083984375,301.70294189453125, -81.35111236572266
494,277120844,0.81679124,0.053506766,-0.54403836,-0.18442224,15.675225257873535,0.892776608467102,-17.67011260986328,-115.66548156738281,228.95181274414062, -76.9566879272461
495,277137511,0.8269217,0.04632746,-0.5231579,-0.20089881,12.545238494873047,0.21215036511421204,-21.197607040405273,-132.05682373046875,139.490478515625, -60.3248176574707
496,277154178,0.8297199,0.034391627,-0.5139016,-0.21514586,9.443158149719238,-2.532980442047119,-25.191776275634766,-132.72427368164062,41.45671081542969, -36.990970611572266
497,277170845,0.82416826,0.02616004,-0.5201186,-0.22257416,8.005497932434082,-3.3333234786987305,-24.248903274536133,-62.73832702636719,-68.9295654296875, -19.945220947265625
498,277187512,0.8115598,0.018107783,-0.5391485,-0.22441442,12.451530456542969,0.2969914972782135,-19.352853775024414,-20.923587799072266,-165.2197265625, 2.5334396362304688
499,277204179,0.7981279,0.01402487,-0.55994695,-0.22193485,16.061532974243164,8.641746520996094,15.256771087646484,20.003042221069336,-171.23599243164062, 10.840350151062012
500,277220846,0.78711164,0.005462288,-0.57439613,-0.22471061,14.769185066223145,-0.41595304012298584,9.263322830200195,-34.70369338989258,-134.55030822753906, 2.3758997917175293
501,277237513,0.77370095,0.0063920505,-0.5948366,-0.21798109,16.429534912109375,-0.5936163067817688,-8.11860466003418,63.60117721557617,-161.48426818847656, 12.808221817016602
502,277254180,0.75817835,0.0021399623,-0.6146579,-0.21761696,15.84034252166748,6.526881694793701,-2.4101829528808594,9.135403633117676,-174.74964904785156, -3.114021062850952
503,277270847,0.7429246,-0.005577691,-0.6320246,-0.22040294,13.771135330200195,-0.40438738465309143,-1.946423053741455,-25.941076278686523,-166.00135803222656, -4.485601425170898
504,277287514,0.72868794,-0.010890762,-0.64766955,-0.2223058,12.021374702453613,0.0015472599770873785,-1.5058716535568237,-12.443890571594238,-149.16331481933594, -8.859172821044922
505,277304181,0.7164554,-0.013712905,-0.6608195,-0.22320765,10.232754707336426,2.0872416496276855,-0.6678683757781982,0.885985255241394,-123.97843933105469, -11.699469566345215
506,277320848,0.7064447,-0.014758231,-0.6713456,-0.22363755,10.13093376159668,4.367320537567139,-0.2545328736305237,7.926120281219482,-98.297119140625, -13.7955322265625
507,277337515,0.6984769,-0.016257059,-0.6794231,-0.2241659,9.794233322143555,4.271205902099609,-0.0481589213013649,1.7333449125289917,-77.67450714111328, -8.763612747192383
508,277354182,0.69166136,-0.020330027,-0.68542075,-0.22669357,10.463342666625977,3.8357009887695312,-0.27482569217681885,-23.030784606933594,-66.06884765625, -4.305594444274902
509,277370849,0.6857632,-0.025328612,-0.69037867,-0.22905245,11.307534217834473,2.2132227420806885,0.3123752474784851,-28.124961853027344,-58.29052734375, 2.453521490097046
510,277387516,0.6805054,-0.030348852,-0.69474673,-0.23090835,10.583984375,3.365356922149658,-0.6701272130012512,-26.657743453979492,-52.62266159057617, 6.035892963409424
511,277404183,0.67573637,-0.036955256,-0.69809073,-0.23384692,9.539061546325684,3.8537657260894775,-1.154056191444397,-40.752532958984375,-47.802555084228516, 9.550732612609863
512,277420850,0.6715308,-0.04345075,-0.7007623,-0.2368351,9.734599113464355,2.9246606826782227,-0.8221744894981384,-41.43484878540039,-41.803741455078125, 9.887093544006348
513,277437517,0.6679319,-0.047719777,-0.70358515,-0.23781936,9.79979419708252,2.636502981185913,-0.8265427947044373,-21.03885841369629,-36.5623779296875, 9.364750862121582
514,277454184,0.6645187,-0.05015718,-0.7066719,-0.23772724,9.613303184509277,2.7806999683380127,-0.5641946196556091,-6.916086673736572,-34.24846267700195, 5.666200160980225
515,277470851,0.66101164,-0.050609622,-0.7103881,-0.23632857,9.653462409973145,2.3026609420776367,-0.7560821771621704,9.476838111877441,-34.815528869628906, 1.6209006309509277
516,277487518,0.6574355,-0.049755763,-0.714564,-0.2338842,9.260025024414062,2.5919368267059326,-0.7125372886657715,21.274900436401367,-35.493717193603516, -0.28677430748939514
517,277504185,0.6534856,-0.048327137,-0.7192273,-0.23094004,9.249698638916016,2.6409571170806885,-0.6031517386436462,26.96933937072754,-38.80410385131836, -1.6229612827301025
518,277520852,0.64941955,-0.045752496,-0.7243335,-0.22694126,9.577863693237305,2.5917110443115234,-0.2190406620502472,38.03377151489258,-39.91178512573242, -2.8887972831726074
519,277537519,0.6447565,-0.04270523,-0.7300373,-0.22251128,9.756402015686035,2.5792746543884277,0.46447354555130005,43.005558013916016,-44.98754119873047, -4.442596435546875
520,277554186,0.63954926,-0.04034551,-0.73589635,-0.21864574,9.263896942138672,3.6848666667938232,0.11009283363819122,37.23244857788086,-49.3237419128418, -4.380035400390625
521,277570853,0.63382673,-0.038243365,-0.7421261,-0.21459332,9.072661399841309,2.899256706237793,-0.7209903001785278,37.47198486328125,-54.029666900634766, -3.1242337226867676
522,277587520,0.627639,-0.03688095,-0.74854463,-0.21069062,9.066253662109375,3.8023815155029297,0.5708283185958862,33.676734924316406,-58.289974212646484, -0.7411664724349976
523,277604187,0.6202458,-0.03657744,-0.75563174,-0.20731235,9.576982498168945,3.3203656673431396,-0.29710549116134644,27.05691146850586,-68.8255844116211, 0.5447862148284912
524,277620854,0.61156666,-0.036132976,-0.763884,-0.20288427,10.441905975341797,3.0658698081970215,0.967505931854248,34.45844650268555,-80.56888580322266, 2.1686155796051025
525,277637521,0.60109234,-0.036028843,-0.77338415,-0.19815974,11.05239200592041,2.953885555267334,0.06928549706935883,35.91260528564453,-95.83690643310547, 2.384547233581543
526,277654188,0.58875227,-0.03662484,-0.7839884,-0.19336991,11.582382202148438,1.7928380966186523,0.8165042996406555,34.41542434692383,-111.33355712890625, 3.5595602989196777
527,277670855,0.57472485,-0.037996326,-0.7953902,-0.18868606,11.644145011901855,1.7004680633544922,-0.29828888177871704,31.35884666442871,-124.71603393554688, 4.847620010375977
528,277687522,0.5586565,-0.040151224,-0.8078081,-0.18367636,11.676671981811523,2.321704387664795,0.5639126896858215,30.829288482666016,-141.04318237304688, 7.491568565368652
529,277704189,0.5402012,-0.041772503,-0.8216998,-0.17676988,12.135588645935059,2.5610649585723877,0.1264939308166504,44.640464782714844,-159.87347412109375, 8.380619049072266
530,277720856,0.51905805,-0.04269316,-0.83720297,-0.16687669,14.14373779296875,3.979637861251831,3.6710867881774902,65.31609344482422,-181.1201934814453, 11.780204772949219
531,277737523,0.49599463,-0.042104863,-0.8536518,-0.15328152,17.659517288208008,5.160991191864014,5.685186386108398,92.57442474365234,-195.03208923339844, 13.827908515930176
532,277754190,0.47364163,-0.034972932,-0.86994404,-0.1328093,21.617013931274414,6.333012104034424,9.76705551147461,155.36221313476562,-185.59764099121094, -0.32578396797180176
533,277770857,0.45430794,-0.020084126,-0.8847066,-0.1024471,23.127906799316406,4.268038749694824,7.496291637420654,239.2162322998047,-158.108642578125, -11.36451530456543
534,277787524,0.43083158,-0.007772561,-0.899761,-0.06895231,20.561710357666016,6.991138935089111,5.746173858642578,249.9255828857422,-186.7230987548828, 11.173977851867676
535,277804191,0.40556163,-0.0033482332,-0.9130305,-0.043407753,17.488506317138672,3.9545609951019287,6.261776924133301,176.4663848876953,-196.0363006591797, 35.7362174987793
536,277820858,0.38389704,0.0046160105,-0.9233425,-0.006382296,12.237606048583984,5.096859931945801,0.6680415868759155,257.6838684082031,-164.56138610839844, 46.7468376159668
537,277837525,0.36785612,0.015448006,-0.92939454,0.02587623,10.234539985656738,11.660015106201172,-1.670863389968872,234.64248657226562,-117.69537353515625, 16.157758712768555
538,277854192,0.35987434,0.017208818,-0.9325637,0.022798158,12.749028205871582,15.40926742553711,8.848267555236816,-14.359012603759766,-61.06718444824219, -16.89039421081543
539,277870859,0.35985032,0.013353244,-0.9328975,0.0056688436,5.863052845001221,1.5197190046310425,7.431130886077881,-118.68115997314453,-4.006017208099365, -17.13950538635254
540,277887526,0.36797482,0.014120009,-0.9297263,-0.0021165903,5.396331310272217,0.8295251131057739,5.693360328674316,-47.91645050048828,57.504852294921875, -24.334339141845703
541,277904193,0.3836697,0.016725648,-0.9232883,-0.0075351014,4.650267124176025,6.0589518547058105,5.1198649406433105,-28.91700553894043,114.34889221191406, -30.316532135009766
542,277920860,0.40534827,0.01576401,-0.9137874,-0.020907875,5.027285099029541,5.44277286529541,2.6921486854553223,-89.62528991699219,159.26113891601562, -28.663528442382812
543,277937527,0.43129802,0.014495842,-0.90141517,-0.034966547,6.187848091125488,2.7960944175720215,-0.4471871256828308,-95.64488983154297,193.9430389404297, -28.315309524536133
544,277954194,0.46139312,0.014970688,-0.8857876,-0.047672514,6.989462852478027,2.2036423683166504,-0.8313696980476379,-83.2920150756836,229.83619689941406, -34.43009567260742
545,277970861,0.49488476,0.015917622,-0.8666904,-0.060694747,7.693521976470947,2.1595208644866943,-1.0455553531646729,-85.22352600097656,261.65411376953125, -37.54721450805664
546,277987528,0.5309097,0.017168775,-0.84399253,-0.07427738,8.617777824401855,2.2181193828582764,-1.932404637336731,-89.32717895507812,289.07623291015625, -40.6007080078125
547,278004195,0.56895524,0.019676175,-0.8174542,-0.087589405,10.017047882080078,2.232900619506836,-2.4962751865386963,-85.38411712646484,315.52093505859375, -46.32170486450195
548,278020862,0.60842973,0.023048226,-0.7868028,-0.1011119,11.442886352539062,2.7751657962799072,-2.6996583938598633,-85.8989486694336,340.17144775390625, -51.691139221191406
549,278037529,0.64786595,0.026995061,-0.7524453,-0.11561817,12.82251262664795,2.9314136505126953,-3.2240376472473145,-91.39869689941406,355.7598571777344, -59.52803039550781
550,278054196,0.68607247,0.03097113,-0.7149516,-0.13110936,15.790960311889648,1.154988408088684,-4.818914413452148,-98.61991882324219,363.27459716796875, -65.62605285644531
551,278070863,0.72231686,0.03538901,-0.67539144,-0.1444046,19.092628479003906,0.5613337159156799,-6.519010066986084,-87.3882827758789,364.2847595214844, -59.67829513549805
552,278087530,0.75549614,0.039125178,-0.6351631,-0.15576564,20.39241600036621,2.5847506523132324,-8.561542510986328,-81.73916625976562,353.2825622558594, -50.169090270996094
553,278104197,0.7840719,0.039553467,-0.5959099,-0.16899283,19.81144142150879,5.445039749145508,-10.752681732177734,-104.94912719726562,324.2049255371094, -50.15803146362305
554,278120864,0.8062818,0.038940907,-0.5612765,-0.1826533,17.142122268676758,3.4089956283569336,-12.44403076171875,-105.2942886352539,272.0845642089844, -54.38938522338867
555,278137531,0.82175094,0.03989398,-0.5343282,-0.19397837,14.211084365844727,0.7616561055183411,-14.787954330444336,-76.13741302490234,206.31158447265625, -53.896514892578125
556,278154198,0.8309255,0.039512284,-0.5163839,-0.20334585,12.051755905151367,-2.1133062839508057,-19.063369750976562,-62.89491653442383,131.32440185546875, -43.954734802246094
557,278170865,0.83285606,0.038865183,-0.51091677,-0.20929553,8.64133358001709,-1.188996434211731,-21.52510643005371,-32.90485763549805,35.225120544433594, -30.295738220214844
558,278187532,0.8272126,0.034219377,-0.51846755,-0.21386959,8.257245063781738,1.6270453929901123,-19.886188507080078,-30.296606063842773,-70.965576171875, -15.84829330444336
559,278204199,0.81509686,0.025587805,-0.53655225,-0.21696739,11.699679374694824,0.7592669129371643,-17.074445724487305,-30.7974910736084,-159.16563415527344, -0.29781365394592285
560,278220866,0.80014485,0.01751049,-0.55891955,-0.21695843,14.812470436096191,3.7167747020721436,3.3683359622955322,-9.413538932800293,-191.97549438476562, 11.565369606018066
561,278237533,0.788422,0.010544412,-0.5742816,-0.22018301,13.215100288391113,3.1501710414886475,15.592211723327637,-26.56459617614746,-139.72804260253906, -6.518423557281494
562,278254200,0.77770305,0.009562227,-0.590837,-0.21447277,16.734500885009766,-7.7137603759765625,-5.231307506561279,42.956417083740234,-132.7000732421875, 19.89361572265625
563,278270867,0.7648914,0.0145924995,-0.6095274,-0.2078581,16.17916488647461,5.477700233459473,-5.380334377288818,82.06041717529297,-143.56982421875, -2.8323585987091064
564,278287534,0.7519485,0.013239777,-0.62570757,-0.20709556,14.829649925231934,3.1267077922821045,-1.5965898036956787,20.321685791015625,-140.51426696777344, -7.295297622680664
565,278304201,0.7395382,0.011291982,-0.6401653,-0.20771222,13.723807334899902,-0.184670090675354,-0.38115769624710083,8.803047180175781,-130.2445831298828, -11.268577575683594
566,278320868,0.7285144,0.011255684,-0.65269667,-0.20767145,11.026233673095703,1.2041162252426147,-0.5363049507141113,18.565196990966797,-111.54961395263672, -14.555519104003906
567,278337535,0.7193263,0.012580771,-0.66301924,-0.20692293,8.805915832519531,5.900306701660156,-0.08260966837406158,25.2362060546875,-90.25787353515625, -14.694601058959961
568,278354202,0.7118393,0.012736404,-0.67117864,-0.20649995,9.029552459716797,5.673806667327881,0.9967690110206604,14.745321273803711,-73.51458740234375, -8.68612003326416
569,278370869,0.7057677,0.011558093,-0.677507,-0.20674422,9.542901992797852,5.758062839508057,0.8947681188583374,2.428095579147339,-60.007144927978516, -3.896740436553955
570,278387536,0.7007656,0.0104963435,-0.6827262,-0.2066465,10.657490730285645,2.038012981414795,0.07187561690807343,2.9349653720855713,-49.48509979248047, -1.3017253875732422
571,278404203,0.69644237,0.012921657,-0.68784535,-0.2041327,11.537027359008789,0.6898952126502991,-0.7170280814170837,30.90082550048828,-40.70879364013672, -5.088509559631348
572,278420870,0.69260705,0.017040303,-0.6926764,-0.20051168,10.543484687805176,1.991346001625061,-0.6203355193138123,43.77153778076172,-34.56974792480469, -7.183175086975098
573,278437537,0.68947184,0.020790147,-0.6967132,-0.19694506,10.186933517456055,2.8777706623077393,-0.4166450798511505,40.61136245727539,-27.976747512817383, -4.83518123626709
574,278454204,0.6866622,0.025062554,-0.7006727,-0.19215941,9.60478401184082,3.668759346008301,-0.8181473612785339,48.76274108886719,-25.197019577026367, -1.1400718688964844
575,278470871,0.68404365,0.028437618,-0.7043796,-0.18741731,9.037836074829102,4.538203239440918,-0.6719593405723572,43.97067642211914,-24.289113998413086, 3.1903018951416016
576,278487538,0.6815279,0.030378427,-0.7077884,-0.18339244,8.857889175415039,4.562744617462158,-0.32227081060409546,33.353145599365234,-24.397563934326172, 6.85769510269165
577,278504205,0.6789451,0.032210074,-0.7112742,-0.1791243,9.153992652893066,3.6984119415283203,0.11064541339874268,34.13458251953125,-25.200178146362305, 8.48233413696289
578,278520872,0.67578614,0.033996217,-0.71530324,-0.17463996,9.059398651123047,3.4919466972351074,0.14983373880386353,35.80330276489258,-30.58844566345215, 9.133837699890137
579,278537539,0.6716877,0.034476217,-0.71990263,-0.17142805,8.921062469482422,3.8152053356170654,0.6421480178833008,24.389354705810547,-39.757572174072266, 8.658819198608398
580,278554206,0.6667838,0.03306775,-0.72481006,-0.17016621,8.86696720123291,3.536172389984131,0.5766644477844238,6.597406387329102,-47.88859176635742, 8.140815734863281
581,278570873,0.6608003,0.030263662,-0.73031133,-0.17050815,8.700830459594727,4.08156156539917,0.12886473536491394,-6.850072383880615,-58.030338287353516, 6.632444381713867
582,278587540,0.65374297,0.02487664,-0.7362306,-0.17310677,9.025904655456543,3.8378665447235107,-0.3920072317123413,-29.196462631225586,-68.85294342041016, 8.205814361572266
583,278604207,0.64559484,0.018430002,-0.7429792,-0.17564209,10.041549682617188,2.1528263092041016,-0.19899389147758484,-32.443946838378906,-79.37533569335938, 12.721660614013672
584,278620874,0.6369044,0.014930418,-0.7508986,-0.17401554,10.6295747756958,1.5309972763061523,-0.09554584324359894,3.4522509574890137,-83.26757049560547, 15.622319221496582
585,278637541,0.62717545,0.010066974,-0.7593594,-0.17298298,10.86040210723877,3.1398935317993164,1.2492601871490479,-4.895779132843018,-92.75071716308594, 18.865724563598633
586,278654208,0.61605656,0.005200186,-0.76878667,-0.1715073,10.88798999786377,2.5543646812438965,-0.08361528813838959,-1.3353452682495117,-104.20906829833984, 19.2135066986084
587,278670875,0.6032927,0.0006629202,-0.77942294,-0.16893148,11.021994590759277,2.3604393005371094,0.23694434762001038,7.416601181030273,-117.62722778320312, 20.223608016967773
588,278687542,0.5890593,-0.0039511826,-0.7908715,-0.16588032,10.923606872558594,2.470850944519043,0.4180363714694977,10.568164825439453,-129.02296447753906, 20.906614303588867
589,278704209,0.5729339,-0.0085585695,-0.80334467,-0.16220792,10.850757598876953,2.774935483932495,0.5011906027793884,15.129743576049805,-143.524169921875, 21.190597534179688
590,278720876,0.5543975,-0.01291459,-0.8171195,-0.15745687,11.207201957702637,3.3464934825897217,0.985342264175415,23.3997745513916,-161.82009887695312, 21.288944244384766
591,278737543,0.532955,-0.016530538,-0.8324638,-0.15063347,12.811617851257324,3.5498313903808594,1.6727104187011719,39.33489990234375,-183.5943603515625, 21.750205993652344
592,278754210,0.50873065,-0.018840633,-0.84909564,-0.1409793,15.3872709274292,6.047557830810547,5.419528007507324,61.37894058227539,-203.30850219726562, 21.62251853942871
593,278770877,0.4828881,-0.018607317,-0.8661244,-0.12767957,19.505325317382812,7.012980937957764,7.509984493255615,91.80763244628906,-212.32656860351562, 17.92654800415039
594,278787544,0.4574102,-0.014795563,-0.8821848,-0.11093881,22.233627319335938,5.709721565246582,8.309330940246582,123.45816040039062,-204.46998596191406, 8.514472961425781
595,278804211,0.43253097,-0.010436698,-0.89708316,-0.08972429,22.345937728881836,3.8162574768066406,7.512146472930908,151.56756591796875,-197.48728942871094, 19.858325958251953
596,278820878,0.40988004,-0.005207408,-0.9096417,-0.06725995,19.453449249267578,6.025746822357178,7.838199138641357,160.6012420654297,-176.5937042236328, 19.784774780273438
597,278837545,0.3898664,-0.0017172081,-0.9199399,-0.041380666,16.105728149414062,2.73410701751709,5.563248157501221,176.19564819335938,-154.88372802734375, 41.63275909423828
598,278854212,0.37099466,0.0031401091,-0.928577,-0.009911854,6.663316249847412,7.924365520477295,-2.5968616008758545,214.7995147705078,-143.0653839111328, 48.36725616455078
599,278870879,0.35765073,0.008681086,-0.9337873,0.007240228,17.45995330810547,11.04261589050293,-3.205935001373291,124.7970962524414,-99.25806427001953, 7.9093427658081055
600,278887546,0.35418233,0.005789149,-0.9351575,0.0014654207,10.311358451843262,9.71317195892334,9.18109130859375,-43.4168815612793,-27.464229583740234, 5.036304950714111
601,278904213,0.35830387,0.0015559858,-0.9335752,-0.0073135165,4.284579277038574,0.9106174111366272,6.0068511962890625,-66.1599349975586,28.25428009033203, 6.175085544586182
602,278920880,0.3689131,0.0029692615,-0.9294366,-0.006492024,4.912224769592285,2.5013487339019775,2.5050151348114014,9.16245174407959,76.52713775634766, -6.132603645324707
603,278937547,0.38468796,0.0055423975,-0.92299277,-0.008323589,3.6805059909820557,6.976568222045898,1.395026445388794,-5.055717468261719,115.36480712890625, -20.06756019592285
604,278954214,0.40472844,0.0049675815,-0.91420496,-0.02000444,4.776439666748047,5.473012924194336,0.27204418182373047,-76.13497161865234,148.08628845214844, -25.93975830078125
605,278970881,0.42933744,0.0029669437,-0.9024394,-0.0355548,5.352146148681641,2.149270534515381,0.23996901512145996,-104.9759292602539,184.7677459716797, -27.196609497070312
606,278987548,0.45823488,0.00241565,-0.8874317,-0.049802538,5.537086486816406,1.625982642173767,0.3062668740749359,-93.51031494140625,221.33494567871094, -31.374130249023438
607,279004215,0.49103984,0.0026164176,-0.86878335,-0.06394441,6.428433895111084,1.7261406183242798,0.2306765913963318,-91.83610534667969,256.9223327636719, -34.358585357666016
608,279020882,0.5271674,0.0046404377,-0.8462509,-0.0770232,8.057990074157715,1.4513579607009888,-0.6760518550872803,-81.12488555908203,290.7225036621094, -40.27078628540039
609,279037549,0.5658467,0.008494755,-0.81961435,-0.08931989,9.713848114013672,1.1049141883850098,-1.6516200304031372,-72.2146224975586,321.47369384765625, -46.87274932861328
610,279054216,0.60638845,0.015056338,-0.788755,-0.09966112,11.110217094421387,0.5193110704421997,-2.3323748111724854,-53.385986328125,350.2290954589844, -53.63026428222656
611,279070883,0.6475064,0.02610971,-0.75392395,-0.107948795,12.855219841003418,1.1842681169509888,-2.733205795288086,-26.287160873413086,373.2827453613281, -69.46109771728516
612,279087550,0.6875564,0.03802812,-0.7155259,-0.11765723,15.827836036682129,1.5531190633773804,-3.0140140056610107,-32.194828033447266,384.1147766113281, -81.7066421508789
613,279104217,0.725683,0.04860437,-0.674286,-0.12790935,19.938199996948242,0.6869384050369263,-4.620638847351074,-43.3258056640625,386.8808898925781, -79.9766616821289
614,279120884,0.76052946,0.057586003,-0.63207084,-0.1369881,21.80014419555664,2.570035696029663,-7.823258399963379,-45.74832534790039,375.6066589355469, -70.00787353515625
615,279137551,0.790189,0.0602021,-0.5911173,-0.15019266,20.810365676879883,6.932208061218262,-10.187705993652344,-93.74478912353516,339.0068664550781, -68.35328674316406
616,279154218,0.81222284,0.058739882,-0.55608267,-0.16618189,18.67936134338379,3.173973321914673,-14.82056713104248,-117.99992370605469,270.6859436035156, -72.33211517333984
617,279170885,0.82641536,0.058168456,-0.5305199,-0.17945257,14.277631759643555,0.22348350286483765,-18.790735244750977,-88.67311096191406,190.20155334472656, -65.72315979003906
618,279187552,0.83334315,0.05297702,-0.5155339,-0.19224426,10.713343620300293,-0.4926401376724243,-22.16697883605957,-97.3206558227539,98.41744995117188, -50.96076583862305
619,279204219,0.83225363,0.044198994,-0.514022,-0.20293361,8.18730640411377,-0.7822442054748535,-24.355487823486328,-89.77456665039062,-10.820858001708984, -31.945140838623047
620,279220886,0.8226931,0.034041613,-0.52697086,-0.21052124,9.643725395202637,0.6928186416625977,-21.602807998657227,-64.04704284667969,-124.13047790527344, -16.780126571655273
621,279237553,0.8075171,0.024102842,-0.54941785,-0.21325046,12.675031661987305,3.9481663703918457,-5.3842902183532715,-30.23276710510254,-196.44143676757812, 3.9918277263641357
622,279254220,0.7940368,0.013041063,-0.5674711,-0.21751416,18.593189239501953,2.8995590209960938,16.156843185424805,-49.02739334106445,-167.4138946533203, 1.4916191101074219
623,279270887,0.78097403,0.008567347,-0.5866312,-0.21417432,16.538347244262695,-9.41382122039795,-2.2441935539245605,18.298715591430664,-161.4385986328125, 18.000938415527344
624,279287554,0.76501364,0.011758842,-0.60945594,-0.2077974,15.25684928894043,6.7379608154296875,-5.761519432067871,77.29173278808594,-181.2675323486328, -0.8653793334960938
625,279304221,0.7487726,0.0042944727,-0.62853265,-0.21040058,13.695998191833496,3.471381425857544,-2.7493348121643066,-21.784330368041992,-178.5644073486328, -4.113932132720947
626,279320888,0.7336569,-0.0021369476,-0.64504284,-0.21368937,12.483959197998047,-0.37410202622413635,-2.1261420249938965,-23.19478988647461,-158.95864868164062, -10.538333892822266
627,279337555,0.7207123,-0.0030650645,-0.65956825,-0.21338873,10.777503967285156,0.6848105192184448,-0.7054747939109802,17.6373233795166,-131.23828125, -13.651667594909668
628,279354222,0.71045756,-0.0017308876,-0.67074335,-0.21295772,10.414382934570312,3.4605064392089844,-0.5789474844932556,24.495275497436523,-99.14818572998047, -19.287227630615234
629,279370889,0.7024718,0.00072804996,-0.6796463,-0.21122053,10.133255958557129,4.1948041915893555,0.22805963456630707,32.76737594604492,-75.95142364501953, -14.728128433227539
630,279387556,0.69588035,0.0015015329,-0.6865805,-0.21060868,10.544281959533691,4.141610145568848,0.2556432783603668,16.47879981994629,-62.41663360595703, -10.256043434143066
631,279404223,0.6901237,0.0008333847,-0.6922608,-0.21095984,10.900508880615234,3.3633968830108643,0.2046007215976715,3.2297768592834473,-54.600982666015625, -6.842711448669434
632,279420890,0.6848319,0.00021984987,-0.6976202,-0.21055111,10.498906135559082,3.317507028579712,-0.7649005651473999,6.634230136871338,-50.81604766845703, -2.8195230960845947
633,279437557,0.679872,-0.0014623003,-0.7024648,-0.21051274,9.53869915008545,4.802657127380371,-0.5979508757591248,-0.903802752494812,-48.361785888671875, 1.0491753816604614
634,279454224,0.67539644,-0.0071520316,-0.7061393,-0.21249963,9.396791458129883,4.683534622192383,-1.1930301189422607,-31.078922271728516,-46.347530364990234, 11.687752723693848
635,279470891,0.6716583,-0.0153857935,-0.70847666,-0.21610178,9.473421096801758,3.5808749198913574,-1.6142466068267822,-52.65986251831055,-40.21354675292969, 17.722007751464844
636,279487558,0.66885126,-0.023259593,-0.7098568,-0.21954694,9.4542875289917,2.6390738487243652,-1.6333096027374268,-51.56783676147461,-30.751489639282227, 18.204315185546875
637,279504225,0.66635525,-0.029470885,-0.71132,-0.22164555,9.468935012817383,2.926597833633423,-0.6227871775627136,-37.118751525878906,-27.313499450683594, 16.74888038635254
638,279520892,0.6635348,-0.03379107,-0.7134966,-0.22249234,9.558943748474121,2.6854958534240723,-0.10283808410167694,-21.331518173217773,-29.57197380065918, 12.606104850769043
639,279537559,0.66016036,-0.03644265,-0.716496,-0.22247316,9.691381454467773,2.5999770164489746,0.6403400897979736,-8.322908401489258,-33.7197265625, 7.335297107696533
640,279554226,0.65745413,-0.038364455,-0.7198848,-0.21920012,7.577131271362305,-4.512416839599609,-0.1103738471865654,11.801454544067383,-31.934560775756836, 19.430660247802734
641,279570893,0.65145755,-0.03762048,-0.7253611,-0.21917936,11.814847946166992,9.095428466796875,-0.5836567878723145,10.023235321044922,-52.81226348876953, -14.072216987609863
642,279587560,0.6463149,-0.0364862,-0.73084134,-0.21637237,9.709692001342773,2.010383129119873,0.32887542247772217,25.888601303100586,-48.73432922363281, -2.1680612564086914
643,279604227,0.64016986,-0.034664612,-0.7373841,-0.2127112,9.714560508728027,2.53275465965271,0.49110573530197144,34.620174407958984,-57.71057891845703, -3.6018691062927246
644,279620894,0.6334819,-0.033143044,-0.7441945,-0.20923059,9.947795867919922,2.725503921508789,-0.08960919827222824,32.64531326293945,-62.0831298828125, -3.7401082515716553
645,279637561,0.6262076,-0.030949287,-0.7516704,-0.20469081,9.759001731872559,2.66874098777771,-0.4004320800304413,41.8217887878418,-67.29301452636719, -3.5671727657318115
646,279654228,0.6179968,-0.028875122,-0.7598233,-0.19978826,9.419061660766602,3.03838849067688,-0.3460579812526703,43.92226791381836,-75.33404541015625, -2.8523449897766113
647,279670895,0.6082807,-0.027543489,-0.76897174,-0.19472782,9.513668060302734,3.837022542953491,0.8046283721923828,42.717933654785156,-88.50383758544922, -0.5730396509170532
648,279687562,0.59706587,-0.02550794,-0.7793824,-0.18821615,10.139007568359375,4.071202754974365,0.5550622940063477,54.7497673034668,-101.1025390625, -0.45650365948677063
649,279704229,0.5833429,-0.025000403,-0.79113483,-0.18218732,10.805315971374512,2.85774564743042,0.1492174118757248,47.18539810180664,-122.00944519042969, 2.2880115509033203
650,279720896,0.5674458,-0.026030758,-0.8037742,-0.17684849,11.049837112426758,2.1076769828796387,0.1914059817790985,38.05426025390625,-139.25331115722656, 4.996091842651367
651,279737563,0.54899806,-0.02793003,-0.8175348,-0.17163435,11.616917610168457,1.9024944305419922,0.8210820555686951,34.875274658203125,-158.83401489257812, 6.001737594604492
652,279754230,0.5281101,-0.029149832,-0.8325016,-0.16489883,12.996822357177734,1.4219392538070679,0.7662153840065002,46.98612594604492,-176.67697143554688, 4.7880706787109375
653,279770897,0.5050772,-0.029788181,-0.84838164,-0.1557526,15.561972618103027,3.5054426193237305,4.119076728820801,63.49305725097656,-192.20460510253906, 7.580207824707031
654,279787564,0.48079425,-0.029589828,-0.86441386,-0.14405055,18.643829345703125,5.187463283538818,6.207766056060791,81.27243041992188,-199.82424926757812, 10.192181587219238
655,279804231,0.45659128,-0.026914457,-0.8798263,-0.12925196,21.116050720214844,6.407665252685547,8.25359058380127,107.34963989257812,-195.7064971923828, 5.912354469299316
656,279820898,0.43542507,-0.020815784,-0.8934007,-0.10866161,23.38851547241211,5.138398170471191,8.25762939453125,152.14256286621094,-169.8793182373047, 6.4567179679870605
657,279837565,0.41516382,-0.010110238,-0.9064437,-0.07679498,21.284421920776367,7.1629204750061035,5.47342586517334,235.0365447998047,-161.22659301757812, 12.709471702575684
658,279854232,0.39225522,-0.0030621996,-0.91850644,-0.04972801,17.63462257385254,8.432079315185547,6.2282490730285645,194.0733184814453,-176.76914978027344, 20.539804458618164
659,279870899,0.3720106,0.002218613,-0.92803687,-0.01874341,9.105326652526855,2.0283987522125244,1.4021605253219604,213.3126678466797,-154.02447509765625, 43.37919616699219
660,279887566,0.35711622,0.015681572,-0.9336589,0.022444231,11.860652923583984,6.803578853607178,-4.745131492614746,298.83770751953125,-108.737060546875, 17.9694881439209
661,279904233,0.3507637,0.024195354,-0.9355046,0.03480505,13.766969680786133,16.263511657714844,5.582944393157959,101.28916931152344,-46.961212158203125, -22.65416145324707
662,279920900,0.351527,0.023927638,-0.9354648,0.027614115,5.934731960296631,2.2191264629364014,5.4364495277404785,-46.18315887451172,2.0251681804656982, -15.173871994018555
663,279937567,0.3588853,0.029153246,-0.9325269,0.027306132,4.868695259094238,1.145607590675354,3.305978536605835,10.849520683288574,51.45779800415039, -35.60709762573242
664,279954234,0.37234548,0.035067327,-0.92710686,0.024542805,3.5366342067718506,5.769333839416504,2.7775650024414062,-3.9540956020355225,96.05445098876953, -47.71601486206055
665,279970901,0.3913875,0.03703356,-0.9193996,0.012216564,4.282501697540283,5.373720645904541,1.464953064918518,-75.93053436279297,135.84130859375, -48.48588562011719
666,279987568,0.41505462,0.03715722,-0.90902996,-0.0037777957,5.215712547302246,3.6967055797576904,-0.10412585735321045,-105.0020751953125,171.4561309814453, -47.75591278076172
667,280004235,0.44291583,0.036648404,-0.8955403,-0.022144163,5.585010051727295,2.3167402744293213,-0.24818654358386993,-122.79076385498047,205.95346069335938, -51.25885772705078
668,280020902,0.47528118,0.036404457,-0.87817836,-0.039823588,6.539799213409424,0.8250851631164551,0.539246141910553,-119.50453186035156,245.70335388183594, -51.09958267211914
669,280037569,0.51099527,0.03688658,-0.8569581,-0.056094453,7.963805675506592,0.04772203415632248,0.19046491384506226,-110.5625991821289,279.080810546875, -50.954132080078125
670,280054236,0.5486087,0.037579164,-0.83218074,-0.071357585,8.917156219482422,-0.5312443375587463,-0.7159456610679626,-105.78569793701172,303.10406494140625, -48.85927200317383
671,280070903,0.58746547,0.040092677,-0.8038923,-0.08387248,10.890833854675293,-0.17086641490459442,-1.5722665786743164,-85.27984619140625,325.0823059082031, -49.2506217956543
672,280087570,0.62751734,0.04372765,-0.77146363,-0.095678575,13.106000900268555,0.48733437061309814,-2.6215860843658447,-79.54803466796875,349.30694580078125, -53.087982177734375
673,280104237,0.66795075,0.047828104,-0.73489213,-0.107183516,15.575682640075684,0.5828239321708679,-3.4060049057006836,-78.91706848144531,369.65264892578125, -55.27172088623047
674,280120904,0.70732784,0.05232067,-0.6951841,-0.116916575,17.673290252685547,0.33598414063453674,-4.806756496429443,-70.07548522949219,379.69842529296875, -50.96930694580078
675,280137571,0.74405223,0.057821583,-0.65385675,-0.12455829,19.780527114868164,2.52769136428833,-7.35932731628418,-55.77533721923828,376.52056884765625, -48.400291442871094
676,280154238,0.7764962,0.058324553,-0.612521,-0.1359059,20.706371307373047,6.397455215454102,-9.641216278076172,-96.47434997558594,351.7076416015625, -48.633453369140625
677,280170905,0.80248576,0.052663125,-0.57443285,-0.15254655,20.223573684692383,5.593936443328857,-12.286928176879883,-146.0424041748047,299.5433044433594, -55.654903411865234
678,280187572,0.82047504,0.047033023,-0.5441795,-0.1687538,15.861933708190918,2.024886131286621,-16.589519500732422,-133.11448669433594,225.163330078125, -58.97220230102539
679,280204239,0.8310206,0.042102158,-0.52361935,-0.18290854,12.331707000732422,0.6875168085098267,-19.61343765258789,-107.86966705322266,144.45703125, -55.54765319824219
680,280220906,0.8342815,0.03440196,-0.51465094,-0.19474526,9.077676773071289,0.4826759696006775,-23.86731719970703,-98.75774383544922,49.56736373901367, -38.193572998046875
681,280237573,0.8294226,0.024864925,-0.5193829,-0.20416178,8.499297142028809,0.8881886005401611,-22.932273864746094,-80.59429931640625,-59.222145080566406, -25.4837589263916
682,280254240,0.8167841,0.015997436,-0.53772,-0.20848408,10.985100746154785,-0.30572226643562317,-17.966087341308594,-38.24116134643555,-162.3894500732422, -7.415477752685547
683,280270907,0.8019596,0.012325892,-0.560268,-0.20690353,15.596738815307617,5.956470012664795,9.826739311218262,18.962099075317383,-185.7022705078125, 3.8084423542022705
684,280287574,0.7904369,0.0039087045,-0.57551306,-0.20971268,15.586373329162598,-5.617364883422852,9.603299140930176,-34.76846694946289,-139.9116668701172, 2.0001590251922607
685,280304241,0.7774467,0.012756627,-0.5966784,-0.19846743,16.376365661621094,-3.676502227783203,-9.146047592163086,123.33749389648438,-152.72671508789062, 7.9459099769592285
686,280320908,0.762578,0.01626799,-0.61641276,-0.1955653,16.291561126708984,10.399432182312012,-4.045461654663086,58.73923873901367,-160.59866333007812, -17.601903915405273
687,280337575,0.7483396,0.011524,-0.63275033,-0.19870223,14.974223136901855,0.5740576982498169,-2.3108415603637695,-14.863905906677246,-151.79689025878906, -13.709419250488281
688,280354242,0.735962,0.0125343865,-0.6474791,-0.1974186,12.337441444396973,-1.8233574628829956,-0.4769681692123413,31.662397384643555,-127.14525604248047, -13.61877155303955
