PacketCounter,SampleTimeFine,Quat_W,Quat_X,Quat_Y,Quat_Z,Acc_X,Acc_Y,Acc_Z,Gyr_X,Gyr_Y,Gyr_Z 
1,4098438045,0.70342135,0.33292454,-0.36025238,0.5143714,-0.09690234810113907,-0.07945183664560318,-0.1629948914051056,-0.2644375264644623,0.5566128492355347, -0.02326594665646553
2,4098454712,0.70292526,0.33309466,-0.36018944,0.51498324,13.514365196228027,1.443709373474121,8.179130554199219,2.8637115955352783,2.4107892513275146, -0.7538331151008606
3,4098471379,0.7022648,0.3328854,-0.36073375,0.51563805,13.346540451049805,1.5017690658569336,7.924910068511963,1.070425271987915,2.1412155628204346, -0.7532311081886292
4,4098488046,0.70189255,0.3333218,-0.3616673,0.515209,13.358781814575195,1.599591851234436,8.10886001586914,1.6620018482208252,2.6412394046783447, -0.5696648955345154
5,4098504713,0.7020277,0.33363986,-0.3616395,0.5148382,13.247379302978516,1.5472062826156616,8.037149429321289,-0.13349339365959167,2.783005952835083, -0.4643838703632355
6,4098521380,0.70217216,0.3337819,-0.36134216,0.514758,13.605437278747559,1.5421090126037598,8.135847091674805,-0.6457090377807617,2.7122249603271484, -0.18315641582012177
7,4098538047,0.7022235,0.3338958,-0.3612135,0.51470435,13.246557235717773,1.3757680654525757,7.924924373626709,-0.15295903384685516,2.6423916816711426, -0.03676702827215195
8,4098554714,0.7020817,0.33395,-0.36102512,0.51499486,13.34785270690918,1.4508262872695923,8.135479927062988,0.9500837922096252,3.361621856689453, -0.3515855073928833
9,4098571381,0.7021062,0.3337358,-0.36078483,0.5152687,13.67884349822998,1.5366435050964355,8.108526229858398,0.7081592082977295,3.6987621784210205, -0.0932302325963974
10,4098588048,0.70219535,0.33353487,-0.3606664,0.51536024,13.175827026367188,1.404752254486084,7.963935375213623,-0.029800379648804665,3.739537477493286, -0.3714737892150879
11,4098604715,0.7024047,0.33316293,-0.3605392,0.5154045,13.462882041931152,1.5133360624313354,8.26386833190918,-0.7439849972724915,4.177911758422852, -0.6452351808547974
12,4098621382,0.70255506,0.33288842,-0.3602908,0.5155507,13.219330787658691,1.4958584308624268,8.124621391296387,0.23684705793857574,3.699978828430176, -0.3368966579437256
13,4098638049,0.7027057,0.33267432,-0.3600292,0.5156663,13.363608360290527,1.2171484231948853,8.14611530303955,-0.016801932826638222,2.9873692989349365, -0.7087290287017822
14,4098654716,0.7026041,0.33263776,-0.35972324,0.5160417,13.331292152404785,1.4912868738174438,8.214415550231934,1.8043185472488403,2.416461944580078, -0.38609862327575684
15,4098671383,0.7025748,0.33259362,-0.359488,0.5162736,13.303154945373535,1.36275315284729,8.143064498901367,1.4225742816925049,1.7972753047943115, -0.523792564868927
16,4098688050,0.7025884,0.332487,-0.35929805,0.5164561,13.44870376586914,1.5331326723098755,8.078803062438965,1.4936238527297974,1.8715777397155762, -0.30433008074760437
17,4098704717,0.70273113,0.33222982,-0.35924357,0.5164652,13.168245315551758,1.4288783073425293,8.027691841125488,0.2783012092113495,2.0894906520843506, -0.09258991479873657
18,4098721384,0.702908,0.33193752,-0.3590762,0.5165292,13.418915748596191,1.5766654014587402,8.090269088745117,-0.19437478482723236,2.9047939777374268, -0.48605215549468994
19,4098738051,0.70292133,0.33179635,-0.35879412,0.5167977,13.359576225280762,1.5655710697174072,8.051724433898926,0.6232402920722961,3.030155658721924, 0.05710992217063904
20,4098754718,0.7030134,0.33158386,-0.35862702,0.5169246,13.09870719909668,1.1465404033660889,7.989597320556641,-0.08821014314889908,2.8061978816986084, 0.13513901829719543
21,4098771385,0.7029098,0.33152077,-0.35834232,0.51730317,13.647760391235352,1.638122320175171,8.271174430847168,1.300068736076355,2.8023178577423096, 0.4436696767807007
22,4098788052,0.7028968,0.33143696,-0.35823357,0.51745003,13.000927925109863,1.3052157163619995,8.024077415466309,0.4440665543079376,1.8638041019439697, 0.16616879403591156
23,4098804719,0.70297194,0.33129597,-0.35813287,0.517508,13.192926406860352,1.34963059425354,8.040210723876953,0.83930903673172,2.0569369792938232, 0.15920214354991913
24,4098821386,0.7030209,0.33114794,-0.3580237,0.51761156,13.36405086517334,1.3700939416885376,8.073929786682129,0.6714177131652832,2.1337876319885254, 0.2147560864686966
25,4098838053,0.70303565,0.33105096,-0.3579234,0.51772296,13.14985466003418,1.2470386028289795,7.970404624938965,0.012108403258025646,1.8016932010650635, -0.35815516114234924
26,4098854720,0.703051,0.3310326,-0.3576892,0.51787597,13.41727066040039,1.3316786289215088,8.196240425109863,1.8150246143341064,2.3853423595428467, -0.24843037128448486
27,4098871387,0.7031448,0.33088198,-0.35758367,0.51791745,13.255412101745605,1.3889732360839844,7.92097282409668,0.02850053273141384,2.1301379203796387, -0.6328769326210022
28,4098888054,0.7031383,0.33088672,-0.357326,0.51810133,13.287145614624023,1.3964804410934448,8.015992164611816,1.9354041814804077,2.495720386505127, -0.24697044491767883
29,4098904721,0.703238,0.33077714,-0.35714632,0.51815957,12.997902870178223,1.3717352151870728,8.016764640808105,0.7623171806335449,2.5632483959198, -0.6027820110321045
30,4098921388,0.70340157,0.33061936,-0.35696015,0.51816666,13.504097938537598,1.4860719442367554,8.160101890563965,1.3104161024093628,2.857602596282959, -0.2968383729457855
31,4098938055,0.70350677,0.33051196,-0.35675305,0.5182348,13.1195650100708,1.336439609527588,7.898921012878418,0.6653731465339661,2.360933780670166, -0.3846643269062042
32,4098954722,0.7035712,0.33052304,-0.3563558,0.5184137,13.091867446899414,1.3031764030456543,8.099541664123535,2.0116662979125977,2.6707451343536377, -0.30525216460227966
33,4098971389,0.7037786,0.3303069,-0.35611352,0.51843613,13.465585708618164,1.552344560623169,8.019560813903809,-0.15796633064746857,2.612002372741699, -0.44397053122520447
34,4098988056,0.7039549,0.33013907,-0.35586348,0.5184756,13.006399154663086,1.3058991432189941,7.960563659667969,0.3692775070667267,2.436760187149048, -0.2433718889951706
35,4099004723,0.7040943,0.33001602,-0.35550308,0.518612,13.160245895385742,1.5004935264587402,8.11859130859375,0.8169106841087341,2.8687057495117188, -0.3025244176387787
36,4099021390,0.7042686,0.32984933,-0.3551877,0.5186976,13.31810474395752,1.3836936950683594,7.960848331451416,0.8568664193153381,2.8390586376190186, -0.06951286643743515
37,4099038057,0.70445764,0.3296805,-0.35489258,0.51874983,13.195233345031738,1.2982516288757324,8.055791854858398,0.32477542757987976,2.6738953590393066, -0.4437656104564667
38,4099054724,0.70458937,0.32952553,-0.35456574,0.5188928,13.059892654418945,1.4124842882156372,7.98221492767334,0.29345107078552246,2.7773964405059814, -0.2625429630279541
39,4099071391,0.70476687,0.3293602,-0.3542336,0.5189839,13.247011184692383,1.3204013109207153,8.129280090332031,0.34506070613861084,2.869358777999878, -0.4642942249774933
40,4099088058,0.7049392,0.3292029,-0.3539435,0.5190474,13.191442489624023,1.4663110971450806,7.986508369445801,0.3452143967151642,2.580293655395508, -0.3995068669319153
41,4099104725,0.70505667,0.3291203,-0.35361356,0.51916504,12.865311622619629,1.2040832042694092,7.875864028930664,0.7954471707344055,2.461848020553589, -0.40795907378196716
42,4099121392,0.7052646,0.32900003,-0.3532341,0.51921743,13.340660095214844,1.4874039888381958,8.228828430175781,0.9366500973701477,2.9676473140716553, -0.7460211515426636
43,4099138059,0.70543176,0.32882506,-0.35298923,0.51926744,13.272340774536133,1.4195414781570435,7.940847873687744,0.10519776493310928,2.3855221271514893, -0.28197023272514343
44,4099154726,0.7055421,0.32876787,-0.3526307,0.5193973,12.892807006835938,1.3521919250488281,7.985044002532959,1.100801706314087,2.5273778438568115, -0.42784732580184937
45,4099171393,0.70568633,0.32863358,-0.35230076,0.51951045,13.25130558013916,1.4132879972457886,8.033638000488281,0.7131151556968689,2.73061466217041, -0.24763637781143188
46,4099188060,0.70589435,0.32842126,-0.3520129,0.5195571,13.098417282104492,1.44985032081604,7.963441371917725,0.08128830790519714,2.8349738121032715, -0.3845362961292267
47,4099204727,0.70604825,0.328237,-0.35170642,0.5196719,13.125870704650879,1.2346380949020386,7.92704439163208,0.5454928278923035,2.8468453884124756, 0.01507947500795126
48,4099221394,0.70623547,0.32803777,-0.3514372,0.5197254,13.088282585144043,1.3661115169525146,8.05366325378418,0.01862683705985546,2.65157413482666, -0.34723135828971863
49,4099238061,0.7063668,0.32794526,-0.35106927,0.5198541,13.021716117858887,1.3470909595489502,7.985908508300781,1.274852991104126,2.7931101322174072, -0.21322576701641083
50,4099254728,0.70652026,0.3277858,-0.35075003,0.51996166,13.09184455871582,1.3126500844955444,8.034124374389648,0.27650830149650574,2.7548317909240723, -0.3802461326122284
51,4099271395,0.7066386,0.3276938,-0.35037,0.5201152,13.199549674987793,1.4880731105804443,8.004342079162598,1.0455296039581299,2.8327839374542236, -0.31083571910858154
52,4099288062,0.7068169,0.3275195,-0.35012454,0.5201477,12.97892951965332,1.12649405002594,7.9171552658081055,0.10176565498113632,2.3904781341552734, -0.37327951192855835
53,4099304729,0.7069527,0.32737368,-0.3497813,0.52028626,13.08199691772461,1.423326015472412,8.022561073303223,0.5958602428436279,2.8599588871002197, -0.22407270967960358
54,4099321396,0.7071412,0.32717323,-0.349523,0.52032936,13.293237686157227,1.443555235862732,8.038082122802734,-0.06848835945129395,2.5858774185180664, -0.3870719373226166
55,4099338063,0.70726955,0.3270361,-0.34923327,0.52043575,12.567169189453125,1.1525273323059082,7.728763580322266,0.723910927772522,2.5227034091949463, -0.030338242650032043
56,4099354730,0.7074255,0.32688698,-0.34883323,0.5205859,13.373255729675293,1.4525402784347534,8.207645416259766,0.7180200815200806,3.2199838161468506, -0.3909522294998169
57,4099371397,0.70756507,0.3267014,-0.34858674,0.5206776,13.106192588806152,1.3532520532608032,7.915619850158691,-0.2652066946029663,2.416154623031616, -0.2822263538837433
58,4099388064,0.70775753,0.32653117,-0.34829456,0.5207184,12.578186988830566,1.2388062477111816,7.8324408531188965,0.2494228482246399,2.6606662273406982, -0.5197713375091553
59,4099404731,0.70796293,0.32636884,-0.3479443,0.52077526,13.176376342773438,1.3421742916107178,8.010269165039062,0.696044385433197,3.0037102699279785, -0.5136243104934692
60,4099421398,0.70813173,0.32627797,-0.3475823,0.5208444,12.96579647064209,1.378612995147705,7.949487209320068,0.9469463229179382,2.7177956104278564, -0.6859464645385742
61,4099438065,0.70828044,0.32620937,-0.34722465,0.52092355,12.881919860839844,1.3062055110931396,7.952197551727295,0.8828250169754028,2.5641322135925293, -0.7558692693710327
62,4099454732,0.70844924,0.32610208,-0.34691897,0.5209648,12.992794036865234,1.2811683416366577,8.029624938964844,0.5960139036178589,2.4372594356536865, -0.6556850671768188
63,4099471399,0.7085747,0.32601485,-0.34656924,0.52108157,13.158512115478516,1.4687167406082153,7.986021518707275,0.8527811765670776,2.6110804080963135, -0.46223241090774536
64,4099488066,0.7086822,0.3259142,-0.34629068,0.52118355,12.940289497375488,1.4145357608795166,7.912376403808594,0.4281739294528961,2.223560094833374, -0.3483583629131317
65,4099504733,0.70878875,0.32582766,-0.34590587,0.5213485,12.882552146911621,1.292703628540039,8.014801025390625,1.2103025913238525,2.8520638942718506, -0.1875874251127243
66,4099521400,0.70894253,0.32556692,-0.34569553,0.5214416,13.204655647277832,1.4685519933700562,7.983068943023682,-0.5800379514694214,2.5712268352508545, 0.07009555399417877
67,4099538067,0.7090686,0.32537693,-0.3454777,0.521533,12.693740844726562,1.301735520362854,7.838000297546387,-0.15339446067810059,2.2866058349609375, -0.024075940251350403
68,4099554734,0.70914274,0.32531968,-0.3450333,0.52176213,13.05424976348877,1.2773323059082031,8.029264450073242,1.7580493688583374,3.100756883621216, 0.015886278823018074
69,4099571401,0.709324,0.3250904,-0.34473044,0.52185905,12.940984725952148,1.3233970403671265,7.864017486572266,-0.15000078082084656,2.9854354858398438, -0.2959931492805481
70,4099588068,0.7095032,0.32486686,-0.34441504,0.5219629,12.982227325439453,1.2824441194534302,7.894573211669922,-0.05351774021983147,3.0393760204315186, -0.2949942946434021
71,4099604735,0.7097503,0.3246083,-0.3440842,0.52200586,12.697277069091797,1.4484747648239136,7.880973815917969,-0.4574812054634094,3.2679946422576904, -0.7837485671043396
72,4099621402,0.7099423,0.32442966,-0.34363917,0.52214915,13.157830238342285,1.1462370157241821,8.048638343811035,0.6971840858459473,3.6309781074523926, -0.5413884520530701
73,4099638069,0.7101089,0.32424587,-0.34332567,0.5222428,12.86087703704834,1.3560340404510498,7.855729579925537,0.14058171212673187,2.838533878326416, -0.39091384410858154
74,4099654736,0.7103103,0.32407576,-0.3429743,0.52230555,12.603716850280762,1.227794885635376,7.8458170890808105,0.19371525943279266,2.9898793697357178, -0.7826216816902161
75,4099671403,0.7104543,0.32396057,-0.34250286,0.5224905,13.101602554321289,1.4556150436401367,8.027363777160645,1.3109668493270874,3.5159130096435547, -0.37673720717430115
76,4099688070,0.71067256,0.32373402,-0.3421463,0.52256745,12.861705780029297,1.2585358619689941,7.872798919677734,-0.06980740278959274,3.290968894958496, -0.6541227102279663
77,4099704737,0.71087873,0.32350814,-0.34175098,0.5226857,12.727973937988281,1.3351572751998901,7.812963962554932,0.19799256324768066,3.5435874462127686, -0.4977571964263916
78,4099721404,0.711138,0.323193,-0.34131584,0.5228122,12.827621459960938,1.3642491102218628,7.927170276641846,-0.19117319583892822,4.2042155265808105, -0.5250987410545349
79,4099738071,0.71143407,0.32275522,-0.3409158,0.5229411,12.860739707946777,1.289539098739624,7.960124492645264,-0.9995869994163513,4.565906047821045, -0.28413450717926025
80,4099754738,0.7116822,0.3223828,-0.3404598,0.52313,12.962669372558594,1.4759389162063599,7.976766586303711,-0.22683891654014587,4.627325057983398, -0.09434438496828079
81,4099771405,0.71191156,0.32200727,-0.340047,0.5233177,12.826766014099121,1.3185416460037231,8.0169038772583,-0.36366191506385803,4.382940769195557, 0.06945523619651794
82,4099788072,0.7121321,0.32162276,-0.3397105,0.5234726,12.757354736328125,1.1566460132598877,7.932196140289307,-0.7362627387046814,3.949728488922119, 0.1311434507369995
83,4099804739,0.7123628,0.3213286,-0.3393234,0.5235905,12.761804580688477,1.5807366371154785,8.033738136291504,-0.21628648042678833,3.8161709308624268, -0.4104948341846466
84,4099821406,0.7127129,0.32080832,-0.33920616,0.523509,12.714722633361816,0.9336205720901489,7.914539813995361,-3.0256154537200928,3.1476409435272217, -0.6893017888069153
85,4099838073,0.7128266,0.32071033,-0.33876583,0.52369946,12.77100944519043,1.3788340091705322,7.996894836425781,1.362935185432434,3.2612075805664062, -0.2124701589345932
86,4099854740,0.7130264,0.32056382,-0.33848888,0.523696,12.583967208862305,1.1612904071807861,7.918423652648926,-0.10551150888204575,2.4102511405944824, -0.9982419610023499
87,4099871407,0.7131519,0.32057354,-0.33809757,0.5237721,12.559586524963379,1.1756376028060913,7.906968593597412,1.4223309755325317,2.412121057510376, -0.9584785103797913
88,4099888074,0.71331936,0.32061467,-0.33764982,0.5238076,12.89312744140625,1.4207684993743896,8.097877502441406,1.5938720703125,2.5853395462036133, -1.5082166194915771
89,4099904741,0.713444,0.32067046,-0.33727074,0.5238479,12.716109275817871,1.2933677434921265,7.791692733764648,1.5231680870056152,2.1096606254577637, -1.2115576267242432
90,4099921408,0.7135713,0.32077238,-0.33687702,0.5238656,12.501202583312988,1.3273499011993408,7.900023937225342,1.7441545724868774,1.9769481420516968, -1.4719363451004028
91,4099938075,0.7136833,0.32088917,-0.3363945,0.52395135,12.899090766906738,1.356935739517212,7.996425151824951,2.328367233276367,2.473296880722046, -1.312727689743042
92,4099954742,0.71384084,0.32094717,-0.3360922,0.52389514,12.672689437866211,1.3887035846710205,7.933436393737793,0.9604954719543457,1.59328293800354, -1.6396609544754028
93,4099971409,0.7138617,0.32112533,-0.33571926,0.52399695,12.541678428649902,1.3442689180374146,7.848686218261719,2.4708251953125,1.5380874872207642, -0.8039570450782776
94,4099988076,0.7139106,0.32125357,-0.335385,0.52406555,12.705241203308105,1.5842344760894775,7.916623592376709,1.9482619762420654,1.5184807777404785, -0.8661574125289917
95,4100004743,0.71394646,0.32137376,-0.33504483,0.5241605,12.799437522888184,1.2548781633377075,7.926845073699951,2.0166094303131104,1.603912115097046, -0.6813874840736389
96,4100021410,0.7140041,0.32136667,-0.33484283,0.5242157,12.54947280883789,1.5239503383636475,7.812369346618652,0.755632221698761,1.3471190929412842, -0.3582192063331604
97,4100038077,0.7140675,0.3214293,-0.3345417,0.5242828,12.759763717651367,1.480067253112793,7.951779365539551,1.4687923192977905,1.622340440750122, -0.6980613470077515
98,4100054744,0.7140585,0.32154176,-0.3342372,0.5244204,12.747389793395996,1.4173872470855713,7.695507049560547,2.0463972091674805,1.4492498636245728, -0.21334099769592285
99,4100071411,0.7140704,0.32166782,-0.33381698,0.5245947,12.658952713012695,1.3242971897125244,7.924659729003906,2.568294048309326,2.100926399230957, -0.39548563957214355
100,4100088078,0.7141455,0.321576,-0.33352745,0.52473277,13.128713607788086,1.5717334747314453,7.822293281555176,0.8065887093544006,2.3102591037750244, -0.013446666300296783
101,4100104745,0.7142969,0.32138026,-0.33335045,0.5247593,12.362269401550293,1.2388118505477905,7.604617595672607,-0.5360738039016724,2.0671117305755615, -0.348985880613327
102,4100121412,0.7143899,0.32130137,-0.33289838,0.5249678,12.890356063842773,1.4347885847091675,7.9247331619262695,1.5783635377883911,3.265984296798706, -0.12205732613801956
103,4100138079,0.71460074,0.32101375,-0.33261165,0.52503866,12.82962703704834,1.5779019594192505,7.73682165145874,-0.6192254424095154,3.175328254699707, -0.38073280453681946
104,4100154746,0.7147748,0.32079872,-0.33227572,0.525146,12.49679183959961,1.1475368738174438,7.720005035400391,0.07739516347646713,3.1557211875915527, -0.3422752618789673
105,4100171413,0.71491957,0.32059577,-0.33188456,0.52532005,12.747931480407715,1.5828429460525513,7.8133864402771,0.5558532476425171,3.4653661251068115, -0.062162019312381744
106,4100188080,0.7151294,0.3203511,-0.33157614,0.5253785,12.696285247802734,1.3570424318313599,7.8524250984191895,-0.3567976951599121,3.1057639122009277, -0.5861338376998901
107,4100204747,0.7151912,0.3203298,-0.33109024,0.5256138,12.732025146484375,1.3719936609268188,7.811862945556641,2.113131046295166,3.2252984046936035, -0.08285708725452423
108,4100221414,0.7153682,0.3201184,-0.33082435,0.525669,12.582979202270508,1.481250524520874,7.760401248931885,-0.27987000346183777,2.6994569301605225, -0.4689044952392578
109,4100238081,0.7154856,0.3199786,-0.33055896,0.5257611,12.754305839538574,1.2885912656784058,7.836994171142578,0.28448665142059326,2.386802911758423, -0.23313960433006287
110,4100254748,0.7155742,0.3199792,-0.3299394,0.52602917,12.182558059692383,1.2609751224517822,7.630616664886475,2.719921827316284,3.9470903873443604, -0.36510908603668213
111,4100271415,0.7158029,0.31949392,-0.32957238,0.5262432,13.467996597290039,1.9618130922317505,7.669555187225342,-1.0134049654006958,4.6614670753479, 0.5187661051750183
112,4100288082,0.71613234,0.3188084,-0.32930586,0.52637744,12.10931396484375,1.1350642442703247,7.665842056274414,-2.770538568496704,4.958112716674805, 0.44106993079185486
113,4100304749,0.71620125,0.31873658,-0.32876313,0.5266665,13.249802589416504,0.9229757785797119,7.947603702545166,2.1757028102874756,3.845932722091675, 0.14749713242053986
114,4100321416,0.716108,0.31919646,-0.3281362,0.5269059,12.297028541564941,1.1064172983169556,7.922424793243408,5.346900463104248,1.8669929504394531, -0.9058827757835388
115,4100338083,0.7160029,0.319694,-0.327625,0.5270653,12.425557136535645,1.599183440208435,7.879576683044434,4.961264133453369,0.9564999938011169, -1.0910242795944214
116,4100354750,0.71624154,0.3194994,-0.3278629,0.52671087,12.271153450012207,1.7554466724395752,7.824771404266357,-3.0763540267944336,-0.5765290260314941, -1.657051920890808
117,4100371417,0.7164155,0.3191617,-0.328089,0.526538,12.589886665344238,1.7607848644256592,7.7823028564453125,-3.189997911453247,0.2528037428855896, -0.22697973251342773
118,4100388084,0.7164557,0.31895486,-0.32827345,0.5264938,12.860983848571777,1.4105572700500488,7.454419136047363,-1.8149285316467285,-0.03012053482234478, 0.5084568858146667
119,4100404751,0.7162233,0.31912988,-0.32799113,0.52687955,12.688260078430176,1.2336395978927612,7.649916648864746,3.324010133743286,1.226906180381775, 1.725111722946167
120,4100421418,0.71607405,0.31922323,-0.3276344,0.5272478,12.76097297668457,1.7810049057006836,7.633647441864014,2.9716691970825195,2.044975996017456, 1.3542780876159668
121,4100438085,0.71597826,0.3191043,-0.32733032,0.5276386,12.464430809020996,1.227768063545227,7.521711826324463,1.6648703813552856,2.730883836746216, 1.8692213296890259
122,4100454752,0.71613646,0.31870037,-0.32716474,0.5277709,12.584412574768066,1.4825891256332397,7.7859110832214355,-1.37933349609375,3.0879628658294678, 0.6151209473609924
123,4100471419,0.7163493,0.31823975,-0.32712886,0.5277822,12.63050365447998,1.171904444694519,7.632891654968262,-2.518573045730591,2.5107805728912354, 0.23609142005443573
124,4100488086,0.7165436,0.31802237,-0.32701182,0.5277219,12.271215438842773,1.2610279321670532,7.715085506439209,-1.1426594257354736,1.8291759490966797, -0.7759880423545837
125,4100504753,0.71658707,0.31806645,-0.3267103,0.527823,12.830833435058594,1.2947412729263306,7.77376127243042,1.5068527460098267,1.797454595565796, -0.42693808674812317
126,4100521420,0.7165827,0.3182696,-0.32648626,0.52784514,12.589991569519043,1.4256362915039062,7.476208209991455,1.9385037422180176,0.560322642326355, -0.8313882350921631
127,4100538087,0.71643513,0.31876078,-0.32597974,0.52806216,12.607545852661133,1.4138444662094116,7.710264205932617,5.133048057556152,1.0138596296310425, -0.613539457321167
128,4100554754,0.716481,0.3188938,-0.32575,0.52806133,12.705123901367188,1.5522634983062744,7.51583194732666,1.4463939666748047,0.9060172438621521, -0.9836044311523438
129,4100571421,0.7165645,0.3189585,-0.32550797,0.5280583,12.597907066345215,1.5393093824386597,7.526995658874512,1.0690932273864746,1.2986469268798828, -1.0004063844680786
130,4100588088,0.7166674,0.3189255,-0.32524875,0.5280983,12.680949211120605,1.439056634902954,7.515453338623047,0.7037665843963623,1.8788644075393677, -0.6758295893669128
131,4100604755,0.7167517,0.3188085,-0.32496518,0.52822894,12.67042064666748,1.6549574136734009,7.444617748260498,0.6200258135795593,2.4645113945007324, -0.028980769217014313
132,4100621422,0.71684134,0.31861508,-0.32466495,0.5284088,12.52514934539795,1.4766993522644043,7.467619895935059,0.40047377347946167,2.9488093852996826, 0.3316396176815033
133,4100638089,0.7169447,0.31832904,-0.3243938,0.52860737,12.79418659210205,1.5284337997436523,7.6192216873168945,-0.14938606321811676,3.2171406745910645, 0.6438071727752686
134,4100654756,0.7170985,0.3178936,-0.3243142,0.5287097,12.516926765441895,1.409303903579712,7.453256130218506,-1.9085044860839844,2.7220983505249023, 0.7378314733505249
135,4100671423,0.7171855,0.31759244,-0.32411546,0.5288946,12.5366849899292,1.4482293128967285,7.561249732971191,-0.4825432598590851,2.8567957878112793, 0.8266050815582275
136,4100688090,0.7172855,0.3173292,-0.32391837,0.5290374,12.879720687866211,1.4867967367172241,7.635426998138428,-0.4219563901424408,2.651407480239868, 0.49124518036842346
137,4100704757,0.7173552,0.3171487,-0.3237525,0.52915287,12.468462944030762,1.0893614292144775,7.487133979797363,-0.12369654327630997,2.0748913288116455, 0.34942764043807983
138,4100721424,0.71740544,0.3171414,-0.32343653,0.5292823,12.847972869873047,1.5502535104751587,7.65969705581665,1.3533300161361694,2.175971508026123, -0.23066791892051697
139,4100738091,0.717484,0.31711185,-0.32323936,0.529314,12.537875175476074,1.3359023332595825,7.4361796379089355,0.5319309830665588,1.5273430347442627, -0.5055179595947266
140,4100754758,0.71750647,0.31729808,-0.32288185,0.5293901,12.653731346130371,1.4299765825271606,7.576280117034912,2.3995068073272705,1.5105153322219849, -0.9148983955383301
141,4100771425,0.71756864,0.31733188,-0.32270175,0.5293953,12.525856971740723,1.5063735246658325,7.307968616485596,0.7572970986366272,1.1290398836135864, -0.6851397752761841
142,4100788092,0.7176598,0.31735578,-0.32248303,0.5293908,12.653759002685547,1.5873678922653198,7.597936153411865,0.7650833129882812,1.4066686630249023, -0.8986855745315552
143,4100804759,0.7176563,0.31740245,-0.3222845,0.5294883,12.838685035705566,1.6353695392608643,7.4080376625061035,1.2348203659057617,1.2421200275421143, -0.05684739351272583
144,4100821426,0.7177145,0.3173427,-0.32229275,0.5294403,12.39710521697998,1.4873343706130981,7.458611011505127,-0.5065807700157166,0.4373176097869873, -0.31429344415664673
145,4100838093,0.7177144,0.31728265,-0.32223332,0.52951264,12.703953742980957,1.6854926347732544,7.4945173263549805,0.13503655791282654,0.9108709692955017, 0.3464438021183014
146,4100854760,0.71781504,0.31696147,-0.32247865,0.529419,12.51282024383545,1.7335649728775024,7.410770893096924,-2.8533060550689697,0.22644828259944916, 0.4053914546966553
147,4100871427,0.71777767,0.3166773,-0.3227256,0.5294893,12.674345970153809,1.824585199356079,7.524734020233154,-2.01326060295105,0.14136287569999695, 1.6421645879745483
148,4100888094,0.7178696,0.31595442,-0.3234159,0.5293753,12.845799446105957,2.253168821334839,7.455204010009766,-6.486186504364014,-0.5566409230232239, 2.2049143314361572
149,4100904761,0.71798754,0.31480145,-0.324573,0.5291941,12.468624114990234,1.969273567199707,7.21392822265625,-10.518036842346191,-1.3725080490112305, 3.762052059173584
150,4100921428,0.7181165,0.31363982,-0.32568187,0.52902764,12.761306762695312,2.251797676086426,7.440033912658691,-10.365616798400879,-1.0349071025848389, 3.7283971309661865
151,4100938095,0.7183339,0.31217182,-0.3273205,0.52858925,12.918437957763672,1.3165545463562012,7.240029335021973,-14.632881164550781,-2.9205162525177, 3.8871214389801025
152,4100954762,0.71784645,0.31194907,-0.32836008,0.52873814,12.513259887695312,-0.29393234848976135,7.802945137023926,-3.4764764308929443,-4.806569576263428, 5.248613357543945
153,4100971429,0.7167404,0.31323448,-0.32858852,0.52933663,12.551424026489258,0.5981616377830505,7.4440178871154785,9.292030334472656,-6.725707530975342, 4.550144195556641
154,4100988096,0.7158281,0.3143779,-0.3292543,0.5294793,12.573453903198242,1.3588478565216064,7.262762546539307,5.520057201385498,-8.917306900024414, 2.819261074066162
155,4101004763,0.71503824,0.31534538,-0.33003607,0.5294846,12.620586395263672,0.9484367966651917,7.236074447631836,3.7035272121429443,-8.862509727478027, 2.384382963180542
156,4101021430,0.7139055,0.31711763,-0.33014324,0.5298877,12.840472221374512,0.7508871555328369,6.927136421203613,11.744487762451172,-8.394721984863281, 2.278898000717163
157,4101038097,0.71268237,0.31948632,-0.32949734,0.53051305,12.908647537231445,1.656936764717102,6.75018310546875,18.137380599975586,-6.583841800689697, 0.7077502012252808
158,4101054764,0.71194327,0.32106876,-0.32919008,0.5307408,12.805519104003906,1.6194870471954346,6.907883167266846,11.085739135742188,-5.143109321594238, -0.4700188934803009
159,4101071431,0.7115428,0.32197762,-0.32910055,0.5307827,13.310571670532227,2.070943832397461,7.130170822143555,5.823118209838867,-3.391044855117798, -0.6047415137290955
160,4101088098,0.7114279,0.32242537,-0.32912368,0.5306504,12.944928169250488,1.7542431354522705,6.757369041442871,2.1253998279571533,-1.9923866987228394, -1.1939873695373535
161,4101104765,0.7115722,0.32250527,-0.3291816,0.5303725,13.375917434692383,1.8238744735717773,6.9078192710876465,-0.7012757658958435,-0.5489698648452759, -1.932299017906189
162,4101121432,0.7120972,0.32215655,-0.32920322,0.5298661,13.663785934448242,2.1073853969573975,7.437299728393555,-4.040032386779785,1.5547614097595215, -3.5510730743408203
163,4101138099,0.7133778,0.32085901,-0.3295417,0.52871925,14.003854751586914,2.7089641094207764,7.881836891174316,-12.98379135131836,3.7532811164855957, -6.593008041381836
164,4101154766,0.71538776,0.31877175,-0.3300312,0.5269577,14.652351379394531,2.7860848903656006,8.069273948669434,-20.434812545776367,6.179812431335449, -10.132096290588379
165,4101171433,0.71787435,0.31653002,-0.33016655,0.5248383,14.8984956741333,2.694188117980957,9.066661834716797,-22.0457820892334,8.74754810333252, -14.23132610321045
166,4101188100,0.72137976,0.31011626,-0.33296356,0.5220869,15.054973602294922,1.6449315547943115,10.191573143005371,-55.582366943359375,11.642379760742188, -5.513644695281982
167,4101204767,0.72526354,0.3013649,-0.33825925,0.5184136,13.120047569274902,4.322154998779297,5.633388996124268,-79.1622085571289,6.509547710418701, -0.8491567373275757
168,4101221434,0.7274403,0.2977273,-0.3423181,0.5147888,11.364455223083496,1.1029762029647827,2.7887816429138184,-45.87477111816406,-9.405097007751465, -9.118962287902832
169,4101238101,0.7259125,0.3029795,-0.3422271,0.51394093,11.157678604125977,1.5151572227478027,0.47409874200820923,27.52103042602539,-23.077417373657227, -11.44018840789795
170,4101254768,0.72315264,0.31107196,-0.3421342,0.51305825,11.135683059692383,2.893004894256592,0.8881152272224426,44.241355895996094,-35.97944641113281, -13.906634330749512
171,4101271435,0.71852034,0.31942433,-0.34722292,0.51101166,15.112142562866211,-3.6495914459228516,-9.77634334564209,28.506250381469727,-69.48306274414062, -2.589559316635132
172,4101288102,0.70932263,0.33347252,-0.35369405,0.5104492,12.620609283447266,-2.2304372787475586,-8.463860511779785,68.59647369384766,-103.25296020507812, 12.269761085510254
173,4101304769,0.6979179,0.34826642,-0.36296126,0.50978446,12.588798522949219,-3.5014424324035645,-5.460561752319336,70.81558990478516,-124.39498901367188, 26.09313201904297
174,4101321436,0.69202757,0.35130525,-0.3857862,0.49885035,12.829795837402344,3.317777633666992,1.1447221040725708,-70.90878295898438,-158.88650512695312, 19.40941047668457
175,4101338103,0.68396777,0.35733882,-0.4048095,0.4905371,12.621395111083984,-4.33884859085083,4.103919982910156,-39.02855682373047,-151.46279907226562, 18.003477096557617
176,4101354770,0.6766173,0.3619429,-0.4211304,0.48356545,12.961392402648926,-1.4959524869918823,9.9586820602417,-34.59304428100586,-128.72238159179688, 19.172245025634766
177,4101371437,0.6704657,0.36463755,-0.43362144,0.47904894,12.24390983581543,-1.2581485509872437,13.177507400512695,-26.585716247558594,-95.1514663696289, 22.57772445678711
178,4101388104,0.6663068,0.36561704,-0.44094098,0.4774208,12.525922775268555,1.0755929946899414,18.14708709716797,-13.813963890075684,-52.7229118347168, 21.454357147216797
179,4101404771,0.66697013,0.36151797,-0.44288182,0.47781956,17.236190795898438,4.443850040435791,29.07223892211914,-25.386037826538086,7.972677707672119, 16.81344223022461
180,4101421438,0.66955304,0.3584465,-0.4415687,0.47773662,30.75971031188965,7.771352291107178,10.470940589904785,-16.221210479736328,23.66892433166504, -2.8301475048065186
181,4101438105,0.6692946,0.3639605,-0.43670025,0.4784041,11.973971366882324,-1.113858938217163,-1.9922975301742554,44.20781707763672,5.102550983428955, -24.734153747558594
182,4101454772,0.66728944,0.36993477,-0.43431616,0.47879314,12.065577507019043,-0.27121832966804504,-1.2084271907806396,41.69422149658203,-13.630452156066895, -15.47550106048584
183,4101471439,0.66416585,0.37651455,-0.43292528,0.47926676,11.821700096130371,0.05179065465927124,0.8307084441184998,44.2977409362793,-23.18340492248535, -10.709817886352539
184,4101488106,0.6616156,0.3805049,-0.43356133,0.47906736,12.942164421081543,0.9698760509490967,5.310296535491943,22.30539894104004,-23.879884719848633, -2.732846975326538
185,4101504773,0.66094536,0.38190958,-0.43373874,0.47871405,14.039287567138672,3.282287120819092,8.267839431762695,6.6782636642456055,-8.107049942016602, -3.1137499809265137
186,4101521440,0.660723,0.38368043,-0.43140364,0.4797143,14.71524429321289,3.2469701766967773,3.849057197570801,19.46259117126465,6.912924289703369, -6.077340126037598
187,4101538107,0.66078806,0.38520336,-0.4296322,0.47999358,15.045052528381348,2.903608560562134,0.7193013429641724,13.563774108886719,4.144311428070068, -8.038987159729004
188,4101554774,0.6593196,0.3885774,-0.4282073,0.48056638,14.747218132019043,0.8346349596977234,-1.2513965368270874,25.739479064941406,-7.2044219970703125, -6.170268535614014
189,4101571441,0.657592,0.39185554,-0.42712823,0.48123115,13.231148719787598,0.9167084097862244,2.14587140083313,25.120378494262695,-8.858277320861816, -3.7121992111206055
190,4101588108,0.65645295,0.39340442,-0.42633444,0.4822257,13.458157539367676,0.047597482800483704,3.576434850692749,15.742815971374512,-1.7883572578430176, 1.6640138626098633
191,4101604775,0.6560119,0.39287955,-0.42658255,0.48303366,15.175243377685547,0.3523331582546234,2.9820778369903564,0.5067537426948547,1.9174631834030151, 7.3739423751831055
192,4101621442,0.65682256,0.38996983,-0.4285661,0.4825341,14.917136192321777,2.090672731399536,3.3331775665283203,-23.22205924987793,2.166461229324341, 8.97899341583252
193,4101638109,0.6580537,0.3866068,-0.4306326,0.48172215,13.92825984954834,1.2879371643066406,2.7892534732818604,-27.59807014465332,3.704688787460327, 7.748664379119873
194,4101654776,0.6578656,0.3862278,-0.43109822,0.4818665,14.179181098937988,0.3468223810195923,2.5325663089752197,-2.192242383956909,-0.5834189057350159, 3.6871213912963867
195,4101671443,0.6568399,0.38721943,-0.43109974,0.4824682,14.029728889465332,0.342679888010025,2.980184555053711,9.129938125610352,-4.274914741516113, 3.2165398597717285
196,4101688110,0.6558427,0.38781673,-0.43167847,0.48282745,14.100464820861816,0.6751295924186707,2.902153491973877,4.645959377288818,-6.127071857452393, 4.716048240661621
197,4101704777,0.65487224,0.3889877,-0.43174917,0.4831396,13.869613647460938,0.7886614799499512,2.187528610229492,8.710158348083496,-5.7784833908081055, 1.3487204313278198
198,4101721444,0.65384954,0.39040497,-0.43177113,0.48336163,13.901724815368652,1.1685646772384644,2.303995370864868,9.852667808532715,-6.751614093780518, 0.2494998425245285
199,4101738111,0.6531658,0.39133492,-0.43228248,0.4830769,14.222896575927734,1.6596869230270386,2.3951292037963867,3.618543863296509,-7.668495178222656, -0.39206644892692566
200,4101754778,0.65269154,0.39208597,-0.43291202,0.4825449,13.900420188903809,1.1957796812057495,2.2337279319763184,1.1178730726242065,-7.630613803863525, -1.336535096168518
201,4101771445,0.6519781,0.39339194,-0.43275964,0.4825832,13.808213233947754,1.2230483293533325,2.042553663253784,8.541640281677246,-5.12045431137085, -1.742432713508606
202,4101788112,0.65147364,0.3944489,-0.4326029,0.4825422,13.959592819213867,1.4348294734954834,1.9809677600860596,6.636053085327148,-3.8481812477111816, -2.0607340335845947
203,4101804779,0.65145856,0.39463094,-0.43315843,0.48191512,13.594948768615723,1.8319913148880005,2.4396533966064453,-2.7203125953674316,-4.24884033203125, -1.7699018716812134
204,4101821446,0.65162235,0.39449057,-0.43409488,0.48096505,13.526860237121582,1.3881945610046387,2.349520683288574,-6.879507541656494,-5.222929954528809, -1.8007266521453857
205,4101838113,0.6516123,0.39451468,-0.43526235,0.47990274,13.30491828918457,1.2123668193817139,2.7978267669677734,-6.772922992706299,-7.615490913391113, -1.5889739990234375
206,4101854780,0.6514659,0.39471495,-0.43655205,0.47876367,13.512772560119629,1.1332688331604004,2.6575803756713867,-6.246862888336182,-9.362944602966309, -1.6783113479614258
207,4101871447,0.6512204,0.39544144,-0.4380447,0.47713193,12.849677085876465,0.2926413118839264,2.562760591506958,-5.767126560211182,-13.63577651977539, -4.588479995727539
208,4101888114,0.650192,0.39759862,-0.43890202,0.4759523,13.052749633789062,-1.3505382537841797,2.1117103099823,6.21843147277832,-16.613401412963867, -6.052480220794678
209,4101904781,0.648506,0.4011721,-0.43902472,0.4751405,13.113165855407715,0.3111136257648468,2.6304328441619873,17.8781795501709,-18.931739807128906, -8.595797538757324
210,4101921448,0.646987,0.40516022,-0.43932354,0.47354817,13.242191314697266,1.2669802904129028,1.7510722875595093,16.337968826293945,-22.7228946685791, -13.40609073638916
211,4101938115,0.6456403,0.4091611,-0.4397739,0.47152394,13.04810905456543,1.3193868398666382,1.7021273374557495,14.11059284210205,-24.104915618896484, -15.500682830810547
212,4101954782,0.64402366,0.4134178,-0.43991503,0.46988738,13.333459854125977,1.1977463960647583,1.2353510856628418,18.17416763305664,-23.278675079345703, -14.543329238891602
213,4101971449,0.6421553,0.41791713,-0.43992084,0.4684569,13.196382522583008,1.7870606184005737,1.243304967880249,21.01961326599121,-23.623239517211914, -13.937169075012207
214,4101988116,0.63973534,0.42298946,-0.43960965,0.46750632,12.911438941955566,1.7700612545013428,1.1300408840179443,27.5985050201416,-24.349023818969727, -12.674986839294434
215,4102004783,0.636811,0.4281359,-0.43962315,0.46680093,12.537056922912598,1.5691412687301636,1.7971302270889282,29.082611083984375,-26.82147789001465, -9.246391296386719
216,4102021450,0.6335998,0.43280345,-0.44027975,0.46624705,12.965961456298828,3.1592326164245605,1.1698541641235352,26.222915649414062,-28.537334442138672, -4.318734169006348
217,4102038117,0.6307928,0.43618655,-0.44242552,0.46486712,12.68319320678711,2.965611219406128,0.827038049697876,12.138785362243652,-32.14078903198242, -0.8557621240615845
218,4102054784,0.62790406,0.43919277,-0.44509977,0.46339232,12.518369674682617,1.5567901134490967,1.357617735862732,8.762289047241211,-33.757259368896484, 1.7565455436706543
219,4102071451,0.62419695,0.44313216,-0.44688168,0.46293533,12.551485061645508,1.4922648668289185,1.2310009002685547,21.221851348876953,-32.32087707519531, 3.2030065059661865
220,4102088118,0.6203813,0.44705153,-0.44829416,0.46293017,12.485246658325195,1.3529287576675415,1.3789416551589966,24.033946990966797,-29.638708114624023, 4.417860984802246
221,4102104785,0.6164942,0.45096287,-0.44940096,0.46325606,12.461079597473145,1.9389435052871704,0.04128758981823921,26.21567153930664,-27.527376174926758, 5.133111953735352
222,4102121452,0.6127004,0.4544805,-0.45103195,0.46326685,12.020963668823242,1.4482496976852417,-0.13023586571216583,21.611846923828125,-29.168582916259766, 6.347823619842529
223,4102138119,0.60858566,0.45802528,-0.45275235,0.463521,11.798660278320312,0.8922548294067383,1.5808537006378174,23.198280334472656,-29.85291290283203, 8.585402488708496
224,4102154786,0.60366625,0.46234602,-0.4534978,0.46493322,11.83955192565918,1.451062798500061,1.9049044847488403,35.69804763793945,-27.13418960571289, 10.4932222366333
225,4102171453,0.5980056,0.4671845,-0.45329773,0.4675992,11.649679183959961,0.40543511509895325,1.04820716381073,47.14182662963867,-23.227874755859375, 13.443432807922363
226,4102188120,0.5902832,0.47436517,-0.4500504,0.47328442,11.747797012329102,0.620884895324707,0.05987723916769028,82.6091537475586,-14.973170280456543, 15.369186401367188
227,4102204787,0.58226836,0.48096645,-0.4471245,0.4792857,12.616803169250488,3.3487768173217773,-1.257032036781311,81.14706420898438,-14.260308265686035, 20.42132568359375
228,4102221454,0.5764931,0.48433658,-0.44748595,0.4825247,11.731257438659668,3.6527955532073975,-1.7519117593765259,41.46799850463867,-18.98291015625, 22.827892303466797
229,4102238121,0.57023144,0.48759237,-0.44768038,0.48648942,12.031603813171387,2.0870778560638428,-0.5226515531539917,45.40856170654297,-16.976179122924805, 27.164621353149414
230,4102254788,0.56503266,0.4893912,-0.4498493,0.48874348,11.062347412109375,1.5339140892028809,0.23914168775081635,24.262897491455078,-22.29450035095215, 28.01785659790039
231,4102271455,0.56000924,0.49137822,-0.45232737,0.49024206,10.952180862426758,-0.49473369121551514,0.36341193318367004,21.03169822692871,-26.138423919677734, 24.956342697143555
232,4102288122,0.5549329,0.4944406,-0.4543547,0.49106,10.709737777709961,-0.5133519768714905,0.2626890242099762,24.764087677001953,-30.50653839111328, 17.604999542236328
233,4102304789,0.5500532,0.4979091,-0.4571204,0.4904785,10.451545715332031,0.30727526545524597,1.3318424224853516,18.78777503967285,-38.85074996948242, 12.804884910583496
234,4102321456,0.5434329,0.50348175,-0.4577614,0.49157065,11.204727172851562,-0.07757657766342163,-0.899347722530365,45.13432312011719,-37.69451904296875, 11.103111267089844
235,4102338123,0.53599465,0.5098229,-0.45699343,0.4939104,11.309358596801758,0.8574305772781372,-1.6379163265228271,59.52777099609375,-33.26792526245117, 11.206303596496582
236,4102354790,0.53063244,0.5135389,-0.4575283,0.4953534,11.983338356018066,3.8625283241271973,-2.5657007694244385,35.330204010009766,-25.743549346923828, 13.664968490600586
237,4102371457,0.5267698,0.5158142,-0.45814225,0.49654308,11.131505012512207,0.5509071350097656,-2.6323554515838623,23.701440811157227,-17.25094223022461, 12.519652366638184
238,4102388124,0.5227483,0.5190251,-0.45635283,0.49908856,11.139158248901367,-0.7330362200737,-2.5370020866394043,40.1262321472168,-7.384544372558594, 6.490866661071777
239,4102404791,0.5202574,0.52180713,-0.4538007,0.50111336,11.192391395568848,-2.0000510215759277,-2.141798973083496,34.10490417480469,-0.18427132070064545, -2.0534167289733887
240,4102421458,0.5224617,0.5207346,-0.45400378,0.49974978,12.439689636230469,-1.81056809425354,0.6099885106086731,-16.58979034423828,5.765061378479004, -8.5081787109375
241,4102438125,0.5317016,0.5124713,-0.46155092,0.49156627,11.1452054977417,-2.3310132026672363,3.639838218688965,-114.12804412841797,1.6005666255950928, -8.494369506835938
242,4102454792,0.54294527,0.50128937,-0.47461826,0.478181,10.866701126098633,-6.723790645599365,5.947031497955322,-167.01478576660156,-20.792573928833008, -5.623318195343018
243,4102471459,0.5519602,0.49032703,-0.49145836,0.46193966,17.287965774536133,-8.317026138305664,2.6693637371063232,-180.21263122558594,-52.86799240112305, 3.158804416656494
244,4102488126,0.5584171,0.47758418,-0.5145444,0.44195935,24.06891632080078,-16.318204879760742,5.570830345153809,-210.81881713867188,-92.20467376708984, 23.952409744262695
245,4102504793,0.5648081,0.459768,-0.54232985,0.41890785,12.791109085083008,5.573509216308594,8.78857707977295,-255.2381134033203,-105.23308563232422, 45.30705261230469
246,4102521460,0.5722137,0.43377364,-0.57715166,0.38898334,8.922069549560547,-4.69085168838501,-3.528646945953369,-336.20465087890625,-127.1556625366211, 68.6425552368164
247,4102538127,0.56772065,0.41851607,-0.6016205,0.37495384,11.549338340759277,-13.7372407913208,-3.0503406524658203,-167.6194610595703,-114.74586486816406, 89.425048828125
248,4102554794,0.5457494,0.4233643,-0.60555196,0.39525574,11.779261589050293,-17.151790618896484,1.0152137279510498,156.12924194335938,-59.85354232788086, 125.90032958984375
249,4102571461,0.5261461,0.4227974,-0.6054736,0.42168042,6.715250492095947,-6.719595909118652,7.669148921966553,165.29608154296875,-2.5538249015808105, 152.911865234375
250,4102588128,0.51852834,0.4080451,-0.6057389,0.4446437,-5.56410551071167,-1.3862662315368652,12.568811416625977,63.71479034423828,76.8687973022461, 165.61044311523438
251,4102604795,0.52508146,0.3784594,-0.6036643,0.4654543,-15.353723526000977,4.168298721313477,12.777996063232422,-30.736352920532227,183.21975708007812, 169.88983154296875
252,4102621462,0.5388676,0.34274456,-0.5932741,0.4900755,-14.568645477294922,10.271539688110352,-3.32529354095459,-29.240999221801758,272.53912353515625, 164.46359252929688
253,4102638129,0.5539975,0.31773788,-0.56701005,0.52022034,0.2786881923675537,20.827621459960938,-24.342803955078125,83.41431427001953,313.9240417480469, 99.6039047241211
254,4102654796,0.57181305,0.28926238,-0.56685805,0.5177155,12.836465835571289,11.133980751037598,-71.26566314697266,-156.29685974121094,166.6846160888672, 36.84142303466797
255,4102671463,0.55273986,0.32310423,-0.582963,0.50023645,80.36603546142578,67.00762939453125,-85.8101806640625,46.307106018066406,-290.564697265625, -100.84131622314453
256,4102688130,0.52223456,0.37222764,-0.58542806,0.4959755,-19.53445053100586,-21.25652503967285,58.78840637207031,229.20130920410156,-310.0008850097656, -102.72270965576172
257,4102704797,0.48092818,0.4275154,-0.56591505,0.51544064,30.824504852294922,18.27564811706543,-27.611614227294922,449.6889953613281,-234.9829864501953, -61.7798957824707
258,4102721464,0.48281047,0.4239572,-0.6054566,0.4696562,-22.635929107666016,-2.4964518547058105,3.9169199466705322,-335.59466552734375,-245.32110595703125, -27.945493698120117
259,4102738131,0.45754135,0.4463258,-0.5960198,0.4860139,7.582876682281494,-24.270431518554688,-16.55851173400879,246.71324157714844,-98.2302474975586, 15.314726829528809
260,4102754798,0.45625976,0.44346255,-0.6141318,0.46691576,16.70482063293457,13.48692512512207,5.275798320770264,-143.69422912597656,-110.99490356445312, 11.44454574584961
261,4102771465,0.450381,0.44934216,-0.6199274,0.4592807,22.052757263183594,-1.6396775245666504,-6.159623622894287,-14.293561935424805,-84.92134857177734, -12.209271430969238
262,4102788132,0.44372395,0.46025693,-0.6188838,0.4563501,11.468473434448242,2.174408197402954,-6.927380561828613,45.355472564697266,-68.407470703125, -37.76021194458008
263,4102804799,0.44231188,0.46580297,-0.6236987,0.4454077,15.780679702758789,-7.472032070159912,-0.8491500020027161,-40.083534240722656,-72.43013763427734, -37.24308395385742
264,4102821466,0.43946725,0.47349524,-0.62719536,0.43508273,21.34529685974121,-1.6357783079147339,-1.1373032331466675,-22.294198989868164,-79.18318939208984, -44.4504280090332
265,4102838133,0.43797597,0.4806617,-0.6337499,0.41893023,23.807056427001953,-3.800623655319214,4.742367744445801,-62.5716438293457,-100.03048706054688, -53.87154006958008
266,4102854800,0.43268678,0.4922851,-0.63919526,0.40232694,26.679372787475586,-5.123754501342773,14.423579216003418,-35.38162612915039,-127.7001724243164, -67.38854217529297
267,4102871467,0.42661273,0.50430894,-0.6471096,0.380688,23.559953689575195,-1.28857421875,25.3403377532959,-60.52235412597656,-156.9411163330078, -73.63633728027344
268,4102888134,0.4243222,0.5134387,-0.65748715,0.35219598,16.896080017089844,1.0146658420562744,24.677934646606445,-119.08760070800781,-163.9866485595703, -82.23835754394531
269,4102904801,0.41571784,0.52417004,-0.6716832,0.31822303,15.76858139038086,-10.108877182006836,12.206427574157715,-126.14000701904297,-227.3761444091797, -76.72063446044922
270,4102921468,0.3809762,0.54872024,-0.6757647,0.31161743,16.99125862121582,-13.594823837280273,14.364084243774414,156.10438537597656,-251.08177185058594, -41.71010971069336
271,4102938135,0.3520102,0.56401145,-0.68323696,0.30193904,22.537580490112305,-4.570835590362549,33.40693283081055,88.38667297363281,-225.2192840576172, -6.434432506561279
272,4102954802,0.33120435,0.5730847,-0.6883842,0.2966561,23.073570251464844,-0.6529980897903442,35.04646682739258,67.11473846435547,-152.0261688232422, 7.464672088623047
273,4102971469,0.32838324,0.5713646,-0.6947273,0.28820288,18.721906661987305,-3.8033018112182617,26.208969116210938,-45.79970169067383,-60.902099609375, 19.382993698120117
274,4102988136,0.34026065,0.5593562,-0.7002293,0.28464463,10.621586799621582,0.9587504863739014,27.547359466552734,-101.80087280273438,50.20038986206055, 47.01371383666992
275,4103004803,0.36819804,0.5363279,-0.70333046,0.2865467,4.053410530090332,1.5661823749542236,24.21176528930664,-158.43235778808594,175.18722534179688, 72.03422546386719
276,4103021470,0.40477774,0.5088319,-0.69367623,0.30993307,7.433041572570801,1.7010245323181152,21.669170379638672,-72.6256103515625,336.9902038574219, 83.83068084716797
277,4103038137,0.44478807,0.48285416,-0.6631722,0.35946938,15.745894432067871,2.2006053924560547,15.921464920043945,88.85067749023438,499.48016357421875, 69.15888214111328
278,4103054804,0.48713186,0.45826492,-0.6109205,0.4236418,26.511856079101562,5.000579833984375,-1.5391497611999512,206.0919647216797,621.8036499023438, 29.8670654296875
279,4103071471,0.5258881,0.43880078,-0.54031855,0.4888267,28.2003116607666,6.61618185043335,-20.78005599975586,292.5349426269531,656.6544189453125, -35.21277618408203
280,4103088138,0.57448417,0.40126073,-0.4901334,0.5183892,32.687110900878906,7.784024238586426,-34.66535568237305,-3.970794439315796,572.7356567382812, -67.97528076171875
281,4103104805,0.6137057,0.355556,-0.46461695,0.5301665,25.448877334594727,-14.25900650024414,-58.70461654663086,-158.36752319335938,424.4898681640625, -9.093173027038574
282,4103121472,0.63106686,0.3295938,-0.44872266,0.5401582,3.567701816558838,1.026357650756836,-60.00300598144531,-62.10840606689453,239.3583221435547, 23.067337036132812
283,4103138139,0.6382104,0.31509715,-0.45364487,0.5362907,-4.543649673461914,-7.668979644775391,-56.99753189086914,-109.18092346191406,45.22624206542969, 12.663619995117188
284,4103154806,0.6302098,0.32611215,-0.45568255,0.5374384,-6.732386112213135,0.6713688969612122,-45.2802619934082,62.086551666259766,-70.98416900634766, 4.472162246704102
285,4103171473,0.614984,0.35151434,-0.45746326,0.53755,-10.156367301940918,14.285534858703613,-32.72483825683594,138.43292236328125,-146.79005432128906, -19.05666160583496
286,4103188140,0.5930688,0.3842749,-0.465492,0.532841,-11.245262145996094,-0.6912682056427002,-56.13228225708008,147.34141540527344,-232.2898712158203, -22.53660774230957
287,4103204807,0.55405045,0.42807624,-0.47523394,0.5328524,29.532405853271484,-16.23346519470215,-5.331293106079102,246.55039978027344,-320.5010681152344, 28.23480796813965
288,4103221474,0.52297026,0.4529629,-0.4983581,0.52246165,32.761619567871094,39.29286575317383,21.672142028808594,68.12318420410156,-306.4850158691406, 60.004310607910156
289,4103238141,0.5054703,0.4621227,-0.53913194,0.49018288,-0.8503045439720154,-1.5729621648788452,-16.394201278686523,-169.4418182373047,-335.84912109375, 42.7656364440918
290,4103254808,0.46244398,0.49907932,-0.5308289,0.5052586,5.899747848510742,-6.320735931396484,-4.57119607925415,349.577880859375,-202.5508270263672, 34.19430923461914
291,4103271475,0.44366577,0.5123566,-0.5459929,0.49248695,5.816102981567383,14.05580997467041,-4.4861578941345215,7.763956546783447,-201.79359436035156, 27.88344955444336
292,4103288142,0.42546338,0.5248469,-0.5524091,0.48822227,10.406172752380371,-22.18766975402832,-3.5175955295562744,64.94441986083984,-140.23472595214844, 24.47258186340332
293,4103304809,0.40965185,0.5345885,-0.55307615,0.49041572,16.854148864746094,-5.956554889678955,2.8456833362579346,92.05941009521484,-81.78844451904297, 24.155750274658203
294,4103321476,0.40989077,0.53147125,-0.5708844,0.47288376,18.814453125,-1.191324234008789,-0.4556303918361664,-136.00027465820312,-98.46318054199219, 26.27066993713379
295,4103338143,0.40710026,0.5320567,-0.58486986,0.457288,21.921323776245117,-2.191606044769287,6.0204925537109375,-94.46952056884766,-104.71302032470703, 13.263774871826172
296,4103354810,0.4038014,0.53224665,-0.6030244,0.4359123,25.134395599365234,5.949382305145264,18.006818771362305,-130.11834716796875,-138.8237762451172, 15.673484802246094
297,4103371477,0.4043052,0.52970785,-0.62839174,0.40133622,23.13458251953125,6.59664249420166,29.98305320739746,-228.01303100585938,-184.30133056640625, 5.821476459503174
298,4103388144,0.40912056,0.52997434,-0.64748096,0.36402756,15.999805450439453,11.691454887390137,33.4652099609375,-230.39810180664062,-167.4849395751953, -48.25082778930664
299,4103404811,0.39973384,0.5373639,-0.6673527,0.3257201,11.822683334350586,-15.27291488647461,0.26962006092071533,-164.8583221435547,-256.077880859375, -43.928001403808594
300,4103421478,0.35384378,0.5709692,-0.6605372,0.33537987,13.91226577758789,-14.134025573730469,13.753171920776367,321.9461364746094,-231.9690704345703, -49.81619644165039
301,4103438145,0.32524377,0.5900422,-0.6565301,0.33916807,8.692399024963379,14.199851036071777,39.699729919433594,185.20729064941406,-150.56039428710938, -27.32830047607422
302,4103454812,0.3445978,0.5816484,-0.67738754,0.28997263,8.379143714904785,10.888728141784668,35.79015350341797,-367.84002685546875,-142.3712615966797, -32.333946228027344
303,4103471479,0.3651701,0.57181066,-0.688725,0.25561956,14.493668556213379,-11.859776496887207,22.844770431518555,-287.62164306640625,-53.429656982421875, -30.993404388427734
304,4103488146,0.37623826,0.56983984,-0.6836382,0.2576166,16.38091468811035,-14.086020469665527,22.213685989379883,-29.574893951416016,70.72586822509766, -25.578439712524414
305,4103504813,0.38855675,0.56809866,-0.6687579,0.28115907,15.484392166137695,-10.67618465423584,14.561583518981934,84.6187973022461,184.73358154296875, -12.023165702819824
306,4103521480,0.40380648,0.56355876,-0.64534557,0.32073486,11.387853622436523,-6.7154388427734375,10.593381881713867,155.90708923339844,288.1732482910156, 4.528380870819092
307,4103538147,0.4249912,0.5523235,-0.61609304,0.36708403,9.351804733276367,-4.2898850440979,6.192663669586182,157.3045654296875,371.1532897949219, 17.456396102905273
308,4103554814,0.45655707,0.5289943,-0.5853466,0.41120583,11.16434097290039,-4.627944469451904,-1.2933168411254883,76.8679428100586,441.2568359375, 30.457992553710938
309,4103571481,0.4932729,0.49562892,-0.5525306,0.45358998,9.2337064743042,-4.598426342010498,-10.753586769104004,25.46019744873047,490.6285095214844, 43.27336502075195
310,4103588148,0.53198504,0.45417833,-0.5211543,0.48899126,9.247014045715332,-1.844777226448059,-19.152881622314453,-39.81187057495117,495.3318176269531, 48.78410720825195
311,4103604815,0.56693196,0.40812778,-0.49461287,0.5170863,12.633935928344727,-1.206120252609253,-30.471738815307617,-87.29025268554688,457.82073974609375, 66.11034393310547
312,4103621482,0.59477276,0.36367467,-0.47614363,0.53597903,11.462028503417969,3.8142690658569336,-37.140472412109375,-121.01937103271484,372.3216857910156, 72.51805114746094
313,4103638149,0.61510456,0.33032405,-0.46390134,0.5452778,3.0319910049438477,5.282618999481201,-45.161624908447266,-111.06217193603516,259.4022216796875, 40.25093078613281
314,4103654816,0.62368274,0.31585273,-0.45412317,0.55229455,-4.005808353424072,1.0196586847305298,-44.72785186767578,-20.87968635559082,137.88414001464844, 20.267919540405273
315,4103671483,0.6232824,0.31529084,-0.4529845,0.554,-7.088967800140381,7.0567450523376465,-43.46650314331055,9.104636192321777,10.644012451171875, 6.940451622009277
316,4103688150,0.6160081,0.3215933,-0.47018805,0.544091,-7.645028114318848,8.439783096313477,-39.562801361083984,-52.576114654541016,-138.64830017089844, 1.992572546005249
317,4103704817,0.5978503,0.3445625,-0.4884675,0.53408927,-4.83775520324707,0.5873074531555176,-30.19792938232422,37.74299240112305,-239.11639404296875, -8.9043550491333
318,4103721484,0.5632896,0.38753453,-0.49737254,0.53398734,-2.0052709579467773,-4.0603346824646,-45.899417877197266,226.68594360351562,-304.3223571777344, 2.2984530925750732
319,4103738151,0.522814,0.43636897,-0.49864194,0.5362872,13.738592147827148,14.79848575592041,-2.1627585887908936,301.615966796875,-307.8083190917969, -8.109001159667969
320,4103754818,0.49162823,0.4673151,-0.5023959,0.53620565,1.1073014736175537,7.905930042266846,0.6553215980529785,191.64759826660156,-225.90423583984375, 18.007333755493164
321,4103771485,0.470728,0.47853902,-0.5262796,0.52196336,44.690574645996094,-2.481010913848877,16.981962203979492,-31.353273391723633,-231.3584747314453, 65.23963928222656
322,4103788152,0.45223388,0.49366564,-0.5465584,0.5030436,9.732499122619629,29.56703758239746,4.445852756500244,-30.70693588256836,-241.4034423828125, 15.64122200012207
323,4103804819,0.42923087,0.5085892,-0.562308,0.49082375,0.3967524468898773,-2.4468324184417725,-7.804875373840332,24.772510528564453,-221.23269653320312, 39.143001556396484
324,4103821486,0.41454107,0.5155736,-0.5774746,0.4783961,1.4689884185791016,-11.470795631408691,-4.34662389755249,-26.4674015045166,-160.89027404785156, 38.96182632446289
325,4103838153,0.41052833,0.51638776,-0.5932741,0.4613417,8.759554862976074,-6.211003303527832,-4.551400661468506,-102.35899353027344,-116.20743560791016, 16.891244888305664
326,4103854820,0.4081555,0.51822275,-0.60266113,0.4490591,20.147384643554688,-7.9599480628967285,-4.223191738128662,-65.5251693725586,-77.6046142578125, -1.8742130994796753
327,4103871487,0.4050723,0.5232271,-0.6074017,0.4395602,27.237442016601562,0.7135141491889954,3.258373498916626,-28.32322120666504,-67.49178314208984, -21.754671096801758
328,4103888154,0.40272367,0.5275322,-0.61789817,0.4215749,26.756500244140625,1.8825324773788452,15.462040901184082,-85.83224487304688,-109.61490631103516, -23.635499954223633
329,4103904821,0.39767644,0.53470856,-0.6314554,0.39648995,22.59467315673828,3.558537483215332,33.251487731933594,-107.23064422607422,-165.1612091064453, -36.13829803466797
330,4103921488,0.3942999,0.54387766,-0.64435816,0.36541402,14.664693832397461,10.232344627380371,45.756248474121094,-132.234619140625,-186.1554412841797, -67.71235656738281
331,4103938155,0.38143507,0.55510926,-0.65738374,0.33794627,2.794304609298706,-16.246623992919922,8.295037269592285,-75.29578399658203,-223.3822021484375, -42.162376403808594
332,4103954822,0.32981038,0.5914914,-0.6385659,0.365509,3.2633843421936035,-11.656739234924316,2.8631021976470947,461.3916931152344,-164.08836364746094, -43.87956619262695
333,4103971489,0.30827343,0.6054494,-0.63138473,0.3738341,3.6243200302124023,18.056781768798828,45.49733352661133,173.8385467529297,-80.40991973876953, -17.824281692504883
334,4103988156,0.3341293,0.59168684,-0.65355885,0.33335474,9.25428295135498,6.2069501876831055,26.014541625976562,-369.326904296875,-71.54307556152344, 0.35480406880378723
335,4104004823,0.36284527,0.5706651,-0.68104315,0.28082913,13.343631744384766,-11.540188789367676,9.382718086242676,-463.9855651855469,-105.13478088378906, 20.038814544677734
336,4104021490,0.37432495,0.55759156,-0.6987341,0.24646173,16.78427505493164,-10.579231262207031,9.45348072052002,-272.6675720214844,-106.3301773071289, 21.639741897583008
337,4104038157,0.3668212,0.5558184,-0.7047333,0.2446615,14.739057540893555,-8.733129501342773,12.31679630279541,5.183449745178223,-62.732303619384766, 37.60686111450195
338,4104054824,0.3522214,0.5581988,-0.70038635,0.27168605,11.044384956359863,-3.48303484916687,17.061248779296875,199.56732177734375,30.903188705444336, 62.33149337768555
339,4104071491,0.34514344,0.55749136,-0.6862383,0.31489137,4.777361869812012,1.494146704673767,18.347877502441406,259.3550720214844,157.35568237304688, 65.1856918334961
340,4104088158,0.35668758,0.54739755,-0.66683805,0.35840932,1.114797592163086,7.477343559265137,18.057331085205078,178.49501037597656,278.0755615234375, 50.528133392333984
341,4104104825,0.39116442,0.5242733,-0.6468714,0.39202747,0.6317982077598572,8.412195205688477,11.798556327819824,16.22994041442871,378.5550842285156, 28.05145263671875
342,4104121492,0.44516402,0.4865932,-0.62815213,0.41289353,1.9646306037902832,10.421097755432129,2.1659462451934814,-153.45521545410156,454.8533020019531, 10.516622543334961
343,4104138159,0.50452757,0.43872693,-0.60900325,0.42671496,5.223466396331787,3.1378936767578125,-11.275297164916992,-231.82626342773438,484.7540588378906, 16.1240234375
344,4104154826,0.55006933,0.39832947,-0.5768655,0.4538543,7.238286972045898,-4.882486343383789,-21.62578582763672,-70.12146759033203,491.00543212890625, 32.03310775756836
345,4104171493,0.5756282,0.37653765,-0.52897626,0.4970471,12.754667282104492,-2.842877149581909,-36.262237548828125,168.18377685546875,458.8194274902344, 37.978240966796875
346,4104188160,0.59106326,0.37146005,-0.4752002,0.53558075,10.650508880615234,6.171141147613525,-41.656288146972656,264.0849304199219,378.7283630371094, -21.614660263061523
347,4104204827,0.61031675,0.35220706,-0.46109888,0.5393067,1.2416934967041016,1.051261067390442,-43.30855178833008,-63.22639846801758,196.16566467285156, -28.978652954101562
348,4104221494,0.62110865,0.33099368,-0.47333583,0.5297364,-4.922471523284912,-5.83702278137207,-44.1005859375,-190.66436767578125,36.9171028137207, 16.556581497192383
349,4104238161,0.61487746,0.33168066,-0.48653245,0.5245949,-11.122261047363281,-5.886235237121582,-41.40536117553711,-47.081565856933594,-89.35125732421875, 28.02649688720703
350,4104254828,0.59189886,0.35830092,-0.49305516,0.52742106,-7.849808216094971,-1.8644566535949707,-32.864349365234375,151.906494140625,-190.01904296875, 19.6206111907959
351,4104271495,0.5469462,0.4109605,-0.5007316,0.53031045,-0.7399189472198486,15.015819549560547,-65.04872131347656,308.4062805175781,-361.7493896484375, 13.471858024597168
352,4104288162,0.508038,0.45022798,-0.5180024,0.5204478,20.111305236816406,10.820749282836914,10.336318016052246,161.78382873535156,-359.7048034667969, 16.730432510375977
353,4104304829,0.46712348,0.48782212,-0.51823765,0.52464765,-2.868478298187256,7.2088165283203125,-8.651285171508789,272.9714050292969,-258.5750427246094, 26.445697784423828
354,4104321496,0.4440361,0.50326157,-0.53204244,0.51622725,18.27263069152832,8.317164421081543,6.365365028381348,47.939857482910156,-200.5284423828125, 46.02216339111328
355,4104338163,0.43389124,0.50446475,-0.55213326,0.5023969,12.027466773986816,-6.845422267913818,-2.452223777770996,-82.40564727783203,-141.23095703125, 58.140052795410156
356,4104354830,0.42643017,0.50462735,-0.5714884,0.48673368,16.69054412841797,2.882206439971924,1.2823660373687744,-99.13823699951172,-131.61541748046875, 44.67359161376953
357,4104371497,0.4187595,0.50570947,-0.5892493,0.47083324,14.955411911010742,2.2330844402313232,3.204007387161255,-91.24639129638672,-132.06549072265625, 36.11513137817383
358,4104388164,0.4104038,0.50868684,-0.6055711,0.45397156,17.446834564208984,3.886442184448242,2.877169370651245,-82.599853515625,-140.75177001953125, 23.365806579589844
359,4104404831,0.40070066,0.51563317,-0.6177092,0.4381744,15.955780982971191,3.653200387954712,5.956991672515869,-49.15747833251953,-143.86459350585938, -0.04009995236992836
360,4104421498,0.39371762,0.52706903,-0.6244039,0.42107576,17.016658782958984,2.6137192249298096,15.612931251525879,-35.58082962036133,-136.32664489746094, -49.748863220214844
361,4104438165,0.39219254,0.53845066,-0.6278764,0.40252593,14.923003196716309,2.3482284545898438,27.794918060302734,-52.5198974609375,-110.87382507324219, -80.5682601928711
362,4104454832,0.39825338,0.54059666,-0.6394606,0.37448594,3.2410972118377686,-0.2974235415458679,28.229537963867188,-169.0159912109375,-112.0223388671875, -56.9394645690918
363,4104471499,0.38731304,0.5488195,-0.6546009,0.3468194,8.10811996459961,-20.24929428100586,-6.181338310241699,-96.67525482177734,-212.91217041015625, -25.668672561645508
364,4104488166,0.3426249,0.5784123,-0.6529675,0.34882784,13.916738510131836,-13.562077522277832,6.711857795715332,260.871337890625,-259.0025634765625, -26.977087020874023
365,4104504833,0.3035662,0.5988643,-0.6568689,0.34312174,15.258028984069824,10.237080574035645,27.377418518066406,168.62744140625,-256.4350280761719, 3.6190786361694336
366,4104521500,0.29786322,0.60352504,-0.6768558,0.2981635,13.267261505126953,15.877071380615234,31.954437255859375,-216.7226104736328,-266.0852966308594, -18.792028427124023
367,4104538167,0.30242032,0.6023679,-0.6966911,0.24559473,11.936197280883789,-1.6852340698242188,27.72943115234375,-305.7675476074219,-240.23715209960938, -28.452577590942383
368,4104554834,0.29943728,0.6036094,-0.7056592,0.21917588,11.905288696289062,-5.951313495635986,31.071712493896484,-125.743896484375,-151.46145629882812, -18.44478416442871
369,4104571501,0.2998735,0.6017097,-0.7103399,0.20842017,7.378116130828857,-3.364116668701172,29.033432006835938,-64.02420043945312,-58.4024543762207, 5.433385372161865
370,4104588168,0.31125265,0.5939192,-0.7124123,0.20700401,7.402487754821777,-3.14784574508667,22.34874725341797,-72.122802734375,45.79935836791992, 26.543617248535156
371,4104604835,0.33302894,0.5814345,-0.7096603,0.21773414,7.374173164367676,-1.6820271015167236,19.268552780151367,-58.34807205200195,162.01866149902344, 40.62060546875
372,4104621502,0.36488354,0.565596,-0.69948494,0.2401712,7.7852702140808105,-1.989107370376587,14.91638469696045,-38.0896110534668,278.9011535644531, 38.76651382446289
373,4104638169,0.39906526,0.5505198,-0.6773886,0.28074867,7.225968837738037,-2.91788911819458,7.763461112976074,61.7957878112793,388.4348449707031, 30.38943099975586
374,4104654836,0.4379776,0.53144485,-0.6467835,0.3277395,5.183448791503906,-1.1627129316329956,0.12119153141975403,79.25865936279297,465.4060363769531, 25.48830795288086
375,4104671503,0.4787388,0.5072133,-0.60840684,0.37866244,4.28715705871582,-2.0843663215637207,-6.7718424797058105,92.03652954101562,523.2167358398438, 28.10038948059082
376,4104688170,0.51838195,0.47709537,-0.56568897,0.4285514,4.254249572753906,-7.232104778289795,-16.055341720581055,83.46357727050781,545.2138061523438, 37.43791198730469
377,4104704837,0.5558644,0.43908337,-0.5223418,0.4747416,10.713470458984375,-8.061087608337402,-21.838151931762695,49.75414276123047,551.53125, 59.13553237915039
378,4104721504,0.5856282,0.40082046,-0.47943097,0.51626414,22.40664291381836,-1.4473692178726196,-32.45541763305664,53.90187454223633,510.54205322265625, 68.41497802734375
379,4104738171,0.6210277,0.35029212,-0.4626286,0.5268728,11.351421356201172,23.76483154296875,-35.60602569580078,-205.7783966064453,384.9005432128906, 36.05823516845703
380,4104754838,0.65282905,0.28947234,-0.4797849,0.50973177,-1.799910545349121,-6.31550407409668,-54.06969451904297,-453.2720031738281,201.6710205078125, 46.04904556274414
381,4104771505,0.6595896,0.2696758,-0.4855163,0.506449,-6.758166790008545,1.8927724361419678,-46.374053955078125,-132.66835021972656,57.78606414794922, 37.417381286621094
382,4104788172,0.653385,0.27621093,-0.49167636,0.505025,-8.441588401794434,10.272136688232422,-41.36667251586914,15.84737777709961,-72.73163604736328, 4.002529621124268
383,4104804839,0.63573015,0.2983747,-0.5027044,0.50409126,-6.054625511169434,2.7396597862243652,-36.39327621459961,92.61155700683594,-184.16041564941406, 2.822667121887207
384,4104821506,0.5944906,0.35104722,-0.5109408,0.51213914,-0.3040294647216797,3.4377994537353516,-68.92766571044922,315.51116943359375,-338.80828857421875, 12.336057662963867
385,4104838173,0.55406505,0.4006725,-0.5259098,0.5058582,24.392595291137695,23.993867874145508,12.790987968444824,227.24803161621094,-382.771240234375, -22.96857452392578
386,4104854840,0.5151686,0.4398892,-0.52804226,0.5121233,-0.24056242406368256,8.106803894042969,5.621357440948486,272.7523193359375,-258.242919921875, 22.685571670532227
387,4104871507,0.4841037,0.4692575,-0.5350072,0.5091253,9.370359420776367,2.2927918434143066,-3.2447144985198975,163.31143188476562,-240.8251495361328, 12.572441101074219
388,4104888174,0.4639237,0.48462853,-0.5468563,0.50085753,5.41185188293457,-6.413514137268066,0.4357926845550537,45.06069564819336,-184.9539794921875, 24.079452514648438
389,4104904841,0.44881254,0.49526212,-0.55813146,0.49170336,22.249235153198242,8.297280311584473,4.497886657714844,11.720250129699707,-150.91859436035156, 19.2427921295166
390,4104921508,0.43747056,0.50455135,-0.5696931,0.47905868,7.885870456695557,2.959247589111328,-3.1025614738464355,-19.68488883972168,-145.32749938964844, 2.5776846408843994
391,4104938175,0.4255188,0.5134072,-0.57953477,0.46849382,13.713606834411621,1.3398252725601196,2.1279492378234863,-5.060762405395508,-133.9252471923828, 6.846062183380127
392,4104954842,0.4213689,0.5142059,-0.5962414,0.45004115,18.285560607910156,3.4690988063812256,6.849700450897217,-109.72025299072266,-125.30355072021484, 15.291540145874023
393,4104971509,0.41775963,0.51573724,-0.61204094,0.42999783,15.685667037963867,0.2958071529865265,6.65572452545166,-113.20304107666016,-129.27786254882812, 3.368144989013672
394,4104988176,0.4136905,0.5230202,-0.61990625,0.41355324,10.810718536376953,3.4377477169036865,11.715520858764648,-56.4759407043457,-113.54952239990234, -37.02103805541992
395,4105004843,0.412086,0.5311656,-0.62654024,0.39432955,8.159801483154297,4.364039897918701,18.2045955657959,-71.26498413085938,-113.128662109375, -59.69437789916992
396,4105021510,0.4150168,0.53672814,-0.6339553,0.37119347,4.117596626281738,1.6161521673202515,22.08621597290039,-114.11724090576172,-104.60249328613281, -68.73194885253906
397,4105038177,0.41243756,0.5421314,-0.64608455,0.34433082,4.265937328338623,-11.866486549377441,2.715108871459961,-122.46590423583984,-157.06771850585938, -47.08971405029297
398,4105054844,0.38438204,0.5639123,-0.65041625,0.33348545,10.247879981994629,-17.237606048583984,4.0616607666015625,108.42257690429688,-227.52732849121094, -43.93089294433594
399,4105071511,0.3463642,0.5888915,-0.65304935,0.3267494,8.76884651184082,-4.245749473571777,14.58891487121582,177.4648895263672,-259.59619140625, -32.187416076660156
400,4105088178,0.32636538,0.6012656,-0.6661914,0.2969079,9.188215255737305,12.047942161560059,27.325849533081055,-53.017906188964844,-270.1011047363281, -28.76827621459961
401,4105104845,0.32419264,0.60353315,-0.6840355,0.2504846,8.925093650817871,0.015084385871887207,31.22881507873535,-234.56333923339844,-248.83444213867188, -36.10499954223633
402,4105121512,0.3183037,0.6054159,-0.6941323,0.22435424,9.128933906555176,-10.656949996948242,27.230607986450195,-110.99765014648438,-166.04693603515625, -15.06771469116211
403,4105138179,0.3123359,0.6051262,-0.6994351,0.21693167,7.114980220794678,-7.823331356048584,27.449169158935547,-18.963544845581055,-76.31552124023438, 15.684361457824707
404,4105154846,0.31762037,0.59666604,-0.7057234,0.21227688,7.429625988006592,-6.506756782531738,20.926855087280273,-71.67700958251953,-2.0956473350524902, 47.71651840209961
405,4105171513,0.33198583,0.58209133,-0.71085066,0.21365055,7.4367451667785645,-5.8355278968811035,16.40983009338379,-91.5665283203125,77.0433349609375, 71.99273681640625
406,4105188180,0.35186827,0.56371677,-0.71255964,0.22510228,7.158969402313232,-5.1800642013549805,11.772122383117676,-68.28083801269531,156.8678436279297, 91.26757049560547
407,4105204847,0.37552926,0.54279983,-0.7088511,0.24874948,7.1499552726745605,-2.2271370887756348,8.946771621704102,-21.152170181274414,239.08828735351562, 105.98153686523438
408,4105221514,0.40274903,0.5191742,-0.6995533,0.28084967,5.972659111022949,-1.257833480834961,3.6269266605377197,9.238048553466797,306.5874938964844, 113.91194915771484
409,4105238181,0.4321879,0.4931164,-0.6843317,0.31896725,4.145766735076904,0.9517502188682556,-1.125154733657837,34.900970458984375,359.7191162109375, 116.83507537841797
410,4105254848,0.46208873,0.46708855,-0.6606836,0.36304194,1.3595730066299438,3.3527793884277344,-5.4941020011901855,79.99037170410156,407.2796630859375, 105.01322937011719
411,4105271515,0.49130878,0.4445983,-0.62592524,0.41129744,-1.883094072341919,6.263359546661377,-10.128074645996094,140.3108367919922,444.6204528808594, 68.70803833007812
412,4105288182,0.5223042,0.42151263,-0.5848693,0.45547056,-2.362576484680176,5.734519958496094,-16.13117027282715,133.29010009765625,463.57293701171875, 33.86246109008789
413,4105304849,0.55369115,0.3963331,-0.54535,0.48881483,5.775076866149902,4.819631099700928,-23.654876708984375,76.39070892333984,435.90618896484375, 7.126038551330566
414,4105321516,0.58330894,0.36939687,-0.51647437,0.5065085,11.025507926940918,6.358806610107422,-32.58112716674805,-19.850414276123047,353.5148010253906, -10.596793174743652
415,4105338183,0.607157,0.3385899,-0.5115384,0.50502074,3.2438392639160156,1.19447660446167,-45.61942672729492,-172.16993713378906,203.9283905029297, 7.395059585571289
416,4105354850,0.6135295,0.3213615,-0.5193053,0.50062996,-4.797484397888184,-2.1246700286865234,-43.92905807495117,-128.86349487304688,38.39524841308594, 37.800628662109375
417,4105371517,0.60719854,0.32206804,-0.5311585,0.4954321,-8.961841583251953,3.0811052322387695,-35.56202697753906,-41.737667083740234,-85.14036560058594, 23.013317108154297
418,4105388184,0.5856341,0.34730634,-0.53715557,0.4978705,-7.528957843780518,-0.8496860265731812,-29.516155242919922,142.46728515625,-181.06695556640625, 4.25692892074585
419,4105404851,0.55157363,0.38737077,-0.54225546,0.5016668,-9.630627632141113,8.124564170837402,-47.85026931762695,240.34780883789062,-269.6553955078125, -4.832841873168945
420,4105421518,0.50831276,0.43571737,-0.54896617,0.5004046,16.97433853149414,22.25965690612793,-11.67180061340332,271.9791564941406,-349.6056823730469, -19.17639923095703
421,4105438185,0.46066344,0.4777098,-0.5413261,0.51628375,1.3999463319778442,-2.7772936820983887,4.456325054168701,376.8370361328125,-242.15225219726562, 37.35149002075195
422,4105454852,0.42728895,0.50651264,-0.53885496,0.52010065,10.356175422668457,9.158082008361816,-1.0242294073104858,224.7078094482422,-198.63050842285156, 13.688260078430176
423,4105471519,0.41648534,0.51192456,-0.55796885,0.50313413,10.32658576965332,-1.9163748025894165,0.9661786556243896,-76.93765258789062,-167.2891082763672, 34.17510986328125
424,4105488186,0.40575695,0.5175662,-0.56913215,0.4935336,17.679515838623047,1.4328504800796509,3.640105724334717,-20.777353286743164,-119.36317443847656, 26.227563858032227
425,4105504853,0.39730135,0.52215827,-0.58064175,0.48203513,15.001791954040527,6.399059295654297,3.796262264251709,-40.41450881958008,-115.16200256347656, 18.853696823120117
426,4105521520,0.3880235,0.52732015,-0.59334236,0.46831226,14.688203811645508,5.68652868270874,6.349907398223877,-48.71861267089844,-132.11590576171875, 18.056835174560547
427,4105538187,0.37832022,0.53368217,-0.60598904,0.4525866,13.504385948181152,3.4257748126983643,4.740543842315674,-51.952571868896484,-145.53765869140625, 9.487495422363281
428,4105554854,0.36989707,0.54235667,-0.61567485,0.43585554,12.545196533203125,3.396970272064209,9.48824405670166,-45.59857940673828,-143.99435424804688, -17.27567481994629
429,4105571521,0.3648424,0.5527011,-0.6209218,0.41936603,12.99293041229248,-0.22340774536132812,18.694110870361328,-39.61330032348633,-123.40333557128906, -50.08149719238281
430,4105588188,0.3654495,0.56039464,-0.62464327,0.40277228,9.636314392089844,2.4161789417266846,26.34912872314453,-63.92304992675781,-89.5056381225586, -61.05696105957031
431,4105604855,0.37585157,0.5583909,-0.6388267,0.3726066,1.218311071395874,-0.5081782341003418,11.560091972351074,-213.35330200195312,-100.86035919189453, -40.15005874633789
432,4105621522,0.35801747,0.5705051,-0.6515908,0.34896585,14.208499908447266,-21.833784103393555,-1.9007365703582764,-36.1172981262207,-233.02780151367188, -18.465120315551758
433,4105638189,0.3156846,0.5951293,-0.65222746,0.347511,14.21513557434082,-9.429282188415527,12.583179473876953,218.96202087402344,-256.2388916015625, -9.729720115661621
434,4105654856,0.28780684,0.60771656,-0.66325694,0.32853964,15.926839828491211,17.421768188476562,31.094985961914062,30.0124568939209,-257.8576354980469, 13.865568161010742
435,4105671523,0.29146048,0.6052152,-0.6895947,0.27060094,11.01990795135498,9.699448585510254,30.10923957824707,-343.68475341796875,-275.1396789550781, -1.0249264240264893
436,4105688190,0.29476017,0.60302496,-0.70639056,0.224699,11.6492338180542,-1.8086707592010498,25.3187313079834,-266.3433532714844,-209.73280334472656, -17.465824127197266
437,4105704857,0.29470855,0.60261244,-0.7144492,0.19891626,9.974072456359863,-2.9767417907714844,25.790979385375977,-137.53125,-128.8983154296875, -16.84867286682129
438,4105721524,0.29852337,0.5992109,-0.719482,0.1848677,7.9947333335876465,-4.993533134460449,21.92210578918457,-97.80281066894531,-52.255027770996094, 3.3494088649749756
439,4105738191,0.30816376,0.5925195,-0.7213891,0.18317692,6.072274208068848,-3.170135498046875,16.67719841003418,-63.5478630065918,37.14801788330078, 24.292415618896484
440,4105754858,0.3269163,0.5795252,-0.7221177,0.1892682,4.875574588775635,-4.350429058074951,14.157357215881348,-74.03922271728516,123.85052490234375, 55.47080993652344
441,4105771525,0.35246968,0.56300735,-0.7180411,0.20785849,3.932573080062866,-5.226128578186035,11.77587890625,-40.90589141845703,222.3459930419922, 72.76436614990234
442,4105788192,0.38174915,0.5454881,-0.7058871,0.24173081,3.336174249649048,-3.7766244411468506,7.4667558670043945,29.096763610839844,320.5926208496094, 77.96371459960938
443,4105804859,0.41523033,0.5233642,-0.68817765,0.28299344,1.5316194295883179,-1.8976150751113892,1.4543403387069702,46.24920654296875,390.80950927734375, 91.8917007446289
444,4105821526,0.4478324,0.49889275,-0.66289425,0.33335173,-1.2806453704833984,-2.1075754165649414,-5.339576244354248,100.44046020507812,445.7561950683594, 103.59606170654297
445,4105838193,0.47862548,0.47581235,-0.62788415,0.38766208,-4.240832328796387,1.372509241104126,-7.456038475036621,151.20559692382812,478.34814453125, 80.45387268066406
446,4105854860,0.511009,0.45075572,-0.5866599,0.43762922,0.35624992847442627,1.7265907526016235,-12.329144477844238,137.32247924804688,497.3368835449219, 50.51332473754883
447,4105871527,0.546356,0.4203463,-0.5442685,0.4780966,8.901419639587402,1.0672192573547363,-18.476829528808594,74.50920867919922,500.8105163574219, 26.477636337280273
448,4105888194,0.5803343,0.3853979,-0.50845265,0.5061191,16.470916748046875,5.204306125640869,-28.02048110961914,-6.797178268432617,450.889892578125, 20.330896377563477
449,4105904861,0.6139594,0.34318888,-0.49335048,0.51174283,12.01884651184082,11.023056030273438,-35.66758728027344,-185.29925537109375,334.4093933105469, 12.568889617919922
450,4105921528,0.634007,0.30804035,-0.49359882,0.50941795,-1.710020661354065,-4.121209144592285,-48.05979919433594,-204.48529052734375,181.81002807617188, 39.38355255126953
451,4105938195,0.63650537,0.2997308,-0.49406305,0.5108074,-7.812375068664551,3.8715577125549316,-42.46876525878906,-38.1284065246582,37.44402313232422, 26.20125389099121
452,4105954862,0.6257487,0.3158723,-0.49589258,0.5125953,-7.7808756828308105,3.481703042984009,-38.21672439575195,92.91022491455078,-96.75593566894531, -5.63070821762085
453,4105971529,0.6037597,0.34434077,-0.50568366,0.5110653,-5.118494987487793,6.2330145835876465,-35.60904312133789,131.1153106689453,-218.38059997558594, -5.056654930114746
454,4105988196,0.55526036,0.40214,-0.515525,0.51400733,9.499429702758789,7.9018144607543945,-51.044715881347656,331.3317565917969,-402.044677734375, 4.716769218444824
455,4106004863,0.513046,0.4434573,-0.529743,0.5094131,19.12650489807129,4.570245265960693,17.0671329498291,208.7116241455078,-356.4971923828125, 24.050004959106445
456,4106021530,0.47384712,0.47562018,-0.53659797,0.5111918,4.259981155395508,-4.615267276763916,0.7963115572929382,216.1127471923828,-268.8358154296875, 46.772891998291016
457,4106038197,0.4523255,0.4895503,-0.5562539,0.4963102,22.53436279296875,16.876251220703125,3.8674874305725098,-7.624645233154297,-235.8342742919922, 39.11640930175781
458,4106054864,0.4361253,0.4998791,-0.5750006,0.4788425,4.721000671386719,2.308932304382324,-7.279857635498047,-43.548038482666016,-209.43215942382812, 24.511947631835938
459,4106071531,0.41520196,0.5159894,-0.5799378,0.4743782,8.564228057861328,1.7441866397857666,-1.8288061618804932,86.94995880126953,-160.82334899902344, 8.805654525756836
460,4106088198,0.40231097,0.5253764,-0.5884818,0.4645588,10.78856086730957,-0.578719437122345,0.15166006982326508,6.1605987548828125,-136.2510223388672, 6.959024429321289
461,4106104865,0.3981731,0.528019,-0.6012318,0.44852504,16.96303367614746,-6.089253902435303,3.534667730331421,-82.69595336914062,-113.60272979736328, 4.372181415557861
462,4106121532,0.39392766,0.53251266,-0.6099816,0.4349412,16.174772262573242,-2.915079355239868,4.637210369110107,-54.840721130371094,-100.36713409423828, -10.844741821289062
463,4106138199,0.39308703,0.53578097,-0.62164444,0.41470423,14.740488052368164,2.826381206512451,12.692435264587402,-107.30847930908203,-115.1898193359375, -23.19395637512207
464,4106154866,0.3977557,0.5367281,-0.63377887,0.3899203,13.964750289916992,5.001614093780518,23.675098419189453,-154.69602966308594,-103.90758514404297, -39.24123764038086
465,4106171533,0.40631074,0.5351984,-0.64872324,0.35725704,4.111918926239014,4.376975059509277,18.528413772583008,-217.7047882080078,-118.42863464355469, -49.71751403808594
466,4106188200,0.3990038,0.5432106,-0.6629942,0.32581767,7.557608127593994,-13.25062370300293,1.2919738292694092,-125.4810562133789,-207.16136169433594, -52.17791748046875
467,4106204867,0.3653908,0.5673938,-0.6646179,0.32068184,13.143793106079102,-13.62554931640625,12.123393058776855,165.2496337890625,-230.59420776367188, -42.57758712768555
468,4106221534,0.32754934,0.59037256,-0.668365,0.31218567,9.802905082702637,2.2746262550354004,15.09684944152832,158.46981811523438,-266.49566650390625, -28.424943923950195
469,4106238201,0.30334377,0.6039474,-0.68015194,0.28394344,13.180193901062012,3.2581679821014404,28.163049697875977,-26.04529571533203,-282.68597412109375, -26.214670181274414
470,4106254868,0.28638512,0.6129124,-0.6911707,0.25417575,10.611148834228516,-1.690929889678955,29.12361717224121,-71.31016540527344,-245.80755615234375, -25.085966110229492
471,4106271535,0.27249637,0.6205621,-0.6973548,0.2331202,9.601442337036133,-4.875744819641113,26.317550659179688,-36.9640007019043,-183.84361267089844, -27.552034378051758
472,4106288202,0.264698,0.6247891,-0.7016348,0.2174449,9.463142395019531,-1.8510642051696777,25.600139617919922,-40.592247009277344,-123.62481689453125, -19.156532287597656
473,4106304869,0.2688928,0.6227106,-0.7065768,0.20168652,8.898246765136719,-1.6006667613983154,20.24158477783203,-104.97001647949219,-58.82639694213867, -4.167936325073242
474,4106321536,0.28358245,0.6152658,-0.7101207,0.19172253,7.200469970703125,-1.8204797506332397,17.252090454101562,-129.74801635742188,26.28521728515625, 11.813677787780762
475,4106338203,0.30664223,0.60289747,-0.711455,0.19057088,5.411561012268066,-1.360232949256897,14.699939727783203,-128.83926391601562,114.69689178466797, 32.34709548950195
476,4106354870,0.33695585,0.5849757,-0.71000695,0.20038567,4.960858345031738,-2.6412575244903564,10.337403297424316,-113.35030364990234,208.41094970703125, 61.31841278076172
477,4106371537,0.3723213,0.56110215,-0.70509624,0.22221696,4.337250709533691,-4.80777645111084,5.790551662445068,-84.1126937866211,297.4286804199219, 97.07067108154297
478,4106388204,0.40913242,0.531732,-0.69535375,0.25759465,2.8031699657440186,-4.328056335449219,1.7779343128204346,-30.82514190673828,377.457763671875, 137.30319213867188
479,4106404871,0.44021618,0.50369024,-0.67536306,0.3104684,0.8604927659034729,-1.903145670890808,-3.6314797401428223,95.57270812988281,440.6632995605469, 152.82269287109375
480,4106421538,0.46567577,0.4790623,-0.64395344,0.37278607,-0.8914282917976379,1.3429659605026245,-9.23054313659668,193.66688537597656,474.8422546386719, 138.23138427734375
481,4106438205,0.48813102,0.45780554,-0.5993444,0.43923646,0.18382787704467773,6.522449970245361,-14.391355514526367,266.61199951171875,509.32684326171875, 101.20108032226562
482,4106454872,0.5154894,0.43411413,-0.5509621,0.4921955,5.514628887176514,9.237946510314941,-18.180355072021484,198.7644500732422,507.6404724121094, 39.79259490966797
483,4106471539,0.55291873,0.4002705,-0.5155827,0.51791793,17.76739501953125,9.764617919921875,-31.419361114501953,-14.61053466796875,453.3705749511719, -13.151972770690918
484,4106488206,0.5896494,0.35677367,-0.50608,0.51856464,8.87971019744873,-1.507512092590332,-48.603843688964844,-230.50946044921875,319.11322021484375, -0.30878886580467224
485,4106504873,0.60570437,0.33069545,-0.505392,0.5180173,-0.2994948625564575,-0.8188439607620239,-50.837188720703125,-144.4731903076172,148.26251220703125, 29.45269203186035
486,4106521540,0.6079563,0.3243829,-0.5112093,0.513644,-7.2699198722839355,10.395079612731934,-43.1884651184082,-66.99376678466797,-3.964590072631836, 8.767823219299316
487,4106538207,0.59730726,0.33800972,-0.5209364,0.50754184,-8.129228591918945,2.5058491230010986,-38.32648849487305,25.3112850189209,-138.40821838378906, -13.932726860046387
488,4106554874,0.57138133,0.37363014,-0.52348024,0.50979644,-5.511180877685547,6.027833938598633,-27.670120239257812,206.3330535888672,-219.6949920654297, -21.851848602294922
489,4106571541,0.5226402,0.42951095,-0.52754146,0.51387507,1.5512278079986572,4.257932662963867,-39.09628677368164,346.0716247558594,-373.43011474609375, -3.909585475921631
490,4106588208,0.47567418,0.47313446,-0.5328332,0.5157198,14.916790962219238,2.972470283508301,4.328101634979248,284.30224609375,-333.2106018066406, 29.51424789428711
491,4106604875,0.4356479,0.506861,-0.5289689,0.5229676,1.2989002466201782,5.901227951049805,0.9175868034362793,281.51654052734375,-225.34339904785156, 28.758712768554688
492,4106621542,0.417269,0.51785016,-0.5468734,0.50857383,12.269591331481934,1.0891903638839722,4.316267013549805,-19.142343521118164,-205.57276916503906, 44.668739318847656
493,4106638209,0.4021412,0.52634555,-0.55953306,0.49816245,14.764460563659668,-2.5392746925354004,-1.2898119688034058,-4.550261974334717,-155.6868133544922, 35.53153610229492
494,4106654876,0.3847031,0.53749204,-0.5649703,0.49387687,18.703044891357422,9.644177436828613,0.9687624573707581,59.447479248046875,-131.64659118652344, 23.991018295288086
495,4106671543,0.37318897,0.5451259,-0.57457554,0.48314682,14.897351264953613,5.9012980461120605,2.667574882507324,-10.875371932983398,-131.812255859375, 16.269250869750977
496,4106688210,0.36354434,0.5503436,-0.58733255,0.46903977,17.05434799194336,0.20551276206970215,6.052919387817383,-47.85577392578125,-137.4537811279297, 23.05472183227539
497,4106704877,0.35651928,0.5548598,-0.6031082,0.44864798,14.596000671386719,-0.1537122130393982,12.20456314086914,-94.6483154296875,-156.4048614501953, 13.306098937988281
498,4106721544,0.3531911,0.55964077,-0.6179074,0.42455742,12.843753814697266,0.7893841862678528,10.969366073608398,-120.47978210449219,-154.26312255859375, -11.85020637512207
499,4106738211,0.35287035,0.5668306,-0.6270135,0.40129754,12.20817756652832,3.488365650177002,19.923721313476562,-106.09529113769531,-132.08218383789062, -50.61463928222656
500,4106754878,0.355325,0.57457775,-0.6295209,0.3838073,6.833493709564209,3.883716583251953,22.898902893066406,-72.50118255615234,-84.0219955444336, -72.22059631347656
501,4106771545,0.3630743,0.57501084,-0.6402021,0.35732484,0.7604355812072754,-0.8343959450721741,5.425622463226318,-171.78944396972656,-98.18020629882812, -44.08257293701172
502,4106788212,0.34339386,0.5876217,-0.64907014,0.33983722,12.689831733703613,-16.890844345092773,-1.7350800037384033,11.128952026367188,-208.96603393554688, -15.055481910705566
503,4106804879,0.3088749,0.6062004,-0.6540178,0.33072367,12.9100923538208,-5.973777770996094,7.603495121002197,131.47744750976562,-246.2380828857422, -3.5757336616516113
504,4106821546,0.28469247,0.61364603,-0.6717015,0.3020036,14.181761741638184,5.7846527099609375,26.22100257873535,-52.528377532958984,-283.6896667480469, 34.291015625
505,4106838213,0.2802279,0.61360705,-0.6941635,0.2511889,12.564313888549805,13.369146347045898,30.24604034423828,-262.357177734375,-280.73089599609375, 4.914862632751465
506,4106854880,0.28766322,0.6089735,-0.71323085,0.19417275,11.1408109664917,1.8170119524002075,26.58328628540039,-344.93438720703125,-236.68048095703125, -19.905282974243164
507,4106871547,0.28830034,0.6062924,-0.7229543,0.16318615,11.691590309143066,-8.33243465423584,27.428327560424805,-172.2330780029297,-145.89077758789062, -8.283010482788086
508,4106888214,0.28532952,0.6052669,-0.72572887,0.15986502,8.653016090393066,-8.614961624145508,24.617752075195312,-8.677542686462402,-37.37224197387695, 13.044283866882324
509,4106904881,0.28999346,0.600975,-0.72493523,0.17088583,6.894828796386719,-7.226622104644775,20.805450439453125,28.46809196472168,70.33811950683594, 34.05485916137695
510,4106921548,0.30488282,0.5917882,-0.72064155,0.193673,6.552864074707031,-6.151197910308838,18.656124114990234,39.07460021972656,182.14718627929688, 55.333377838134766
511,4106938215,0.33222628,0.57644653,-0.71237093,0.22329974,5.710373878479004,-2.612269878387451,13.527328491210938,14.543685913085938,287.8084716796875, 67.31793212890625
512,4106954882,0.36990404,0.55497515,-0.69878185,0.25860712,6.142909049987793,-1.2345595359802246,6.80307149887085,-4.489025115966797,382.2768859863281, 73.31767272949219
513,4106971549,0.41579247,0.5253663,-0.6810184,0.2955013,5.678964138031006,1.453752875328064,1.2384848594665527,-41.58136749267578,452.82208251953125, 85.87976837158203
514,4106988216,0.46329635,0.48898268,-0.65946555,0.33370298,3.585231065750122,1.2194340229034424,-5.957394123077393,-53.01346206665039,489.7997131347656, 104.33543395996094
515,4107004883,0.5060823,0.45149857,-0.631229,0.3762711,3.253875255584717,-0.6946471333503723,-12.52563762664795,-5.506625175476074,507.20098876953125, 111.56095123291016
516,4107021550,0.54271495,0.4175688,-0.5928955,0.42375898,8.831368446350098,4.5114874839782715,-17.318519592285156,73.48609161376953,522.2127685546875, 97.83519744873047
517,4107038217,0.57254636,0.385842,-0.55404425,0.4651365,16.53768539428711,-1.0946404933929443,-35.29915237426758,77.86802673339844,472.91448974609375, 84.59003448486328
518,4107054884,0.59022766,0.37151825,-0.51117104,0.50230426,11.354591369628906,12.48764419555664,-47.38848114013672,175.56898498535156,376.6569519042969, 29.98979949951172
519,4107071551,0.6148934,0.3378992,-0.51332355,0.49419558,-0.963394045829773,9.116232872009277,-52.254249572753906,-235.31649780273438,170.87722778320312, 5.323105812072754
520,4107088218,0.62050086,0.32340673,-0.5261239,0.48330164,-5.725861549377441,-1.8609306812286377,-50.92863082885742,-156.06466674804688,-11.296210289001465, 15.779688835144043
521,4107104885,0.610211,0.33474076,-0.5363597,0.47739854,-8.416143417358398,8.660484313964844,-37.68975830078125,16.218149185180664,-131.09658813476562, -9.26984691619873
522,4107121552,0.587527,0.36445045,-0.54450625,0.47486946,-5.74461555480957,7.519939422607422,-29.3480224609375,141.2227020263672,-219.57247924804688, -26.8376407623291
523,4107138219,0.5456889,0.41289946,-0.5498323,0.47898045,-6.716400146484375,4.6277289390563965,-45.10204315185547,299.1962585449219,-323.76641845703125, -14.703397750854492
524,4107154886,0.5001207,0.464841,-0.5502009,0.4807091,13.525818824768066,22.46638298034668,0.21867406368255615,330.31390380859375,-336.2775573730469, -38.945655822753906
525,4107171553,0.4570004,0.5030504,-0.5453863,0.49055555,3.757819890975952,2.5833969116210938,-2.567688465118408,323.0529479980469,-237.78236389160156, 16.563325881958008
526,4107188220,0.43033323,0.5230164,-0.5505733,0.4879925,6.2326812744140625,-2.878220319747925,1.217466115951538,128.42642211914062,-188.80296325683594, 24.86935806274414
527,4107204887,0.41570303,0.52920264,-0.56309515,0.4796453,15.739246368408203,-3.9843080043792725,6.198019504547119,-2.1337382793426514,-139.6173553466797, 45.75804138183594
528,4107221554,0.40576726,0.5330378,-0.57629865,0.46808502,24.100011825561523,10.084336280822754,4.798933506011963,-40.64002227783203,-127.65502166748047, 32.62724685668945
529,4107238221,0.39296937,0.540151,-0.586896,0.4575643,9.26937484741211,0.8286536931991577,-2.268873929977417,-8.41634464263916,-138.82569885253906, 22.56259536743164
530,4107254888,0.38034022,0.5456314,-0.5981021,0.4471035,17.0008487701416,6.004312515258789,7.915326118469238,-15.092488288879395,-134.4936981201172, 31.091543197631836
531,4107271555,0.37675482,0.54645663,-0.61623853,0.42389995,13.73751163482666,-0.4376615881919861,7.768815994262695,-134.86004638671875,-149.36387634277344, 15.36656665802002
532,4107288222,0.37032244,0.5537005,-0.6259608,0.40552452,12.684819221496582,-0.9081096053123474,5.656762599945068,-62.56807327270508,-140.5894775390625, -22.5621395111084
533,4107304889,0.36654449,0.563758,-0.62962776,0.38909,11.273185729980469,1.5778225660324097,14.045112609863281,-40.30779266357422,-114.52769470214844, -60.16219711303711
534,4107321556,0.36886948,0.5711341,-0.6322396,0.3715027,10.565278053283691,0.7235669493675232,22.762969970703125,-72.9228515625,-83.27490234375, -71.80340576171875
535,4107338223,0.37929788,0.5703324,-0.64066947,0.34698242,2.953688859939575,-1.497467279434204,18.448387145996094,-170.5341033935547,-69.89677429199219, -51.64592361450195
536,4107354890,0.37442362,0.5734583,-0.65466607,0.3199455,7.181236267089844,-14.713241577148438,0.672393798828125,-124.67587280273438,-171.6071014404297, -17.2130069732666
537,4107371557,0.3467268,0.5904205,-0.66074365,0.3075746,11.097711563110352,-9.297948837280273,10.642171859741211,84.18870544433594,-226.6948699951172, -23.10730743408203
538,4107388224,0.31224856,0.6065464,-0.66914994,0.29468796,10.813755989074707,1.1575711965560913,17.664093017578125,102.31553649902344,-263.82354736328125, 3.0667505264282227
539,4107404891,0.28383532,0.6168742,-0.6818814,0.2719223,13.518319129943848,4.8182454109191895,26.339702606201172,10.349621772766113,-275.2222900390625, 14.328007698059082
540,4107421558,0.2639626,0.62347245,-0.6947504,0.24275048,11.295196533203125,3.679388999938965,27.26580810546875,-63.37923049926758,-256.4166259765625, 4.005191326141357
541,4107438225,0.24737893,0.6282967,-0.7036994,0.22102958,10.405460357666016,0.8176562786102295,25.63899040222168,-38.498294830322266,-199.3775634765625, 3.739696741104126
542,4107454892,0.24248673,0.62825346,-0.7116193,0.20023966,8.473271369934082,2.543712854385376,24.63496208190918,-91.19503021240234,-130.25904846191406, 6.598926067352295
543,4107471559,0.25145996,0.62223667,-0.71933043,0.17931294,7.991866588592529,-1.3469024896621704,21.236995697021484,-161.3988494873047,-54.97917556762695, 15.515963554382324
544,4107488226,0.26946616,0.6136329,-0.7228341,0.168385,6.3442888259887695,0.9509127140045166,19.836170196533203,-149.9068145751953,42.49387741088867, 16.250734329223633
545,4107504893,0.29976097,0.60088885,-0.72270066,0.16364591,5.41510534286499,2.631681203842163,18.3366641998291,-174.43701171875,140.85604858398438, 18.529312133789062
546,4107521560,0.33901608,0.5824112,-0.71990305,0.16614804,5.598037242889404,-2.2861545085906982,12.53300666809082,-184.23350524902344,226.9638214111328, 40.66263198852539
547,4107538227,0.3777663,0.5618814,-0.7118335,0.18674871,5.890014171600342,-7.611022472381592,5.106267929077148,-91.388916015625,311.3975524902344, 72.25827026367188
548,4107554894,0.4141521,0.53955626,-0.69752103,0.22543669,4.537836074829102,-6.632927894592285,0.32955339550971985,9.479037284851074,388.20062255859375, 106.80946350097656
549,4107571561,0.44570926,0.5164791,-0.67576224,0.27917433,3.4013826847076416,-5.775609493255615,-3.9007558822631836,108.89886474609375,443.3573303222656, 133.13180541992188
550,4107588228,0.47026998,0.49590695,-0.64229256,0.34696236,3.780043125152588,-4.590646743774414,-10.02688980102539,229.18304443359375,492.0890808105469, 136.5522918701172
551,4107604895,0.4941937,0.4749815,-0.59945995,0.4132953,3.5597081184387207,3.4478940963745117,-14.923535346984863,246.0512237548828,515.7288208007812, 103.16365814208984
552,4107621562,0.5223372,0.45189774,-0.55308115,0.4658903,9.101966857910156,6.218387126922607,-22.543100357055664,178.32305908203125,506.738037109375, 42.03787612915039
553,4107638229,0.5611607,0.41340256,-0.5248457,0.48860413,15.92689323425293,11.23755931854248,-32.82808303833008,-82.13351440429688,439.12042236328125, 15.643044471740723
554,4107654896,0.59725356,0.36645642,-0.5223044,0.48600033,7.024432182312012,-0.8012933731079102,-50.728458404541016,-284.7067565917969,287.3244934082031, 30.8040714263916
555,4107671563,0.60892427,0.34622273,-0.5186059,0.4902951,-3.7037925720214844,-3.320950508117676,-50.9620361328125,-84.5772476196289,133.68421936035156, 41.809513092041016
556,4107688230,0.6063123,0.3468658,-0.5187716,0.49289528,-8.427003860473633,10.77325439453125,-40.94416809082031,17.87666130065918,-6.586756706237793, 17.542505264282227
557,4107704897,0.59487885,0.36018336,-0.526617,0.48893946,-8.914338111877441,7.26143217086792,-35.86037063598633,42.3980598449707,-127.7126693725586, -6.540390491485596
558,4107721564,0.5737249,0.38757852,-0.5338761,0.48538533,-6.706387042999268,9.04667854309082,-24.477949142456055,127.54722595214844,-206.05990600585938, -24.533363342285156
559,4107738231,0.53373677,0.42983386,-0.54766643,0.4800308,-1.68137526512146,-0.3554873466491699,-50.098365783691406,208.1035614013672,-354.95965576171875, -5.830959320068359
560,4107754898,0.48565456,0.47457474,-0.5556898,0.4797161,19.495912551879883,11.192660331726074,3.5178771018981934,279.3173522949219,-356.4417724609375, 12.715384483337402
561,4107771565,0.44137415,0.5130138,-0.5483555,0.49123546,1.024641752243042,7.375567436218262,0.7156904935836792,341.8032531738281,-231.262939453125, 13.640690803527832
562,4107788232,0.42006478,0.52672416,-0.5631307,0.4785302,10.714651107788086,1.700580358505249,3.6005024909973145,19.57319450378418,-213.64756774902344, 33.747108459472656
563,4107804899,0.40579057,0.53418475,-0.5764639,0.46655145,15.045470237731934,-4.387566566467285,0.6649648547172546,-16.37003517150879,-159.20932006835938, 31.715116500854492
564,4107821566,0.39263716,0.54088503,-0.58606565,0.45804623,15.648945808410645,6.977763652801514,1.2980397939682007,3.1045844554901123,-129.2908172607422, 27.051036834716797
565,4107838233,0.38416559,0.545081,-0.5985121,0.4439446,13.921258926391602,7.485513210296631,1.9217115640640259,-52.49980163574219,-131.2060546875, 18.063783645629883
566,4107854900,0.37596652,0.5500601,-0.61037266,0.42840233,15.247664451599121,0.6718335151672363,5.276894569396973,-55.51898193359375,-136.5154571533203, 8.222249984741211
567,4107871567,0.36820516,0.5555336,-0.6215333,0.4117085,15.367063522338867,0.38704195618629456,9.288211822509766,-58.66667938232422,-138.9598846435547, -0.7007556557655334
568,4107888234,0.36673692,0.559214,-0.6350075,0.38671637,12.432966232299805,1.4133191108703613,14.687726020812988,-129.286376953125,-144.9282684326172, -22.95602035522461
569,4107904901,0.36749575,0.56615156,-0.6432088,0.36152735,12.60689926147461,2.41024112701416,21.483407974243164,-116.50579071044922,-131.7899169921875, -63.79247283935547
570,4107921568,0.37027216,0.5741012,-0.6457375,0.34107125,5.6460161209106445,4.093855381011963,22.741315841674805,-86.78199005126953,-93.22040557861328, -83.33760833740234
571,4107938235,0.3723948,0.5773545,-0.6553499,0.3138478,2.3028695583343506,-7.287243843078613,3.510754346847534,-142.78855895996094,-130.41058349609375, -50.1593132019043
572,4107954902,0.34341833,0.597813,-0.6552555,0.30874568,10.312076568603516,-15.066015243530273,6.049137592315674,145.28506469726562,-195.11383056640625, -42.62331771850586
573,4107971569,0.3042871,0.62069464,-0.6534545,0.30845565,10.108783721923828,-6.0682783126831055,10.939271926879883,217.86358642578125,-222.46665954589844, -27.897640228271484
574,4107988236,0.27777284,0.63257545,-0.66301095,0.28828305,11.47045612335205,6.886511325836182,25.51187515258789,27.410005569458008,-251.37112426757812, 1.5812426805496216
575,4108004903,0.27133802,0.63552123,-0.67995524,0.24525394,10.978700637817383,9.36570930480957,27.268957138061523,-195.7946014404297,-256.2882995605469, -8.932785987854004
576,4108021570,0.27841517,0.63315207,-0.69641834,0.19132492,12.233640670776367,-0.2909432649612427,22.249225616455078,-314.83819580078125,-231.5298309326172, -29.320796966552734
577,4108038237,0.2796954,0.63136655,-0.7064844,0.1550065,11.626708030700684,-6.086612701416016,21.579753875732422,-195.59349060058594,-171.57374572753906, -18.82426643371582
578,4108054904,0.28022423,0.62843186,-0.7131314,0.13413185,8.802606582641602,-5.226022243499756,20.794267654418945,-115.93046569824219,-100.81202697753906, 2.2031893730163574
579,4108071571,0.28533825,0.6219059,-0.71863216,0.12402898,6.623928070068359,-7.3443450927734375,15.908500671386719,-88.84690856933594,-26.63877296447754, 31.211851119995117
580,4108088238,0.2953814,0.6133823,-0.72096777,0.12929627,5.297584533691406,-5.867611885070801,14.477875709533691,-35.3339729309082,71.08202362060547, 53.357845306396484
581,4108104905,0.31462768,0.60087544,-0.72021776,0.1457555,5.0600409507751465,-6.1125311851501465,11.430026054382324,-24.127376556396484,173.5022430419922, 74.55055236816406
582,4108121572,0.3414531,0.58456475,-0.7145826,0.17625491,3.1084859371185303,-5.807834148406982,5.911499977111816,10.646738052368164,283.30047607421875, 95.90693664550781
583,4108138239,0.37211803,0.5652694,-0.7028432,0.21911222,0.07835877686738968,-4.950036525726318,1.5292649269104004,56.21952819824219,369.804931640625, 110.37578582763672
584,4108154906,0.40449402,0.5417391,-0.6867874,0.2668829,-3.070209503173828,-1.0193874835968018,-2.2327640056610107,68.8283920288086,414.6935119628906, 124.08699798583984
585,4108171573,0.436322,0.5144032,-0.6664632,0.31755212,-5.661734580993652,0.5132094621658325,-8.170211791992188,81.78334045410156,441.95172119140625, 135.2621612548828
586,4108188240,0.46735117,0.48718685,-0.6386554,0.36925814,-4.745544910430908,5.332505702972412,-11.623079299926758,106.0337142944336,464.4555358886719, 113.15142059326172
587,4108204907,0.4998843,0.45808083,-0.6064376,0.41534454,0.6047292947769165,7.257910251617432,-13.94345474243164,81.49041748046875,471.5143127441406, 84.90274047851562
588,4108221574,0.53542584,0.4219307,-0.57900494,0.44726658,8.708311080932617,4.993119239807129,-25.640363693237305,-24.91191864013672,443.36944580078125, 72.17432403564453
589,4108238241,0.56379294,0.3892808,-0.55764854,0.46864307,9.449993133544922,4.735593795776367,-43.043155670166016,-51.78718566894531,351.490234375, 59.14967727661133
590,4108254908,0.5855159,0.363539,-0.5507405,0.47084567,2.9875688552856445,18.349763870239258,-39.669315338134766,-127.17913818359375,197.24571228027344, 18.477750778198242
591,4108271575,0.5958932,0.34670454,-0.55912346,0.46053067,-3.384521961212158,0.6357221603393555,-46.81206512451172,-159.7161865234375,33.39828109741211, 9.6936616897583
592,4108288242,0.58336323,0.3608204,-0.5604892,0.46405587,-8.32997989654541,4.83284330368042,-36.861358642578125,97.23018646240234,-89.97987365722656, 3.2420449256896973
593,4108304909,0.5582382,0.39282748,-0.5589772,0.47074547,-6.605733394622803,7.80695915222168,-27.628299713134766,221.74766540527344,-175.52517700195312, -19.947662353515625
594,4108321576,0.5090757,0.4449223,-0.5613204,0.47728983,-3.080516815185547,7.851240158081055,-51.50102996826172,351.0521545410156,-347.81475830078125, -9.513514518737793
595,4108338243,0.46576467,0.4845768,-0.570522,0.47196752,15.189720153808594,13.131730079650879,5.578774452209473,221.29246520996094,-343.5931701660156, -1.361617088317871
596,4108354910,0.42030394,0.5217124,-0.5613736,0.48581958,-2.1273415088653564,5.9385786056518555,-2.1736819744110107,355.3296813964844,-221.30642700195312, 15.794626235961914
597,4108371577,0.39669314,0.5372791,-0.57092935,0.47749934,13.200713157653809,3.0243279933929443,2.8865952491760254,66.43203735351562,-198.39610290527344, 28.988754272460938
598,4108388244,0.38587075,0.54047656,-0.58715314,0.46286082,11.521498680114746,-4.694568634033203,0.2682681679725647,-61.2099494934082,-149.25262451171875, 43.01393127441406
599,4108404911,0.3725458,0.5475316,-0.5944243,0.45615628,15.948064804077148,3.5158817768096924,2.354689836502075,18.814790725708008,-118.4884033203125, 23.123727798461914
600,4108421578,0.36027282,0.5554247,-0.5998681,0.4492943,14.088159561157227,7.160815715789795,-0.3238634169101715,22.13165855407715,-112.90357971191406, 9.186046600341797
601,4108438245,0.35044467,0.5615419,-0.6069025,0.43991908,14.870231628417969,3.3959197998046875,3.2500243186950684,-6.793784141540527,-110.9914779663086, 8.938819885253906
602,4108454912,0.34460258,0.565052,-0.61683476,0.4260051,14.438553810119629,1.6197768449783325,6.575638294219971,-56.139671325683594,-111.17720031738281, 8.104564666748047
603,4108471579,0.34249517,0.56747794,-0.62898886,0.40624994,12.65888786315918,1.8921023607254028,10.004732131958008,-104.50874328613281,-120.38428497314453, -3.365260124206543
604,4108488246,0.3424975,0.5720954,-0.63973486,0.3822849,12.9490385055542,1.4526481628417969,18.5533390045166,-121.8813247680664,-130.80601501464844, -34.062591552734375
605,4108504913,0.34414497,0.5784056,-0.64678085,0.35872826,11.712845802307129,3.8415563106536865,28.254287719726562,-112.89442443847656,-118.15496826171875, -59.365745544433594
606,4108521580,0.35106647,0.5822837,-0.6532907,0.33303097,4.463914394378662,4.133942604064941,20.080093383789062,-147.84925842285156,-96.55579376220703, -68.68611907958984
607,4108538247,0.34414357,0.58754706,-0.6661098,0.30438676,6.518759250640869,-15.824885368347168,-0.2120739072561264,-116.7279052734375,-189.3527069091797, -25.027143478393555
608,4108554914,0.3074391,0.60964805,-0.66493094,0.30278328,11.11926555633545,-9.54761028289795,6.552233695983887,196.3715362548828,-218.7194366455078, -32.60194778442383
609,4108571581,0.27381054,0.6260684,-0.6687672,0.29294467,12.908358573913574,2.51682710647583,18.31488800048828,123.21965026855469,-238.16026306152344, -9.535350799560547
610,4108588248,0.26095656,0.6319732,-0.6844893,0.2529546,12.62382698059082,9.994524002075195,27.760507583618164,-148.6609344482422,-274.0762634277344, -8.582890510559082
611,4108604915,0.26114622,0.6341974,-0.7000137,0.1989407,11.263433456420898,3.7356925010681152,21.639144897460938,-277.5346984863281,-267.46954345703125, -39.97516632080078
612,4108621582,0.25991473,0.6371851,-0.7086522,0.15572944,13.38695240020752,-4.533158779144287,21.537639617919922,-208.40704345703125,-216.24134826660156, -52.43487548828125
613,4108638249,0.25456166,0.6397578,-0.7132841,0.130898,12.232032775878906,-7.4689130783081055,22.115751266479492,-97.22309875488281,-148.5662384033203, -30.877769470214844
614,4108654916,0.2505416,0.64028543,-0.71575636,0.12229609,9.340209007263184,-7.035299301147461,17.80170249938965,-25.218881607055664,-65.40396118164062, -3.2614240646362305
615,4108671583,0.25372514,0.63708824,-0.7169954,0.12513955,6.575159549713135,-4.83751916885376,16.022430419921875,-6.103545188903809,25.387971878051758, 23.238086700439453
616,4108688250,0.26798996,0.6281164,-0.71789104,0.13521674,4.594409465789795,-4.302593231201172,13.99186897277832,-28.856781005859375,117.04255676269531, 53.24696350097656
617,4108704917,0.29290777,0.61380976,-0.7165457,0.15493533,4.189414978027344,-4.552608966827393,9.375262260437012,-35.12593460083008,220.2098388671875, 77.71682739257812
618,4108721584,0.3226752,0.5965974,-0.7100979,0.18897998,2.1371405124664307,-3.135936975479126,5.988509178161621,14.468538284301758,317.8895568847656, 94.1480941772461
619,4108738251,0.3566172,0.5749119,-0.69930923,0.2307968,0.27131861448287964,-2.6358189582824707,1.973381757736206,30.88506317138672,385.6277160644531, 110.02912902832031
620,4108754918,0.38909507,0.55195564,-0.68156296,0.2818195,-4.122869491577148,0.9359344840049744,-1.5670788288116455,88.80098724365234,434.1684265136719, 113.55866241455078
621,4108771585,0.42295602,0.52596116,-0.6578685,0.33418885,-6.1055006980896,2.8275444507598877,-7.740955829620361,93.20124816894531,467.7477111816406, 106.22643280029297
622,4108788252,0.45787063,0.49850625,-0.6277597,0.38440096,-5.506345748901367,5.92377233505249,-12.300816535949707,90.06881713867188,486.98577880859375, 81.012451171875
623,4108804919,0.49540037,0.46799493,-0.5942574,0.4271038,2.465829372406006,7.3693084716796875,-15.796170234680176,48.0838623046875,491.5821533203125, 52.088966369628906
624,4108821586,0.5327816,0.43448874,-0.56319004,0.45845452,10.413095474243164,4.695112705230713,-30.66464614868164,-15.123353958129883,455.1654357910156, 34.01427459716797
625,4108838253,0.5623439,0.40606233,-0.53821373,0.47875768,10.616138458251953,5.132598876953125,-44.078102111816406,-35.061405181884766,353.9596252441406, 16.767770767211914
626,4108854920,0.5837563,0.37823242,-0.5350362,0.47948414,2.424248695373535,5.310760498046875,-47.35010528564453,-154.09725952148438,183.60629272460938, 26.6462459564209
627,4108871587,0.5881249,0.36962426,-0.5390308,0.47637475,-5.0502800941467285,0.23592013120651245,-46.943031311035156,-70.23506164550781,19.605321884155273, 15.494211196899414
628,4108888254,0.5799323,0.3785285,-0.5484367,0.46862775,-7.854959487915039,8.207761764526367,-35.45155334472656,-2.3286285400390625,-117.1486587524414, -13.25577163696289
629,4108904921,0.5626593,0.40013638,-0.5606821,0.45710078,-4.702662944793701,7.032138824462891,-28.664628982543945,48.664005279541016,-212.9001007080078, -39.4544792175293
630,4108921588,0.5209577,0.44464332,-0.57110965,0.4524702,-0.0389552116394043,1.887186884880066,-44.772979736328125,237.00538635253906,-352.7055358886719, -29.255077362060547
631,4108938255,0.47256443,0.49128515,-0.5746336,0.4528997,13.986099243164062,14.935392379760742,6.113583564758301,306.62200927734375,-344.64495849609375, -20.00065803527832
632,4108954922,0.43282726,0.5243412,-0.5724609,0.45827463,1.901848316192627,8.9395170211792,-0.5461304783821106,270.57891845703125,-232.9063720703125, 3.5903944969177246
633,4108971589,0.408398,0.5380566,-0.5852842,0.44849622,8.536491394042969,-4.388648986816406,1.1748766899108887,50.98258590698242,-210.92037963867188, 40.446014404296875
634,4108988256,0.3915527,0.54425824,-0.5990373,0.4377486,12.69172191619873,-9.321734428405762,4.47200345993042,-4.976979732513428,-163.50155639648438, 47.89950180053711
635,4109004923,0.3763312,0.55042475,-0.60941124,0.4289818,19.705869674682617,7.248263359069824,3.1148157119750977,7.062950611114502,-140.36404418945312, 35.69426727294922
636,4109021590,0.36264744,0.5579167,-0.6193225,0.4167199,8.666644096374512,0.05353332310914993,-1.8941782712936401,-8.499757766723633,-150.0640106201172, 14.922638893127441
637,4109038257,0.34908518,0.5656058,-0.62617105,0.40760216,15.016924858093262,3.2324612140655518,1.7889220714569092,13.711690902709961,-130.4629669189453, 9.809717178344727
638,4109054924,0.34395453,0.5690349,-0.6377853,0.38874775,16.02142333984375,1.3831415176391602,6.370663642883301,-84.54896545410156,-131.69378662109375, -0.25167930126190186
639,4109071591,0.33999708,0.57358724,-0.64679134,0.3702173,19.659587860107422,-1.0908961296081543,10.530112266540527,-78.09764862060547,-122.36308288574219, -17.69664764404297
640,4109088258,0.33667994,0.5800578,-0.6543626,0.34926957,17.637948989868164,3.7253029346466064,19.572370529174805,-83.30548095703125,-130.9234619140625, -39.14180374145508
641,4109104925,0.3371309,0.5861048,-0.66128474,0.32484853,12.884718894958496,6.988946437835693,28.73703384399414,-113.40196990966797,-125.77072143554688, -56.8431396484375
642,4109121592,0.34377515,0.5894653,-0.66945136,0.29357216,6.101491451263428,2.637533187866211,22.509008407592773,-178.51141357421875,-122.68643951416016, -69.26031494140625
643,4109138259,0.3356882,0.5959605,-0.6796502,0.2649914,8.720917701721191,-16.756601333618164,5.546815872192383,-103.04779052734375,-191.09512329101562, -39.35395050048828
644,4109154926,0.3007311,0.61722493,-0.67774206,0.2631731,13.02245044708252,-10.362313270568848,6.924871921539307,188.006591796875,-206.15484619140625, -47.42597579956055
645,4109171593,0.26392147,0.63387406,-0.6809102,0.2547757,12.886577606201172,0.9446953535079956,16.021570205688477,146.27757263183594,-245.09417724609375, -14.682418823242188
646,4109188260,0.24497743,0.64175576,-0.69112146,0.22469306,12.382875442504883,9.250472068786621,25.923460006713867,-61.41779327392578,-253.72055053710938, -13.551445960998535
647,4109204927,0.2438602,0.6443238,-0.70364535,0.17396115,10.104966163635254,2.825394868850708,16.9148006439209,-250.63827514648438,-256.3146057128906, -40.46524429321289
648,4109221594,0.23882839,0.6475839,-0.7103031,0.13807932,12.004578590393066,-4.342067241668701,18.933025360107422,-153.12863159179688,-200.6859893798828, -40.328575134277344
649,4109238261,0.23452517,0.64995337,-0.71331424,0.11722467,10.468059539794922,-3.434525489807129,20.696949005126953,-81.03987884521484,-123.68769073486328, -28.305444717407227
650,4109254928,0.23555535,0.6487059,-0.715691,0.10714992,7.767884254455566,-8.060160636901855,17.11418914794922,-57.349334716796875,-45.72247314453125, -0.3980672359466553
651,4109271595,0.23946711,0.64590365,-0.7156362,0.11545026,5.878682613372803,-6.8371429443359375,16.603174209594727,19.345577239990234,55.254005432128906, 24.015029907226562
652,4109288262,0.25369582,0.63889146,-0.713623,0.13490221,3.9673264026641846,-4.966136932373047,16.23496437072754,22.889911651611328,161.91302490234375, 46.218441009521484
653,4109304929,0.280912,0.62568927,-0.70992553,0.16002242,1.5325837135314941,-5.431696891784668,13.90115737915039,-15.690437316894531,259.0914306640625, 67.0247802734375
654,4109321596,0.3131957,0.6094787,-0.70083493,0.19817811,-0.7013396620750427,-6.529385089874268,9.06319522857666,26.13213539123535,353.6018371582031, 78.11608123779297
655,4109338263,0.3493665,0.5892054,-0.685971,0.24540551,-3.875225067138672,-3.8340749740600586,3.02423357963562,52.50112533569336,428.3849792480469, 87.7582015991211
656,4109354930,0.38726962,0.56373274,-0.66592294,0.29795042,-8.531851768493652,-2.1732516288757324,-4.656595230102539,66.77598571777344,479.4990539550781, 101.10197448730469
657,4109371597,0.4250147,0.53532577,-0.63983554,0.35128263,-8.11054801940918,0.883868396282196,-10.281614303588867,75.3808364868164,504.17041015625, 93.56504821777344
658,4109388264,0.461255,0.5069714,-0.6057803,0.404047,-0.7386713027954102,2.221994161605835,-14.422926902770996,97.8021469116211,518.9161987304688, 65.95767974853516
659,4109404931,0.5006849,0.47090718,-0.57517767,0.4435448,8.429039001464844,3.2678587436676025,-24.56487464904785,-2.583589792251587,496.6177673339844, 59.13153076171875
660,4109421598,0.53054667,0.43857977,-0.5496878,0.4732986,14.651138305664062,-2.3525235652923584,-48.59981155395508,-12.789223670959473,398.4384460449219, 56.52135467529297
661,4109438265,0.5510879,0.41324207,-0.5386268,0.48519552,2.878810405731201,16.928197860717773,-44.86949920654297,-73.5059814453125,234.63839721679688, 38.731101989746094
662,4109454932,0.57068616,0.38521504,-0.55433846,0.46758503,-2.9696767330169678,6.811986923217773,-43.18598175048828,-279.3896484375,55.55613708496094, 16.41203498840332
663,4109471599,0.56927586,0.3830805,-0.56629175,0.45660493,-7.804968357086182,3.8803603649139404,-39.47285079956055,-84.57459259033203,-74.76619720458984, 1.4795905351638794
664,4109488266,0.5374798,0.41333908,-0.5795671,0.45207116,-8.825736999511719,-4.0554890632629395,-86.14692687988281,143.34310913085938,-282.4201965332031, -0.48850440979003906
665,4109504933,0.48536453,0.46723494,-0.58804286,0.44756964,30.24390411376953,35.407188415527344,2.173780918121338,303.7909851074219,-417.9129333496094, -45.33184051513672
666,4109521600,0.44586486,0.5020614,-0.5913729,0.44656125,0.349880576133728,16.208158493041992,19.526941299438477,229.8782958984375,-279.6418151855469, -11.495440483093262
667,4109538267,0.41081554,0.5283657,-0.5988514,0.43981522,10.748684883117676,-1.5731232166290283,-14.468799591064453,152.47911071777344,-268.1837463378906, 6.300181865692139
668,4109554934,0.38462675,0.54316175,-0.6060521,0.4355902,6.747281551361084,-4.534440994262695,5.972166061401367,99.02714538574219,-186.72715759277344, 32.84987258911133
669,4109571601,0.3712836,0.5463033,-0.61865467,0.42540306,10.077176094055176,-5.7622199058532715,0.3253324031829834,-20.872404098510742,-134.9829864501953, 47.22978591918945
670,4109588268,0.36535048,0.54631096,-0.6323125,0.41017616,12.021821022033691,-1.0875979661941528,-0.48839282989501953,-81.29347229003906,-116.01158142089844, 29.920129776000977
671,4109604935,0.3569539,0.5514759,-0.6378976,0.40192667,12.229310035705566,0.3335442841053009,-1.8943798542022705,-5.992179870605469,-94.8660659790039, 1.6538711786270142
672,4109621602,0.35029337,0.5577084,-0.6418519,0.3927879,15.577072143554688,2.4119279384613037,2.3026490211486816,-9.33718204498291,-89.64420318603516, -16.187705993652344
673,4109638269,0.34802434,0.5618974,-0.64879674,0.3771118,17.241750717163086,1.299725890159607,5.909675121307373,-68.00389862060547,-97.17889404296875, -23.260881423950195
674,4109654936,0.35109937,0.5625521,-0.65881014,0.3552938,16.37981605529785,0.24825534224510193,11.38020133972168,-132.481201171875,-95.48079681396484, -24.137741088867188
675,4109671603,0.35393873,0.56548727,-0.6679023,0.32993698,14.415512084960938,0.9412557482719421,22.13021469116211,-139.90460205078125,-113.89057922363281, -45.95538330078125
676,4109688270,0.35827667,0.5704104,-0.6744045,0.30240482,7.724473476409912,3.9170591831207275,26.300315856933594,-145.06382751464844,-114.10917663574219, -73.82320404052734
677,4109704937,0.35901603,0.57514036,-0.68226,0.27357367,3.767108678817749,-4.621906280517578,11.35210132598877,-140.24090576171875,-139.25271606445312, -63.314884185791016
678,4109721604,0.34196857,0.58753175,-0.68673664,0.25740427,8.657833099365234,-10.9764404296875,10.603299140930176,14.679227828979492,-178.87075805664062, -47.96864318847656
679,4109738271,0.3101874,0.6071283,-0.68857074,0.24708167,10.722453117370605,-4.8514628410339355,8.574163436889648,123.21974182128906,-231.6112823486328, -52.94356155395508
680,4109754938,0.2735342,0.62598825,-0.6922517,0.23260556,12.759586334228516,0.8126434683799744,10.95061206817627,119.07939147949219,-274.9417419433594, -42.35450744628906
681,4109771605,0.24201739,0.6402568,-0.6988001,0.20779161,15.254056930541992,4.729766368865967,23.95599937438965,34.551124572753906,-293.2966613769531, -35.830474853515625
682,4109788272,0.22255468,0.64726204,-0.70856005,0.1716511,12.836525917053223,-1.5615615844726562,18.0422306060791,-89.59658813476562,-280.6262512207031, -22.836227416992188
683,4109804939,0.2074535,0.6510655,-0.71650994,0.14032224,12.42094898223877,-2.654949188232422,20.676454544067383,-88.33448028564453,-231.70159912109375, -13.159106254577637
684,4109821606,0.19893368,0.6512341,-0.7231103,0.115893036,9.903931617736816,-3.2267727851867676,22.297637939453125,-87.74773406982422,-163.25965881347656, 2.1578943729400635
685,4109838273,0.19907027,0.6490123,-0.7270955,0.102402814,6.74595308303833,-1.8054336309432983,20.151161193847656,-73.38117218017578,-66.03678894042969, 10.372637748718262
686,4109854940,0.21160315,0.64353967,-0.72908646,0.097538985,4.000697135925293,-1.5871527194976807,18.701738357543945,-88.64765167236328,39.23326873779297, 20.753925323486328
687,4109871607,0.23342878,0.63539577,-0.7285181,0.105093785,3.5854129791259766,-4.864121437072754,16.312376022338867,-69.7120590209961,146.129638671875, 34.612091064453125
688,4109888274,0.25988516,0.6261836,-0.7232108,0.13160516,1.9590171575546265,-6.3102126121521,13.165547370910645,6.633950710296631,260.4180908203125, 46.33352279663086
689,4109904941,0.29191667,0.6137924,-0.71338534,0.1706609,-1.0146132707595825,-6.4961628913879395,9.174702644348145,43.31702423095703,353.08282470703125, 60.07904052734375
690,4109921608,0.32870728,0.59645367,-0.69905317,0.21798944,-0.9811704754829407,-4.625384330749512,3.481172561645508,59.00798034667969,426.2600402832031, 76.4115982055664
691,4109938275,0.36800125,0.5731946,-0.68024373,0.27072462,-3.811707019805908,-1.962064266204834,-4.080938816070557,67.93251037597656,479.58453369140625, 95.00342559814453
692,4109954942,0.40734407,0.54556215,-0.65676427,0.32418147,-7.61992073059082,0.9508087038993835,-8.661993026733398,68.58514404296875,502.79608154296875, 98.81694030761719
693,4109971609,0.4445508,0.5166174,-0.62727153,0.37684444,-1.7264344692230225,1.7442132234573364,-13.512884140014648,82.69834899902344,510.17547607421875, 84.71465301513672
694,4109988276,0.48087075,0.4857547,-0.5939593,0.4242855,8.84463882446289,5.158908367156982,-21.38825035095215,67.40789031982422,504.6607666015625, 65.72294616699219
695,4110004943,0.5156946,0.45268267,-0.567007,0.4556761,15.722280502319336,3.827223062515259,-41.351036071777344,-18.970815658569336,430.49383544921875, 47.29443359375
696,4110021610,0.53993875,0.42604584,-0.5523187,0.47105765,6.002861022949219,5.420256614685059,-50.337955474853516,-63.8917350769043,276.19708251953125, 36.78934860229492
697,4110038277,0.5568688,0.4027474,-0.5603302,0.4623006,-0.4958411455154419,5.364291667938232,-44.904239654541016,-195.0519561767578,83.34613800048828, 24.785518646240234
