PacketCounter,SampleTimeFine,Quat_W,Quat_X,Quat_Y,Quat_Z,Acc_X,Acc_Y,Acc_Z,Gyr_X,Gyr_Y,Gyr_Z 
1,489355050,0.7325655,-0.10227896,-0.66167027,-0.12279774,0.2228747010231018,-0.3452134430408478,0.6381210088729858,-0.6385856866836548,0.933807373046875, -2.003537654876709
2,489371717,0.77919865,-0.12242564,-0.6018869,-0.12487487,12.48466682434082,-2.573413848876953,3.182302951812744,-81.05243682861328,31.657066345214844, -26.10158348083496
3,489388384,0.79718417,-0.15192248,-0.57168114,-0.12082189,8.853299140930176,-3.4703807830810547,-0.4363618493080139,-114.4321060180664,13.433944702148438, 0.7538618445396423
4,489405051,0.7960347,-0.18930916,-0.56457883,-0.10835875,5.679234027862549,-13.555096626281738,0.9384425282478333,-108.63450622558594,12.760574340820312, 58.503623962402344
5,489421718,0.7999855,-0.23033355,-0.5512113,-0.055997144,8.272726058959961,-8.196954727172852,5.627554416656494,93.11614227294922,18.352540969848633, 107.44654083251953
6,489438385,0.80972594,-0.25957322,-0.52615154,-0.011415838,4.4904656410217285,-1.071044921875,4.839462757110596,88.4239501953125,49.43543243408203, 126.58504486083984
7,489455052,0.8227763,-0.27342042,-0.4979251,0.018740773,3.2223358154296875,3.9687318801879883,3.8648910522460938,74.87858581542969,83.33723449707031, 127.55957794189453
8,489471719,0.8373583,-0.27722982,-0.46992818,0.033797313,2.41549015045166,6.489896297454834,2.4715893268585205,42.09006881713867,119.3453598022461, 110.41132354736328
9,489488386,0.85320455,-0.27256697,-0.4429817,0.038941965,2.800992012023926,4.869012355804443,-1.2621177434921265,36.416019439697266,149.75547790527344, 85.1519775390625
10,489505053,0.8680181,-0.263768,-0.41885152,0.03917258,6.164763450622559,3.8662781715393066,-5.764105796813965,45.461856842041016,168.35128784179688, 60.960941314697266
11,489521720,0.87862587,-0.25388482,-0.40280244,0.036183294,9.809428215026855,1.5579540729522705,-12.001564025878906,47.87879943847656,156.4544677734375, 39.472129821777344
12,489538387,0.8826696,-0.24625844,-0.39901656,0.032202184,12.617730140686035,0.9922848343849182,-16.41509246826172,43.64341354370117,118.02859497070312, 26.6514835357666
13,489555054,0.87791675,-0.24811447,-0.4087214,0.025461528,14.066391944885254,-0.21429996192455292,-17.160249710083008,-14.852431297302246,64.52265167236328, 21.17453956604004
14,489571721,0.86663955,-0.25433284,-0.42875966,0.020391386,12.163505554199219,-2.7523868083953857,-15.972177505493164,-30.67966651916504,11.182319641113281, 29.85226058959961
15,489588388,0.8510146,-0.26307127,-0.4540981,0.019042509,9.590448379516602,-2.3806495666503906,-13.259990692138672,-28.119287490844727,-28.546476364135742, 43.98970031738281
16,489605055,0.83423376,-0.27090636,-0.47981957,0.020908661,8.560924530029297,-2.0676229000091553,-8.047731399536133,-8.09489631652832,-43.73194122314453, 50.77824020385742
17,489621722,0.81933177,-0.2758295,-0.50197953,0.025107311,7.890565872192383,0.7713391780853271,-4.159191131591797,19.107725143432617,-35.86393356323242, 52.55405044555664
18,489638389,0.80564004,-0.28258565,-0.5199858,0.026539722,7.531951904296875,3.4072928428649902,-2.4883549213409424,-4.8151702880859375,-20.94834327697754, 48.15260696411133
19,489655056,0.7919818,-0.29274076,-0.5353333,0.022053864,7.088613986968994,3.4800949096679688,-0.599143922328949,-52.90341567993164,-11.714625358581543, 34.77629852294922
20,489671723,0.77704006,-0.30512518,-0.5504054,0.012698429,5.784531116485596,1.6267017126083374,-3.83878493309021,-93.8668212890625,-22.23433494567871, 19.32525634765625
21,489688390,0.75805926,-0.32075974,-0.56785464,0.00079861295,5.870424747467041,-1.4936859607696533,-8.123541831970215,-133.31517028808594,-56.18879699707031, 12.412101745605469
22,489705057,0.73014605,-0.34434828,-0.5901587,-0.004894419,6.669811248779297,-25.071426391601562,-32.6025505065918,-169.047607421875,-136.22789001464844, 61.199398040771484
23,489721724,0.6980204,-0.34744462,-0.625674,0.0241222,19.900798797607422,-12.496954917907715,-4.31784200668335,82.40472412109375,-283.5841064453125, 91.96887969970703
24,489738391,0.67175245,-0.34768045,-0.6526896,0.04316725,16.55725860595703,20.919370651245117,13.417825698852539,65.39634704589844,-204.6631622314453, 42.264217376708984
25,489755058,0.64223796,-0.34442288,-0.6821803,0.059443574,33.38241195678711,5.0524983406066895,-4.247347354888916,51.20217514038086,-247.7132110595703, 27.182817459106445
26,489771725,0.6212226,-0.3336617,-0.7049532,0.07611468,12.952044486999512,5.980735778808594,-2.5715396404266357,108.67778015136719,-190.47352600097656, 16.213531494140625
27,489788392,0.60011643,-0.33465502,-0.7222175,0.079173736,11.262345314025879,-5.4318156242370605,-4.5460991859436035,-6.076301574707031,-136.6421356201172, 29.080507278442383
28,489805059,0.58055484,-0.33850688,-0.73666865,0.075423054,8.901599884033203,-10.531015396118164,-4.091829299926758,-49.431495666503906,-105.56725311279297, 15.912688255310059
29,489821726,0.56478864,-0.33840394,-0.7490897,0.07322158,10.245615005493164,-9.040803909301758,-4.133521556854248,-20.20615005493164,-88.49569702148438, -2.4282312393188477
30,489838393,0.5515003,-0.3385752,-0.75913,0.07025804,14.135553359985352,-7.7855706214904785,-3.459768056869507,-33.50349044799805,-80.69966125488281, -13.173918724060059
31,489855060,0.54032475,-0.3389735,-0.76721525,0.06728241,19.604446411132812,-4.6709723472595215,0.581449568271637,-41.56092071533203,-76.11527252197266, -18.19207763671875
32,489871727,0.52893794,-0.33970383,-0.7750781,0.06387594,20.579504013061523,-0.3469710350036621,1.1204078197479248,-49.5040283203125,-79.89437866210938, -19.967761993408203
33,489888394,0.5143727,-0.34144878,-0.7843923,0.05968633,21.046192169189453,1.7044264078140259,4.053328037261963,-66.30351257324219,-100.78130340576172, -20.053617477416992
34,489905061,0.49714842,-0.34413296,-0.79462975,0.054587416,18.78521156311035,1.0092140436172485,7.652711868286133,-81.38957214355469,-116.08891296386719, -19.542783737182617
35,489921728,0.47700724,-0.34940672,-0.80509573,0.046904054,14.61404800415039,1.0113685131072998,11.286150932312012,-111.47125244140625,-125.78060913085938, -13.872319221496582
36,489938395,0.4530579,-0.35762402,-0.8157577,0.037189458,12.129055976867676,-1.2690706253051758,10.878097534179688,-141.65866088867188,-141.7008056640625, -3.624056100845337
37,489955062,0.42675275,-0.36566252,-0.8266206,0.029520284,13.62955093383789,-3.3493220806121826,9.89116096496582,-135.52708435058594,-160.5901641845703, 1.7335901260375977
38,489971729,0.3966898,-0.37263545,-0.8385645,0.024285689,13.07295036315918,-4.965433597564697,4.930022239685059,-128.26922607421875,-191.46807861328125, 0.7868477702140808
39,489988396,0.3600683,-0.37883195,-0.8521991,0.02437663,9.333629608154297,-6.762368679046631,-2.2834835052490234,-112.55020141601562,-247.63182067871094, 7.544980525970459
40,490005063,0.31779328,-0.38620412,-0.86569595,0.020605076,20.213775634765625,-1.2807865142822266,0.16090887784957886,-152.81080627441406,-270.03045654296875, 6.1062517166137695
41,490021730,0.277674,-0.3927958,-0.8765809,0.014659343,12.156182289123535,-4.472445964813232,9.089609146118164,-157.88232421875,-245.933837890625, 3.4064323902130127
42,490038397,0.24573717,-0.39669365,-0.8843553,0.012774795,11.157731056213379,-3.989575147628784,10.468331336975098,-105.88765716552734,-201.9364013671875, 2.466078042984009
43,490055064,0.22458914,-0.39931384,-0.88877827,0.013473647,12.382589340209961,-9.40073013305664,9.266068458557129,-58.325260162353516,-137.8399658203125, 7.24023962020874
44,490071731,0.21840261,-0.39795265,-0.8907425,0.022630852,11.833087921142578,-8.411331176757812,9.860450744628906,40.707977294921875,-66.23371124267578, 1.3028241395950317
45,490088398,0.22453086,-0.3952533,-0.8900556,0.034088,9.37481689453125,-8.540731430053711,8.202378273010254,90.85193634033203,6.643468379974365, 1.8966820240020752
46,490105065,0.24281348,-0.390974,-0.8865922,0.046210274,7.756036281585693,-7.716584205627441,5.118066787719727,131.01243591308594,83.16954803466797, -2.0584495067596436
47,490121732,0.2717072,-0.38545907,-0.8800891,0.055135313,8.322444915771484,-5.726208209991455,2.248971939086914,143.08702087402344,161.2093963623047, -10.142860412597656
48,490138399,0.30777138,-0.38075507,-0.8702381,0.05466426,8.834927558898926,-4.546983242034912,-0.2833716869354248,105.03137969970703,236.1376953125, -16.633451461791992
49,490155066,0.34942648,-0.37815768,-0.85608286,0.044946637,9.453775405883789,-5.407694339752197,-2.271340847015381,61.562408447265625,303.7838439941406, -14.432328224182129
50,490171733,0.39559352,-0.37743592,-0.83674216,0.030175894,10.619970321655273,-6.25156831741333,-4.227153778076172,40.682960510253906,356.6186218261719, -3.45246958732605
51,490188400,0.44488567,-0.3785378,-0.811542,0.013617052,12.36762809753418,-6.643424034118652,-5.776049613952637,34.79347229003906,395.6568603515625, 16.724824905395508
52,490205067,0.4971438,-0.37906015,-0.7804879,0.00004847433,12.347162246704102,-4.330587863922119,-6.582440376281738,61.56806182861328,422.37689208984375, 37.60184860229492
53,490221734,0.550338,-0.3803832,-0.74316347,-0.012027449,14.634160041809082,-1.2826160192489624,-8.07662296295166,69.36743927001953,445.05731201171875, 63.379974365234375
54,490238401,0.6036669,-0.37900445,-0.7010647,-0.021218559,18.65819549560547,-0.189600870013237,-10.810101509094238,94.37264251708984,456.6157531738281, 73.09617614746094
55,490255068,0.6535329,-0.37194425,-0.65851474,-0.030175544,22.37856101989746,1.080989956855774,-14.567647933959961,110.09114837646484,442.0960693359375, 47.45298385620117
56,490271735,0.69503886,-0.3620956,-0.6197722,-0.041113243,19.59612274169922,-1.0856300592422485,-18.830764770507812,93.1233139038086,392.869873046875, 14.5881986618042
57,490288402,0.72525406,-0.3560106,-0.5868928,-0.053105325,16.303672790527344,-2.3478000164031982,-21.595184326171875,44.25291442871094,318.4664611816406, 7.859055519104004
58,490305069,0.7458077,-0.35028633,-0.5636146,-0.058388613,9.24427318572998,-2.0247740745544434,-27.089130401611328,49.49030303955078,215.2625732421875, 15.74315071105957
59,490321736,0.75506353,-0.34500346,-0.5545353,-0.05781419,2.4648900032043457,2.516702651977539,-28.24800682067871,48.56474304199219,84.6838607788086, 8.6976318359375
60,490338403,0.75470483,-0.3382208,-0.5600482,-0.0487196,0.29013174772262573,-0.621878981590271,-28.58812713623047,71.9338150024414,-47.151466369628906, 8.712113380432129
61,490355070,0.7488052,-0.3240853,-0.5775916,-0.025443688,4.241569519042969,1.6280629634857178,-24.825258255004883,155.9213104248047,-161.385986328125, 23.99088478088379
62,490371737,0.7314976,-0.3184238,-0.60292435,0.00029943985,8.191059112548828,-10.432047843933105,-21.592308044433594,98.03453826904297,-253.84742736816406, 50.931392669677734
63,490388404,0.7091702,-0.32162648,-0.6270069,0.022282723,32.57074737548828,3.4358181953430176,11.248065948486328,26.848421096801758,-260.19537353515625, 71.34616088867188
64,490405071,0.67546177,-0.337887,-0.65431386,0.038173035,30.749616622924805,-0.40681207180023193,-4.090486526489258,-89.03440856933594,-310.0787048339844, 92.86202239990234
65,490421738,0.6473384,-0.33315092,-0.68198705,0.06969395,11.129042625427246,4.132674217224121,-7.293398857116699,91.71234893798828,-328.65338134765625, 68.80965423583984
66,490438405,0.62322026,-0.32970443,-0.7024381,0.09732627,3.0610909461975098,-8.257808685302734,-16.452308654785156,80.3683853149414,-268.1976013183594, 72.16815185546875
67,490455072,0.60323715,-0.3336726,-0.7154256,0.11372728,5.256674766540527,-4.431279182434082,-7.379441261291504,8.737384796142578,-185.68252563476562, 73.78874206542969
68,490471739,0.5857445,-0.34021667,-0.7253469,0.12258884,16.948875427246094,-7.869683265686035,-5.008519172668457,-30.966350555419922,-141.45758056640625, 60.211463928222656
69,490488406,0.5725607,-0.34090167,-0.73407453,0.13074897,17.4714298248291,-3.1010937690734863,-5.154700756072998,0.14431586861610413,-118.57605743408203, 27.35388946533203
70,490505073,0.55958796,-0.3433657,-0.7425263,0.13272563,12.720352172851562,-3.9307641983032227,-5.344062805175781,-37.35260772705078,-100.4332046508789, 12.532673835754395
71,490521740,0.5492382,-0.3434798,-0.7500078,0.13359353,11.979426383972168,-7.127869129180908,-4.514647483825684,-26.920242309570312,-82.88549041748047, -3.8155105113983154
72,490538407,0.5389579,-0.34442973,-0.7575958,0.13015814,13.131489753723145,-6.800149917602539,-5.516609191894531,-52.24490737915039,-72.04817199707031, -16.098825454711914
73,490555074,0.53001285,-0.3438199,-0.76504886,0.12479795,15.850808143615723,-6.830743789672852,-5.139481544494629,-53.23575210571289,-61.464210510253906, -32.23440933227539
74,490571741,0.52279216,-0.34308344,-0.77162296,0.11653399,16.153398513793945,-5.494436740875244,-2.7483367919921875,-63.240291595458984,-42.49146270751953, -42.86589050292969
75,490588408,0.51493216,-0.34476006,-0.7779307,0.10396798,17.201213836669922,-4.408341407775879,-0.21371552348136902,-96.07135772705078,-32.92217254638672, -44.35607147216797
76,490605075,0.5045265,-0.34950724,-0.78459644,0.087785326,13.93298053741455,-2.9655213356018066,3.546694278717041,-132.61875915527344,-37.15132141113281, -39.73320388793945
77,490621742,0.49125135,-0.35696092,-0.7915798,0.068209216,11.997481346130371,-4.290104389190674,7.835780143737793,-167.4657440185547,-44.05866241455078, -35.92567825317383
78,490638409,0.47609556,-0.36551976,-0.79823166,0.05054535,10.444584846496582,-5.23411750793457,7.179500102996826,-165.33453369140625,-57.487613677978516, -21.789682388305664
79,490655076,0.45765057,-0.37292162,-0.80618435,0.0393989,9.0535306930542,-3.2923433780670166,6.531860828399658,-134.55877685546875,-96.67208099365234, -8.984642028808594
80,490671743,0.43310872,-0.3813371,-0.81609064,0.03154345,10.661197662353516,-2.4525158405303955,5.782271385192871,-135.70945739746094,-144.84165954589844, 3.607736349105835
81,490688410,0.4005772,-0.38868803,-0.82926744,0.02784396,9.457858085632324,-3.890781879425049,1.8485676050186157,-130.89645385742188,-210.6241912841797, 3.1630921363830566
82,490705077,0.3625722,-0.39252073,-0.84476626,0.028968947,14.92759895324707,-2.9170637130737305,0.24496787786483765,-108.7796401977539,-261.81695556640625, -8.783780097961426
83,490721744,0.32319915,-0.39338368,-0.8600075,0.03433447,17.138364791870117,-7.268930435180664,6.972330093383789,-80.36017608642578,-281.2281188964844, -14.466991424560547
84,490738411,0.2898743,-0.3892727,-0.8727774,0.05195535,16.140336990356445,-4.669650077819824,11.03225326538086,20.04473114013672,-274.4494934082031, -11.374311447143555
85,490755078,0.25917658,-0.38602728,-0.8826968,0.068243034,15.977742195129395,-5.271760940551758,11.298477172851562,18.307191848754883,-249.27105712890625, -2.0924417972564697
86,490771745,0.23676237,-0.38147086,-0.8894311,0.08565096,19.62244415283203,-8.311675071716309,10.558799743652344,50.860721588134766,-197.02468872070312, -3.4405057430267334
87,490788412,0.22752881,-0.37319207,-0.89296937,0.107537426,18.81719970703125,-3.1726274490356445,9.467445373535156,120.66226196289062,-125.3073501586914, -18.22331428527832
88,490805079,0.22477567,-0.3682612,-0.89446604,0.117431596,12.057021141052246,0.9890835881233215,8.62256908416748,59.9189567565918,-49.18914794921875, -15.897911071777344
89,490821746,0.22795537,-0.3673242,-0.8947545,0.1119093,10.554457664489746,-2.909597635269165,5.15854024887085,-25.017654418945312,31.431556701660156, -16.865934371948242
90,490838413,0.24207811,-0.36730152,-0.89224017,0.101958506,9.34516429901123,-4.892419338226318,0.7822949886322021,-23.89524269104004,115.1064453125, -19.578901290893555
91,490855080,0.2671031,-0.3672234,-0.8865141,0.08885772,8.907798767089844,-3.963172435760498,-0.17808698117733002,-13.331642150878906,195.409912109375, -24.775815963745117
92,490871747,0.30157098,-0.36837372,-0.8764186,0.07243223,8.286664009094238,-5.546097278594971,-1.4724113941192627,-9.310951232910156,270.3192443847656, -18.198606491088867
93,490888414,0.3447424,-0.3694935,-0.8609222,0.05865658,9.219693183898926,-6.855441093444824,-2.4738361835479736,31.482196807861328,327.42559814453125, -3.6157023906707764
94,490905081,0.394633,-0.3702453,-0.83957124,0.04799416,10.507241249084473,-4.870208263397217,-2.93803071975708,70.23979187011719,373.1917724609375, 13.694314002990723
95,490921748,0.44829985,-0.37239802,-0.81183785,0.035588607,12.614068031311035,-2.944164276123047,-3.957267999649048,68.13493347167969,417.36444091796875, 32.03642654418945
96,490938415,0.5042677,-0.3766023,-0.7768062,0.021383096,14.620869636535645,-2.714461088180542,-5.546377658843994,59.491214752197266,457.9686279296875, 56.09373092651367
97,490955082,0.56150144,-0.37987483,-0.7350777,0.008503367,15.461348533630371,0.25225698947906494,-6.138402938842773,74.1318359375,484.52532958984375, 72.91183471679688
98,490971749,0.61654675,-0.37997633,-0.689545,-0.003989697,19.35507583618164,0.4125320315361023,-9.898580551147461,82.91228485107422,487.0504150390625, 68.50492095947266
99,490988416,0.6666369,-0.37259772,-0.64536476,-0.016450765,20.533788681030273,-0.40793514251708984,-15.885663032531738,101.9386978149414,458.01715087890625, 29.573122024536133
100,491005083,0.70672697,-0.3643975,-0.605579,-0.03202706,20.780136108398438,-1.8417747020721436,-20.360788345336914,66.81250762939453,401.69500732421875, -0.6693053841590881
101,491021750,0.73612434,-0.35686025,-0.5735382,-0.042729434,13.837189674377441,-4.98661994934082,-27.665679931640625,58.91088104248047,307.3479309082031, 4.085349082946777
102,491038417,0.75238436,-0.35112935,-0.55546707,-0.045634072,5.487632751464844,1.7512601613998413,-30.82770347595215,52.53083419799805,165.47506713867188, 12.507331848144531
103,491055084,0.75524616,-0.3486726,-0.55337685,-0.042484,1.70458984375,-0.10137274861335754,-31.446935653686523,31.567291259765625,16.324983596801758, 13.544479370117188
104,491071751,0.752492,-0.33636978,-0.56571865,-0.023952765,1.2800755500793457,-0.46870315074920654,-29.03540802001953,132.15121459960938,-113.69245147705078, 19.623476028442383
105,491088418,0.7427337,-0.3230972,-0.58647656,-0.0003496994,7.381936073303223,1.461543321609497,-20.933673858642578,142.23391723632812,-195.8600616455078, 21.3397274017334
106,491105085,0.7241548,-0.32000667,-0.6104027,0.024583612,10.450188636779785,-15.846675872802734,-14.670756340026855,76.06745910644531,-250.53738403320312, 62.0904655456543
107,491121752,0.69573176,-0.34055305,-0.63112855,0.04071648,32.41801071166992,-14.490644454956055,2.684957504272461,-99.6912841796875,-252.61537170410156, 125.99386596679688
108,491138419,0.6734025,-0.32991576,-0.65671206,0.08008759,25.678709030151367,2.197248935699463,-8.048332214355469,163.20245361328125,-312.9188232421875, 88.77590942382812
109,491155086,0.6441932,-0.33017322,-0.6824139,0.1015495,18.215961456298828,14.054220199584961,-11.190850257873535,16.15404510498047,-297.9690856933594, 58.721153259277344
110,491171753,0.6185498,-0.3359665,-0.70089036,0.11522009,6.70590353012085,0.6640373468399048,-9.736948013305664,-31.716196060180664,-227.6953582763672, 64.36935424804688
111,491188420,0.59899855,-0.3451318,-0.7119792,0.12316966,7.859841823577881,-11.431790351867676,-7.2906718254089355,-53.68989944458008,-151.0554962158203, 68.50556182861328
112,491205087,0.58744776,-0.34906158,-0.7182556,0.13103522,14.444992065429688,-7.80818510055542,-5.708840370178223,-9.542593002319336,-96.37905883789062, 47.029449462890625
113,491221754,0.57728386,-0.35404006,-0.7238784,0.13190569,13.770214080810547,-5.870208263397217,-5.928773403167725,-44.478912353515625,-69.2797622680664, 24.279266357421875
114,491238421,0.5683157,-0.3603506,-0.72878504,0.12663874,13.772453308105469,-4.859985828399658,-4.849651336669922,-76.80828857421875,-44.43980407714844, 7.2448883056640625
115,491255088,0.56161475,-0.3626328,-0.7337361,0.12131699,14.024918556213379,-7.304189205169678,-4.922277927398682,-55.82078552246094,-36.72758865356445, -15.189809799194336
116,491271755,0.55433017,-0.36466566,-0.7395723,0.113004394,16.975502014160156,-6.867325305938721,-2.3148131370544434,-72.20521545410156,-35.93350601196289, -29.704769134521484
117,491288422,0.54577327,-0.3679978,-0.7458747,0.101883695,18.83399772644043,-5.057264804840088,0.8041785359382629,-95.07210540771484,-36.27298355102539, -33.93671798706055
118,491305089,0.53495944,-0.37291262,-0.7530058,0.087960884,17.130502700805664,-1.4579607248306274,1.9881675243377686,-121.76872253417969,-42.95226287841797, -36.77682113647461
119,491321756,0.522191,-0.37891746,-0.76065654,0.07169433,13.288558959960938,-0.8260109424591064,4.426757335662842,-143.3034210205078,-48.50558090209961, -39.82278060913086
120,491338423,0.5087311,-0.3833187,-0.7687382,0.05745597,9.948860168457031,-2.9210963249206543,4.290555000305176,-129.0193328857422,-59.919918060302734, -41.68438720703125
121,491355090,0.49338335,-0.3869144,-0.7776236,0.046603303,8.514020919799805,-4.609566688537598,4.197316646575928,-113.67732238769531,-82.06531524658203, -35.52000427246094
122,491371757,0.4759921,-0.38968626,-0.7872798,0.04203271,8.659331321716309,-5.109135627746582,5.229187965393066,-83.04740905761719,-112.6611328125, -20.093488693237305
123,491388424,0.45408386,-0.38979918,-0.7999231,0.044581246,9.625335693359375,-2.966559886932373,4.818904876708984,-48.85392379760742,-166.8124542236328, -17.953039169311523
124,491405091,0.42596978,-0.39037895,-0.8146971,0.049222134,9.82750415802002,-3.388077974319458,3.7662229537963867,-56.1281852722168,-213.14488220214844, -12.682143211364746
125,491421758,0.39058065,-0.39308915,-0.83093804,0.04969536,13.743412971496582,-3.2281558513641357,2.2935235500335693,-105.77438354492188,-246.3629913330078, -14.459213256835938
126,491438425,0.35113207,-0.39806134,-0.8464009,0.04311503,16.39529800415039,-2.82322096824646,6.152709484100342,-162.886962890625,-247.72610473632812, -16.992595672607422
127,491455092,0.31072712,-0.40140933,-0.86103034,0.030759476,14.674263000488281,0.48042646050453186,10.614385604858398,-194.9893035888672,-236.11819458007812, -37.832000732421875
128,491471759,0.26823562,-0.4055598,-0.8737828,0.0086248955,13.662554740905762,-3.167771100997925,11.26611328125,-259.9955749511719,-217.48611450195312, -48.38242721557617
129,491488426,0.23479524,-0.40590692,-0.88321465,-0.006542122,16.106290817260742,-9.765453338623047,8.972732543945312,-185.67755126953125,-176.72996520996094, -49.70934295654297
130,491505093,0.21690476,-0.39943418,-0.8907218,-0.0044488665,17.412212371826172,-8.892991065979004,5.974887371063232,-26.622604370117188,-127.16797637939453, -57.253665924072266
131,491521760,0.21073796,-0.3921127,-0.8954451,0.00389346,14.361966133117676,-6.675344944000244,5.261804580688477,44.94163513183594,-68.4704818725586, -45.13014602661133
132,491538427,0.2166713,-0.38560858,-0.89669627,0.017190853,11.825454711914062,-9.812114715576172,3.6499218940734863,106.93590545654297,-2.33310866355896, -23.858549118041992
133,491555094,0.23492245,-0.37969312,-0.89414126,0.034004956,9.460122108459473,-8.847090721130371,1.8718743324279785,160.76776123046875,70.03292846679688, -6.341533660888672
134,491571761,0.26230234,-0.3757981,-0.8876892,0.044514276,7.554943561553955,-7.455911159515381,-0.43489766120910645,143.42385864257812,149.44366455078125, 3.9446771144866943
135,491588428,0.2976461,-0.37439755,-0.87702173,0.04545699,7.7882208824157715,-6.673832893371582,-2.9929189682006836,102.37577056884766,231.2489471435547, 10.347541809082031
136,491605095,0.3388438,-0.37554103,-0.86185706,0.036826435,8.687394142150879,-4.766132354736328,-4.438748359680176,55.90925598144531,301.330810546875, 15.801617622375488
137,491621762,0.382861,-0.38123536,-0.8412845,0.017821057,9.537004470825195,-3.9218828678131104,-4.782244682312012,-7.508979320526123,358.7289733886719, 31.8039608001709
138,491638429,0.42806762,-0.39178744,-0.81438124,-0.006639541,9.755281448364258,-4.5936055183410645,-6.086899757385254,-47.940650939941406,397.31707763671875, 61.95619583129883
139,491655096,0.47494814,-0.4047733,-0.78089815,-0.027952036,10.103874206542969,-4.762202262878418,-8.267687797546387,-33.21553039550781,417.6089782714844, 102.61146545410156
140,491671763,0.5243103,-0.41502053,-0.74253523,-0.038707756,11.508302688598633,-3.971825122833252,-10.119982719421387,38.469993591308594,418.1709899902344, 136.4287567138672
141,491688430,0.5784908,-0.41443148,-0.7017481,-0.033835817,15.80941390991211,-3.063734769821167,-13.171765327453613,170.60311889648438,409.98541259765625, 145.67453002929688
142,491705097,0.6335861,-0.39829683,-0.66295195,-0.020572465,16.784648895263672,1.0196068286895752,-18.591567993164062,276.20684814453125,386.37103271484375, 98.64352416992188
143,491721764,0.67916507,-0.3776449,-0.6291882,-0.015547362,16.32515525817871,7.452332019805908,-21.798494338989258,233.08258056640625,344.4595642089844, 27.143369674682617
144,491738431,0.7039829,-0.37723932,-0.600834,-0.033126153,13.382989883422852,0.7297515869140625,-21.161563873291016,-12.499950408935547,286.1539306640625, -6.8507795333862305
145,491755098,0.71921706,-0.3797711,-0.5800475,-0.045230698,10.10590934753418,-8.534627914428711,-24.3685359954834,-27.0696964263916,195.3503875732422, 10.090401649475098
146,491771765,0.7291533,-0.3753372,-0.5706121,-0.043125045,4.2523722648620605,4.930794715881348,-25.014692306518555,53.93681716918945,83.51349639892578, 21.21681022644043
147,491788432,0.7289915,-0.37336975,-0.57241064,-0.03889587,4.126254081726074,7.110878944396973,-22.128814697265625,27.370410919189453,-18.27615737915039, 9.625412940979004
148,491805099,0.7250573,-0.36355725,-0.58449256,-0.02205942,2.661161184310913,-1.5975289344787598,-19.787450790405273,109.54454803466797,-114.657470703125, 14.594442367553711
149,491821766,0.72317255,-0.33610347,-0.60321784,0.013571434,5.432360649108887,0.4683600068092346,-15.782100677490234,279.38592529296875,-183.6821746826172, 20.909793853759766
150,491838433,0.7136353,-0.3163339,-0.62296003,0.05077678,9.785849571228027,-15.878518104553223,-9.818676948547363,230.00558471679688,-223.28285217285156, 58.810203552246094
151,491855100,0.6939529,-0.32162145,-0.6399534,0.07381588,28.132530212402344,-0.5532922744750977,5.080410957336426,25.238557815551758,-213.67523193359375, 105.8258285522461
152,491871767,0.66155994,-0.33833763,-0.66346055,0.087671876,22.901931762695312,-4.074243068695068,-2.3729138374328613,-101.25343322753906,-274.9416809082031, 104.60272979736328
153,491888434,0.63819075,-0.32685885,-0.6866305,0.120061465,16.266773223876953,10.168766021728516,-9.87133502960205,132.79258728027344,-292.53668212890625, 55.71047592163086
154,491905101,0.6135974,-0.32275388,-0.7061476,0.14381884,13.053656578063965,1.268561840057373,-10.593735694885254,60.03692626953125,-256.76947021484375, 62.06752014160156
155,491921768,0.59117395,-0.32841352,-0.72027344,0.15448022,7.456487655639648,-4.717339038848877,-7.485133171081543,-34.51618957519531,-184.74752807617188, 64.0943832397461
156,491938435,0.5743781,-0.33397475,-0.7296476,0.16175656,10.878532409667969,-9.778392791748047,-6.000521183013916,-33.11827087402344,-130.0637664794922, 54.533687591552734
157,491955102,0.561835,-0.33729455,-0.7370197,0.16545679,12.203516006469727,-8.395700454711914,-6.2402753829956055,-30.275432586669922,-95.19181823730469, 28.96320915222168
158,491971769,0.5520131,-0.33954403,-0.7433571,0.16556495,12.867128372192383,-5.880297660827637,-5.84525203704834,-36.912776947021484,-70.3829574584961, 8.958672523498535
159,491988436,0.54441816,-0.33950475,-0.74928707,0.16405614,13.980709075927734,-6.331362247467041,-5.82057523727417,-30.876110076904297,-56.38209915161133, -10.411539077758789
160,492005103,0.5379845,-0.33849654,-0.7551911,0.16024688,16.677003860473633,-6.2449421882629395,-3.9832630157470703,-36.41414260864258,-46.12441635131836, -25.20745277404785
161,492021770,0.5308648,-0.33994237,-0.7612229,0.15218984,20.73023796081543,-7.328014373779297,0.015992790460586548,-69.36371612548828,-37.725372314453125, -27.624040603637695
162,492038437,0.52342075,-0.34319696,-0.76700777,0.14122882,19.581113815307617,-4.834115028381348,2.6352052688598633,-91.80523681640625,-30.107662200927734, -27.713403701782227
163,492055104,0.5140093,-0.34970033,-0.773052,0.12607403,17.267086029052734,-0.8711188435554504,5.387134075164795,-130.65237426757812,-28.668779373168945, -24.24355125427246
164,492071771,0.5017553,-0.35757613,-0.7802073,0.10797236,13.399940490722656,-1.8634988069534302,6.3061723709106445,-159.09439086914062,-39.76289749145508, -27.435253143310547
165,492088438,0.4876794,-0.36473954,-0.78779924,0.092230104,9.262447357177734,-2.7002973556518555,8.315373420715332,-148.90951538085938,-57.66836166381836, -22.794048309326172
166,492105105,0.4716256,-0.3706614,-0.7959494,0.081513636,9.434887886047363,-1.9381861686706543,8.123915672302246,-122.98065948486328,-83.9119873046875, -12.846381187438965
167,492121772,0.45013252,-0.3763229,-0.8062372,0.07578566,10.626832008361816,-3.252157688140869,5.841736316680908,-110.01250457763672,-133.72706604003906, -0.5170726180076599
168,492138439,0.4222385,-0.37816244,-0.82005733,0.07882801,10.779211044311523,-2.8628149032592773,3.46433162689209,-68.05519104003906,-205.055908203125, -0.38810908794403076
169,492155106,0.38804522,-0.38005194,-0.8356535,0.08163807,13.030094146728516,-1.2404835224151611,0.32442590594291687,-86.89546966552734,-245.28884887695312, -1.9959616661071777
170,492171773,0.34922972,-0.3848226,-0.85071206,0.07899037,17.342384338378906,-2.723672389984131,7.398160934448242,-137.70252990722656,-254.71807861328125, 4.013268947601318
171,492188440,0.3150914,-0.38674822,-0.8631428,0.078280106,13.819830894470215,-0.3054855465888977,11.9217529296875,-105.80574798583984,-228.0785369873047, -3.5356860160827637
172,492205107,0.28343382,-0.38982752,-0.87319374,0.07233726,11.344040870666504,0.42192286252975464,12.354852676391602,-131.5624237060547,-194.02085876464844, -3.024920701980591
173,492221774,0.25557083,-0.3955359,-0.8802367,0.058465373,11.614455223083496,-5.288462162017822,11.634649276733398,-172.70069885253906,-143.11282348632812, 3.4402096271514893
174,492238441,0.2379809,-0.39933923,-0.8840947,0.047643304,14.34658432006836,-11.289957046508789,7.756604194641113,-121.85474395751953,-84.67438507080078, 1.6854015588760376
175,492255108,0.23544523,-0.39700967,-0.88572323,0.049429066,13.933506965637207,-9.873603820800781,3.3990824222564697,6.592403411865234,-26.42765235900879, -13.864031791687012
176,492271775,0.24385521,-0.3923747,-0.8852526,0.05389476,11.617776870727539,-4.996639251708984,2.9365885257720947,57.02064514160156,35.317630767822266, -21.556793212890625
177,492288442,0.26085314,-0.38815945,-0.88216,0.055515148,9.891912460327148,-6.322856903076172,1.6923794746398926,63.05169677734375,99.68505859375, -19.84288787841797
178,492305109,0.28777337,-0.38421008,-0.8753492,0.057732914,8.773189544677734,-6.852524280548096,-1.1836732625961304,93.98420715332031,164.98744201660156, -11.015149116516113
179,492321776,0.3222851,-0.3813726,-0.8646433,0.055493202,8.597082138061523,-6.083675861358643,-3.541325330734253,86.44554138183594,230.62948608398438, -5.887967586517334
180,492338443,0.36243072,-0.38073304,-0.8493939,0.04707919,8.750321388244629,-6.5855937004089355,-4.297281265258789,61.31627655029297,291.34735107421875, 3.191270112991333
181,492355110,0.40712962,-0.3816614,-0.82903016,0.03590605,9.062005043029785,-6.285440444946289,-4.447495460510254,54.83732604980469,338.6440734863281, 17.2706356048584
182,492371777,0.4551844,-0.3847115,-0.8026849,0.02238936,9.791499137878418,-5.124433994293213,-5.457088947296143,45.835906982421875,381.4795837402344, 37.53124237060547
183,492388444,0.50511295,-0.39056396,-0.7695917,0.00704215,10.62042236328125,-4.311297416687012,-7.358858108520508,33.011085510253906,418.5627746582031, 64.71949005126953
184,492405111,0.555733,-0.39650983,-0.7306841,-0.0064383456,11.059905052185059,-2.195622444152832,-9.099336624145508,44.82627868652344,437.7848815917969, 87.19615173339844
185,492421778,0.60650796,-0.39807272,-0.6880835,-0.015076801,16.785526275634766,-0.7782619595527649,-13.704736709594727,86.3485107421875,440.0654602050781, 93.75222778320312
186,492438445,0.65154815,-0.3946792,-0.64738315,-0.024670474,20.038076400756836,0.04308736324310303,-18.393930435180664,87.22527313232422,408.4975891113281, 60.613216400146484
187,492455112,0.68712324,-0.38948914,-0.6123263,-0.034878615,15.71138858795166,-2.5445802211761475,-23.3182373046875,68.06290435791016,343.4687805175781, 33.11431121826172
188,492471779,0.7105757,-0.38692448,-0.58604145,-0.043900758,12.152976036071777,-1.9876073598861694,-23.208560943603516,30.575368881225586,247.71383666992188, 23.458471298217773
189,492488446,0.72418827,-0.38498685,-0.5702379,-0.046533898,6.668022632598877,-0.4556023180484772,-24.705421447753906,30.523839950561523,140.1946258544922, 26.411182403564453
190,492505113,0.7281628,-0.38417554,-0.56595266,-0.043426435,2.519798755645752,5.625999450683594,-24.118953704833984,25.875669479370117,30.018661499023438, 25.86383628845215
191,492521780,0.7243545,-0.38373935,-0.5716399,-0.03581342,3.1807470321655273,4.271085739135742,-20.486793518066406,24.205303192138672,-61.7662467956543, 21.293333053588867
192,492538447,0.71802235,-0.37529337,-0.5859156,-0.017373424,4.642001152038574,2.9965732097625732,-19.38642692565918,102.31233215332031,-140.75283813476562, 20.461029052734375
193,492555114,0.7050462,-0.36652216,-0.6070157,0.010169573,8.756954193115234,-11.764352798461914,-21.321943283081055,124.46405029296875,-224.43898010253906, 45.63393020629883
194,492571781,0.68556714,-0.36852115,-0.6265428,0.04042343,34.0601921081543,-7.471038818359375,2.4389901161193848,67.490234375,-249.81094360351562, 107.85557556152344
195,492588448,0.66334414,-0.3594007,-0.6519589,0.07586483,24.569290161132812,14.2326078414917,-8.135934829711914,133.6048126220703,-305.9861145019531, 70.34701538085938
196,492605115,0.6303935,-0.36578107,-0.6782621,0.09364152,18.116971969604492,6.495874881744385,-6.645328521728516,-43.18819808959961,-306.4461364746094, 63.04014587402344
197,492621782,0.6033336,-0.37001625,-0.69765854,0.111127615,7.995113372802734,-0.2875494062900543,-7.936788558959961,-15.884041786193848,-249.77537536621094, 65.51644897460938
198,492638449,0.58060825,-0.3770951,-0.7113729,0.121004276,4.415679931640625,-12.308008193969727,-9.843216896057129,-48.765533447265625,-183.91786193847656, 58.66580581665039
199,492655116,0.5660936,-0.37928078,-0.72050947,0.12864809,8.978063583374023,-12.09346866607666,-5.507233142852783,-15.086627960205078,-123.75098419189453, 30.593448638916016
200,492671783,0.55445164,-0.38006696,-0.7285912,0.13148175,12.734331130981445,-8.511590957641602,-6.370757579803467,-25.164794921875,-94.21273040771484, 5.000375270843506
201,492688450,0.5444641,-0.37916574,-0.73682994,0.12990034,14.479104995727539,-5.050395488739014,-6.394279956817627,-36.75210952758789,-76.6208267211914, -22.203086853027344
202,492705117,0.5379346,-0.3753772,-0.74400795,0.12716371,15.298171997070312,-5.44490385055542,-6.019400119781494,-21.892663955688477,-54.81081008911133, -41.40951156616211
203,492721784,0.53299624,-0.37207016,-0.7501643,0.12137743,18.766643524169922,-6.379591941833496,-4.487741470336914,-34.340179443359375,-34.72212600708008, -48.90957260131836
204,492738451,0.5262886,-0.3728695,-0.7561927,0.11027842,21.685821533203125,-5.853686332702637,0.35807251930236816,-81.30540466308594,-26.539216995239258, -45.293128967285156
205,492755118,0.51827556,-0.37636012,-0.7619678,0.09564933,19.09938621520996,-2.8342854976654053,3.4424121379852295,-112.6964340209961,-21.61892318725586, -42.302093505859375
206,492771785,0.5083462,-0.3815766,-0.7680662,0.077832945,15.361955642700195,-1.6817173957824707,4.673527717590332,-140.8555908203125,-23.753894805908203, -44.07331466674805
207,492788452,0.4963028,-0.38676226,-0.7749971,0.058975443,11.474716186523438,-2.4906234741210938,6.98637056350708,-152.36265563964844,-35.41004180908203, -48.86101150512695
208,492805119,0.48222867,-0.39119455,-0.7826173,0.043962803,6.918781757354736,-4.398820400238037,8.559478759765625,-135.1156463623047,-59.396583557128906, -40.778072357177734
209,492821786,0.46493852,-0.3951623,-0.7914377,0.036136005,7.203787803649902,-5.264189720153809,6.407287120819092,-104.07038116455078,-100.38558197021484, -21.80852699279785
210,492838453,0.44164902,-0.39717102,-0.8035946,0.037911378,8.021607398986816,-5.604616641998291,4.449578762054443,-62.81495666503906,-170.4532012939453, -9.447155952453613
211,492855120,0.41099697,-0.39729103,-0.81946355,0.04148581,8.787979125976562,-0.6846262812614441,3.6109542846679688,-68.31109619140625,-227.96298217773438, -22.73139190673828
212,492871787,0.37284565,-0.39947525,-0.8364345,0.042227432,15.578256607055664,-3.773970127105713,3.77187180519104,-110.9215316772461,-265.1488037109375, -19.992849349975586
213,492888454,0.33660972,-0.3984406,-0.851764,0.04936666,13.838582038879395,-3.9319279193878174,9.721908569335938,-60.17821502685547,-268.65338134765625, -18.152467727661133
214,492905121,0.3056073,-0.39442548,-0.86449903,0.060616434,14.274041175842285,-1.1414514780044556,12.620624542236328,-14.081454277038574,-244.51602172851562, -20.76152992248535
215,492921788,0.27876714,-0.39125225,-0.8742478,0.07001086,14.094356536865234,-4.215826511383057,12.04744815826416,-14.415721893310547,-208.37640380859375, -13.243926048278809
216,492938455,0.25957787,-0.3877811,-0.8807659,0.0806023,16.589143753051758,-8.090015411376953,10.217860221862793,15.364426612854004,-159.77410888671875, -7.7064361572265625
217,492955122,0.2518817,-0.38200808,-0.8839358,0.09634933,18.068857192993164,-8.447031021118164,6.084227085113525,83.01113891601562,-99.44475555419922, -9.843469619750977
218,492971789,0.2530882,-0.37642172,-0.8844542,0.109517224,14.42243766784668,-3.2751247882843018,4.9651079177856445,92.00018310546875,-34.03411865234375, -12.0269193649292
219,492988456,0.2605134,-0.37414923,-0.8830656,0.11108799,11.6594877243042,-3.214527130126953,4.254434585571289,33.20009231567383,39.52277755737305, -11.74233627319336
220,493005123,0.27636263,-0.37483037,-0.8787739,0.10431971,10.455142974853516,-4.610251426696777,1.3275915384292603,1.1152269840240479,119.55917358398438, -7.71727991104126
221,493021790,0.30078927,-0.37797543,-0.8708838,0.09067425,9.599637985229492,-5.067636013031006,-1.7361526489257812,-20.49510383605957,197.75161743164062, -2.85029673576355
222,493038457,0.33355775,-0.38219628,-0.85872346,0.07252229,9.508443832397461,-5.599434852600098,-3.514780282974243,-25.416080474853516,269.02117919921875, 0.06323482096195221
223,493055124,0.37400264,-0.3870469,-0.8411469,0.05281038,9.715533256530762,-6.063235282897949,-3.671739101409912,-13.238295555114746,331.32586669921875, 10.48599624633789
224,493071791,0.42052662,-0.39193556,-0.8175488,0.03403186,10.599145889282227,-5.6285929679870605,-4.682887077331543,10.389228820800781,379.6610107421875, 26.802974700927734
225,493088458,0.4711347,-0.39738396,-0.78731465,0.015928956,11.796143531799316,-4.726085662841797,-6.2201642990112305,25.123456954956055,420.2948913574219, 48.724246978759766
226,493105125,0.5240456,-0.4027783,-0.75043064,-0.00014755757,11.522428512573242,-2.4768710136413574,-7.714057445526123,43.32251739501953,448.963623046875, 72.84821319580078
227,493121792,0.5770565,-0.406197,-0.70842874,-0.011777511,15.245991706848145,-1.4302150011062622,-10.65113639831543,73.73503875732422,455.83758544921875, 92.8441390991211
228,493138459,0.6294263,-0.40099332,-0.6653307,-0.019029336,20.5047664642334,0.4582872986793518,-15.840845108032227,127.54136657714844,445.7688903808594, 71.27291870117188
229,493155126,0.6737374,-0.3916392,-0.625985,-0.028974948,19.521690368652344,-0.8298740386962891,-21.3666934967041,111.59994506835938,400.8900451660156, 29.379140853881836
230,493171793,0.70650166,-0.38394007,-0.59315526,-0.04015346,15.07296371459961,-2.097771406173706,-23.376495361328125,69.04756164550781,324.3804626464844, 11.093152046203613
231,493188460,0.7262156,-0.3833412,-0.5685115,-0.049549796,10.346553802490234,-2.4302406311035156,-25.23145294189453,9.855830192565918,225.2185516357422, 23.589054107666016
232,493205127,0.7367462,-0.3811269,-0.5562575,-0.050249465,3.54658579826355,2.473344326019287,-27.652721405029297,32.22362518310547,105.63404083251953, 24.954320907592773
233,493221794,0.7368987,-0.3805237,-0.5566912,-0.04772042,2.818648338317871,5.594069480895996,-25.372451782226562,13.913558959960938,-6.755767822265625, 10.691540718078613
234,493238461,0.7317796,-0.37581092,-0.5674374,-0.03577239,2.45552921295166,2.314030647277832,-22.232330322265625,60.6650390625,-101.97648620605469, 14.04617977142334
235,493255128,0.72478396,-0.36316916,-0.5853256,-0.013790135,5.060187339782715,2.467273473739624,-17.649803161621094,136.88760375976562,-168.8193359375, 14.614072799682617
236,493271795,0.71158135,-0.35471815,-0.60637766,0.011540579,6.975772857666016,-12.942038536071777,-15.28061294555664,114.48745727539062,-218.05520629882812, 39.59613800048828
237,493288462,0.69239205,-0.35974133,-0.62427443,0.03822456,24.75016212463379,-14.259556770324707,0.29674726724624634,40.026493072509766,-229.63861083984375, 110.2198715209961
238,493305129,0.66890854,-0.35593578,-0.64841324,0.07370052,28.312763214111328,-0.3758111000061035,-4.130769729614258,107.5340805053711,-302.1344909667969, 99.7398910522461
239,493321796,0.63999134,-0.35179934,-0.6757817,0.09983776,20.383148193359375,16.897789001464844,-7.987763404846191,52.51936340332031,-318.6572570800781, 50.32738494873047
240,493338463,0.6109349,-0.35183412,-0.6987007,0.12160898,12.296165466308594,2.931596279144287,-7.310813903808594,16.77718734741211,-286.32843017578125, 61.77562713623047
241,493355130,0.5848,-0.3582903,-0.7155497,0.1327628,2.6576988697052,-9.502702713012695,-10.518208503723145,-48.95878982543945,-215.76788330078125, 60.32647705078125
242,493371797,0.5688932,-0.35855368,-0.72588193,0.14455242,7.461136817932129,-12.171735763549805,-7.124800205230713,10.27627182006836,-146.38479614257812, 38.857357025146484
243,493388464,0.55600536,-0.36038625,-0.734173,0.14822267,11.4196138381958,-9.320016860961914,-7.5981340408325195,-26.985942840576172,-101.7955093383789, 16.770402908325195
244,493405131,0.54639125,-0.36082143,-0.74116075,0.14813966,15.278084754943848,-3.993806838989258,-6.0593414306640625,-31.20427703857422,-72.48017883300781, -4.771852970123291
245,493421798,0.53896856,-0.3588818,-0.7479792,0.14575285,15.803370475769043,-4.735087871551514,-7.1331048011779785,-28.451135635375977,-57.520957946777344, -27.20893669128418
246,493438465,0.53420717,-0.35475004,-0.7540556,0.14204037,18.150941848754883,-6.010462760925293,-4.879431247711182,-19.874401092529297,-40.1199951171875, -44.10600280761719
247,493455132,0.528473,-0.35376498,-0.76001483,0.13395607,21.816450119018555,-6.615078449249268,-0.654188871383667,-56.44322204589844,-31.18198585510254, -42.47434997558594
248,493471799,0.52050495,-0.35720223,-0.76612103,0.12058144,20.241374969482422,-5.075967788696289,3.402454376220703,-105.88829040527344,-26.7747859954834, -36.701171875
249,493488466,0.5105001,-0.36266434,-0.7726344,0.104404524,16.763629913330078,-2.4821724891662598,6.728959083557129,-133.42575073242188,-30.81371307373047, -35.20704650878906
250,493505133,0.49796715,-0.36942428,-0.77977145,0.08666532,13.163006782531738,-2.3225605487823486,6.754922866821289,-153.23001098632812,-42.04587936401367, -33.39967346191406
251,493521800,0.48177463,-0.37674218,-0.78813815,0.06925874,9.269852638244629,-2.6895484924316406,9.375030517578125,-163.55392456054688,-66.78487396240234, -30.159513473510742
252,493538467,0.46357173,-0.3835639,-0.79657716,0.058694143,8.391093254089355,-3.8292272090911865,8.206626892089844,-130.2571563720703,-96.25912475585938, -9.442907333374023
253,493555134,0.43966278,-0.3885642,-0.80772966,0.057339896,8.906899452209473,-5.292107582092285,4.382352352142334,-90.30899047851562,-161.51629638671875, 5.008405685424805
254,493571801,0.40968907,-0.39060634,-0.8221526,0.060390748,9.413141250610352,-0.27178409695625305,2.4987592697143555,-74.51660919189453,-218.267578125, -4.537768840789795
255,493588468,0.37203062,-0.39593074,-0.83759165,0.057206597,15.251614570617676,-2.529817819595337,4.926179885864258,-140.0791015625,-246.69580078125, -3.0907676219940186
256,493605135,0.3378114,-0.3981226,-0.85082763,0.058944467,13.568922996520996,-1.9590017795562744,11.281941413879395,-93.53890228271484,-236.26014709472656, -3.8914427757263184
257,493621802,0.30751303,-0.39911953,-0.8617978,0.058685306,13.702000617980957,-0.10207095742225647,12.190629959106445,-90.91778564453125,-203.52146911621094, -10.90783977508545
258,493638469,0.2807919,-0.40074626,-0.8703382,0.055408273,13.313322067260742,-5.5191802978515625,11.538667678833008,-99.42765045166016,-169.1052703857422, -8.314833641052246
259,493655136,0.26186094,-0.40069067,-0.87629974,0.054538947,15.900154113769531,-9.570756912231445,9.153158187866211,-59.536739349365234,-125.20123291015625, -9.653352737426758
260,493671803,0.25418407,-0.39703473,-0.8797876,0.061053894,16.386783599853516,-9.663376808166504,5.25717306137085,23.068117141723633,-75.07061004638672, -15.479766845703125
261,493688470,0.25541046,-0.3924648,-0.8809453,0.06835298,13.399152755737305,-4.414127349853516,4.434439659118652,54.42110061645508,-20.04339599609375, -16.96770477294922
262,493705137,0.26280713,-0.39037147,-0.87978935,0.06718293,11.557522773742676,-3.545135259628296,3.312854051589966,16.384443283081055,45.14118576049805, -13.4284086227417
263,493721804,0.27785608,-0.39113057,-0.8753087,0.060397524,9.573429107666016,-5.517621040344238,0.8620750308036804,-0.7798526287078857,113.631103515625, -0.9224449992179871
264,493738471,0.30160576,-0.39373773,-0.8668031,0.051548157,8.727428436279297,-6.595645904541016,-2.1424221992492676,8.167285919189453,179.9134063720703, 13.403982162475586
265,493755138,0.33359718,-0.39712322,-0.8540113,0.040875554,8.756529808044434,-6.926559925079346,-3.6491222381591797,19.337982177734375,243.14071655273438, 22.836456298828125
266,493771805,0.37320793,-0.40054432,-0.8362716,0.030494595,8.96805477142334,-7.14625358581543,-3.562145948410034,42.991268157958984,298.50958251953125, 34.960880279541016
267,493788472,0.4192983,-0.40263015,-0.81339234,0.021703782,10.152994155883789,-5.715795040130615,-3.744760036468506,74.31914520263672,344.3920593261719, 44.030860900878906
268,493805139,0.4688731,-0.40572253,-0.78449297,0.010871349,11.654669761657715,-4.491560459136963,-5.459011077880859,70.4155044555664,387.14447021484375, 59.815040588378906
269,493821806,0.52091247,-0.409884,-0.748762,-0.0010545534,13.304935455322266,-3.067580223083496,-7.554447174072266,68.38516235351562,425.75885009765625, 80.84394073486328
270,493838473,0.57282364,-0.41345403,-0.7076462,-0.012877759,13.511863708496094,-0.09477338194847107,-8.656442642211914,70.64601135253906,444.33575439453125, 93.28909301757812
271,493855140,0.62327737,-0.41300386,-0.66361004,-0.023981502,18.075464248657227,0.47390660643577576,-12.872949600219727,85.65837860107422,447.4066467285156, 84.78050231933594
272,493871807,0.6675783,-0.4079832,-0.6217106,-0.03694633,19.79334831237793,-0.7634792327880859,-18.608505249023438,79.83961486816406,416.6133117675781, 48.993038177490234
273,493888474,0.70424914,-0.3981363,-0.58597505,-0.046410248,16.320863723754883,-2.5259108543395996,-23.831886291503906,97.44538879394531,347.7074890136719, 25.38829231262207
274,493905141,0.72977954,-0.38942727,-0.55957633,-0.051407866,12.574969291687012,-1.555533528327942,-26.346965789794922,82.79842376708984,245.8434295654297, 22.618263244628906
275,493921808,0.7439513,-0.3825399,-0.54558396,-0.050377946,5.025886535644531,2.2564430236816406,-28.210344314575195,71.27912139892578,124.01981353759766, 22.751567840576172
276,493938475,0.7476241,-0.3776793,-0.5445716,-0.043112695,1.413034200668335,3.4275128841400146,-28.171354293823242,61.676239013671875,2.058210611343384, 24.55891990661621
277,493955142,0.74571306,-0.36746365,-0.55515605,-0.026164029,1.769412636756897,2.5542874336242676,-25.204689025878906,114.87992095947266,-101.1910400390625, 22.527446746826172
278,493971809,0.7391855,-0.35263562,-0.5738007,-0.0023782027,5.313663959503174,3.0955023765563965,-19.6704044342041,154.8491973876953,-175.9304962158203, 18.696117401123047
279,493988476,0.7249433,-0.3456577,-0.5953152,0.024040727,7.918480396270752,-16.04798126220703,-12.845457077026367,106.9974136352539,-227.0281982421875, 55.900875091552734
280,494005143,0.70451057,-0.35321072,-0.6135041,0.050198127,29.97654914855957,-12.146828651428223,3.7597103118896484,19.539649963378906,-232.6044158935547, 122.52491760253906
281,494021810,0.68210965,-0.34315142,-0.6397446,0.08775191,29.827178955078125,7.263589859008789,-6.0150604248046875,145.34808349609375,-314.0667419433594, 84.5567855834961
282,494038477,0.6493557,-0.34406656,-0.66940045,0.1088966,22.437328338623047,16.537721633911133,-4.970959663391113,-4.712524890899658,-330.3414001464844, 54.49156188964844
283,494055144,0.6185768,-0.34716076,-0.6931776,0.12785514,6.809187412261963,0.8082279562950134,-9.063404083251953,-15.249881744384766,-288.3153076171875, 67.73294830322266
284,494071811,0.59236676,-0.3529757,-0.7105812,0.13994381,0.31969353556632996,-13.546977043151855,-9.11186695098877,-42.893524169921875,-220.60833740234375, 62.576438903808594
285,494088478,0.5768405,-0.3535344,-0.72022575,0.15343903,6.995646953582764,-11.810009002685547,-7.717609882354736,18.78487205505371,-145.21046447753906, 50.70073699951172
286,494105145,0.5635099,-0.35718352,-0.7282059,0.1568208,12.091268539428711,-9.018684387207031,-7.378113746643066,-36.521148681640625,-99.93852996826172, 27.38483428955078
287,494121812,0.5531194,-0.35880432,-0.73517156,0.15761115,14.936240196228027,-3.203756332397461,-7.4288530349731445,-33.38592529296875,-77.21180725097656, 6.479989051818848
288,494138479,0.5451285,-0.35802928,-0.7418986,0.15568152,15.079660415649414,-5.581026077270508,-6.482110023498535,-31.863100051879883,-60.18798828125, -17.84064483642578
289,494155146,0.5401266,-0.35543635,-0.747493,0.15225843,16.710350036621094,-5.481532573699951,-5.875807285308838,-24.164241790771484,-39.107872009277344, -33.02552795410156
290,494171813,0.5339091,-0.35611334,-0.7532528,0.14399587,22.00628089904785,-6.377254486083984,-3.005661725997925,-64.4051284790039,-30.888168334960938, -33.1925048828125
291,494188480,0.52713776,-0.359387,-0.75867355,0.13183902,20.42085075378418,-3.848092555999756,1.0415657758712769,-95.2626953125,-20.711685180664062, -32.46197509765625
292,494205147,0.517865,-0.36519387,-0.76487726,0.115811355,17.827091217041016,-1.7750030755996704,4.21633243560791,-131.69943237304688,-25.117626190185547, -32.742591857910156
293,494221814,0.50726223,-0.37131754,-0.7716109,0.09708139,14.313122749328613,-1.9436688423156738,7.519461631774902,-150.98019409179688,-27.38543128967285, -40.807430267333984
294,494238481,0.49562606,-0.37525204,-0.77907616,0.08112468,9.483506202697754,-4.7493977546691895,6.724281311035156,-131.96176147460938,-44.39498519897461, -43.857025146484375
295,494255148,0.4809669,-0.3774372,-0.78778017,0.07493093,8.55652904510498,-5.334627151489258,6.280297756195068,-82.3896484375,-91.29060363769531, -21.54541778564453
296,494271815,0.46006843,-0.3789203,-0.79921484,0.07753921,9.371118545532227,-3.512526273727417,4.105227947235107,-50.15996170043945,-157.5955047607422, -0.21932989358901978
297,494288482,0.43308717,-0.37891608,-0.8133777,0.0852957,9.213265419006348,-1.908347725868225,1.6899168491363525,-34.55630111694336,-214.08892822265625, 3.9749369621276855
298,494305149,0.3991278,-0.38169912,-0.82908344,0.08731433,15.139983177185059,-1.060725450515747,2.894014835357666,-94.05148315429688,-241.31402587890625, 2.510017156600952
299,494321816,0.36345387,-0.3843787,-0.84430224,0.085488044,15.606310844421387,-0.46907293796539307,9.660405158996582,-119.91291809082031,-240.05076599121094, -6.2888360023498535
300,494338483,0.32835174,-0.38700694,-0.85787725,0.08035924,13.060871124267578,0.6166113615036011,10.515392303466797,-136.56216430664062,-224.3908233642578, -10.820183753967285
301,494355150,0.29410923,-0.39044967,-0.869403,0.072023116,11.049088478088379,-1.033709168434143,9.965359687805176,-153.9690399169922,-206.10455322265625, -8.311071395874023
302,494371817,0.26296693,-0.39487875,-0.8783402,0.05863575,11.852826118469238,-2.3600754737854004,10.538583755493164,-176.65328979492188,-168.59335327148438, -7.3233795166015625
303,494388484,0.23705724,-0.39992452,-0.88442636,0.04067359,14.768264770507812,-7.448116302490234,7.730379104614258,-190.1703643798828,-119.47828674316406, -6.399356365203857
304,494405151,0.22390537,-0.39951718,-0.8883434,0.033143856,17.14756965637207,-12.648987770080566,1.8490779399871826,-82.36529541015625,-68.87439727783203, -20.307279586791992
305,494421818,0.22633255,-0.39271063,-0.89044446,0.04075433,14.060977935791016,-4.975568771362305,1.7687968015670776,62.87067794799805,-14.240047454833984, -34.719608306884766
306,494438485,0.2374722,-0.38622192,-0.8902051,0.044437014,11.072078704833984,-3.733250856399536,2.7426135540008545,62.424842834472656,53.29151153564453, -34.95037841796875
307,494455152,0.25894365,-0.38149843,-0.8860377,0.0484199,8.969755172729492,-6.28162956237793,0.7149590849876404,89.94673919677734,122.63497161865234, -16.331390380859375
308,494471819,0.28967243,-0.37837768,-0.8777359,0.050002713,7.980676174163818,-5.196223258972168,-1.7807590961456299,97.99615478515625,193.2762451171875, -3.068730354309082
309,494488486,0.32663494,-0.37819272,-0.86508816,0.043617044,8.25634479522705,-6.067475318908691,-4.034761428833008,61.6645622253418,261.42315673828125, 7.916140556335449
310,494505153,0.36960804,-0.37932956,-0.8475732,0.033447362,8.729177474975586,-6.902190685272217,-4.223933696746826,53.17251968383789,318.51580810546875, 18.051870346069336
311,494521820,0.4186421,-0.38038388,-0.8243345,0.022795113,10.41997241973877,-5.201112270355225,-3.420841932296753,67.59137725830078,369.8195495605469, 29.768959045410156
312,494538487,0.47084993,-0.38350978,-0.7944495,0.00840933,11.391355514526367,-3.047977924346924,-5.406100749969482,49.73065185546875,417.2010803222656, 47.55781173706055
313,494555154,0.5235909,-0.39096424,-0.75691766,-0.008677686,12.404827117919922,-3.43976092338562,-8.351505279541016,22.774389266967773,452.470458984375, 82.53553771972656
314,494571821,0.5761618,-0.39751893,-0.713841,-0.021150792,14.093832969665527,-1.6334338188171387,-10.86926555633545,49.265560150146484,459.47064208984375, 109.30148315429688
315,494588488,0.6287039,-0.39604884,-0.6686669,-0.027598111,19.47394371032715,-0.1554146409034729,-16.104047775268555,110.36465454101562,452.6639709472656, 99.53721618652344
316,494605155,0.6746964,-0.38736176,-0.6273056,-0.034977973,20.294424057006836,-1.827739953994751,-21.47443389892578,120.33985900878906,410.33624267578125, 50.83125305175781
317,494621822,0.71037215,-0.37594646,-0.59345025,-0.04304126,15.237606048583984,-0.4938993752002716,-24.534395217895508,104.61000061035156,334.0065612792969, 13.573782920837402
318,494638489,0.73060167,-0.3748774,-0.568096,-0.054362714,10.524530410766602,-1.4098278284072876,-23.937305450439453,3.652555465698242,235.4586639404297, 13.476951599121094
319,494655156,0.7410616,-0.3741294,-0.5546224,-0.057001263,4.087242603302002,1.1434742212295532,-26.945838928222656,15.526576042175293,115.77643585205078, 24.145414352416992
320,494671823,0.7429207,-0.37110797,-0.5545159,-0.053479612,2.324557065963745,8.272957801818848,-24.514663696289062,34.079078674316406,0.638354480266571, 9.154151916503906
321,494688490,0.7384686,-0.36491808,-0.56531984,-0.043736186,3.3423688411712646,6.01721715927124,-20.605920791625977,62.217628479003906,-93.24251556396484, -1.147090196609497
322,494705157,0.73094314,-0.3529648,-0.58355665,-0.024493,4.990784168243408,1.5431214570999146,-16.05537223815918,123.22666931152344,-164.5423583984375, 5.16032600402832
323,494721824,0.7184601,-0.3425567,-0.60535806,0.0034252983,7.621321201324463,-21.62169075012207,-16.267778396606445,139.10118103027344,-223.3308563232422, 45.37434387207031
324,494738491,0.70214903,-0.34058917,-0.6241983,0.036909547,27.160850524902344,-13.791288375854492,-2.159886598587036,111.8927230834961,-237.2560272216797, 114.43354034423828
325,494755158,0.6772385,-0.3405542,-0.64907485,0.06381858,25.164064407348633,13.374061584472656,-6.332388401031494,52.70504379272461,-287.5535583496094, 78.8907241821289
326,494771825,0.6440109,-0.35096294,-0.67552996,0.075726,19.834487915039062,6.9234747886657715,-6.558475017547607,-82.9183120727539,-292.363525390625, 56.13424301147461
327,494788492,0.61889124,-0.35206786,-0.69569033,0.095062494,11.944802284240723,4.553361415863037,-6.836638450622559,15.835721969604492,-249.64500427246094, 57.07900619506836
328,494805159,0.59689534,-0.35783228,-0.7101119,0.10683311,6.964513778686523,-8.600913047790527,-8.73560905456543,-28.721969604492188,-188.94773864746094, 59.13228988647461
329,494821826,0.5821172,-0.3609956,-0.71951485,0.11454399,8.324979782104492,-11.384480476379395,-5.580459117889404,-16.35984992980957,-125.00588989257812, 36.60028076171875
330,494838493,0.57066935,-0.36394218,-0.7267755,0.11696199,11.508878707885742,-9.02405071258545,-7.946687698364258,-31.78800392150879,-87.0602035522461, 16.841289520263672
331,494855160,0.56136,-0.3648943,-0.7338629,0.114771426,14.204379081726074,-5.8660054206848145,-6.79794979095459,-41.52863693237305,-65.80619812011719, -12.548449516296387
332,494871827,0.5561737,-0.36013472,-0.74038184,0.11317516,15.299954414367676,-6.04339075088501,-6.530482769012451,-5.731537818908691,-48.89516067504883, -40.83991622924805
333,494888494,0.5529447,-0.35423943,-0.74617374,0.10950548,18.510295867919922,-6.120704174041748,-3.20233154296875,-6.593813419342041,-31.99409294128418, -54.20167922973633
334,494905161,0.54788303,-0.3526527,-0.7518533,0.10088096,22.221351623535156,-4.684990882873535,0.5960816740989685,-52.89250564575195,-25.876995086669922, -49.14872741699219
335,494921828,0.54038954,-0.35569677,-0.7574883,0.087582745,18.367067337036133,-2.5820648670196533,3.1264808177948,-100.52146911621094,-24.113609313964844, -40.794639587402344
336,494938495,0.5313778,-0.3594867,-0.7635529,0.07344612,14.548219680786133,-1.686833381652832,5.827449321746826,-111.78929901123047,-31.525121688842773, -39.96907424926758
337,494955162,0.5206817,-0.3630017,-0.7704251,0.05971472,11.902372360229492,-1.7597821950912476,7.093879699707031,-113.40021514892578,-44.88359069824219, -40.954280853271484
338,494971829,0.50751454,-0.3663818,-0.7783788,0.048167232,7.204841613769531,-1.9320236444473267,7.052646160125732,-108.12448120117188,-67.77022552490234, -35.48345184326172
339,494988496,0.49034846,-0.36982122,-0.7880426,0.042183552,7.313027858734131,-2.576265811920166,5.375326633453369,-89.33485412597656,-109.47097778320312, -18.774477005004883
340,495005163,0.4666419,-0.37152243,-0.8013863,0.044684984,8.74931812286377,-3.668752431869507,4.3069658279418945,-55.29711151123047,-179.68438720703125, -7.112189292907715
341,495021830,0.4369218,-0.37158045,-0.8174631,0.05274121,9.73130989074707,-0.9897759556770325,2.2754781246185303,-35.69546127319336,-236.57070922851562, -3.5581681728363037
342,495038497,0.40043458,-0.37355098,-0.8348306,0.056300405,15.590604782104492,-0.20378856360912323,2.8032984733581543,-84.47762298583984,-266.5628967285156, -7.1806182861328125
343,495055164,0.3628608,-0.37571427,-0.8508629,0.05659851,14.84316349029541,-1.6625157594680786,9.28641128540039,-105.9743881225586,-261.0794372558594, -11.168294906616211
344,495071831,0.3283613,-0.37679172,-0.8643935,0.055054262,14.75257682800293,-0.5640392303466797,10.766647338867188,-105.22125244140625,-233.03294372558594, -16.85721206665039
345,495088498,0.29516023,-0.3794452,-0.87561953,0.04682383,14.155051231384277,-4.765357494354248,9.911148071289062,-144.3629608154297,-202.7589111328125, -17.144472122192383
346,495105165,0.2690875,-0.38102168,-0.88363147,0.040122744,16.82644271850586,-10.665294647216797,8.459894180297852,-113.52259826660156,-158.1554412841797, -14.53197193145752
347,495121832,0.2566927,-0.37711385,-0.8886987,0.045917977,17.24909210205078,-9.255858421325684,6.139901161193848,8.859602928161621,-104.39325714111328, -20.902250289916992
348,495138499,0.25362068,-0.3731121,-0.8909536,0.05162994,13.377923965454102,-3.9294261932373047,4.890861988067627,33.281578063964844,-42.76858139038086, -17.261119842529297
349,495155166,0.25802287,-0.3721664,-0.8901284,0.050871678,11.200136184692383,-5.882025241851807,4.050178527832031,8.437965393066406,25.731637954711914, -4.52475118637085
350,495171833,0.2728572,-0.37270278,-0.885517,0.05001393,9.527178764343262,-7.627076625823975,1.992386817932129,32.98853302001953,96.81879425048828, 10.407575607299805
351,495188500,0.29783309,-0.37383682,-0.8769854,0.049380854,8.33365249633789,-7.301120758056641,-0.8215066194534302,60.288818359375,165.4115447998047, 21.001405715942383
352,495205167,0.3314234,-0.3753848,-0.8643277,0.046718013,7.764209747314453,-7.512597560882568,-2.150171995162964,70.49285125732422,231.13526916503906, 26.97848892211914
353,495221834,0.37285158,-0.37610918,-0.8470813,0.044463992,7.945000171661377,-7.437681674957275,-2.83134388923645,96.25945281982422,286.90411376953125, 32.282958984375
354,495238501,0.420242,-0.37560952,-0.8249585,0.041926414,9.14116382598877,-5.772014617919922,-3.2456071376800537,114.43058013916016,334.58587646484375, 35.14653778076172
355,495255168,0.4709727,-0.3760512,-0.79723847,0.03437,10.470855712890625,-4.356886386871338,-4.352263450622559,93.32025909423828,383.03350830078125, 39.39163589477539
356,495271835,0.5232989,-0.3790975,-0.7628717,0.021685781,12.11024284362793,-4.057072639465332,-6.220592498779297,62.33570861816406,427.3252868652344, 53.79142379760742
357,495288502,0.57632154,-0.38362357,-0.7215559,0.006632858,12.901887893676758,-1.8809857368469238,-8.536720275878906,47.35783386230469,462.590087890625, 70.9292221069336
358,495305169,0.6236611,-0.39059192,-0.6769813,-0.01347047,15.049500465393066,-1.0578746795654297,-11.849230766296387,-2.2318482398986816,460.98828125, 71.78888702392578
359,495321836,0.6670547,-0.39152062,-0.6331865,-0.028715927,17.994834899902344,-4.433901786804199,-17.814512252807617,35.8847541809082,427.126953125, 62.03054428100586
360,495338503,0.70231235,-0.3879759,-0.5954903,-0.04029569,17.26190757751465,-0.9427530765533447,-21.549198150634766,51.9311408996582,355.2802429199219, 41.35569381713867
361,495355170,0.72691613,-0.3851624,-0.5664843,-0.048359,13.047380447387695,0.3349800705909729,-24.294166564941406,37.15492248535156,260.8710632324219, 35.38751983642578
362,495371837,0.7409404,-0.38208756,-0.55003583,-0.049771246,6.5422139167785645,1.4513676166534424,-27.345569610595703,40.962703704833984,140.3042755126953, 31.042814254760742
363,495388504,0.74675685,-0.37450033,-0.5481678,-0.0401993,2.389556407928467,3.331190824508667,-26.865732192993164,89.45327758789062,8.704922676086426, 28.967918395996094
364,495405171,0.74578804,-0.36276212,-0.55836356,-0.020831231,3.6962616443634033,2.671215534210205,-23.799299240112305,134.09539794921875,-101.92450714111328, 30.768701553344727
365,495421838,0.7374972,-0.34963915,-0.5777718,0.005489242,4.393157482147217,-1.0140752792358398,-27.22270393371582,151.46034240722656,-193.6279754638672, 37.085567474365234
366,495438505,0.71905947,-0.34290022,-0.60331285,0.03723915,16.407386779785156,-11.484062194824219,-13.984127044677734,116.62631225585938,-277.03472900390625, 75.44652557373047
367,495455172,0.69633234,-0.34123713,-0.6272932,0.07198553,36.40361022949219,4.223695755004883,2.8837335109710693,94.59736633300781,-292.55426025390625, 115.80272674560547
368,495471839,0.6684302,-0.33626795,-0.65539896,0.10284623,20.212751388549805,8.505779266357422,-7.928264141082764,79.528564453125,-327.44598388671875, 76.37104797363281
369,495488506,0.6403969,-0.3331963,-0.6798048,0.12937373,9.763009071350098,-0.9780786037445068,-10.937047958374023,53.862178802490234,-299.5968933105469, 73.9832992553711
370,495505173,0.61650914,-0.33581984,-0.69716084,0.14528748,3.9438672065734863,-3.2414114475250244,-10.644956588745117,-4.796035289764404,-219.64247131347656, 66.20787811279297
371,495521840,0.59847754,-0.34100145,-0.7079857,0.15588236,11.311518669128418,-9.940461158752441,-5.366089344024658,-20.901952743530273,-148.9464569091797, 64.93962097167969
372,495538507,0.5843239,-0.34450483,-0.7166337,0.16222899,15.070164680480957,-6.941616535186768,-5.701244831085205,-23.285297393798828,-113.0882797241211, 40.07591247558594
373,495555174,0.57176095,-0.3464515,-0.7252737,0.1644354,13.619253158569336,-5.293533802032471,-6.2108378410339355,-33.6874885559082,-97.31683349609375, 14.050745010375977
374,495571841,0.56148165,-0.34683523,-0.73324066,0.16371295,12.705355644226074,-7.570717811584473,-5.687662124633789,-35.9785270690918,-78.20640563964844, -6.174821376800537
375,495588508,0.5540553,-0.3452241,-0.740117,0.16146219,13.965497970581055,-7.522905349731445,-5.320814609527588,-28.040952682495117,-58.3413200378418, -22.74310874938965
376,495605175,0.5457211,-0.3464205,-0.7472951,0.15405086,17.78484344482422,-7.775829315185547,-2.3862245082855225,-67.59492492675781,-48.895118713378906, -27.779447555541992
377,495621842,0.5370835,-0.3497491,-0.7541393,0.14314643,18.45888900756836,-5.6356730461120605,-1.1243760585784912,-94.083251953125,-38.91816329956055, -28.68821144104004
378,495638509,0.5273018,-0.35454714,-0.7613245,0.12897423,17.903270721435547,-2.687040328979492,1.641183853149414,-119.70388793945312,-37.155155181884766, -32.65398025512695
379,495655176,0.51671994,-0.36046904,-0.7684166,0.11224429,15.636955261230469,-2.0247957706451416,4.573188304901123,-139.21517944335938,-34.19001388549805, -34.894996643066406
380,495671843,0.50556713,-0.36603925,-0.7755275,0.09473242,12.247376441955566,-3.162787437438965,5.84641170501709,-143.72645568847656,-36.07320785522461, -38.99393844604492
381,495688510,0.49320084,-0.37190095,-0.7823686,0.07963745,10.309225082397461,-3.7610650062561035,5.540307998657227,-134.9425506591797,-47.934932708740234, -27.547903060913086
382,495705177,0.47917622,-0.37624252,-0.78989077,0.0700313,9.913413047790527,-2.901448965072632,7.345114707946777,-105.06526184082031,-74.4043960571289, -17.994220733642578
383,495721844,0.45933786,-0.37892446,-0.8004438,0.06866563,9.170087814331055,-3.579057455062866,4.990933895111084,-71.51814270019531,-138.4703826904297, -4.9535231590271
384,495738511,0.43308717,-0.37939718,-0.8143808,0.07264412,9.982921600341797,-0.4283798336982727,1.5875041484832764,-53.547794342041016,-199.71807861328125, -6.1118693351745605
385,495755178,0.3991321,-0.3835606,-0.82968163,0.07213421,16.476165771484375,-0.7566059231758118,3.711557149887085,-110.44499206542969,-233.6122589111328, 1.4560469388961792
386,495771845,0.3647193,-0.38722715,-0.84381276,0.07081994,14.270750999450684,-1.3650434017181396,10.742352485656738,-114.30008697509766,-231.5821533203125, -0.2594536244869232
387,495788512,0.33036572,-0.39099452,-0.8565575,0.065509066,13.800924301147461,0.7751309275627136,11.423443794250488,-137.0458221435547,-217.60130310058594, -6.067091464996338
388,495805179,0.29638168,-0.39701,-0.86697197,0.053857666,12.723489761352539,-3.966529130935669,10.309602737426758,-177.53443908691406,-192.60641479492188, -1.1943784952163696
389,495821846,0.26835215,-0.40259072,-0.8741759,0.041524943,15.116804122924805,-7.4703593254089355,9.303474426269531,-163.44911193847656,-149.31495666503906, 1.2133488655090332
390,495838513,0.25017387,-0.4051267,-0.87875265,0.032850876,17.131811141967773,-9.872750282287598,5.7333984375,-108.0867691040039,-96.72127532958984, -6.060017108917236
391,495855180,0.24499607,-0.402693,-0.88132906,0.032781754,14.583590507507324,-6.693722724914551,2.968365430831909,-11.19682788848877,-40.266212463378906, -18.75263023376465
392,495871847,0.25002855,-0.39967182,-0.88128513,0.032936227,11.619755744934082,-3.9504384994506836,1.8235430717468262,19.81317138671875,24.966508865356445, -16.995859146118164
393,495888514,0.2642259,-0.39831942,-0.87783986,0.030391132,8.735125541687012,-5.041293144226074,1.3616054058074951,26.419471740722656,93.9705581665039, -4.2357916831970215
394,495905181,0.2880691,-0.39861047,-0.8702998,0.026532043,7.44566011428833,-6.13328742980957,-0.9255294799804688,42.60145568847656,163.5118865966797, 12.47376823425293
395,495921848,0.32075217,-0.39949012,-0.8585602,0.020000149,7.352780342102051,-6.112560272216797,-3.2768325805664062,50.232177734375,232.2021484375, 20.54857063293457
396,495938515,0.36067826,-0.40067843,-0.842169,0.010926414,7.3811798095703125,-6.351213455200195,-4.938348293304443,54.900753021240234,292.35223388671875, 28.46659278869629
397,495955182,0.40754405,-0.40096548,-0.8204451,0.0021328419,8.878439903259277,-6.051918983459473,-4.74091100692749,78.11846160888672,345.1004943847656, 38.01817321777344
398,495971849,0.45945528,-0.40038216,-0.79280967,-0.0069260285,10.195260047912598,-4.072865009307861,-5.403841018676758,92.9193344116211,391.018310546875, 48.499446868896484
399,495988516,0.51424885,-0.4003594,-0.75826186,-0.017304163,11.511548042297363,-2.713615655899048,-7.253077030181885,91.4735107421875,432.3760070800781, 66.50911712646484
400,496005183,0.56869686,-0.39979813,-0.7183184,-0.027644891,12.633631706237793,-0.13618946075439453,-8.998809814453125,91.93460845947266,449.8556823730469, 78.63068389892578
401,496021850,0.6220196,-0.3968915,-0.6739299,-0.03724945,17.412220001220703,0.6873487830162048,-12.454174995422363,100.85250854492188,460.41326904296875, 81.98981475830078
402,496038517,0.6692289,-0.389521,-0.6309131,-0.048525736,21.261394500732422,-3.2148730754852295,-17.516075134277344,95.93791961669922,432.2645263671875, 48.990196228027344
403,496055184,0.7089656,-0.37669048,-0.5935411,-0.0564004,17.925447463989258,-5.673342227935791,-22.82401466369629,117.87374114990234,367.082763671875, 23.482093811035156
404,496071851,0.73636484,-0.36748117,-0.5645427,-0.06337301,13.495158195495605,-2.578339099884033,-22.847854614257812,75.46379089355469,272.91412353515625, 16.244714736938477
405,496088518,0.751056,-0.3664603,-0.54508275,-0.0671318,6.89772367477417,-2.1190385818481445,-25.880002975463867,18.85291290283203,164.4100341796875, 34.75978088378906
406,496105185,0.75661767,-0.3645564,-0.539175,-0.06260166,1.5138322114944458,2.5947797298431396,-26.095935821533203,38.153629302978516,40.64210891723633, 35.916534423828125
407,496121852,0.75536245,-0.35786754,-0.5467193,-0.049564186,1.8585604429244995,2.2345540523529053,-23.021102905273438,83.73430633544922,-72.99845886230469, 25.847139358520508
408,496138519,0.7512961,-0.34323946,-0.5631185,-0.025267478,4.256545066833496,3.5814967155456543,-17.233144760131836,163.8402862548828,-153.8076934814453, 31.728586196899414
409,496155186,0.74248844,-0.32765415,-0.5842482,0.0028115925,5.338743209838867,-0.8830406665802002,-17.13840103149414,173.41879272460938,-204.80471801757812, 35.56279754638672
410,496171853,0.7295447,-0.31683147,-0.60504425,0.036112998,16.053844451904297,-12.785479545593262,-5.931269645690918,161.15438842773438,-230.8622283935547, 82.01329040527344
411,496188520,0.7062102,-0.32298186,-0.6265298,0.06641008,30.700977325439453,-9.459673881530762,-5.858808517456055,40.914405822753906,-266.67437744140625, 138.31744384765625
412,496205187,0.6811222,-0.3127557,-0.65464795,0.09845132,21.968778610229492,17.22348403930664,-8.08427619934082,121.28764343261719,-317.73046875, 62.32986831665039
413,496221854,0.6494418,-0.3178199,-0.6810505,0.11569885,17.240642547607422,3.13960599899292,-7.264636993408203,-29.661340713500977,-297.06201171875, 70.68898010253906
414,496238521,0.6230336,-0.3236109,-0.70062363,0.12740363,4.588779926300049,-2.5940778255462646,-10.448229789733887,-41.62915802001953,-229.1324005126953, 60.30035400390625
415,496255188,0.6048665,-0.3286783,-0.7122704,0.13703331,8.440648078918457,-11.898923873901367,-6.089842796325684,-22.9752140045166,-151.31475830078125, 58.1933479309082
416,496271855,0.5917396,-0.3336567,-0.72029775,0.14031632,13.016648292541504,-9.862597465515137,-6.071864128112793,-38.84449768066406,-97.3365249633789, 34.52956771850586
417,496288522,0.5814455,-0.33561122,-0.72757417,0.14114594,13.882587432861328,-5.836345672607422,-7.193260192871094,-31.4649600982666,-77.5996322631836, 8.503544807434082
418,496305189,0.5725176,-0.33777973,-0.73449177,0.136567,14.925089836120605,-5.687564849853516,-5.522038459777832,-55.83076858520508,-56.68473815917969, -12.451796531677246
419,496321856,0.5682223,-0.33547485,-0.7395143,0.13303685,15.685521125793457,-6.26447057723999,-5.860443592071533,-20.4139404296875,-32.56095504760742, -30.72844123840332
420,496338523,0.56325287,-0.33430418,-0.74497336,0.12649894,19.849380493164062,-6.336827754974365,-1.9173352718353271,-42.13399887084961,-29.82160758972168, -36.97813034057617
421,496355190,0.55687046,-0.33703518,-0.7502812,0.11567562,20.63786506652832,-4.744832515716553,2.398106098175049,-82.46092224121094,-23.537139892578125, -31.79002571105957
422,496371857,0.5482716,-0.3430933,-0.75600576,0.100701004,17.70486831665039,-2.0082972049713135,3.619555950164795,-122.2991943359375,-24.802278518676758, -29.452316284179688
423,496388524,0.5380341,-0.3497244,-0.76234823,0.08389152,13.046841621398926,-1.648173213005066,6.512621879577637,-138.4911651611328,-31.44404411315918, -33.45722961425781
424,496405191,0.5258475,-0.3560057,-0.7694414,0.06858866,8.675707817077637,-3.5620203018188477,7.033750057220459,-134.6495361328125,-48.80756759643555, -30.273706436157227
425,496421858,0.5109115,-0.36179867,-0.7776126,0.05822105,7.64324951171875,-4.346961498260498,6.112563133239746,-114.24471282958984,-80.03984069824219, -16.41541290283203
426,496438525,0.49316695,-0.36634234,-0.7872407,0.053217903,9.552218437194824,-3.040053129196167,6.384675025939941,-88.9609146118164,-114.41536712646484, -6.870630264282227
427,496455192,0.46886775,-0.36837718,-0.80087787,0.05528264,9.108463287353516,-1.526930570602417,3.854203701019287,-60.31987380981445,-182.64474487304688, -4.277033805847168
428,496471859,0.4367207,-0.37120795,-0.81756365,0.05540176,9.467309951782227,-1.5373609066009521,2.2838685512542725,-94.69406127929688,-230.80307006835938, -10.987189292907715
429,496488526,0.40203544,-0.37557623,-0.83315766,0.056199513,16.602401733398438,-3.197089910507202,4.577388286590576,-101.56981658935547,-243.24252319335938, 3.3477275371551514
430,496505193,0.36995158,-0.37773165,-0.84691775,0.056437787,13.721977233886719,1.193823218345642,12.103310585021973,-91.32756042480469,-223.1901397705078, -7.183440685272217
431,496521860,0.33770615,-0.38365814,-0.85819477,0.04756733,11.743300437927246,0.41803640127182007,13.44952392578125,-153.52316284179688,-193.32749938964844, -1.9082229137420654
432,496538527,0.30996612,-0.39038548,-0.86608773,0.03758527,10.906281471252441,-5.0393524169921875,12.06023120880127,-149.08966064453125,-156.2586212158203, 7.593794822692871
433,496555194,0.29053706,-0.39471623,-0.871131,0.030303447,14.34725284576416,-7.185054779052734,9.689726829528809,-105.13208770751953,-109.02664947509766, 4.3838725090026855
434,496571861,0.28144518,-0.39468297,-0.87421834,0.027501348,17.349781036376953,-9.592185020446777,4.702784061431885,-41.43297576904297,-56.751502990722656, -9.793252944946289
435,496588528,0.28504705,-0.38968372,-0.87510014,0.033085417,15.374996185302734,-6.5919976234436035,2.7136378288269043,53.12059020996094,-0.31838229298591614, -19.886886596679688
436,496605195,0.29749283,-0.38381174,-0.8733723,0.037518457,12.606440544128418,-4.283499717712402,2.2944211959838867,71.98362731933594,60.59971237182617, -22.361831665039062
437,496621862,0.31780055,-0.37983608,-0.8679233,0.03790024,10.398286819458008,-5.4889936447143555,0.09298788011074066,65.3382339477539,126.42696380615234, -11.410317420959473
438,496638529,0.34580222,-0.3773762,-0.8583826,0.034457516,9.569608688354492,-6.6223578453063965,-2.668539047241211,60.18097686767578,191.6240997314453, -2.0383691787719727
439,496655196,0.3800793,-0.37639362,-0.84450597,0.026026748,9.281328201293945,-6.8744401931762695,-4.34269380569458,44.341331481933594,252.32533264160156, 4.525319576263428
440,496671863,0.41988027,-0.376826,-0.8255301,0.014250868,9.630054473876953,-7.0839104652404785,-4.873749732971191,36.24662780761719,306.7676086425781, 16.0898494720459
441,496688530,0.4643626,-0.3772378,-0.80128384,0.0018427438,11.161325454711914,-5.712209701538086,-4.827090263366699,45.1990966796875,350.3552551269531, 27.195234298706055
442,496705197,0.5115614,-0.37917253,-0.770966,-0.012040601,12.001984596252441,-4.936285972595215,-5.819860458374023,39.19184112548828,388.72637939453125, 46.47590255737305
443,496721864,0.5613317,-0.3817024,-0.7339249,-0.023753356,13.561938285827637,-3.0979666709899902,-8.172652244567871,54.65726852416992,420.5334777832031, 74.91297912597656
444,496738531,0.6105388,-0.383536,-0.69214123,-0.032913577,13.840179443359375,-0.07633761316537857,-9.478738784790039,67.9384994506836,429.7117004394531, 93.58326721191406
445,496755198,0.65757525,-0.38098985,-0.64872265,-0.040007032,17.86418914794922,0.8682513236999512,-14.082297325134277,90.11448669433594,422.1392517089844, 85.30302429199219
446,496771865,0.69823825,-0.3719174,-0.6098453,-0.047219638,17.844465255737305,-2.293820381164551,-20.458454132080078,103.75753784179688,375.7385559082031, 42.17280197143555
447,496788532,0.7303052,-0.35876596,-0.5788653,-0.0534466,14.162466049194336,-0.37076079845428467,-22.920879364013672,108.3116455078125,301.2597961425781, 6.941385746002197
448,496805199,0.75023437,-0.35210884,-0.5564497,-0.059428263,10.058920860290527,-3.810238838195801,-25.772436141967773,50.157501220703125,207.75938415527344, 8.585601806640625
449,496821866,0.760968,-0.34632966,-0.5456446,-0.057057414,4.594480991363525,0.9600105881690979,-27.764036178588867,60.46122360229492,93.00887298583984, 23.1623477935791
450,496838533,0.762289,-0.34208858,-0.5471793,-0.04986017,2.249796152114868,3.5123040676116943,-24.736055374145508,53.38206100463867,-18.036951065063477, 21.157238006591797
451,496855200,0.7585296,-0.33331564,-0.5588492,-0.034943093,1.664648175239563,1.2850778102874756,-21.63005256652832,98.10079193115234,-106.0975570678711, 19.033958435058594
452,496871867,0.75328356,-0.31695044,-0.5761734,-0.0114374915,3.297715425491333,2.7748541831970215,-14.740727424621582,169.03463745117188,-158.52162170410156, 21.23329734802246
453,496888534,0.7437797,-0.30327445,-0.5955472,0.011826005,4.787156581878662,-5.936888694763184,-13.325108528137207,145.27809143066406,-185.2772979736328, 25.73643684387207
454,496905201,0.72897387,-0.30541947,-0.61150914,0.03705274,15.94676399230957,-21.645994186401367,-1.3820579051971436,61.887943267822266,-192.03611755371094, 107.8095703125
455,496921868,0.70556015,-0.30968893,-0.63382924,0.06736574,35.67463684082031,-6.873939037322998,-6.17631196975708,53.04811477661133,-270.3773498535156, 130.5547332763672
456,496938535,0.678745,-0.30317765,-0.66244465,0.09249871,23.436847686767578,25.898120880126953,-6.68546199798584,72.78013610839844,-309.6743469238281, 46.778926849365234
457,496955202,0.6475825,-0.31014097,-0.6872779,0.10999425,18.255046844482422,5.444491386413574,-3.4437038898468018,-31.31519889831543,-287.335205078125, 84.05500030517578
458,496971869,0.6193754,-0.32151037,-0.7061156,0.120025106,5.520893096923828,-3.430217981338501,-10.113419532775879,-75.21858215332031,-227.56365966796875, 82.46521759033203
459,496988536,0.60088074,-0.3260854,-0.7179953,0.13074243,4.492969036102295,-15.512728691101074,-6.5604472160339355,-15.520524024963379,-157.82008361816406, 59.596195220947266
460,497005203,0.58750063,-0.33125213,-0.72575885,0.13560748,8.36499309539795,-11.964700698852539,-8.099440574645996,-31.72719955444336,-101.91981506347656, 42.535255432128906
461,497021870,0.5764495,-0.3349138,-0.7330063,0.13505791,13.249748229980469,-7.835780620574951,-6.040163993835449,-46.90046691894531,-77.2975082397461, 11.947976112365723
462,497038537,0.5681549,-0.33427155,-0.74002725,0.13350055,16.58511734008789,-6.9039998054504395,-5.67665433883667,-28.42052459716797,-64.29061126708984, -15.77061653137207
463,497055204,0.5620549,-0.33155844,-0.7464494,0.13029432,18.657575607299805,-4.660111904144287,-4.290835380554199,-23.20264434814453,-49.04006576538086, -33.29939270019531
464,497071871,0.55501133,-0.3314249,-0.75293577,0.123319745,22.090356826782227,-4.764981746673584,-1.1921842098236084,-54.79888916015625,-43.438297271728516, -33.744815826416016
465,497088538,0.54684156,-0.33474055,-0.75919497,0.11196438,18.293182373046875,-2.3048994541168213,2.0933444499969482,-93.14541625976562,-35.84238052368164, -30.894237518310547
466,497105205,0.53665465,-0.34131536,-0.7656793,0.09613018,14.99240779876709,-0.8535726070404053,3.7186594009399414,-133.7509002685547,-34.80397033691406, -29.463977813720703
467,497121872,0.52563053,-0.34814158,-0.772259,0.07826917,12.70098876953125,-2.8756489753723145,5.249644756317139,-147.52662658691406,-35.05586242675781, -35.11412048339844
468,497138539,0.5135047,-0.35441515,-0.7790261,0.061817747,8.72626781463623,-4.887017726898193,5.179739952087402,-140.96507263183594,-45.67399978637695, -32.75080871582031
469,497155206,0.4994924,-0.35869694,-0.7868481,0.05209814,8.899206161499023,-4.871561050415039,5.374624729156494,-103.10090637207031,-77.09184265136719, -21.497888565063477
470,497171873,0.48333305,-0.36044565,-0.7962755,0.04912927,10.129683494567871,-2.5248169898986816,6.683507442474365,-63.91684341430664,-112.0975341796875, -15.298836708068848
471,497188540,0.46112704,-0.36067182,-0.8090966,0.05138656,9.381128311157227,-1.2882987260818481,5.653274059295654,-46.49066925048828,-170.31494140625, -12.675626754760742
472,497205207,0.43019763,-0.3629329,-0.8250573,0.049903464,10.389676094055176,-0.6619039177894592,1.9089275598526,-96.56200408935547,-219.1410675048828, -17.955270767211914
473,497221874,0.39451244,-0.36874646,-0.8403352,0.047145505,18.934675216674805,-4.674659252166748,4.115933895111084,-125.92166900634766,-239.97935485839844, 1.7228935956954956
474,497238541,0.36121997,-0.37064496,-0.8543542,0.04713203,13.95141315460205,-0.7498080730438232,10.959860801696777,-93.05538940429688,-231.45700073242188, -11.06979751586914
475,497255208,0.32680115,-0.37491715,-0.86668366,0.03869995,12.997275352478027,0.46919840574264526,10.86072063446045,-150.8223876953125,-212.18907165527344, -13.408026695251465
476,497271875,0.29410866,-0.3814025,-0.87607193,0.023027265,13.429664611816406,-5.934889793395996,9.021269798278809,-193.77593994140625,-176.53982543945312, -9.450203895568848
477,497288542,0.2699075,-0.38600343,-0.8820586,0.011124254,16.407793045043945,-9.978241920471191,6.7636518478393555,-144.63906860351562,-129.13902282714844, -5.7983832359313965
478,497305209,0.2595442,-0.38482815,-0.88567984,0.010736911,16.091854095458984,-7.404036521911621,3.824169397354126,-27.466245651245117,-72.28980255126953, -14.403626441955566
479,497321876,0.2592768,-0.3828149,-0.88663155,0.010620054,12.538888931274414,-2.506234884262085,3.070103645324707,2.3691065311431885,-7.209840297698975, -12.75361156463623
480,497338543,0.26747796,-0.38299507,-0.8841567,0.006124219,9.748637199401855,-5.312679290771484,1.9905321598052979,-5.787140846252441,61.957977294921875, 1.2166775465011597
481,497355210,0.2868597,-0.38333744,-0.87791634,0.005205747,7.884314060211182,-6.7210893630981445,-0.37706106901168823,45.076351165771484,127.3094711303711, 18.194562911987305
482,497371877,0.3167447,-0.3833538,-0.8675767,0.004845318,7.434905529022217,-5.7180070877075195,-2.904723644256592,76.70008087158203,197.31564331054688, 27.72972869873047
483,497388544,0.3549667,-0.3831846,-0.85273916,0.00205745,7.196841716766357,-5.703812599182129,-4.610054969787598,84.58245086669922,263.32818603515625, 32.890384674072266
484,497405211,0.39998543,-0.38230598,-0.8329762,-0.0022031246,7.5543341636657715,-5.916179656982422,-4.684539318084717,95.50927734375,319.2389831542969, 37.98133850097656
485,497421878,0.44956216,-0.38135758,-0.8077053,-0.008505717,8.421676635742188,-4.58123779296875,-4.584306240081787,95.75818634033203,366.0552978515625, 46.45420837402344
486,497438545,0.50161767,-0.38162863,-0.7761509,-0.01814431,10.134820938110352,-3.411954641342163,-5.954624176025391,79.48169708251953,408.1253967285156, 59.474937438964844
487,497455212,0.5547911,-0.38284472,-0.73807,-0.02982744,10.83138656616211,-2.5190560817718506,-8.277481079101562,67.36741638183594,442.0884094238281, 74.67937469482422
488,497471879,0.60630107,-0.38458586,-0.6948036,-0.04172191,14.223306655883789,-1.1436175107955933,-10.488885879516602,58.84323501586914,454.17144775390625, 89.80398559570312
489,497488546,0.654834,-0.381757,-0.6502141,-0.051727362,18.680280685424805,-2.525834321975708,-14.927236557006836,78.69768524169922,442.1129455566406, 78.52619171142578
490,497505213,0.6981467,-0.3711953,-0.60946345,-0.057962764,19.293418884277344,-3.9072582721710205,-20.507049560546875,118.17598724365234,394.7512512207031, 49.074642181396484
491,497521880,0.7301554,-0.36201456,-0.57575756,-0.06574208,15.188875198364258,-0.200605571269989,-22.31690788269043,79.27073669433594,317.5254211425781, 25.05618667602539
492,497538547,0.74894553,-0.36096886,-0.5507038,-0.07421251,10.171972274780273,-1.6842864751815796,-23.085556030273438,6.937633037567139,220.5102081298828, 26.432931900024414
493,497555214,0.75902563,-0.35842192,-0.5384666,-0.073942766,3.5013785362243652,0.4866483211517334,-24.717416763305664,33.0034294128418,101.34204864501953, 29.564434051513672
494,497571881,0.7624056,-0.35167736,-0.53922373,-0.06556236,2.7431278228759766,5.353353023529053,-22.482229232788086,75.3846435546875,-8.374088287353516, 20.951522827148438
495,497588548,0.7605436,-0.34122345,-0.55016905,-0.049539242,3.997345209121704,4.53049898147583,-18.542984008789062,115.40279388427734,-97.35979461669922, 20.376806259155273
496,497605215,0.75397766,-0.3289192,-0.5679629,-0.027352089,5.566527843475342,0.8908869028091431,-17.95631980895996,139.9871368408203,-164.2749786376953, 27.99266242980957
497,497621882,0.74129224,-0.31754628,-0.5913053,0.0028785532,11.555985450744629,-11.134918212890625,-16.97929573059082,154.10594177246094,-234.83644104003906, 59.54963302612305
498,497638549,0.7186922,-0.3269263,-0.613068,0.02735919,32.45804214477539,-5.938310623168945,2.088510513305664,3.6549487113952637,-253.70645141601562, 117.95288848876953
499,497655216,0.69520307,-0.32120156,-0.6402799,0.059701715,22.881898880004883,4.80087423324585,-7.364471435546875,108.52606201171875,-305.0758972167969, 81.1944580078125
500,497671883,0.6656264,-0.3228211,-0.66800076,0.08064227,16.89582633972168,7.31422233581543,-8.3215913772583,9.74614143371582,-306.0052795410156, 60.64918518066406
501,497688550,0.6410343,-0.32306498,-0.68908817,0.099306226,5.01950740814209,-2.8559951782226562,-9.362975120544434,20.57202911376953,-248.3555145263672, 56.118160247802734
502,497705217,0.6211773,-0.32855725,-0.7029072,0.11004719,5.940169334411621,-11.70627212524414,-7.71722412109375,-24.432113647460938,-172.5811004638672, 58.806514739990234
503,497721884,0.6075674,-0.33190334,-0.7121988,0.116081946,13.5219087600708,-9.181268692016602,-5.243341445922852,-20.419618606567383,-114.00083923339844, 33.53352737426758
504,497738551,0.59636724,-0.33271402,-0.7208483,0.11842991,14.607627868652344,-6.172605037689209,-5.753202438354492,-21.890729904174805,-93.2129898071289, 5.194250583648682
505,497755218,0.5858757,-0.33429182,-0.7291063,0.11577086,14.614912986755371,-3.562727928161621,-5.91264533996582,-47.91947937011719,-76.10306549072266, -11.165949821472168
506,497771885,0.5783758,-0.33279854,-0.7361849,0.112953626,14.444140434265137,-6.604949951171875,-5.653608798980713,-28.534875869750977,-58.512542724609375, -26.7443904876709
507,497788552,0.57247514,-0.330781,-0.7423423,0.10855605,17.813499450683594,-6.956860065460205,-3.010484457015991,-30.124252319335938,-43.62876510620117, -34.77175521850586
508,497805219,0.5646407,-0.33342755,-0.74847275,0.098971695,20.58295440673828,-5.899622917175293,0.8654586672782898,-79.43660736083984,-38.317508697509766, -29.769826889038086
509,497821886,0.55481833,-0.33921832,-0.75484985,0.0854952,18.284088134765625,-3.2549543380737305,2.7642009258270264,-116.550537109375,-38.8004150390625, -27.72443962097168
510,497838553,0.54362184,-0.34582156,-0.76153463,0.07034125,14.944473266601562,-1.4239978790283203,5.637702465057373,-131.88870239257812,-43.115325927734375, -29.621051788330078
511,497855220,0.53092253,-0.35265574,-0.7686207,0.054568842,11.576869010925293,-2.4651780128479004,6.703799247741699,-139.91058349609375,-51.3508186340332, -30.79917335510254
512,497871887,0.51649195,-0.3593385,-0.7761583,0.04111366,8.463147163391113,-3.18707537651062,6.755446910858154,-131.64747619628906,-68.25064086914062, -23.54069709777832
513,497888554,0.49965897,-0.36385226,-0.7854208,0.032663673,8.694363594055176,-3.1364097595214844,5.756479740142822,-103.81060028076172,-100.54816436767578, -20.971820831298828
514,497905221,0.47943437,-0.3660807,-0.7969627,0.031280246,9.646628379821777,-2.0046629905700684,4.696232795715332,-66.90791320800781,-145.2188720703125, -14.04611587524414
515,497921888,0.45021608,-0.36827523,-0.81284165,0.031105045,9.406932830810547,-0.19504207372665405,2.490586280822754,-83.81379699707031,-212.1730194091797, -19.281766891479492
516,497938555,0.41527927,-0.3709824,-0.8300219,0.031291064,14.816269874572754,-2.8092808723449707,1.3934433460235596,-98.1210708618164,-249.2389678955078, -17.4117488861084
517,497955222,0.3815506,-0.37232772,-0.8453473,0.034341604,14.842866897583008,-3.73048996925354,8.218318939208984,-74.40607452392578,-244.97711181640625, -12.579235076904297
518,497971889,0.35182428,-0.37127516,-0.85838723,0.039321136,13.295296669006348,1.247937560081482,12.494481086730957,-46.23823928833008,-221.68385314941406, -16.598907470703125
519,497988556,0.32281172,-0.37436828,-0.8685711,0.035007987,11.796345710754395,-1.6731281280517578,10.828082084655762,-108.57183074951172,-186.240478515625, -7.5197248458862305
520,498005223,0.2990136,-0.3779444,-0.87577546,0.027683081,14.474139213562012,-7.733526229858398,8.075965881347656,-113.61267852783203,-141.04806518554688, -4.985398292541504
521,498021890,0.28530234,-0.37771413,-0.8804932,0.025815088,16.809646606445312,-10.144608497619629,4.808995246887207,-46.48182678222656,-90.5337905883789, -12.289939880371094
522,498038557,0.28341222,-0.37287867,-0.8829806,0.031372905,14.212542533874512,-5.890349388122559,3.128774642944336,38.31145477294922,-35.10493087768555, -21.976686477661133
523,498055224,0.28928906,-0.36825648,-0.88294554,0.033259172,11.779776573181152,-3.5242040157318115,2.493199348449707,35.899024963378906,26.136892318725586, -23.026771545410156
524,498071891,0.30277047,-0.36514708,-0.87979394,0.030990388,9.495645523071289,-5.346199989318848,1.0792875289916992,27.526229858398438,89.17047882080078, -15.931116104125977
525,498088558,0.32557735,-0.36250514,-0.872812,0.028088184,8.0647554397583,-5.686131954193115,-1.4353125095367432,46.79115295410156,155.1514129638672, -6.810728073120117
526,498105225,0.35643762,-0.36035544,-0.86173433,0.022590376,7.715674877166748,-5.5765838623046875,-3.4470958709716797,50.815696716308594,219.2283172607422, -1.0462478399276733
527,498121892,0.3942256,-0.35906458,-0.84583867,0.014695736,7.696521759033203,-6.755770683288574,-3.8716139793395996,52.28286361694336,278.236572265625, 8.971253395080566
528,498138559,0.43837273,-0.35692257,-0.8248455,0.008106737,8.705870628356934,-6.028359413146973,-3.507249593734741,78.239501953125,325.8528137207031, 19.420154571533203
529,498155226,0.4869315,-0.35515982,-0.79797196,0.000028799965,10.381349563598633,-4.126550197601318,-4.19478178024292,79.65948486328125,372.40313720703125, 31.196121215820312
530,498171893,0.53780544,-0.3558486,-0.764208,-0.011111516,12.487701416015625,-3.167018413543701,-5.762895584106445,60.18877410888672,415.8069763183594, 51.17807388305664
531,498188560,0.58988583,-0.35775444,-0.72355753,-0.02260462,12.996086120605469,-1.2083524465560913,-7.529689788818359,56.1820182800293,448.5811462402344, 73.18414306640625
532,498205227,0.6401017,-0.35837692,-0.6787944,-0.032775577,16.332260131835938,-0.82600998878479,-11.175317764282227,62.7172966003418,453.1700744628906, 82.0002212524414
533,498221894,0.6866622,-0.35239133,-0.63446605,-0.04205059,20.24481964111328,-0.23769208788871765,-16.387741088867188,87.10260009765625,433.79949951171875, 53.265769958496094
534,498238561,0.724124,-0.3447526,-0.5948998,-0.053707838,17.639331817626953,-2.994610071182251,-20.97508430480957,63.94282531738281,378.31878662109375, 20.785037994384766
535,498255228,0.75177544,-0.3368473,-0.5633853,-0.06296726,14.191156387329102,-1.8801385164260864,-23.754737854003906,55.005958557128906,293.1380920410156, 8.997868537902832
536,498271895,0.7668814,-0.33493066,-0.5430734,-0.06917849,7.504055976867676,-1.7206404209136963,-27.168689727783203,11.919580459594727,177.7292938232422, 16.659936904907227
537,498288562,0.7726932,-0.33139858,-0.5372845,-0.06667775,2.1693406105041504,2.880521774291992,-27.579015731811523,38.816226959228516,48.01235580444336, 18.716339111328125
538,498305229,0.77035415,-0.3264163,-0.5447349,-0.057192553,1.6410174369812012,1.5493063926696777,-25.685985565185547,60.19074249267578,-66.86234283447266, 16.623868942260742
539,498321896,0.76431984,-0.31438944,-0.5617475,-0.037607927,3.276266574859619,2.8423192501068115,-19.752548217773438,131.18331909179688,-150.5141143798828, 20.78628158569336
540,498338563,0.75284207,-0.30378863,-0.5836711,-0.01641676,5.470489501953125,-2.527298927307129,-16.537425994873047,119.70571899414062,-200.63491821289062, 22.675067901611328
541,498355230,0.73854554,-0.30270717,-0.6023842,0.007240685,13.893279075622559,-18.216693878173828,1.3092987537384033,74.36466979980469,-201.10780334472656, 79.8667984008789
542,498371897,0.7163262,-0.31146875,-0.6234644,0.034005195,31.585250854492188,-11.787284851074219,-5.54012393951416,20.744102478027344,-252.0606689453125, 131.45225524902344
543,498388564,0.69479203,-0.29660404,-0.6517243,0.06742058,22.86957359313965,19.217144012451172,-7.170032024383545,165.63604736328125,-304.1961364746094, 47.318275451660156
544,498405231,0.66411346,-0.3037278,-0.67810905,0.082891226,19.953411102294922,7.682469367980957,-6.489490509033203,-37.44745635986328,-289.29046630859375, 68.84099578857422
545,498421898,0.63706845,-0.3132325,-0.6980702,0.093420535,6.240789890289307,-1.4551478624343872,-8.067920684814453,-59.879905700683594,-231.31039428710938, 69.0977783203125
546,498438565,0.6186148,-0.3176909,-0.7109305,0.10471912,7.4042439460754395,-13.652274131774902,-7.588619709014893,-10.804449081420898,-163.7876739501953, 57.941951751708984
547,498455232,0.6045674,-0.3229578,-0.7199567,0.10889939,9.286349296569824,-10.649560928344727,-6.835575580596924,-36.60610580444336,-109.75594329833984, 36.492733001708984
548,498471899,0.5940797,-0.32647315,-0.7270357,0.10910444,13.361328125,-6.218875885009766,-6.35426139831543,-39.623443603515625,-76.52283477783203, 12.791854858398438
549,498488566,0.58544225,-0.3281594,-0.7337256,0.105905056,15.121010780334473,-6.550313472747803,-6.6674885749816895,-44.717411041259766,-59.45939254760742, -10.730371475219727
550,498505233,0.5804189,-0.32469174,-0.7396156,0.10323832,16.956985473632812,-5.399777889251709,-5.431787490844727,-12.564427375793457,-43.00685119628906, -35.350101470947266
551,498521900,0.5753386,-0.32377252,-0.7449354,0.09606443,21.040475845336914,-5.436617851257324,-1.1390024423599243,-45.41409683227539,-29.248735427856445, -38.94144821166992
552,498538567,0.56918055,-0.32665482,-0.74982744,0.08419684,19.483402252197266,-3.716968059539795,1.6433806419372559,-86.72862243652344,-20.39375114440918, -36.16212844848633
553,498555234,0.56098986,-0.3324285,-0.7550277,0.068666674,15.84415054321289,-1.582614779472351,4.439201831817627,-121.8064956665039,-22.544897079467773, -34.875160217285156
554,498571901,0.5512209,-0.33875132,-0.76072884,0.05191125,12.966626167297363,-2.7912373542785645,6.453101634979248,-134.27301025390625,-30.031129837036133, -36.944210052490234
555,498588568,0.53929967,-0.34402725,-0.7676805,0.03831649,8.08100700378418,-3.4646623134613037,6.311429023742676,-119.40852355957031,-54.201560974121094, -32.48508834838867
556,498605235,0.52410734,-0.3487883,-0.7763637,0.03029432,7.811485767364502,-3.3631319999694824,6.662166595458984,-96.41936492919922,-91.57684326171875, -17.806461334228516
557,498621902,0.5058993,-0.3517432,-0.78709245,0.028782284,9.709379196166992,-1.5729689598083496,6.0789008140563965,-62.937660217285156,-131.39805603027344, -8.327095031738281
558,498638569,0.48021954,-0.3531789,-0.80226034,0.032131772,10.297271728515625,-1.13116455078125,4.998290061950684,-50.362667083740234,-199.70684814453125, -8.90685749053955
559,498655236,0.44833288,-0.35425663,-0.81981456,0.037468467,10.010364532470703,-2.353114366531372,2.5442798137664795,-53.82577896118164,-247.09695434570312, -8.767553329467773
560,498671903,0.41302794,-0.3561544,-0.8370205,0.04425638,18.548826217651367,-2.617217540740967,2.4810895919799805,-56.400230407714844,-268.9102478027344, 1.990373969078064
561,498688570,0.37790737,-0.35740408,-0.8527246,0.048052926,16.16295051574707,1.3217638731002808,9.664266586303711,-70.86318969726562,-256.9323425292969, -6.598690509796143
562,498705237,0.34140837,-0.36255217,-0.86625695,0.03993961,15.401507377624512,-0.0028506219387054443,10.683170318603516,-153.5071563720703,-229.44821166992188, -8.863826751708984
563,498721904,0.30695155,-0.36951125,-0.87671787,0.024662262,15.585806846618652,-7.250752925872803,9.589077949523926,-194.54893493652344,-192.3732452392578, -7.866650104522705
564,498738571,0.2828576,-0.37224603,-0.8838283,0.016495487,18.28169822692871,-11.166399955749512,7.12941312789917,-116.08305358886719,-142.21295166015625, -11.770784378051758
565,498755238,0.27188933,-0.36957276,-0.88836306,0.017420935,15.67867374420166,-4.666173934936523,5.561439514160156,-16.766090393066406,-81.92996215820312, -22.003629684448242
566,498771905,0.26811194,-0.36877555,-0.88995385,0.010148068,12.490900039672852,-2.6364340782165527,5.193759918212891,-51.880645751953125,-11.942401885986328, -19.286643981933594
567,498788572,0.27419427,-0.3687336,-0.8881738,0.00078547845,9.657641410827637,-6.925055980682373,3.132704019546509,-40.94261169433594,59.56483840942383, -10.705093383789062
568,498805239,0.2925983,-0.3676724,-0.88271755,-0.003599403,7.552928447723389,-6.835092544555664,-0.0636756420135498,22.381412506103516,128.8681182861328, 1.6209526062011719
569,498821906,0.3215989,-0.36631778,-0.8731192,-0.0069478294,6.739017963409424,-6.941777229309082,-2.115004062652588,55.697879791259766,198.8125762939453, 12.620979309082031
570,498838573,0.3597562,-0.36409023,-0.85902643,-0.009353761,6.065755367279053,-7.37367582321167,-3.6212141513824463,85.89889526367188,261.403564453125, 21.185178756713867
571,498855240,0.40508074,-0.36111328,-0.8398629,-0.011720226,6.811838150024414,-6.740748882293701,-3.5307791233062744,105.3660888671875,316.34320068359375, 29.965280532836914
572,498871907,0.4554601,-0.35814095,-0.8148821,-0.016077822,8.026374816894531,-5.209996223449707,-4.253200054168701,105.72032928466797,366.817138671875, 39.24129867553711
573,498888574,0.5086201,-0.35639936,-0.7833859,-0.024326159,10.058094024658203,-3.1926796436309814,-5.566847801208496,86.00337219238281,412.4234924316406, 50.25700759887695
574,498905241,0.5628471,-0.35769975,-0.7442713,-0.03625624,12.048940658569336,-2.7734782695770264,-7.821234703063965,56.74501037597656,453.5479736328125, 72.5734634399414
575,498921908,0.61525816,-0.3593919,-0.6999458,-0.048692983,13.388072967529297,-1.3182344436645508,-9.523064613342285,46.7690315246582,465.8447570800781, 84.9318618774414
576,498938575,0.6652612,-0.35627532,-0.65354717,-0.058066484,18.425207138061523,-3.2314226627349854,-14.568748474121094,75.24333190917969,457.3828125, 79.0567855834961
577,498955242,0.70926845,-0.34592858,-0.6108378,-0.06441302,19.39162254333496,-3.948179244995117,-20.02936363220215,108.7715835571289,409.49609375, 49.0210075378418
578,498971909,0.7433652,-0.3342728,-0.57511514,-0.070089914,16.956897735595703,0.36606061458587646,-22.067489624023438,97.67603302001953,333.4574890136719, 25.860666275024414
579,498988576,0.7628731,-0.33309382,-0.54846954,-0.07908478,11.32909870147705,-1.0637831687927246,-24.296323776245117,2.069936990737915,232.74411010742188, 22.624284744262695
580,499005243,0.7726773,-0.33042133,-0.5363043,-0.078544654,3.6618919372558594,-0.05167846381664276,-27.513612747192383,31.836177825927734,100.0592269897461, 28.647327423095703
581,499021910,0.7748352,-0.3235235,-0.538774,-0.06845304,1.9960492849349976,5.019063949584961,-25.39834213256836,80.43036651611328,-24.348608016967773, 26.446107864379883
582,499038577,0.770481,-0.31322157,-0.55284625,-0.051113855,4.129836559295654,4.155208110809326,-21.763742446899414,116.7628402709961,-123.96798706054688, 23.681507110595703
583,499055244,0.7588276,-0.30460617,-0.57492095,-0.02935757,5.3504815101623535,-4.522905349731445,-23.113025665283203,112.06358337402344,-203.51889038085938, 33.746768951416016
584,499071911,0.7424956,-0.30145964,-0.59817517,-0.002990645,20.076276779174805,-11.366382598876953,-3.7928507328033447,92.6303939819336,-238.234375, 75.77606964111328
585,499088578,0.71958953,-0.30766156,-0.6220048,0.02541047,29.083255767822266,-7.46260404586792,-5.138622283935547,39.84767150878906,-272.552978515625, 123.08011627197266
586,499105245,0.6947245,-0.29951555,-0.6516976,0.054210555,23.518850326538086,18.64627456665039,-9.338789939880371,107.5866928100586,-313.2098388671875, 51.633766174316406
587,499121912,0.66563463,-0.3060507,-0.6769791,0.0704489,15.67518138885498,2.4035706520080566,-5.891571044921875,-25.6379451751709,-279.5223693847656, 68.77346801757812
588,499138579,0.6402492,-0.31657547,-0.69541043,0.079155445,5.550158500671387,-4.049648284912109,-9.33227252960205,-67.62554168701172,-213.1431427001953, 65.65933990478516
589,499155246,0.6231549,-0.3213693,-0.70739585,0.08939349,8.059453010559082,-12.523176193237305,-5.117392539978027,-13.327857971191406,-151.45571899414062, 54.35896301269531
590,499171913,0.60977936,-0.32622993,-0.7162455,0.09346571,10.139241218566895,-9.866739273071289,-8.035222053527832,-33.44820022583008,-106.3139877319336, 32.59381866455078
591,499188580,0.5993645,-0.3295427,-0.723489,0.09342104,13.348556518554688,-5.823503017425537,-7.104865074157715,-39.530845642089844,-76.74007415771484, 9.257155418395996
592,499205247,0.5910916,-0.33122933,-0.72994554,0.08987506,15.13276481628418,-6.31563663482666,-6.136383533477783,-44.87763214111328,-55.992244720458984, -12.817590713500977
593,499221914,0.58596635,-0.32923838,-0.7355439,0.08497416,16.95083999633789,-7.146177291870117,-4.779168128967285,-29.069934844970703,-35.97334671020508, -36.71282958984375
594,499238581,0.5805097,-0.32896674,-0.74092036,0.076332554,20.98047637939453,-6.44269323348999,-1.8314508199691772,-55.61981964111328,-27.419921875, -42.32136535644531
595,499255248,0.5736375,-0.33235615,-0.74604785,0.06238735,19.811744689941406,-4.77146577835083,1.8052181005477905,-100.46499633789062,-19.992237091064453, -43.358646392822266
596,499271915,0.5652085,-0.3378794,-0.7512063,0.045455504,16.94221305847168,-1.9677979946136475,4.942551136016846,-127.92975616455078,-20.7544002532959, -43.40878677368164
597,499288582,0.555039,-0.34462187,-0.7566419,0.025703404,12.81374740600586,-1.9895840883255005,7.830171585083008,-151.52976989746094,-24.354568481445312, -47.98064041137695
598,499305249,0.54407644,-0.34989554,-0.7625427,0.009109212,8.386445045471191,-4.8535003662109375,8.361332893371582,-131.64471435546875,-38.48904037475586, -44.43658447265625
599,499321916,0.5308624,-0.35262018,-0.7706093,0.0023159657,7.219242095947266,-4.832059860229492,6.530180931091309,-76.47132873535156,-82.5579833984375, -26.287012100219727
600,499338583,0.5108321,-0.35660318,-0.7822279,0.0020728118,8.13327407836914,-4.220263481140137,3.500260829925537,-63.06877899169922,-147.84925842285156, -4.348677158355713
601,499355250,0.48424885,-0.3591088,-0.79779476,0.008215923,8.462420463562012,-1.5392580032348633,1.8398029804229736,-39.729576110839844,-212.91058349609375, 0.4343671500682831
602,499371917,0.44975916,-0.36505306,-0.8150869,0.009294124,14.237560272216797,0.3893071115016937,2.376156806945801,-98.5825424194336,-249.5740509033203, -1.4443209171295166
603,499388584,0.41339877,-0.37034133,-0.8317849,0.00910425,14.656685829162598,-1.127025842666626,7.882920265197754,-108.26171112060547,-255.45506286621094, -7.41879940032959
604,499405251,0.37686494,-0.3741353,-0.8473397,0.0033416867,15.56843090057373,3.0490028858184814,9.73792552947998,-136.30865478515625,-239.61376953125, -28.91743278503418
605,499421918,0.33729717,-0.38100004,-0.860749,-0.013447995,13.681211471557617,-2.1530940532684326,8.910664558410645,-216.2477264404297,-223.90513610839844, -34.026397705078125
606,499438585,0.30133393,-0.3869922,-0.8709114,-0.030794594,14.222555160522461,-6.521519660949707,9.05461311340332,-208.4357147216797,-194.01011657714844, -31.821414947509766
607,499455252,0.2749592,-0.38924298,-0.87815577,-0.041594736,16.928119659423828,-10.377901077270508,6.449944019317627,-136.7455291748047,-147.6481475830078, -31.11005401611328
608,499471919,0.2629419,-0.38472694,-0.8839529,-0.038393054,16.463802337646484,-8.12369155883789,4.400096416473389,-1.6648603677749634,-94.2358169555664, -37.7378044128418
609,499488586,0.26199776,-0.3790252,-0.8869456,-0.032013338,12.988504409790039,-5.843688011169434,4.886062145233154,48.1284065246582,-30.368412017822266, -28.93390464782715
610,499505253,0.27224758,-0.3728833,-0.8867464,-0.02280522,10.232852935791016,-8.310887336730957,3.175365447998047,94.47461700439453,36.073516845703125, -15.734691619873047
611,499521920,0.2940331,-0.36578408,-0.882971,-0.010427499,8.443459510803223,-7.5111613273620605,0.2136133909225464,144.3732147216797,104.95956420898438, -4.634152889251709
612,499538587,0.32538596,-0.35860825,-0.8749401,-0.0020255935,7.458359241485596,-6.376343250274658,-1.8980560302734375,143.94715881347656,181.61416625976562, -1.697508692741394
613,499555254,0.3647963,-0.35126796,-0.86228424,0.0005417801,7.632659912109375,-6.267392635345459,-2.964184284210205,128.85772705078125,254.87847900390625, -4.184628009796143
614,499571921,0.4105093,-0.3437478,-0.84458125,-0.0014655646,8.009839057922363,-5.194418430328369,-3.2523064613342285,117.28507232666016,316.05194091796875, -4.5612592697143555
615,499588588,0.4601796,-0.3380295,-0.82090086,-0.009637338,9.284100532531738,-4.0368733406066895,-3.4902195930480957,85.57430267333984,370.57684326171875, 2.640280246734619
616,499605255,0.5115991,-0.33675584,-0.7900835,-0.02510173,11.011519432067871,-3.6428253650665283,-5.016992568969727,33.81300735473633,419.8236083984375, 21.307233810424805
617,499621922,0.5634493,-0.34090275,-0.7512277,-0.04435634,12.997618675231934,-4.820727825164795,-7.194040298461914,-6.354962348937988,458.4664001464844, 56.02506637573242
618,499638589,0.61471266,-0.34617615,-0.70629025,-0.058691584,13.00660514831543,-5.282928466796875,-9.98962688446045,11.391586303710938,467.33941650390625, 94.85601806640625
619,499655256,0.665539,-0.34314832,-0.65995216,-0.061401892,18.466655731201172,-4.27158784866333,-14.85527229309082,101.38172912597656,447.118408203125, 106.72974395751953
620,499671923,0.71152973,-0.32949218,-0.6178023,-0.05899872,18.76706314086914,-1.128727912902832,-20.788698196411133,163.65646362304688,398.8687744140625, 70.01766204833984
621,499688590,0.74516356,-0.31986654,-0.5817193,-0.06339759,14.941821098327637,4.605899810791016,-23.280986785888672,89.63493347167969,331.08892822265625, 35.25271224975586
622,499705257,0.7616298,-0.32742196,-0.5536809,-0.07843857,9.6195707321167,-2.434201717376709,-25.35735321044922,-75.00852966308594,237.8552703857422, 24.525131225585938
623,499721924,0.77040124,-0.32869005,-0.5403767,-0.08023676,3.5795187950134277,-4.546623229980469,-28.439401626586914,-0.7250116467475891,105.78052520751953, 32.630672454833984
624,499738591,0.7727103,-0.32221267,-0.5422134,-0.071433105,2.761235237121582,5.431003093719482,-24.652124404907227,73.81366729736328,-17.230005264282227, 22.120121002197266
625,499755258,0.76808137,-0.3148001,-0.55471003,-0.056998577,3.1113669872283936,2.680753469467163,-20.511926651000977,89.94642639160156,-111.00942993164062, 21.6542911529541
626,499771925,0.7608663,-0.30022252,-0.5743921,-0.031980168,5.413525581359863,-2.3699264526367188,-18.7511043548584,165.6726531982422,-178.33865356445312, 33.650718688964844
627,499788592,0.7477914,-0.28663382,-0.5988681,0.0025462105,9.48594856262207,-18.223432540893555,-21.092586517333984,187.3505096435547,-245.91334533691406, 75.92808532714844
628,499805259,0.7282289,-0.2833988,-0.6227223,0.039810088,38.384700775146484,-2.4728779792785645,2.0592122077941895,132.99818420410156,-274.10498046875, 133.35540771484375
629,499821926,0.7040073,-0.27312246,-0.65144837,0.07343576,21.38309669494629,14.471059799194336,-7.800075531005859,142.32427978515625,-313.3955383300781, 76.98917388916016
630,499838593,0.6733561,-0.2749251,-0.6797244,0.0947758,17.679533004760742,3.5624678134918213,-8.2584867477417,17.121553421020508,-310.6916809082031, 76.20153045654297
631,499855260,0.64755857,-0.2791075,-0.7004905,0.109910205,6.486706256866455,0.137319415807724,-9.115142822265625,-8.616792678833008,-239.82174682617188, 69.81340789794922
632,499871927,0.62787426,-0.28560585,-0.7140331,0.11983341,8.156219482421875,-10.40058422088623,-6.480320453643799,-26.630596160888672,-166.3480224609375, 66.97879028320312
633,499888594,0.61423326,-0.29024947,-0.7227949,0.12665008,11.788479804992676,-9.389220237731934,-6.910996437072754,-18.01373291015625,-111.44902038574219, 48.644832611083984
634,499905261,0.60340714,-0.29411763,-0.72991145,0.12893476,12.920990943908691,-5.536306858062744,-6.986443519592285,-30.172317504882812,-82.15470886230469, 26.384220123291016
635,499921928,0.59418017,-0.29759744,-0.73639697,0.12690665,14.067789077758789,-7.491119861602783,-5.776255130767822,-46.370479583740234,-63.15998840332031, 6.457197189331055
636,499938595,0.58819956,-0.2976212,-0.7416211,0.124262735,15.457714080810547,-7.804565906524658,-4.773133277893066,-27.653358459472656,-43.38636779785156, -13.770753860473633
637,499955262,0.58155054,-0.3024719,-0.74653727,0.11398246,18.256057739257812,-6.519279956817627,-4.474398612976074,-87.27484893798828,-25.909021377563477, -18.760822296142578
638,499971929,0.575317,-0.30495223,-0.7515511,0.10576164,20.857694625854492,-4.1455769538879395,3.2454111576080322,-66.49771881103516,-30.462377548217773, -23.051612854003906
639,499988596,0.5646429,-0.31330556,-0.7581429,0.09076087,16.61409568786621,-6.685306072235107,4.042285442352295,-135.384765625,-41.58182144165039, -19.338544845581055
640,500005263,0.5546328,-0.3209657,-0.7640506,0.074768536,12.207682609558105,-1.8873463869094849,5.450791835784912,-136.19351196289062,-34.171627044677734, -25.618574142456055
641,500021930,0.5420473,-0.33026665,-0.77059203,0.05741561,11.366344451904297,-3.2075417041778564,6.34293794631958,-155.7595977783203,-46.68012619018555, -22.109453201293945
642,500038597,0.52958876,-0.33593318,-0.7774577,0.047376912,8.330262184143066,-0.7747097015380859,5.681327819824219,-103.45995330810547,-65.67750549316406, -14.822415351867676
643,500055264,0.51526827,-0.34032997,-0.7854808,0.041162003,9.235321044921875,1.475328803062439,5.0971503257751465,-83.1668701171875,-89.43997955322266, -9.704909324645996
644,500071931,0.49542165,-0.34287336,-0.7971304,0.039732844,10.998339653015137,1.0005240440368652,2.463946580886841,-64.73960876464844,-144.2025146484375, -9.595184326171875
645,500088598,0.46995422,-0.3424426,-0.8124869,0.041728012,10.36815071105957,1.583013653755188,0.9999392032623291,-50.067264556884766,-196.82582092285156, -21.37323570251465
646,500105265,0.4388415,-0.34309718,-0.8293933,0.042536754,13.856846809387207,-2.189910650253296,-1.2008187770843506,-73.86441802978516,-230.5265350341797, -21.12359046936035
647,500121932,0.40623942,-0.34450197,-0.8451754,0.04434816,16.680044174194336,-4.09300422668457,6.875071048736572,-73.54753875732422,-238.05433654785156, -10.74792194366455
648,500138599,0.37530914,-0.3445817,-0.8591397,0.047807623,12.753390312194824,1.728026032447815,10.581011772155762,-55.834869384765625,-228.12725830078125, -10.103551864624023
649,500155266,0.34263417,-0.35044762,-0.87072355,0.04036284,11.21335506439209,-2.83370041847229,9.692472457885742,-138.5563201904297,-205.1254119873047, 2.1669631004333496
650,500171933,0.31449252,-0.35608116,-0.87937856,0.031529672,13.800301551818848,-5.616921901702881,8.590423583984375,-134.70794677734375,-168.31153869628906, 3.184084415435791
651,500188600,0.29321393,-0.35963,-0.88559306,0.020417944,17.716703414916992,-7.5769805908203125,6.153759479522705,-126.8346176147461,-116.95856475830078, -10.023714065551758
652,500205267,0.28301403,-0.35847405,-0.889508,0.013225173,17.250293731689453,-7.763588905334473,4.451613426208496,-66.00535583496094,-55.80534362792969, -26.76422691345215
653,500221934,0.28357673,-0.3538946,-0.8912172,0.0086556785,13.016101837158203,-3.3910350799560547,3.1776604652404785,-16.804763793945312,7.001896381378174, -38.227294921875
654,500238601,0.29259998,-0.3499967,-0.88988024,-0.000952464,11.196194648742676,-2.9569921493530273,1.925092339515686,-28.33867073059082,76.71844482421875, -36.99659729003906
655,500255268,0.31084412,-0.34779873,-0.8844453,-0.012987674,9.440166473388672,-5.563232421875,-0.7634316682815552,-24.55603790283203,146.93702697753906, -21.584125518798828
656,500271935,0.33873075,-0.3458836,-0.87466395,-0.0242662,8.095033645629883,-6.7322821617126465,-2.427976369857788,1.9255955219268799,212.88185119628906, -7.075666904449463
657,500288602,0.3751551,-0.34345224,-0.8603237,-0.033798408,7.437280178070068,-7.508570194244385,-3.4568657875061035,32.947723388671875,270.74285888671875, 6.070259094238281
658,500305269,0.41852438,-0.33965042,-0.8413682,-0.03968069,7.919749736785889,-7.707116603851318,-3.614564895629883,73.1884765625,315.4629211425781, 19.78162956237793
659,500321936,0.4674447,-0.33412018,-0.8173087,-0.043193296,9.332512855529785,-5.39798641204834,-3.937443733215332,103.21825408935547,357.27618408203125, 29.957603454589844
660,500338603,0.51941055,-0.32942182,-0.78700674,-0.048110824,10.47258186340332,-3.90209698677063,-5.407093524932861,97.61695861816406,397.5340576171875, 45.342308044433594
661,500355270,0.5730636,-0.32670277,-0.74961245,-0.05426495,12.19275951385498,-3.0261831283569336,-7.101493835449219,85.21049499511719,434.31549072265625, 68.2475357055664
662,500371937,0.6267939,-0.32664803,-0.7048064,-0.06065146,14.614642143249512,-3.5329949855804443,-9.217586517333984,70.78495025634766,463.7284851074219, 97.75946807861328
663,500388604,0.67592585,-0.32441488,-0.6584189,-0.06605986,16.740781784057617,-2.4204182624816895,-13.138195037841797,73.85128021240234,447.2604064941406, 93.01836395263672
664,500405271,0.7190228,-0.314529,-0.6157788,-0.06995891,17.762584686279297,-4.3779072761535645,-21.004629135131836,104.51871490478516,403.0791015625, 54.32316207885742
665,500421938,0.7511763,-0.3052818,-0.58006734,-0.07784097,15.257807731628418,4.097535133361816,-22.38591766357422,64.33540344238281,331.5386047363281, 17.10400390625
666,500438605,0.7687848,-0.30935815,-0.5520481,-0.09225335,10.797375679016113,-2.9627389907836914,-25.60439682006836,-56.771907806396484,241.22703552246094, 12.845643043518066
667,500455272,0.77901,-0.30599257,-0.53932434,-0.092960306,4.116812229156494,0.9161732196807861,-28.027080535888672,28.90072250366211,108.88323974609375, 19.823610305786133
668,500471939,0.78113365,-0.29840553,-0.5419355,-0.08420412,2.104593276977539,4.226163387298584,-26.568275451660156,79.71151733398438,-19.485687255859375, 17.46306037902832
669,500488606,0.7768618,-0.28782317,-0.5558217,-0.06860036,3.900496482849121,3.2951319217681885,-22.33319091796875,115.05459594726562,-115.26350402832031, 16.3262882232666
670,500505273,0.76640946,-0.2762692,-0.57810277,-0.04570814,4.438093185424805,-9.624499320983887,-23.042497634887695,140.14576721191406,-196.9387664794922, 32.028873443603516
671,500521940,0.7530317,-0.26223576,-0.603336,-0.012708343,21.683855056762695,-7.255536079406738,-4.266149520874023,189.20860290527344,-241.8327178955078, 68.432861328125
672,500538607,0.7286384,-0.27150294,-0.6287216,0.009032345,31.64710807800293,0.5184275507926941,-1.1713733673095703,2.1132185459136963,-269.8968811035156, 105.4248275756836
673,500555274,0.69909906,-0.27543807,-0.659161,0.03002245,18.669754028320312,10.574437141418457,-7.955887317657471,15.792241096496582,-316.42498779296875, 69.82157897949219
674,500571941,0.6703631,-0.2795583,-0.68554443,0.049893197,11.049487113952637,-4.590127468109131,-11.075135231018066,12.41621208190918,-290.9651794433594, 73.23050689697266
675,500588608,0.64821666,-0.28410488,-0.7035354,0.06432679,1.378198266029358,-3.9079699516296387,-10.711808204650879,0.6122158765792847,-210.3843231201172, 63.889705657958984
676,500605275,0.63268673,-0.29150966,-0.7137137,0.07309336,11.83462905883789,-10.577461242675781,-5.214000225067139,-22.972999572753906,-131.0225067138672, 64.57054901123047
677,500621942,0.62003183,-0.29762757,-0.7219455,0.0759803,16.35939598083496,-6.901169300079346,-5.621317386627197,-39.474822998046875,-97.37947845458984, 34.94786834716797
678,500638609,0.6092173,-0.3016575,-0.72953194,0.07510233,15.61199951171875,-3.98144268989563,-5.464839458465576,-45.15212631225586,-78.98051452636719, 8.930130958557129
679,500655276,0.6003752,-0.30384547,-0.7362798,0.07155148,13.36701488494873,-6.806244373321533,-6.68609094619751,-46.323883056640625,-61.085052490234375, -10.6607027053833
680,500671943,0.59389865,-0.30288562,-0.7423654,0.06662097,15.102211952209473,-7.660427570343018,-4.377757549285889,-35.07974624633789,-45.0867919921875, -32.0684814453125
681,500688610,0.58674926,-0.30481675,-0.7480599,0.056729347,19.3772029876709,-9.39886474609375,-0.47148430347442627,-73.53372955322266,-35.40385055541992, -36.42581558227539
682,500705277,0.57865244,-0.3101714,-0.7530064,0.04400656,21.221872329711914,-5.587717533111572,2.764688491821289,-103.77462005615234,-30.312021255493164, -28.24671173095703
683,500721944,0.56734097,-0.3183138,-0.7589324,0.028678749,15.619450569152832,-1.4373904466629028,4.9500932693481445,-135.6769561767578,-44.91666030883789, -25.108097076416016
684,500738611,0.55441505,-0.32629943,-0.76548743,0.0134952525,12.491227149963379,-0.7791141271591187,7.12053918838501,-138.09829711914062,-56.618343353271484, -26.229732513427734
685,500755278,0.5397453,-0.33325076,-0.77305824,0.00036778118,9.688904762268066,-1.1402549743652344,6.685703754425049,-127.47761535644531,-74.87523651123047, -25.82469367980957
686,500771945,0.5235162,-0.3381896,-0.7819836,-0.0077657867,8.406919479370117,-2.676670789718628,7.330005645751953,-97.14131164550781,-100.07508087158203, -21.053550720214844
687,500788612,0.50407743,-0.34337074,-0.7924099,-0.009450049,8.850518226623535,-3.918944835662842,3.177103042602539,-70.84616088867188,-138.16075134277344, -0.243200421333313
688,500805279,0.4784478,-0.34496626,-0.80751204,-0.0032433444,10.77489185333252,0.007139395922422409,-1.2697137594223022,-29.799415588378906,-206.79627990722656, -3.97556209564209
689,500821946,0.44429985,-0.35051808,-0.8244511,-0.003910263,15.42048168182373,0.8192331790924072,1.2322323322296143,-101.0977783203125,-244.13722229003906, -9.14899730682373
690,500838613,0.4073217,-0.3582467,-0.8400358,-0.009395106,15.109429359436035,-3.196843385696411,8.148499488830566,-141.8550567626953,-244.89881896972656, -8.293405532836914
691,500855280,0.37352985,-0.36205873,-0.8539509,-0.012536896,14.108747482299805,1.461469054222107,10.774388313293457,-109.6862564086914,-227.9064178466797, -20.124404907226562
