PacketCounter,SampleTimeFine,Quat_W,Quat_X,Quat_Y,Quat_Z,Acc_X,Acc_Y,Acc_Z,Gyr_X,Gyr_Y,Gyr_Z 
1,890874486,0.5949753,-0.049405754,-0.8017796,0.026699765,1.2987457513809204,-0.6989358067512512,0.5532101988792419,-1.5161187648773193,1.5195695161819458, -3.1347227096557617
2,890891153,0.5951234,-0.05033506,-0.8015858,0.02747092,9.447114944458008,-1.0615423917770386,-2.8865060806274414,-0.37336915731430054,-0.15909330546855927, 2.412005662918091
3,890907820,0.59511703,-0.05111579,-0.8015211,0.028053045,9.45851993560791,-0.9746178984642029,-2.9154460430145264,-1.098106026649475,-0.23778828978538513, 2.811922073364258
4,890924487,0.5949593,-0.051707692,-0.8016054,0.027904904,9.508780479431152,-0.9558071494102478,-2.9342315196990967,-2.180422067642212,-0.3262929618358612, 3.05790638923645
5,890941154,0.5947403,-0.05204051,-0.80175775,0.027576232,9.50780963897705,-0.9723366498947144,-2.920619487762451,-2.5748701095581055,-0.5496997833251953, 3.179374933242798
6,890957821,0.59452146,-0.05224852,-0.8019148,0.027332386,9.47225284576416,-0.9701777100563049,-2.8871865272521973,-2.1772592067718506,-0.8791688680648804, 3.156477928161621
7,890974488,0.5943358,-0.052354496,-0.802047,0.02728958,9.479825019836426,-1.0158264636993408,-2.925750732421875,-0.5677182674407959,-1.2320733070373535, 3.161971092224121
8,890991155,0.5941272,-0.05254508,-0.8021885,0.027301649,9.543510437011719,-0.9443380236625671,-2.9943368434906006,-0.18783071637153625,-1.4182134866714478, 2.9934005737304688
9,891007822,0.5938749,-0.05265177,-0.80236924,0.027282983,9.52975082397461,-0.9748696088790894,-2.9918341636657715,0.12281930446624756,-1.4995466470718384, 2.5644521713256836
10,891024489,0.59361404,-0.05270324,-0.8025594,0.02726253,9.497748374938965,-0.9901730418205261,-2.9576542377471924,0.4599848687648773,-1.4946033954620361, 2.02675199508667
11,891041156,0.59337217,-0.052522816,-0.80274403,0.027440233,9.468812942504883,-1.0195125341415405,-2.976649522781372,1.0497301816940308,-1.4412778615951538, 1.7337558269500732
12,891057823,0.5931508,-0.052392766,-0.802912,0.027559925,9.475271224975586,-1.024390697479248,-3.025967597961426,0.8003392219543457,-1.2638330459594727, 1.3459153175354004
13,891074490,0.5929325,-0.052305326,-0.80307513,0.02767218,9.449544906616211,-1.0429728031158447,-2.9812612533569336,0.5085978507995605,-1.0851589441299438, 1.3228511810302734
14,891091157,0.5927706,-0.052342065,-0.8031897,0.027745374,9.457682609558105,-1.0582376718521118,-2.972978115081787,0.5472601652145386,-0.6868045330047607, 1.372245192527771
15,891107824,0.5926576,-0.052411426,-0.8032652,0.027842036,9.464200019836426,-1.0146199464797974,-3.034141778945923,0.15443818271160126,-0.30992648005485535, 1.561471939086914
16,891124491,0.59256065,-0.052525785,-0.80332786,0.027881168,9.476293563842773,-0.9823756814002991,-3.0333094596862793,0.12079588323831558,-0.14184312522411346, 1.3891624212265015
17,891141158,0.5924923,-0.05254339,-0.8033748,0.027946034,9.50545597076416,-0.9572417736053467,-2.9950363636016846,0.2733963429927826,0.11035871505737305, 1.1156443357467651
18,891157825,0.59246653,-0.05249606,-0.8033925,0.028073497,9.51084041595459,-0.9716477990150452,-2.9869117736816406,0.8083431124687195,0.3587763011455536, 1.1110596656799316
19,891174492,0.59247464,-0.052438326,-0.8033867,0.028177347,9.493709564208984,-0.9748020768165588,-3.012085199356079,1.189997911453247,0.5138099789619446, 0.8342760801315308
20,891191159,0.5925088,-0.052312627,-0.8033651,0.028308874,9.494954109191895,-0.9685365557670593,-3.002519130706787,1.3757539987564087,0.7031390070915222, 0.6529508829116821
21,891207826,0.5925393,-0.05218744,-0.80334723,0.02840982,9.475032806396484,-0.9920945763587952,-2.9820873737335205,1.3472601175308228,0.6287854313850403, 0.4870062470436096
22,891224493,0.5925788,-0.052048024,-0.8033224,0.02853937,9.462445259094238,-1.024178385734558,-2.9847211837768555,1.4738634824752808,0.6600711941719055, 0.5188300609588623
23,891241160,0.5926167,-0.05199381,-0.80329424,0.028644862,9.461262702941895,-1.0330772399902344,-2.9849441051483154,1.0127965211868286,0.6567928791046143, 0.8169234991073608
24,891257827,0.59266305,-0.052044537,-0.80325496,0.028695183,9.485737800598145,-1.0141241550445557,-2.9676830768585205,0.6752979755401611,0.7196080088615417, 0.9862233996391296
25,891274494,0.5927132,-0.052121878,-0.80321115,0.02874669,9.49796199798584,-0.9824982285499573,-2.9584128856658936,0.19562341272830963,0.7651346325874329, 1.2207461595535278
26,891291161,0.59274346,-0.052216582,-0.8031821,0.028761778,9.520806312561035,-0.9593769907951355,-2.9843835830688477,0.06977540254592896,0.5512173771858215, 1.114952802658081
27,891307828,0.59275085,-0.052225105,-0.8031738,0.028827546,9.50972843170166,-0.945568323135376,-2.935472249984741,0.3839535415172577,0.318974107503891, 0.9533109664916992
28,891324495,0.5927642,-0.05221248,-0.80316156,0.028917512,9.527311325073242,-0.9119839668273926,-2.9546148777008057,1.062088131904602,0.25530099868774414, 0.8113142848014832
29,891341162,0.5927696,-0.05212427,-0.80315936,0.029025452,9.52348804473877,-0.9540486335754395,-3.0078818798065186,1.1899724006652832,0.150288924574852, 0.5871647596359253
30,891357829,0.5927631,-0.051976886,-0.80316764,0.029194573,9.563697814941406,-0.9884318709373474,-2.9534966945648193,1.8328125476837158,0.00538506917655468, 0.4894137978553772
31,891374496,0.59279585,-0.051777247,-0.8031497,0.02937168,9.594257354736328,-1.014242172241211,-2.9549367427825928,2.2046451568603516,0.271987646818161, 0.18724805116653442
32,891391163,0.5928931,-0.05151077,-0.80308735,0.029579133,9.5824556350708,-1.031325340270996,-3.017282724380493,2.29750394821167,0.7971761226654053, 0.033981647342443466
33,891407830,0.5930691,-0.051468167,-0.8029602,0.029583625,9.47632122039795,-0.9967885613441467,-2.9907543659210205,1.1230976581573486,1.5240389108657837, 0.16145604848861694
34,891424497,0.59329283,-0.051470913,-0.8027983,0.029489158,9.346348762512207,-1.024400234222412,-3.017474412918091,-0.08890168368816376,2.0399298667907715, 0.14821428060531616
35,891441164,0.59349746,-0.05159643,-0.8026435,0.029362766,9.260575294494629,-1.042601466178894,-3.015805244445801,-0.9053322076797485,1.9913299083709717, 0.7011541128158569
36,891457831,0.59365976,-0.051893342,-0.8025097,0.029214356,9.285340309143066,-1.0037206411361694,-2.9927539825439453,-1.3222557306289673,1.7063628435134888, 1.3834251165390015
37,891474498,0.59372085,-0.052216966,-0.80244684,0.02911919,9.351105690002441,-0.901648759841919,-2.9421448707580566,-1.730995774269104,0.9328209161758423, 1.8881103992462158
38,891491165,0.59368986,-0.052545007,-0.80245125,0.029042844,9.49199390411377,-0.8704174757003784,-2.9244930744171143,-1.407686710357666,0.11102466285228729, 1.9165408611297607
39,891507832,0.59357995,-0.052748792,-0.8025183,0.029068725,9.612042427062988,-0.8467370271682739,-2.8415939807891846,-0.4907776415348053,-0.6500246524810791, 1.7106270790100098
40,891524499,0.5934653,-0.05288604,-0.8025896,0.029194335,9.69866943359375,-0.8536826968193054,-2.813459873199463,0.7634440660476685,-0.8485487103462219, 1.6559569835662842
41,891541166,0.59335196,-0.05283569,-0.8026676,0.029438734,9.753458976745605,-0.8685383200645447,-2.862260103225708,1.8753682374954224,-0.9801467657089233, 1.2343720197677612
42,891557833,0.59326625,-0.052751176,-0.80272853,0.02965723,9.704936981201172,-0.9119231700897217,-2.898689031600952,1.9357374906539917,-0.8107700347900391, 0.9548094272613525
43,891574500,0.59333205,-0.0526885,-0.8026761,0.0298725,9.636648178100586,-1.02830171585083,-2.8854546546936035,1.634352684020996,0.4933837950229645, 1.169379711151123
44,891591167,0.5937137,-0.052706067,-0.80238235,0.030148463,9.569433212280273,-1.0580490827560425,-2.8612289428710938,1.7186824083328247,3.1995320320129395, 1.885626196861267
45,891607834,0.5950804,-0.05331364,-0.8013166,0.030477572,9.569450378417969,-1.1646645069122314,-2.8871426582336426,0.30199313163757324,11.843262672424316, 5.346443176269531
46,891624501,0.59639996,-0.054139312,-0.80027187,0.030681742,9.0985107421875,-0.9801313281059265,-3.1597187519073486,-0.9013626575469971,11.531567573547363, 5.866125106811523
47,891641168,0.59724545,-0.05492863,-0.7995907,0.03058619,9.209630966186523,-1.051688313484192,-3.156007766723633,-2.8811352252960205,7.655900001525879, 4.462137222290039
48,891657835,0.59809566,-0.055671345,-0.79890525,0.030537557,9.331506729125977,-1.0049279928207397,-3.0027244091033936,-2.352783441543579,7.7444562911987305, 4.357560157775879
49,891674502,0.5987567,-0.056322556,-0.79836625,0.030489221,9.352248191833496,-0.9419065117835999,-2.996286392211914,-2.1147255897521973,6.1264753341674805, 3.8478286266326904
50,891691169,0.5991125,-0.056808632,-0.7980685,0.030394062,9.478608131408691,-0.9408349990844727,-2.9925599098205566,-1.8001633882522583,3.470489263534546, 2.714351177215576
51,891707836,0.59917074,-0.057015106,-0.7980096,0.030408056,9.606083869934082,-0.9044175744056702,-2.893728256225586,-0.26441267132759094,0.7859703898429871, 1.6285254955291748
52,891724503,0.59899926,-0.056994677,-0.7981366,0.030487783,9.689542770385742,-0.884172797203064,-2.793095350265503,0.8100976943969727,-1.3017781972885132, 0.6804333925247192
53,891741170,0.5985866,-0.05684926,-0.7984528,0.030587455,9.710527420043945,-0.8689577579498291,-2.7534499168395996,1.28973388671875,-3.4584314823150635, 0.08322206139564514
54,891757837,0.597954,-0.05665171,-0.79893976,0.030608874,9.722413063049316,-0.8582639098167419,-2.7849528789520264,1.0543404817581177,-5.391371250152588, -0.5480605959892273
55,891774504,0.59729296,-0.056456737,-0.7994501,0.030552944,9.726597785949707,-0.9061015248298645,-2.7708253860473633,0.4871984124183655,-5.622064590454102, -0.793583869934082
56,891791171,0.59702975,-0.056507066,-0.7996432,0.030546691,9.686054229736328,-0.9569651484489441,-2.734665632247925,0.13239845633506775,-2.1475353240966797, 0.7668250799179077
57,891807838,0.59699583,-0.056682844,-0.7996545,0.030589335,9.462109565734863,-0.9341980814933777,-2.8824799060821533,0.07229824364185333,-0.17286011576652527, 1.6667399406433105
58,891824505,0.59694946,-0.056876365,-0.7996722,0.030676093,9.386004447937012,-0.9867988228797913,-2.9866018295288086,0.13310278952121735,-0.2651938796043396, 1.9812895059585571
59,891841172,0.596867,-0.0570879,-0.7997158,0.030747779,9.337912559509277,-1.0118802785873413,-3.004817247390747,-0.16160333156585693,-0.524445652961731, 2.0473830699920654
60,891857839,0.5968905,-0.057312932,-0.79967475,0.030940419,9.353156089782715,-1.0837041139602661,-2.9270377159118652,0.6195263266563416,0.3718003034591675, 2.5874521732330322
61,891874506,0.5972404,-0.057805743,-0.799374,0.03104661,9.559232711791992,-1.1099414825439453,-2.733163595199585,-0.8468071222305298,3.3427326679229736, 3.7430977821350098
62,891891173,0.59850734,-0.05852036,-0.7983581,0.03144815,9.627921104431152,-1.1898235082626343,-2.766143321990967,0.4094128906726837,11.220170021057129, 6.239289283752441
63,891907840,0.59963095,-0.05903509,-0.7974563,0.03195548,9.389778137207031,-0.911078155040741,-2.960179567337036,1.9638733863830566,9.828819274902344, 5.4706501960754395
64,891924507,0.6001739,-0.0592423,-0.79702187,0.032216333,9.407597541809082,-1.0383388996124268,-3.068560838699341,1.2840735912322998,4.8064727783203125, 2.799090623855591
65,891941174,0.600247,-0.05923273,-0.7969626,0.03233846,9.420882225036621,-1.0314011573791504,-2.890439987182617,1.0689268112182617,0.7385742664337158, 1.012246012687683
66,891957841,0.60005087,-0.059071917,-0.797118,0.0324421,9.442508697509766,-1.1445940732955933,-2.770864963531494,1.5327857732772827,-1.6492786407470703, 0.05239718779921532
67,891974508,0.5996416,-0.05890752,-0.7974355,0.03250594,9.579209327697754,-1.1373177766799927,-2.7196648120880127,1.2943696975708008,-3.48576021194458, -0.18908575177192688
68,891991175,0.59987545,-0.059271444,-0.7972379,0.03237571,9.938302040100098,-1.145126223564148,-2.4745450019836426,-1.6378425359725952,2.35317325592041, 1.981635570526123
69,892007842,0.6003998,-0.059677046,-0.7968129,0.032371774,9.502079963684082,-0.9445526003837585,-2.814917802810669,-0.8045845627784729,4.765671730041504, 2.711712598800659
70,892024509,0.6006258,-0.059896935,-0.79662967,0.032281302,9.408714294433594,-0.9696953892707825,-3.0082240104675293,-0.5964685082435608,2.118752956390381, 1.2932173013687134
71,892041176,0.6005516,-0.059900735,-0.7966891,0.032191753,9.352993965148926,-0.9903519153594971,-2.9723217487335205,-0.2062462419271469,-0.5050952434539795, 0.18723523616790771
72,892057843,0.6002813,-0.059707623,-0.79690737,0.032186463,9.290148735046387,-0.988289475440979,-2.950666904449463,1.0703738927841187,-2.303337335586548, -0.5923320651054382
73,892074510,0.5997673,-0.059409987,-0.79731596,0.032200415,9.309209823608398,-0.9700555205345154,-2.937201499938965,1.4087562561035156,-4.424645900726318, -1.0872591733932495
74,892091177,0.59916687,-0.059103906,-0.79778826,0.032244973,9.44895076751709,-0.988715648651123,-2.8278727531433105,1.5832043886184692,-5.1592302322387695, -1.0125981569290161
75,892107844,0.59856164,-0.058814216,-0.79825944,0.03235219,9.491159439086914,-0.9153567552566528,-2.823538064956665,1.849602222442627,-5.200018882751465, -0.6540459394454956
76,892124511,0.59798723,-0.05850617,-0.79870313,0.032585636,9.522090911865234,-0.9346884489059448,-2.873675584793091,2.6044723987579346,-4.971002578735352, -0.20674572885036469
77,892141178,0.59741616,-0.0583282,-0.7991362,0.032764573,9.529655456542969,-0.895514726638794,-2.889700174331665,1.8781217336654663,-4.869871139526367, 0.2689141631126404
78,892157845,0.5968823,-0.058212887,-0.79953676,0.03292309,9.554572105407715,-0.9131752252578735,-2.8986639976501465,1.50489342212677,-4.505825042724609, 0.5584017634391785
79,892174512,0.596401,-0.058106683,-0.79989636,0.0330999,9.672106742858887,-0.9532095789909363,-2.8555850982666016,1.6769593954086304,-4.0647993087768555, 0.679357647895813
80,892191179,0.5965411,-0.058483686,-0.7997665,0.033047665,10.168933868408203,-1.0436465740203857,-2.40390682220459,-1.2220970392227173,1.5543514490127563, 2.469172954559326
81,892207846,0.59828407,-0.05913413,-0.79839057,0.033645295,9.880743026733398,-1.0866540670394897,-2.7086589336395264,2.092482566833496,15.220589637756348, 6.802584648132324
82,892224513,0.5994583,-0.059621003,-0.7974601,0.03395256,9.445337295532227,-0.8193502426147461,-3.1667914390563965,1.0978056192398071,10.286084175109863, 4.58673095703125
83,892241180,0.59994894,-0.059721667,-0.7970762,0.034119815,9.207265853881836,-0.9570304155349731,-3.243447780609131,1.309801459312439,4.3137102127075195, 1.914888858795166
84,892257847,0.5999926,-0.059672188,-0.79704446,0.034183096,9.149322509765625,-1.0357249975204468,-3.050204038619995,1.2550287246704102,0.4462692439556122, 0.5870494842529297
85,892274514,0.5997262,-0.059412353,-0.79725546,0.034385484,9.138108253479004,-1.082249402999878,-2.986372470855713,2.5080273151397705,-2.3046305179595947, 0.03915541246533394
86,892291181,0.5991687,-0.05923309,-0.7976865,0.03441635,9.341730117797852,-1.021846055984497,-2.753481149673462,1.0906848907470703,-4.696856498718262, -0.2582016587257385
87,892307848,0.60029566,-0.06023592,-0.79677844,0.034072302,10.547452926635742,-1.3461124897003174,-1.4503620862960815,-4.760801792144775,10.477463722229004, 4.8113932609558105
88,892324515,0.60319966,-0.06074916,-0.7944693,0.035753787,9.544572830200195,-1.1112271547317505,-2.0353949069976807,9.480740547180176,24.884864807128906, 10.622213363647461
89,892341182,0.6049869,-0.059256725,-0.79309773,0.03841696,9.18344497680664,-0.7818881869316101,-2.960089921951294,22.667661666870117,13.904997825622559, 3.56591796875
90,892357849,0.60605484,-0.055510383,-0.79237056,0.042013474,8.881816864013672,-0.03360315412282944,-3.517608880996704,36.70296859741211,6.359671115875244, -4.890589714050293
91,892374516,0.6067229,-0.051286247,-0.7919976,0.04468955,9.06235122680664,0.7204281091690063,-4.165373802185059,33.655921936035156,2.9873952865600586, -11.314126968383789
92,892391183,0.60710377,-0.04732446,-0.7918521,0.04643124,8.998900413513184,0.28736215829849243,-3.815850019454956,27.46253204345703,1.0160526037216187, -13.65467357635498
93,892407850,0.60729426,-0.043226555,-0.79179853,0.048788693,9.140974044799805,-1.0560702085494995,-2.9139785766601562,31.35515594482422,-0.5328870415687561, -11.694330215454102
94,892424517,0.6076275,-0.039098192,-0.7915013,0.05278357,9.113988876342773,-1.9616916179656982,-2.1648359298706055,40.58150100708008,0.7959383726119995, -5.0204386711120605
95,892441184,0.6082925,-0.03546255,-0.7907876,0.058117133,9.450403213500977,-3.14035701751709,-2.364802837371826,46.027259826660156,4.136398792266846, 3.1666693687438965
96,892457851,0.6092974,-0.033714324,-0.78968537,0.06338101,10.074238777160645,-2.448974132537842,-1.9597535133361816,37.919952392578125,8.367570877075195, 12.942051887512207
97,892474518,0.61069506,-0.03426495,-0.788326,0.066480085,9.593169212341309,-0.5879628658294678,-1.6631289720535278,16.638195037841797,13.028204917907715, 16.172325134277344
98,892491185,0.61235344,-0.03436259,-0.78672945,0.06999762,9.579509735107422,-2.124211549758911,-2.3137006759643555,20.979873657226562,15.05881404876709, 15.471372604370117
99,892507852,0.6138715,-0.032319427,-0.784968,0.077087834,9.925759315490723,-2.926635980606079,-2.6971235275268555,49.38058090209961,13.099027633666992, 18.974958419799805
100,892524519,0.615416,-0.029238086,-0.7829906,0.08563959,9.684863090515137,-2.159597873687744,-2.1741836071014404,60.828983306884766,13.448283195495605, 19.687938690185547
101,892541186,0.6170695,-0.025657425,-0.78085893,0.09394965,10.322915077209473,-1.1846367120742798,-2.6097989082336426,61.739349365234375,14.4323148727417, 15.89565372467041
102,892557853,0.6188911,-0.023503391,-0.7789312,0.09842795,9.661745071411133,-0.0291791632771492,-3.1836740970611572,35.024051666259766,16.082754135131836, 7.19650936126709
103,892574520,0.62071455,-0.02261961,-0.77744126,0.09893053,9.788063049316406,-1.1929402351379395,-3.0363547801971436,8.070948600769043,15.803136825561523, -2.8631317615509033
104,892591187,0.6226433,-0.021689516,-0.7759828,0.09846728,9.808232307434082,-2.305316209793091,-1.9046510457992554,3.11881685256958,16.410079956054688, -7.267303466796875
105,892607854,0.6245318,-0.020554611,-0.7745643,0.09791729,9.349349021911621,-1.8368948698043823,-2.2609031200408936,3.4830172061920166,15.877196311950684, -8.752394676208496
106,892624521,0.6263644,-0.01946053,-0.7732972,0.09644051,9.66080093383789,-1.6512914896011353,-2.3380327224731445,-1.7411154508590698,15.103568077087402, -12.512923240661621
107,892641188,0.6279161,-0.018210378,-0.7723107,0.094478175,9.553031921386719,-1.8064607381820679,-2.1651408672332764,-3.8743484020233154,12.382918357849121, -15.283309936523438
108,892657855,0.62907416,-0.016318182,-0.7716419,0.092565805,9.372145652770996,-2.077160120010376,-2.1035664081573486,-1.0975826978683472,8.508596420288086, -18.27545738220215
109,892674522,0.629843,-0.01388698,-0.7712932,0.090618655,9.158696174621582,-3.3856568336486816,-1.1643844842910767,0.7923237085342407,4.731691360473633, -21.113950729370117
110,892691189,0.6303481,-0.01111024,-0.7710973,0.08914496,8.68705940246582,-4.178159713745117,-0.2522547245025635,4.639318943023682,2.3604636192321777, -20.888212203979492
111,892707856,0.6302587,-0.008627619,-0.7716336,0.085330315,10.6941556930542,-0.952808141708374,-1.807336449623108,-9.600889205932617,-3.71231746673584, -29.372169494628906
112,892724523,0.6292261,-0.007000712,-0.7734514,0.07614939,12.441352844238281,-1.0902079343795776,-1.7216758728027344,-42.58293151855469,-13.474414825439453, -47.5612907409668
113,892741190,0.6267374,-0.0036100538,-0.77625936,0.06788721,13.721921920776367,-3.709949016571045,-0.973296582698822,-30.655235290527344,-26.52882194519043, -52.20746994018555
114,892757857,0.62345564,0.003161196,-0.7793907,0.06199703,16.882568359375,-5.064901351928711,0.9725168347358704,-3.646707534790039,-33.92442321777344, -59.81596374511719
115,892774524,0.62171435,0.0077760327,-0.7813826,0.053403996,21.718008041381836,-3.553544521331787,5.582913398742676,-27.005043029785156,-20.25014305114746, -60.76692199707031
116,892791191,0.6221418,0.007429759,-0.7816644,0.0434184,16.60708999633789,-8.096750259399414,5.383410930633545,-55.257423400878906,-0.26929646730422974, -41.09299087524414
117,892807858,0.6221033,0.0059588496,-0.7821174,0.03527702,10.472628593444824,-4.776342391967773,4.197239875793457,-50.327552795410156,-3.6890909671783447, -27.529321670532227
118,892824525,0.6226569,-0.0015276645,-0.78214437,0.023373215,7.683917999267578,-1.9287147521972656,1.122652530670166,-94.99000549316406,2.1511969566345215, -12.066481590270996
119,892841192,0.62507224,-0.015667472,-0.78038013,0.0067941407,7.626830101013184,-2.4311208724975586,3.7075817584991455,-148.13600158691406,20.82611846923828, 3.1964797973632812
120,892857859,0.6312002,-0.031337474,-0.77498513,-0.0015275026,7.361408710479736,-8.764742851257324,6.158076286315918,-109.58364868164062,55.233943939208984, 46.83122634887695
121,892874526,0.640814,-0.03791235,-0.7666655,0.011999633,5.84055233001709,-8.582683563232422,6.616517543792725,46.934852600097656,81.38484191894531, 93.26893615722656
122,892891193,0.65541846,-0.036491964,-0.7533022,0.040385686,4.926938056945801,-1.1868762969970703,6.377983570098877,161.86822509765625,124.79833221435547, 117.13318634033203
123,892907860,0.6742,-0.032418948,-0.7344263,0.07086157,5.548739433288574,5.723385334014893,5.092161178588867,185.5214385986328,169.6277313232422, 113.44129943847656
124,892924527,0.6962033,-0.033764046,-0.7113418,0.09029881,6.870000839233398,9.131193161010742,2.5763185024261475,107.39434051513672,210.0967559814453, 89.59190368652344
125,892941194,0.7205751,-0.03825428,-0.68515056,0.09938276,8.589886665344238,7.352100849151611,-0.387331485748291,44.15987777709961,240.7473907470703, 55.42130661010742
126,892957861,0.7456923,-0.044049073,-0.65693605,0.102164775,12.08145809173584,4.267188549041748,-2.923175573348999,9.569584846496582,256.92626953125, 30.956363677978516
127,892974528,0.76931715,-0.051249668,-0.62904274,0.09914594,16.829265594482422,2.455772876739502,-9.141079902648926,-24.51631736755371,251.6005401611328, 8.899340629577637
128,892991195,0.78883404,-0.057563085,-0.6047158,0.09352159,14.557380676269531,1.0822123289108276,-13.400050163269043,-34.877140045166016,216.09808349609375, -6.8477396965026855
129,893007862,0.8026343,-0.05951319,-0.5865428,0.09057571,13.496524810791016,1.240437388420105,-15.217205047607422,-6.131159782409668,156.19358825683594, -8.977975845336914
130,893024529,0.81033623,-0.059467472,-0.57606196,0.08928299,12.348605155944824,0.8941552639007568,-16.16359519958496,4.436248779296875,88.47191619873047, -6.990104675292969
131,893041196,0.8115497,-0.058815237,-0.57417834,0.09081609,9.903510093688965,-0.6336215138435364,-16.7716064453125,11.271377563476562,14.63768482208252, 7.047735214233398
132,893057863,0.8070012,-0.057606902,-0.58012134,0.09428622,10.162639617919922,-2.290558338165283,-15.375849723815918,15.05933952331543,-51.64279556274414, 16.18468475341797
133,893074530,0.7978253,-0.056040745,-0.5921113,0.09868499,10.521283149719238,-1.7803758382797241,-13.677346229553223,15.289450645446777,-103.08570098876953, 20.49136734008789
134,893091197,0.78522277,-0.05786848,-0.6081334,0.101243615,10.179718017578125,-0.9782534241676331,-11.05711555480957,-14.595403671264648,-135.10763549804688, 25.000123977661133
135,893107864,0.770067,-0.06528703,-0.62664014,0.10028416,9.920165061950684,-2.1375973224639893,-9.508940696716309,-61.98778533935547,-153.0918731689453, 30.273666381835938
136,893124531,0.75335205,-0.07457075,-0.6462429,0.09628225,10.10806655883789,-0.8978844285011292,2.6129345893859863,-86.1763916015625,-162.29212951660156, 22.859682083129883
137,893141198,0.7420513,-0.07348026,-0.6586221,0.10088489,11.44211483001709,-6.418338298797607,11.55700969696045,13.406600952148438,-112.20811462402344, 21.547273635864258
138,893157865,0.73077506,-0.060875963,-0.6694606,0.11867881,19.7091121673584,-7.354203701019287,-4.299259662628174,132.90634155273438,-119.56861114501953, 37.09455108642578
139,893174532,0.7183037,-0.05352284,-0.68187207,0.12737985,20.374191284179688,9.127615928649902,6.718514919281006,63.033199310302734,-124.4942398071289, 15.558382034301758
140,893191199,0.70711404,-0.053945165,-0.6930673,0.12937403,6.7554850578308105,2.652899742126465,-2.062333345413208,-5.337538242340088,-103.58110046386719, 19.038597106933594
141,893207866,0.696556,-0.04696903,-0.70243627,0.1385187,14.290997505187988,-2.1920928955078125,-1.0729295015335083,66.66381072998047,-100.81997680664062, 18.85638999938965
142,893224533,0.6873094,-0.040422864,-0.71024156,0.14672759,6.570639133453369,-2.965331554412842,-2.207880735397339,62.072505950927734,-86.22401428222656, 15.677205085754395
143,893241200,0.6790447,-0.03655186,-0.71707773,0.15284528,7.990776062011719,-5.2988152503967285,-2.0637876987457275,40.538856506347656,-73.4615249633789, 17.955039978027344
144,893257867,0.6711059,-0.032488912,-0.7235557,0.15820481,9.841155052185059,-4.668927192687988,-1.1882864236831665,38.19902420043945,-70.11317443847656, 12.938199996948242
145,893274534,0.66320497,-0.025743915,-0.72918564,0.16668862,10.397939682006836,-2.9462432861328125,-0.5008400678634644,67.0677261352539,-69.61845397949219, 13.941787719726562
146,893291201,0.6555647,-0.021760488,-0.734853,0.17249,11.71656608581543,2.256622552871704,-1.021530270576477,41.04094696044922,-64.89159393310547, 15.15259075164795
147,893307868,0.6479832,-0.022426873,-0.7413469,0.17326139,11.167440414428711,-1.021323800086975,-2.2418854236602783,-6.240076065063477,-62.10613250732422, 16.078372955322266
148,893324535,0.6409801,-0.022702305,-0.7471254,0.17445087,11.022346496582031,-2.275447368621826,-1.635894775390625,-1.3662234544754028,-56.48836135864258, 15.489178657531738
149,893341202,0.6346797,-0.023505982,-0.75233895,0.17497219,10.007763862609863,-3.4240689277648926,-1.6612378358840942,-6.30819845199585,-49.686161041259766, 14.547900199890137
150,893357869,0.62865305,-0.024764817,-0.7573985,0.17472738,9.895478248596191,-3.400845527648926,-2.047757148742676,-12.01512622833252,-46.962440490722656, 13.223755836486816
151,893374536,0.6220832,-0.028002424,-0.7633251,0.17193936,10.239985466003418,-3.906480550765991,-1.4078521728515625,-34.93101119995117,-50.753028869628906, 13.029778480529785
152,893391203,0.61452025,-0.031497672,-0.7699839,0.16881306,10.418079376220703,-3.2070486545562744,-1.06434965133667,-38.87052536010742,-58.80722427368164, 13.948180198669434
153,893407870,0.60593593,-0.036790784,-0.77730113,0.16520064,10.36336612701416,-3.6227636337280273,-0.5670457482337952,-50.02567672729492,-64.92556762695312, 22.48455810546875
154,893424537,0.5960267,-0.042775877,-0.7859394,0.1588141,11.364140510559082,-0.7356333136558533,-1.6366562843322754,-69.5873031616211,-76.18816375732422, 15.812139511108398
155,893441204,0.58529145,-0.04634125,-0.79455584,0.15481445,11.020808219909668,-1.7480798959732056,-2.4902515411376953,-46.94489288330078,-84.04535675048828, 13.617593765258789
156,893457871,0.5741042,-0.048859358,-0.8032623,0.15095401,11.788261413574219,-0.7556941509246826,-2.5478124618530273,-39.93777847290039,-88.85306549072266, 8.309045791625977
157,893474538,0.5624039,-0.051972073,-0.81213576,0.14641158,11.969915390014648,-2.066197633743286,-1.9446840286254883,-45.65157699584961,-91.85002899169922, 9.228797912597656
158,893491205,0.54979837,-0.054762285,-0.82130307,0.14207166,12.036722183227539,-1.2797129154205322,-0.8715114593505859,-43.5792350769043,-98.71891021728516, 8.889018058776855
159,893507872,0.53539294,-0.05745581,-0.83137417,0.13736941,12.106281280517578,-0.7926262617111206,0.029277756810188293,-47.04110336303711,-112.45045471191406, 8.488628387451172
160,893524539,0.5185354,-0.05945936,-0.8426407,0.1324479,13.430872917175293,-0.8881415724754333,1.2639598846435547,-49.83647918701172,-131.12716674804688, 6.536283016204834
161,893541206,0.4991053,-0.062426105,-0.8551011,0.12569426,14.187304496765137,-2.431595802307129,4.219981670379639,-68.20653533935547,-148.42684936523438, 8.696556091308594
162,893557873,0.47867706,-0.065727845,-0.8675535,0.11789474,14.876385688781738,-2.3368113040924072,5.156083583831787,-77.13618469238281,-153.85191345214844, 8.75152587890625
163,893574540,0.4582264,-0.06955908,-0.87981325,0.10544664,17.480390548706055,-2.5374231338500977,8.452460289001465,-104.15318298339844,-152.38229370117188, -4.701250076293945
164,893591207,0.43947777,-0.07205675,-0.8906261,0.091937795,17.035350799560547,-3.849137783050537,8.633993148803711,-104.66222381591797,-139.0382080078125, -16.61677360534668
165,893607874,0.41900167,-0.07196757,-0.9015914,0.079946846,15.230743408203125,-5.993820667266846,-0.5655897259712219,-88.69881439208984,-153.51864624023438, -26.925474166870117
166,893624541,0.39459598,-0.067248456,-0.9129248,0.07962439,20.785863876342773,-13.243505477905273,3.1902871131896973,-5.310027599334717,-187.80337524414062, -20.21307945251465
167,893641208,0.37116754,-0.06045859,-0.92257226,0.08625516,15.62633228302002,-6.422045707702637,7.524497032165527,44.832881927490234,-182.36685180664062, -14.47637939453125
168,893657875,0.34971043,-0.06192527,-0.9315278,0.07825553,13.98133659362793,-11.76992130279541,-0.32086580991744995,-68.12737274169922,-158.0502471923828, -0.45769551396369934
169,893674542,0.3356289,-0.061731745,-0.93698186,0.07488394,15.216275215148926,-6.343264579772949,2.8817837238311768,-29.944660186767578,-105.80657196044922, -2.81615948677063
170,893691209,0.3290351,-0.066265434,-0.9401292,0.059179027,11.362471580505371,2.070502758026123,6.773640155792236,-116.24394989013672,-45.33746337890625, -3.892998218536377
171,893707876,0.3304755,-0.07433746,-0.9401298,0.037628986,7.838119029998779,-3.435967445373535,7.0735344886779785,-157.0727081298828,17.071002960205078, 3.8595008850097656
172,893724543,0.3410217,-0.08177581,-0.935982,0.030897366,6.085376262664795,-6.9696784019470215,4.825630187988281,-54.347434997558594,77.1820297241211, 32.91331481933594
173,893741210,0.35948873,-0.08869998,-0.9282272,0.035980433,5.403049468994141,-6.226588726043701,3.918921947479248,27.758089065551758,129.86697387695312, 57.375633239746094
174,893757877,0.384947,-0.09541091,-0.91688454,0.04511593,5.364591121673584,-4.19320821762085,3.4849069118499756,59.054019927978516,181.11802673339844, 66.33517456054688
175,893774544,0.41686416,-0.1020637,-0.9014696,0.05621169,6.191948890686035,-3.8314974308013916,2.920682668685913,76.98297119140625,231.76446533203125, 71.7771987915039
176,893791211,0.45426017,-0.10675446,-0.8815858,0.07111669,8.290797233581543,-2.899303436279297,1.1960924863815308,111.79785919189453,275.6321105957031, 71.55064392089844
177,893807878,0.49597433,-0.109199114,-0.85702366,0.08715364,9.484418869018555,-0.8444371819496155,-0.3647554814815521,131.23251342773438,315.0526123046875, 62.85675811767578
178,893824545,0.5408442,-0.110471606,-0.8276626,0.101283826,9.876500129699707,0.5197147130966187,-1.6231886148452759,129.4080352783203,351.3297119140625, 51.28638458251953
179,893841212,0.58803576,-0.11021346,-0.7932583,0.113173336,12.494409561157227,-0.5057843923568726,-3.759789228439331,127.81685638427734,384.532470703125, 36.593563079833984
180,893857879,0.63588715,-0.10701895,-0.75424814,0.12371065,15.102130889892578,0.2114257514476776,-5.132219314575195,136.5798797607422,406.07366943359375, 18.183425903320312
181,893874546,0.68089664,-0.10969221,-0.7133339,0.124508195,17.25797462463379,-1.657106637954712,-8.767088890075684,60.04571533203125,412.3238525390625, 9.94333553314209
182,893891213,0.72278917,-0.11316085,-0.67034686,0.12411963,19.809459686279297,-4.727296829223633,-14.530539512634277,50.07024002075195,408.85760498046875, 12.554939270019531
183,893907880,0.76016396,-0.109855935,-0.6283234,0.12366199,22.364023208618164,-3.724153518676758,-15.866678237915039,79.26216125488281,378.0912780761719, -15.93234920501709
184,893924547,0.78976923,-0.10788503,-0.5919034,0.119481646,20.96990966796875,-6.286778926849365,-18.04497718811035,45.703346252441406,319.66424560546875, -27.222354888916016
185,893941214,0.811278,-0.10541183,-0.56260407,0.11913438,17.3399715423584,-6.132477283477783,-18.416345596313477,52.32063674926758,245.23338317871094, -7.1071271896362305
186,893957881,0.8256253,-0.098211706,-0.54117966,0.1257855,12.17875862121582,-3.3185224533081055,-21.265222549438477,94.24954986572266,165.02389526367188, 13.75840950012207
187,893974548,0.83163804,-0.09173488,-0.5315903,0.13181315,8.75572681427002,1.9736319780349731,-21.19633674621582,72.06208038330078,68.18073272705078, 12.093148231506348
188,893991215,0.82886744,-0.086033866,-0.5352807,0.13802835,9.134866714477539,-0.590314507484436,-19.559471130371094,50.790897369384766,-39.047298431396484, 15.609854698181152
189,894007882,0.8194891,-0.0738865,-0.54840904,0.14908433,10.277138710021973,-1.6000288724899292,-17.481136322021484,92.54363250732422,-125.98973846435547, 20.13145637512207
190,894024549,0.8061391,-0.058661945,-0.56607544,0.16204141,12.471598625183105,-3.4089035987854004,-8.88375473022461,110.434326171875,-170.57089233398438, 20.95117950439453
191,894041216,0.7923069,-0.042797733,-0.5813613,0.18010369,24.103586196899414,-4.702951431274414,9.378323554992676,136.32704162597656,-162.05026245117188, 48.18669509887695
192,894057883,0.7777361,-0.0475179,-0.6013415,0.17679708,18.73484992980957,17.179479598999023,-0.7951247096061707,-67.33135223388672,-158.98118591308594, 13.587328910827637
193,894074550,0.7603586,-0.07250206,-0.62533635,0.15985233,8.073159217834473,-11.379369735717773,-7.4214935302734375,-238.0152130126953,-163.0883026123047, 26.83641815185547
194,894091217,0.7450805,-0.070759356,-0.6418149,0.16709939,11.415938377380371,-6.732659339904785,-3.0138754844665527,15.143402099609375,-156.2008056640625, 39.71360397338867
195,894107884,0.73204976,-0.06620561,-0.6552002,0.17445028,9.262018203735352,-1.0573238134384155,0.8162437677383423,34.65364074707031,-133.77879333496094, 26.68862533569336
196,894124551,0.72053313,-0.06860929,-0.6667356,0.17773199,11.432430267333984,-1.9801706075668335,-0.014069423079490662,-15.81350040435791,-107.5515365600586, 36.57087326049805
197,894141218,0.7108278,-0.07308597,-0.67648005,0.17820567,10.443370819091797,-1.7490860223770142,0.30410462617874146,-35.929962158203125,-86.59773254394531, 30.799129486083984
198,894157885,0.7021971,-0.08340076,-0.6856489,0.17276986,9.055001258850098,-6.560770034790039,-1.1222060918807983,-90.72337341308594,-68.74292755126953, 28.057552337646484
199,894174552,0.6952856,-0.08602564,-0.6919874,0.17415853,10.543432235717773,-5.190075874328613,-0.7840031385421753,-17.08492660522461,-60.07117462158203, 24.294126510620117
200,894191219,0.6893423,-0.088106625,-0.6975751,0.17445225,10.790472984313965,-2.2870571613311768,-0.4159528613090515,-18.2353515625,-51.92849349975586, 15.735695838928223
201,894207886,0.6837823,-0.09326904,-0.7032083,0.17100029,9.215152740478516,-4.339103698730469,-1.7495955228805542,-50.64247512817383,-44.389068603515625, 12.287172317504883
202,894224553,0.67954284,-0.09537442,-0.7075147,0.16896245,9.773012161254883,-4.595305919647217,-2.015627861022949,-27.0366268157959,-36.298553466796875, 3.4409947395324707
203,894241220,0.6760766,-0.097761065,-0.71137345,0.1652612,10.194169998168945,-2.9594428539276123,-1.7224690914154053,-35.427093505859375,-29.058473587036133, -3.5792222023010254
204,894257887,0.67276484,-0.10050002,-0.7151799,0.1606392,10.001867294311523,-2.89567232131958,-1.8169628381729126,-41.41728591918945,-27.072397232055664, -6.2707600593566895
205,894274554,0.6694896,-0.100862935,-0.71873087,0.15822908,9.21489429473877,-3.708617687225342,-1.6633127927780151,-19.25480842590332,-29.89287567138672, -7.583405494689941
206,894291221,0.6659369,-0.09932758,-0.7224711,0.15715535,9.369608879089355,-3.666935920715332,-1.7617944478988647,-4.323329448699951,-35.155364990234375, -10.650630950927734
207,894307888,0.6616301,-0.09730342,-0.72691053,0.15613732,9.034608840942383,-3.1503655910491943,-1.0524134635925293,-3.089988946914673,-42.6927375793457, -12.494321823120117
208,894324555,0.6563558,-0.09525853,-0.7321442,0.15520273,9.096264839172363,-3.728745698928833,-1.0542144775390625,-4.090259552001953,-51.247642517089844, -11.71554183959961
209,894341222,0.65029806,-0.092602186,-0.7379307,0.15490656,10.199319839477539,-3.5836431980133057,0.17369495332241058,0.7689477801322937,-58.78299331665039, -11.447190284729004
210,894357889,0.64454055,-0.0923587,-0.74322385,0.15380451,10.513286590576172,-3.9518802165985107,0.9938850402832031,-13.405235290527344,-52.00568771362305, -2.8171567916870117
211,894374556,0.6379501,-0.09545477,-0.7495058,0.14882585,9.680084228515625,-0.6832120418548584,-1.7489509582519531,-49.60387420654297,-54.69053649902344, -2.6818037033081055
212,894391223,0.6297802,-0.098950446,-0.7571133,0.14270748,9.961196899414062,-1.7544053792953491,-0.9729394316673279,-59.6247444152832,-67.50181579589844, -4.854360103607178
213,894407890,0.62044483,-0.09944135,-0.76522225,0.1399814,11.208789825439453,-1.1231845617294312,-1.3276584148406982,-30.244789123535156,-81.01581573486328, -4.994505405426025
214,894424557,0.609668,-0.09946573,-0.7743696,0.13697915,12.13577651977539,-0.28221267461776733,-0.43446677923202515,-31.695175170898438,-93.3089828491211, -7.933075904846191
215,894441224,0.5968134,-0.098305844,-0.78465056,0.1359168,11.232272148132324,-2.9698028564453125,0.016565129160881042,-18.89386749267578,-111.59524536132812, -4.901429176330566
216,894457891,0.58176076,-0.094856985,-0.7959378,0.13798466,11.557605743408203,-2.8522143363952637,0.288974791765213,4.952398300170898,-131.8691864013672, -3.0339722633361816
217,894474558,0.56415886,-0.09153051,-0.8085032,0.14024764,11.602335929870605,-2.8128445148468018,0.5708469152450562,2.64686918258667,-150.98072814941406, 0.0013639858225360513
218,894491225,0.5443012,-0.090103224,-0.82204616,0.14091775,12.233842849731445,-3.202704906463623,0.7281140089035034,-12.452545166015625,-165.7604217529297, 4.512263774871826
219,894507892,0.5222106,-0.08993718,-0.8364036,0.14013094,13.430994033813477,-3.1528878211975098,1.4387776851654053,-29.002418518066406,-178.85943603515625, 8.301288604736328
220,894524559,0.49824178,-0.09208756,-0.8514148,0.13552815,15.314922332763672,-2.6472816467285156,4.803037643432617,-64.35399627685547,-186.2786102294922, 10.968063354492188
221,894541226,0.47314042,-0.09799708,-0.8667241,0.12379133,19.331640243530273,-4.205081939697266,9.929207801818848,-118.8023452758789,-186.4534149169922, 8.7503023147583
222,894557893,0.44997907,-0.10520901,-0.8802353,0.10787136,23.807313919067383,-3.9739530086517334,12.177690505981445,-145.1760711669922,-165.25991821289062, 2.467353105545044
223,894574560,0.4296283,-0.11179435,-0.89197195,0.08548415,18.942541122436523,-2.3884973526000977,5.055548191070557,-179.08126831054688,-138.72781372070312, -22.131099700927734
224,894591227,0.40103707,-0.11637492,-0.9062921,0.06527728,15.98482894897461,-12.969989776611328,-2.5766611099243164,-167.658203125,-199.87608337402344, -25.135576248168945
225,894607894,0.37555823,-0.11377251,-0.9173725,0.06663235,17.005739212036133,-12.05712604522705,6.1913323402404785,-9.570000648498535,-192.0353240966797, -9.307884216308594
226,894624561,0.3536592,-0.11190097,-0.9261634,0.06800714,12.541479110717773,-9.086204528808594,1.5502458810806274,-7.5580339431762695,-163.31761169433594, -4.529737949371338
227,894641228,0.34032524,-0.10810593,-0.93133324,0.071486436,13.08178424835205,-4.687221527099609,4.853415489196777,18.759204864501953,-102.52304077148438, -12.898505210876465
228,894657895,0.3362995,-0.10741034,-0.93322545,0.066754945,10.397880554199219,0.9277930855751038,6.7548089027404785,-32.560203552246094,-27.688003540039062, -14.39869499206543
229,894674562,0.34008384,-0.10644974,-0.9323191,0.061584376,6.905089855194092,-4.791649341583252,5.223760604858398,-27.696945190429688,29.039409637451172, -18.613130569458008
230,894691229,0.35269716,-0.10411753,-0.9275013,0.06712505,6.343576431274414,-6.181838035583496,3.8925728797912598,52.26751708984375,86.34002685546875, -3.253173351287842
231,894707896,0.37322557,-0.101316705,-0.91907454,0.075761616,4.853972434997559,-3.6958048343658447,4.146926403045654,80.45333099365234,143.13345336914062, 0.17881286144256592
232,894724563,0.400476,-0.10049383,-0.9069386,0.083561786,4.507084369659424,-4.60835599899292,3.0390803813934326,76.70083618164062,196.7603759765625, 9.607050895690918
233,894741230,0.43391347,-0.10035881,-0.8906144,0.09194355,5.835814952850342,-3.5374419689178467,1.9822930097579956,85.11193084716797,246.91256713867188, 14.818375587463379
234,894757897,0.47256812,-0.10268637,-0.86991465,0.09686799,7.16654634475708,-1.364494800567627,1.1254370212554932,62.962337493896484,295.91241455078125, 19.290952682495117
235,894774564,0.5147971,-0.10900353,-0.8448493,0.096602716,7.857473373413086,-1.3896212577819824,-0.24325701594352722,24.398176193237305,337.8631896972656, 26.98955726623535
236,894791231,0.5603415,-0.1178128,-0.81434876,0.0947309,9.772414207458496,-1.0983638763427734,-2.242194414138794,12.356837272644043,379.3129577636719, 37.64592742919922
237,894807898,0.60888714,-0.12533416,-0.77746874,0.0953438,12.603589057922363,-1.0857888460159302,-4.757486820220947,37.860618591308594,417.9634094238281, 43.22431182861328
238,894824565,0.657078,-0.12891509,-0.7359846,0.09978146,15.935821533203125,0.3482511043548584,-6.6653876304626465,77.57671356201172,429.5655212402344, 42.387474060058594
239,894841232,0.7018151,-0.12979774,-0.69221485,0.10699026,18.508689880371094,-1.900844693183899,-11.790925025939941,102.34707641601562,418.1871337890625, 45.69449996948242
240,894857899,0.7437911,-0.11517772,-0.6471733,0.121143684,24.053810119628906,-5.0260701179504395,-16.382230758666992,208.80421447753906,393.7349548339844, 8.607380867004395
241,894874566,0.77871406,-0.09379711,-0.6063676,0.13086222,25.0777645111084,-0.3894311487674713,-16.706785202026367,214.5791778564453,338.6989440917969, -41.629329681396484
242,894891233,0.80404955,-0.083371446,-0.5741036,0.1302254,18.875394821166992,-3.8015968799591064,-19.07272720336914,98.84823608398438,269.6457824707031, -48.208343505859375
243,894907900,0.81973755,-0.08192415,-0.5516166,0.13053048,13.356493949890137,-6.6573686599731445,-23.30970573425293,38.691226959228516,185.18994140625, -4.505036354064941
244,894924567,0.8273013,-0.07820689,-0.53985834,0.13419853,9.079402923583984,-3.22086238861084,-25.74508285522461,50.12120819091797,90.1982421875, 7.059311866760254
245,894941234,0.8263271,-0.07499634,-0.5413805,0.1358896,8.783244132995605,-0.8514730334281921,-23.61929702758789,23.135560989379883,-15.2775297164917, -1.5818829536437988
246,894957901,0.81689423,-0.07113096,-0.55499804,0.1400049,9.2709321975708,-4.644932746887207,-22.263742446899414,20.280242919921875,-117.1561050415039, 11.421616554260254
247,894974568,0.8021448,-0.06544274,-0.5750033,0.14714743,14.050375938415527,-7.072070598602295,-3.5605592727661133,33.396705627441406,-176.4015655517578, 23.42291259765625
248,894991235,0.7906524,-0.049544316,-0.58720803,0.16613598,26.023509979248047,-1.6295756101608276,18.646799087524414,145.934814453125,-136.164306640625, 48.53913116455078
249,895007902,0.77969295,-0.0443115,-0.601064,0.16981654,8.793106079101562,10.954378128051758,-2.5945749282836914,24.36107063293457,-125.74939727783203, 7.230353832244873
250,895024569,0.7648384,-0.0579928,-0.6209905,0.16133814,7.876730918884277,-7.531818389892578,-12.8738374710083,-135.60858154296875,-148.62997436523438, 23.0403995513916
251,895041236,0.75040036,-0.062386937,-0.63731146,0.1638334,15.980509757995605,-5.924307346343994,0.9731996059417725,-35.6818733215332,-142.4790802001953, 42.025936126708984
252,895057903,0.7380913,-0.06358682,-0.65061086,0.16698384,7.382028579711914,-0.6463043093681335,-1.1381006240844727,-12.011641502380371,-121.48065185546875, 30.288095474243164
253,895074570,0.72738826,-0.07201085,-0.6623391,0.16440119,12.18293285369873,-0.8800978660583496,-0.3254999816417694,-71.81932830810547,-95.56124877929688, 32.366397857666016
254,895091237,0.7184808,-0.07675389,-0.671048,0.16609874,12.281118392944336,-2.550678253173828,-0.1204129233956337,-29.62114143371582,-78.60250091552734, 36.504608154296875
255,895107904,0.71015227,-0.0886328,-0.6798337,0.16016996,8.912824630737305,-3.391474485397339,-0.06026315689086914,-99.84943389892578,-64.18180847167969, 31.071945190429688
256,895124571,0.70312554,-0.09322207,-0.68664294,0.15951774,8.323599815368652,-8.171082496643066,-0.076414093375206,-36.627174377441406,-59.7315673828125, 22.531917572021484
257,895141238,0.6968014,-0.09482803,-0.6926694,0.16026434,9.65856647491455,-3.768153667449951,-0.23688191175460815,-14.30005931854248,-56.84013366699219, 14.885157585144043
258,895157905,0.69057983,-0.0977803,-0.699105,0.15745121,9.205947875976562,-5.164302349090576,-0.8126389980316162,-38.09898376464844,-54.5435791015625, 3.858452796936035
259,895174572,0.68536496,-0.09814851,-0.7043849,0.15647213,9.548765182495117,-3.798283100128174,-1.6736385822296143,-15.096592903137207,-48.27621078491211, -0.18591144680976868
260,895191239,0.6810202,-0.09830077,-0.70884705,0.1551921,10.546960830688477,-3.0385730266571045,-1.3287588357925415,-14.076586723327637,-40.25575256347656, -3.038543939590454
261,895207906,0.67711276,-0.09904944,-0.712967,0.15292406,10.95894718170166,-1.5594804286956787,-1.5222995281219482,-21.032852172851562,-35.238487243652344, -4.985323905944824
262,895224573,0.67322326,-0.09976809,-0.71706504,0.1504475,9.893850326538086,-2.928323984146118,-1.8526068925857544,-21.888683319091797,-34.959510803222656, -6.082682132720947
263,895241240,0.6694794,-0.10018146,-0.7209939,0.14808322,9.68259334564209,-2.5646536350250244,-1.2472552061080933,-19.654502868652344,-33.86942672729492, -7.098176956176758
264,895257907,0.6656035,-0.10063328,-0.7250777,0.14528371,9.753646850585938,-2.721318483352661,-1.1695950031280518,-22.24931526184082,-34.92573928833008, -8.876291275024414
265,895274574,0.6615012,-0.10129007,-0.7292872,0.1424669,9.52486801147461,-3.223012924194336,-0.9488980770111084,-23.5673770904541,-36.442073822021484, -7.790168285369873
266,895291241,0.65728563,-0.10116372,-0.73341787,0.14085418,9.523845672607422,-3.1889588832855225,-0.9451496005058289,-13.982222557067871,-38.28728103637695, -6.077404499053955
267,895307908,0.65280056,-0.10060465,-0.73770803,0.13970326,9.941276550292969,-2.6329047679901123,-0.9453127980232239,-10.052024841308594,-41.137447357177734, -6.026233196258545
268,895324575,0.6476513,-0.101360485,-0.7426196,0.1370772,9.936919212341309,-2.34796142578125,-1.0598753690719604,-24.502328872680664,-45.042903900146484, -5.765376091003418
269,895341242,0.64189667,-0.10195997,-0.74792826,0.13481958,9.532819747924805,-3.9992787837982178,-0.39566999673843384,-22.731338500976562,-50.33431625366211, -4.6222076416015625
270,895357909,0.635066,-0.1015832,-0.75400966,0.13357267,8.6305570602417,-3.2627978324890137,-0.787126898765564,-14.7102689743042,-60.92565155029297, -4.73904275894165
271,895374576,0.62636375,-0.10062207,-0.76149046,0.13295147,9.91850757598877,-3.7013370990753174,-0.19564321637153625,-11.517399787902832,-77.73957824707031, -4.30365514755249
272,895391243,0.6157687,-0.09962387,-0.7702691,0.1326259,11.695287704467773,-1.5595715045928955,-0.8889011144638062,-12.320170402526855,-93.51485443115234, -2.3999979496002197
273,895407910,0.60258055,-0.09969755,-0.78110844,0.129718,12.879313468933105,0.16805903613567352,-0.16183079779148102,-34.1967887878418,-113.26058197021484, -6.6821980476379395
274,895424577,0.58690673,-0.09765455,-0.7934079,0.12848401,12.143835067749023,-1.5126980543136597,0.18793462216854095,-19.44621467590332,-135.74314880371094, -9.858589172363281
275,895441244,0.56854814,-0.09335112,-0.80673355,0.1312252,12.28443717956543,-2.573582410812378,1.3885384798049927,15.236632347106934,-161.39761352539062, -6.755002498626709
276,895457911,0.54713565,-0.088781744,-0.82133776,0.134778,12.867572784423828,-2.7256503105163574,2.5477535724639893,15.085636138916016,-183.35031127929688, -2.4377999305725098
277,895474578,0.522471,-0.086682715,-0.8374185,0.13505736,15.206380844116211,-4.069860458374023,6.04122257232666,-20.712785720825195,-201.52333068847656, 3.249229907989502
278,895491245,0.49541038,-0.08679049,-0.85441405,0.13043381,21.70766258239746,-6.7791643142700195,10.025422096252441,-62.14532470703125,-212.751953125, 1.710078239440918
279,895507912,0.47009474,-0.08867739,-0.8694275,0.12346279,24.110445022583008,-5.161555290222168,13.157719612121582,-75.65422821044922,-194.19371032714844, 1.7951807975769043
280,895524579,0.44726646,-0.09465571,-0.8831266,0.10526306,20.36804962158203,0.8873957991600037,12.289257049560547,-153.45370483398438,-165.0129852294922, -11.336820602416992
281,895541246,0.41834405,-0.10529794,-0.8985702,0.08044942,12.246280670166016,-7.231194496154785,-6.351494789123535,-213.2423095703125,-199.953125, -0.05007510632276535
282,895557913,0.38906533,-0.11033496,-0.9120926,0.06739241,19.403907775878906,-13.609942436218262,5.549459934234619,-123.65901947021484,-208.20741271972656, 0.654328465461731
283,895574580,0.36559138,-0.111873314,-0.9219416,0.06205797,13.44659423828125,-7.803383827209473,3.2593576908111572,-59.859962463378906,-169.5922088623047, -0.6103946566581726
284,895591247,0.34905618,-0.11370314,-0.9283981,0.057519443,10.969073295593262,-9.092016220092773,2.3826093673706055,-48.81757736206055,-117.64320373535156, 2.853360176086426
285,895607914,0.34284595,-0.11415761,-0.93074,0.056104966,10.047343254089355,-3.056481122970581,7.998629570007324,-15.942098617553711,-44.899845123291016, 0.6595771312713623
286,895624581,0.34526312,-0.11468531,-0.9298014,0.055767797,6.619279384613037,-4.991799831390381,7.257782936096191,-1.2102267742156982,17.13212776184082, 2.916975498199463
287,895641248,0.35657504,-0.11469832,-0.9250938,0.06245076,5.481917381286621,-6.067411422729492,4.069613933563232,53.30832290649414,77.15962219238281, 15.83663558959961
288,895657915,0.37550363,-0.11205853,-0.91704726,0.073920995,4.464691162109375,-4.173619747161865,3.0728864669799805,97.66780853271484,128.87088012695312, 10.04507064819336
289,895674582,0.4014713,-0.110225074,-0.90525186,0.084797435,5.021943092346191,-3.748929500579834,2.676752805709839,99.15924835205078,183.81756591796875, 12.902870178222656
290,895691249,0.43386793,-0.10849081,-0.8893158,0.095424965,6.303991317749023,-2.6536593437194824,2.013160228729248,104.62139129638672,235.53379821777344, 12.215201377868652
291,895707916,0.4715412,-0.10827902,-0.8690744,0.103124164,7.702637672424316,-1.3889493942260742,1.2600079774856567,88.94013977050781,283.85247802734375, 12.535704612731934
292,895724583,0.5131239,-0.11038841,-0.8444187,0.10712363,8.378463745117188,-0.2129918485879898,-0.1119876503944397,65.35948181152344,325.9579162597656, 14.926613807678223
293,895741250,0.557977,-0.11498854,-0.8144761,0.10985514,10.83484935760498,-1.2292213439941406,-1.6112823486328125,55.61085510253906,366.4595947265625, 26.53026008605957
294,895757917,0.6048826,-0.1184303,-0.77892137,0.11564273,12.44329833984375,-1.0701377391815186,-3.534057378768921,83.07014465332031,396.27044677734375, 34.665687561035156
295,895774584,0.6509561,-0.120451614,-0.7392283,0.123651125,15.224719047546387,0.7580332159996033,-5.751241207122803,103.52620697021484,406.1685485839844, 40.35201644897461
296,895791251,0.69487965,-0.11979638,-0.6964852,0.13303964,18.61637306213379,-2.1810972690582275,-10.858183860778809,123.38008880615234,405.5771789550781, 37.341270446777344
297,895807918,0.73585814,-0.11050485,-0.6523466,0.14403327,22.873502731323242,-0.9821581840515137,-13.467439651489258,171.26861572265625,389.0921936035156, 7.53226375579834
298,895824585,0.77037805,-0.10425636,-0.6122707,0.14412884,23.75456428527832,0.37823647260665894,-14.650335311889648,98.07324981689453,351.02557373046875, -30.579832077026367
299,895841252,0.79687214,-0.10412294,-0.57911175,0.1370505,18.193405151367188,-5.6144490242004395,-18.787803649902344,22.90791130065918,292.01373291015625, -39.74410629272461
300,895857919,0.81460696,-0.106836714,-0.55448234,0.13247949,13.625872611999512,-6.9501824378967285,-20.672786712646484,3.088528871536255,211.5699005126953, -12.514605522155762
301,895874586,0.8248539,-0.108594075,-0.5386993,0.13276498,10.526654243469238,-3.2034876346588135,-21.945777893066406,13.535057067871094,129.3460235595703, 11.335472106933594
302,895891253,0.827437,-0.10756693,-0.5346858,0.13374953,7.933615684509277,-0.531535804271698,-22.833831787109375,15.573965072631836,31.469314575195312, 3.1994051933288574
303,895907920,0.8220021,-0.10148231,-0.54308397,0.13810787,8.115379333496094,-3.156085729598999,-21.418249130249023,39.52156448364258,-75.44939422607422, 2.0092971324920654
304,895924587,0.8100599,-0.087606296,-0.5599972,0.15010384,10.035874366760254,-4.368919849395752,-17.684730529785156,99.58616638183594,-160.32786560058594, 16.275211334228516
305,895941254,0.7973708,-0.07420304,-0.5755152,0.16575852,22.32178497314453,-13.362663269042969,17.699907302856445,112.14960479736328,-156.90866088867188, 40.004180908203125
306,895957921,0.78699535,-0.052919764,-0.5861614,0.18507458,17.851022720336914,14.965758323669434,4.535085678100586,176.55799865722656,-132.0862274169922, 28.59539031982422
307,895974588,0.7723738,-0.06569128,-0.60731834,0.1740345,8.953056335449219,1.6398396492004395,-13.036479949951172,-145.1158905029297,-151.72283935546875, 3.410752534866333
308,895991255,0.756073,-0.07745444,-0.6272394,0.17007488,14.334100723266602,-14.886088371276855,-1.8436880111694336,-109.40061950683594,-156.40916442871094, 39.45970916748047
309,896007922,0.7425454,-0.072853036,-0.6416288,0.17785235,9.465492248535156,-0.4868100881576538,-3.4174869060516357,34.31316375732422,-141.0519256591797, 29.450265884399414
310,896024589,0.73191494,-0.070489466,-0.6526494,0.18270446,11.25862979888916,0.379159539937973,-0.2789178192615509,15.570480346679688,-106.8431396484375, 22.5374698638916
311,896041256,0.722631,-0.07234794,-0.66164273,0.18654533,12.443535804748535,-2.3695876598358154,-0.6454906463623047,-7.016579627990723,-84.82941436767578, 35.72663116455078
312,896057923,0.7150608,-0.07672363,-0.6692044,0.18699501,9.313815116882324,-2.9201948642730713,0.18486201763153076,-32.254276275634766,-65.02549743652344, 28.865217208862305
313,896074590,0.70878696,-0.082975045,-0.67587495,0.18419951,8.657963752746582,-7.014363765716553,-0.6668126583099365,-54.58047866821289,-50.599544525146484, 20.355243682861328
314,896091257,0.70366263,-0.08655527,-0.68102396,0.18323079,10.827964782714844,-2.4629881381988525,-0.03644441440701485,-30.48637580871582,-42.29598617553711, 16.206459045410156
315,896107924,0.69889957,-0.09295617,-0.6862661,0.17871135,10.545750617980957,-2.50647234916687,-0.8694964647293091,-60.66995620727539,-35.42627716064453, 11.758173942565918
316,896124591,0.69479233,-0.09677951,-0.6905759,0.17607489,10.16478157043457,-3.779935359954834,-1.490876317024231,-37.838523864746094,-32.24521255493164, 8.466500282287598
317,896141258,0.69168,-0.09884631,-0.693943,0.17392935,9.970196723937988,-3.7979557514190674,-1.2170045375823975,-25.31474494934082,-25.48467445373535, 1.8993631601333618
318,896157925,0.6888805,-0.10242272,-0.6973835,0.16914397,10.33454704284668,-2.366758346557617,-1.0500075817108154,-44.97021484375,-20.75950050354004, -3.8698174953460693
319,896174592,0.68593806,-0.10723543,-0.70112705,0.16251276,9.525054931640625,-3.8857192993164062,-0.709882915019989,-60.13832092285156,-20.16332244873047, -6.695908546447754
320,896191259,0.6832145,-0.110531814,-0.704482,0.15718158,9.403496742248535,-3.7054271697998047,-0.5237874984741211,-46.13614273071289,-19.955406188964844, -7.825915813446045
321,896207926,0.68018806,-0.11311162,-0.7080833,0.15221049,9.576650619506836,-2.7276928424835205,-0.8263340592384338,-41.535987854003906,-23.657609939575195, -9.460859298706055
322,896224593,0.6762647,-0.116123855,-0.7124328,0.14704081,9.44002914428711,-3.226813554763794,-0.3593980371952057,-46.01588821411133,-30.94148063659668, -7.908353328704834
323,896241260,0.67144746,-0.11853137,-0.71745867,0.14269479,9.154422760009766,-3.770444869995117,0.6705648303031921,-40.57976531982422,-39.76728439331055, -6.669149875640869
324,896257927,0.6661755,-0.12128962,-0.7225687,0.1392616,8.797380447387695,-4.78934907913208,1.0831741094589233,-38.167964935302734,-42.85163497924805, -0.35244765877723694
325,896274594,0.6594036,-0.12533891,-0.72933775,0.1324527,9.326729774475098,-2.528195381164551,-0.8656756281852722,-63.715728759765625,-53.912559509277344, -9.370190620422363
326,896291261,0.6514804,-0.12773107,-0.73685235,0.12769796,9.37265396118164,-3.341710329055786,-0.7491728067398071,-47.5799446105957,-66.37350463867188, -7.942865371704102
327,896307928,0.6426356,-0.12562892,-0.7449633,0.1275414,10.232392311096191,-1.629682183265686,-0.7282993793487549,-5.494568824768066,-81.72776794433594, -9.835129737854004
328,896324595,0.6319411,-0.12379153,-0.754443,0.12705049,11.338618278503418,-1.001758098602295,0.22281797230243683,-11.179821968078613,-96.76387786865234, -9.493514060974121
329,896341262,0.6191125,-0.12313351,-0.76541024,0.12524003,12.341775894165039,-2.0157063007354736,0.4130268692970276,-26.272567749023438,-112.20542907714844, -8.46951961517334
330,896357929,0.60406077,-0.120575026,-0.7777639,0.12512304,12.837286949157715,-1.76858651638031,-0.14907512068748474,-12.356873512268066,-132.95269775390625, -10.493406295776367
331,896374596,0.5865526,-0.11639819,-0.7915172,0.1261281,12.461081504821777,-0.9285276532173157,0.3886137306690216,-2.879021167755127,-154.29977416992188, -13.504003524780273
332,896391263,0.5664041,-0.11115087,-0.8064512,0.12832972,12.60580062866211,-2.096001625061035,1.255986213684082,4.813643932342529,-175.4073944091797, -13.119998931884766
333,896407930,0.5437528,-0.10579231,-0.8221632,0.13110645,13.489415168762207,-2.971372127532959,2.780719518661499,5.825191974639893,-192.9711151123047, -9.864507675170898
334,896424597,0.5183125,-0.101896256,-0.8389211,0.13107565,14.992995262145996,-3.3120267391204834,5.92571496963501,-24.1429443359375,-207.46372985839844, -7.569756984710693
335,896441264,0.491373,-0.101712726,-0.85602045,0.12424334,19.09294891357422,-5.527174472808838,10.851091384887695,-72.41638946533203,-211.45664978027344, -12.017730712890625
336,896457931,0.46631315,-0.104021974,-0.8710869,0.11375026,22.989187240600586,-5.828541278839111,13.414810180664062,-99.44799041748047,-189.22940063476562, -9.890236854553223
337,896474598,0.44511804,-0.1082214,-0.88370657,0.09602526,18.790599822998047,-1.0430448055267334,8.598616600036621,-144.28817749023438,-152.0894775390625, -23.0174503326416
338,896491265,0.41611555,-0.11681644,-0.8990525,0.070046626,14.200798034667969,-9.171537399291992,-4.912741661071777,-215.58258056640625,-199.25730895996094, -18.422300338745117
339,896507932,0.3888887,-0.117047295,-0.9116801,0.062493667,18.110910415649414,-15.002665519714355,6.913748264312744,-75.03575897216797,-199.41152954101562, -16.21004295349121
340,896524599,0.36615083,-0.11740526,-0.92114305,0.060374483,12.849363327026367,-10.653679847717285,2.810319423675537,-36.57442092895508,-167.4876708984375, -0.423063188791275
341,896541266,0.35043177,-0.11585574,-0.92730856,0.062241554,12.320266723632812,-9.028929710388184,2.1380703449249268,0.341735303401947,-118.96017456054688, -2.8110954761505127
342,896557933,0.34428874,-0.11768789,-0.9295925,0.058929503,10.8446683883667,-1.3829127550125122,6.50494909286499,-31.688486099243164,-43.19008255004883, 5.196094989776611
343,896574600,0.3456531,-0.11902663,-0.9292911,0.05267663,6.532509803771973,-2.9292144775390625,7.151801586151123,-42.24333572387695,12.839487075805664, -5.861238479614258
344,896591267,0.35517064,-0.12199667,-0.9254863,0.049456637,6.184541702270508,-4.897830486297607,4.132973670959473,-18.87859344482422,71.18305969238281, 11.638555526733398
345,896607934,0.37200516,-0.12372989,-0.9184677,0.052156918,4.42753791809082,-4.836007595062256,1.9592969417572021,28.941246032714844,120.07701110839844, 18.370752334594727
346,896624601,0.39577037,-0.1247033,-0.9079286,0.058999185,4.6823835372924805,-5.377974987030029,2.340743064880371,64.1148681640625,168.99937438964844, 24.62233543395996
347,896641268,0.42616093,-0.12516947,-0.89318025,0.07034863,5.334682464599609,-3.898733377456665,2.157386302947998,100.93035888671875,217.69166564941406, 34.5943603515625
348,896657935,0.46184522,-0.12666267,-0.87415934,0.08063126,6.865535259246826,-2.7207815647125244,1.0407600402832031,97.92276000976562,264.0865478515625, 38.866493225097656
349,896674602,0.5021944,-0.13014145,-0.8503281,0.088352755,7.9693098068237305,-1.6473145484924316,0.3426061272621155,82.90461730957031,310.6979675292969, 44.25123596191406
350,896691269,0.5467723,-0.13515899,-0.82089096,0.094393365,9.299468040466309,-1.2237119674682617,-1.2537612915039062,74.92584228515625,357.2132263183594, 49.87491989135742
351,896707936,0.5942462,-0.14023605,-0.7854476,0.10137829,10.8441801071167,-1.387304663658142,-3.0729241371154785,86.61951446533203,395.34173583984375, 57.45663833618164
352,896724603,0.643272,-0.1423128,-0.74377614,0.1128959,13.54615592956543,0.22096073627471924,-4.486196517944336,129.23301696777344,422.8061218261719, 64.71543884277344
353,896741270,0.6897642,-0.14489083,-0.6990801,0.120495796,19.024934768676758,1.6159998178482056,-8.151336669921875,106.85346221923828,427.5414733886719, 54.946014404296875
354,896757937,0.733349,-0.14095908,-0.6525888,0.12828769,25.91314697265625,-3.5964362621307373,-14.507051467895508,137.31472778320312,416.69976806640625, 28.913803100585938
355,896774604,0.77154857,-0.12955196,-0.6088266,0.131375,26.336036682128906,-0.7193019390106201,-17.06108856201172,146.4181671142578,377.1117248535156, -26.13685417175293
356,896791271,0.80040526,-0.1217695,-0.5729263,0.12759067,19.95703125,-6.564715385437012,-20.11014175415039,83.12480926513672,306.166259765625, -45.77386474609375
357,896807938,0.8193246,-0.119443096,-0.5461996,0.12691173,15.215115547180176,-5.331911087036133,-22.11258316040039,49.190467834472656,219.32220458984375, -6.129365921020508
358,896824605,0.8295879,-0.12234073,-0.5298787,0.12667051,10.225587844848633,-0.9657928347587585,-24.02642822265625,5.471685886383057,133.0701141357422, 14.970602989196777
359,896841272,0.8307625,-0.12713082,-0.52756065,0.12389916,7.664823055267334,-1.82442307472229,-24.711872100830078,-34.1323356628418,24.55606460571289, 3.6458687782287598
360,896857939,0.8237127,-0.12662224,-0.537967,0.12671119,8.218214988708496,-6.483047962188721,-21.283164978027344,-1.3608266115188599,-86.6690444946289, 12.240926742553711
361,896874606,0.81130743,-0.11611497,-0.55588114,0.13890302,10.801445007324219,-3.069720983505249,-14.988920211791992,79.08301544189453,-165.2825469970703, 26.407739639282227
362,896891273,0.7993887,-0.10440198,-0.5717372,0.15229715,25.61662483215332,-2.088151693344116,17.488597869873047,92.98164367675781,-153.5696258544922, 29.626161575317383
363,896907940,0.7896953,-0.081304766,-0.5834615,0.1712995,16.61276626586914,12.894794464111328,1.6433558464050293,183.4118194580078,-138.26881408691406, 16.411144256591797
364,896924607,0.77453935,-0.08232503,-0.6029995,0.17234571,7.725001335144043,-4.0795745849609375,-15.035292625427246,-31.946434020996094,-164.04360961914062, 18.12465476989746
365,896941274,0.7584652,-0.08036946,-0.62039584,0.18270338,20.1397647857666,-6.800736427307129,0.8608375787734985,24.78235626220703,-164.7962646484375, 57.60807800292969
366,896957941,0.7458957,-0.07226664,-0.63362825,0.19217834,5.4308762550354,-2.897930860519409,-0.5402749180793762,60.34134292602539,-135.26075744628906, 24.622962951660156
367,896974608,0.7351074,-0.07488902,-0.6455157,0.19317983,8.570788383483887,-2.9992077350616455,1.0788538455963135,-28.86114501953125,-102.19309997558594, 26.13703727722168
368,896991275,0.7257748,-0.079099625,-0.6558118,0.19210748,9.935215950012207,-5.020638465881348,0.4506685733795166,-43.19900131225586,-84.5309829711914, 21.597036361694336
369,897007942,0.7175464,-0.08043286,-0.66442984,0.19284922,11.258318901062012,-4.618683338165283,-0.19141896069049835,-17.80669403076172,-75.9645004272461, 17.096559524536133
370,897024609,0.71066064,-0.074545786,-0.67072946,0.19881305,9.700905799865723,-5.041294097900391,-0.8277571201324463,45.52183151245117,-70.82805633544922, 9.339312553405762
371,897041276,0.70407987,-0.06839236,-0.6765682,0.20457132,10.414533615112305,-1.0531303882598877,-0.22366981208324432,46.69482421875,-67.39037322998047, 6.836250305175781
372,897057943,0.6974066,-0.06858807,-0.6838158,0.20326309,10.04117488861084,-1.8025308847427368,-0.8506665825843811,-18.928016662597656,-62.370582580566406, 1.6855907440185547
373,897074610,0.6908642,-0.06990238,-0.691055,0.2006571,9.784505844116211,-3.620943069458008,-1.2264825105667114,-30.30299949645996,-59.51559066772461, 0.6047573089599609
374,897091277,0.6853143,-0.0678742,-0.69665694,0.20101374,9.686843872070312,-3.5970470905303955,-1.943605899810791,2.4080591201782227,-53.02667236328125, -1.7859654426574707
375,897107944,0.6804132,-0.066411406,-0.7016581,0.20075718,9.910350799560547,-2.4371352195739746,-0.908429741859436,-2.034156560897827,-45.96860122680664, -2.5926198959350586
376,897124611,0.67581546,-0.06719687,-0.7066755,0.19841312,10.332042694091797,-2.790769577026367,-0.4394097328186035,-22.497060775756836,-40.51089096069336, -1.8991191387176514
377,897141278,0.6712337,-0.06808115,-0.71167415,0.19578075,9.789934158325195,-3.463132619857788,-0.6567124128341675,-24.321609497070312,-40.08523178100586, -2.7279913425445557
378,897157945,0.6664551,-0.06753527,-0.71651006,0.1946541,9.063675880432129,-3.267690658569336,-0.414897620677948,-10.222585678100586,-42.931705474853516, -2.4238362312316895
379,897174612,0.6610359,-0.0671052,-0.7218123,0.19368939,9.289658546447754,-2.9954733848571777,-0.21936309337615967,-10.876487731933594,-48.15834426879883, -0.4681144952774048
380,897191279,0.65478426,-0.067395136,-0.7278825,0.19210064,9.921697616577148,-2.70343017578125,0.006294339895248413,-18.65366554260254,-54.560081481933594, 1.037537693977356
381,897207946,0.6475564,-0.068486825,-0.73475933,0.19002424,10.097049713134766,-2.8394076824188232,-0.35097411274909973,-26.22250747680664,-61.835445404052734, 3.804718494415283
382,897224613,0.6395664,-0.07113447,-0.7419708,0.1880803,9.572609901428223,-4.608780860900879,0.42785030603408813,-33.270225524902344,-65.24613189697266, 13.129280090332031
383,897241280,0.6300697,-0.07410612,-0.75085944,0.18365943,10.18906307220459,-1.8821059465408325,-0.20002025365829468,-50.24674606323242,-78.75328063964844, 5.000168323516846
384,897257947,0.6196313,-0.07713799,-0.7601611,0.1796168,10.865888595581055,-2.1605029106140137,-0.1401265561580658,-49.550228118896484,-85.58833312988281, 8.004419326782227
385,897274614,0.6076721,-0.07905512,-0.77035844,0.17616157,12.379781723022461,-0.9439370036125183,-1.0184508562088013,-43.638343811035156,-99.12586975097656, 6.15287971496582
386,897291281,0.5939779,-0.08023939,-0.78164995,0.17255545,12.366921424865723,-1.2225006818771362,-0.7410899996757507,-43.61625671386719,-113.77094268798828, 3.265143632888794
387,897307948,0.57834613,-0.07945877,-0.7937428,0.17080595,12.081486701965332,-1.8664125204086304,0.3315548002719879,-27.608928680419922,-130.91383361816406, 2.241835355758667
388,897324615,0.56025416,-0.07693585,-0.8067555,0.17129509,11.51584529876709,-2.744879961013794,0.669400155544281,-10.87607479095459,-151.4166259765625, 4.078084468841553
389,897341282,0.53913724,-0.07529008,-0.821201,0.17114674,12.725207328796387,-3.3476030826568604,2.4197633266448975,-21.077634811401367,-172.52035522460938, 9.306644439697266
390,897357949,0.5152451,-0.078031056,-0.8370253,0.1668005,14.800970077514648,-4.566755294799805,5.517317771911621,-54.68948745727539,-190.01318359375, 16.561065673828125
391,897374616,0.4885563,-0.08249651,-0.8542275,0.15748917,20.874855041503906,-6.161243438720703,10.474719047546387,-100.31288146972656,-203.70864868164062, 14.979551315307617
392,897391283,0.46257854,-0.09017365,-0.87017846,0.14380325,23.397056579589844,-4.721347332000732,12.809819221496582,-136.8882293701172,-189.4496307373047, 20.070884704589844
393,897407950,0.4405925,-0.10075445,-0.88387805,0.120359756,20.546789169311523,1.4024418592453003,10.36295223236084,-200.03982543945312,-150.4073944091797, 3.9568512439727783
394,897424617,0.41545644,-0.11207846,-0.8984744,0.08705514,14.595837593078613,-4.8479485511779785,-6.621252536773682,-265.2474365234375,-165.69906616210938, -19.25798988342285
395,897441284,0.3861864,-0.11657185,-0.91257703,0.06689046,16.975631713867188,-16.81294059753418,4.997757911682129,-167.3775177001953,-204.26443481445312, -21.185701370239258
396,897457951,0.36388487,-0.115896456,-0.92180794,0.066528685,12.216341018676758,-9.141923904418945,3.6292011737823486,-21.9648380279541,-166.43524169921875, -0.7024595737457275
397,897474618,0.34985366,-0.1159599,-0.9274065,0.06382024,12.1193265914917,-5.616017818450928,2.8799209594726562,-30.689802169799805,-103.15330505371094, -2.932889223098755
398,897491285,0.3462221,-0.119070694,-0.92879045,0.057453226,9.139582633972168,-3.0119388103485107,8.43030071258545,-51.388450622558594,-22.87493324279785, 6.418429374694824
399,897507952,0.35093796,-0.12262859,-0.92673916,0.054399386,5.447192192077637,-6.764244556427002,7.361227035522461,-23.28246307373047,35.590946197509766, 16.632118225097656
400,897524619,0.3637918,-0.12685262,-0.92089057,0.059368357,5.018313407897949,-6.251675605773926,2.6248185634613037,34.21597671508789,89.76171875, 40.261112213134766
401,897541286,0.3835506,-0.13063638,-0.91186863,0.06571795,4.577084064483643,-4.100703716278076,2.780860424041748,51.12055206298828,139.85806274414062, 40.778167724609375
402,897557953,0.4103619,-0.135377,-0.8988992,0.07250024,5.256858825683594,-3.9003002643585205,2.9649434089660645,59.22607421875,194.37924194335938, 48.225730895996094
403,897574620,0.44345692,-0.13986772,-0.88163364,0.08065445,6.876326084136963,-1.8912789821624756,2.4287021160125732,76.2008285522461,243.78057861328125, 51.36619567871094
404,897591287,0.48087826,-0.14553626,-0.8603518,0.08584916,8.25723648071289,-0.6934331059455872,0.7416832447052002,60.8979606628418,285.58514404296875, 50.9412841796875
405,897607954,0.5215464,-0.15094271,-0.8349023,0.09024465,8.23039436340332,-0.22281818091869354,-0.6050245761871338,62.63446807861328,319.09405517578125, 49.019447326660156
406,897624621,0.5652318,-0.15412351,-0.80470043,0.09600084,11.577719688415527,-0.3716304898262024,-1.7216713428497314,84.43199157714844,350.62457275390625, 44.2144775390625
407,897641288,0.61072445,-0.15369265,-0.76977,0.10415582,13.742781639099121,-0.7509181499481201,-2.9654226303100586,116.72135162353516,374.05865478515625, 37.4642333984375
408,897657955,0.6568381,-0.15070637,-0.72996354,0.11403872,16.201831817626953,-0.3183283507823944,-4.350992679595947,140.6986083984375,394.228759765625, 36.04176330566406
409,897674622,0.70069623,-0.14863963,-0.6872854,0.12070618,18.663068771362305,0.054216235876083374,-8.684149742126465,120.25508117675781,400.070068359375, 31.058467864990234
410,897691289,0.7414371,-0.1442176,-0.64334416,0.124822855,21.14092254638672,-0.7551325559616089,-12.777830123901367,117.42438507080078,392.4525451660156, 11.72055435180664
411,897707956,0.7761172,-0.14132753,-0.60275096,0.11983367,23.77585792541504,0.7079712152481079,-13.477384567260742,60.52484893798828,359.49346923828125, -25.862829208374023
412,897724623,0.8030563,-0.14292553,-0.56831974,0.10810099,19.615211486816406,-6.067476272583008,-16.279783248901367,-3.8715438842773438,305.46453857421875, -42.608131408691406
413,897741290,0.8225527,-0.14088596,-0.5408973,0.10482561,14.067625045776367,-8.752737045288086,-18.867246627807617,37.010353088378906,227.49407958984375, -11.492116928100586
414,897757957,0.8352494,-0.13394369,-0.521897,0.10973228,10.928343772888184,-2.2815680503845215,-21.20221710205078,82.88953399658203,144.05264282226562, 13.159897804260254
415,897774624,0.839937,-0.12667935,-0.5152069,0.11410569,8.730461120605469,1.4642289876937866,-23.01408576965332,66.5031509399414,45.87623977661133, 3.7129275798797607
416,897791291,0.8355363,-0.1201991,-0.522702,0.11922198,8.011640548706055,-3.0448989868164062,-22.018281936645508,45.90175247192383,-67.2282943725586, 5.717752933502197
417,897807958,0.82430226,-0.10536025,-0.5401992,0.1327021,10.070284843444824,-5.108626842498779,-18.97557830810547,110.59210968017578,-162.0361328125, 21.023244857788086
418,897824625,0.8099576,-0.08796354,-0.5608342,0.14729586,14.50482177734375,-5.120855808258057,3.1881308555603027,124.57228088378906,-193.60366821289062, 18.227149963378906
419,897841292,0.7995408,-0.06436035,-0.57192934,0.17172402,27.413637161254883,3.19565486907959,19.349300384521484,209.2399139404297,-137.42201232910156, 50.675018310546875
420,897857959,0.7867094,-0.06438568,-0.5901268,0.16939093,10.18701457977295,11.915877342224121,-9.963757514953613,-35.62389373779297,-146.53973388671875, -3.4605534076690674
421,897874626,0.7697445,-0.08168491,-0.6129716,0.15838887,9.351497650146484,-11.228514671325684,-7.29658842086792,-171.43084716796875,-164.05616760253906, 23.133729934692383
422,897891293,0.7555251,-0.07783008,-0.62840414,0.16802517,13.39050006866455,-5.458146572113037,-2.7276368141174316,37.50453567504883,-147.52554321289062, 44.091552734375
423,897907960,0.7434773,-0.07153779,-0.64106107,0.176535,10.803861618041992,1.3805423974990845,-0.6659914255142212,49.85906982421875,-125.71392059326172, 26.554677963256836
424,897924627,0.732887,-0.07903637,-0.6525577,0.17549507,11.54906177520752,-1.3644344806671143,0.39892542362213135,-60.52593231201172,-91.85153198242188, 37.487518310546875
425,897941294,0.7241278,-0.08588942,-0.6617151,0.17434272,10.296573638916016,-4.264583587646484,-0.6339998841285706,-53.88035583496094,-72.58334350585938, 33.219600677490234
426,897957961,0.7164721,-0.093666255,-0.6699932,0.17030396,8.846323013305664,-6.3879899978637695,0.31243208050727844,-69.81790161132812,-60.36814880371094, 22.261295318603516
427,897974628,0.7100264,-0.09473688,-0.6766535,0.17037575,8.116473197937012,-8.151288986206055,-0.4157254695892334,-15.112637519836426,-57.36417007446289, 11.134310722351074
428,897991295,0.7040132,-0.09037232,-0.6825267,0.17422871,10.507040023803711,-3.960219144821167,-0.3009631931781769,30.272361755371094,-60.3299674987793, 4.0715179443359375
429,898007962,0.6977898,-0.086224794,-0.6890722,0.17559727,9.738731384277344,-3.2155818939208984,-1.0972247123718262,16.653697967529297,-62.754310607910156, -7.157742977142334
430,898024629,0.6916543,-0.082354255,-0.69554776,0.1761971,10.026917457580566,-2.4585282802581787,-1.7725149393081665,11.845918655395508,-61.173954010009766, -9.62778091430664
431,898041296,0.68604696,-0.07920734,-0.7014734,0.17607072,10.14775276184082,-1.9634947776794434,-1.1542491912841797,5.928336143493652,-54.688446044921875, -9.939361572265625
432,898057963,0.6809108,-0.07657418,-0.70687443,0.17557178,10.176240921020508,-2.3647987842559814,-1.3627763986587524,2.615630626678467,-49.09638977050781, -9.465179443359375
433,898074630,0.67627436,-0.07539941,-0.7118273,0.17398234,9.730998992919922,-2.3456716537475586,-0.7182963490486145,-8.692253112792969,-42.21686553955078, -7.818662643432617
434,898091297,0.6716209,-0.07590818,-0.71684796,0.17115033,10.08853530883789,-2.5068249702453613,-0.9834615588188171,-22.687232971191406,-39.98028564453125, -5.331873893737793
435,898107964,0.6666337,-0.07623501,-0.7220352,0.16867957,9.984762191772461,-2.7570033073425293,-0.5048970580101013,-20.42864990234375,-42.81896209716797, -4.211650371551514
436,898124631,0.661082,-0.07664079,-0.7275646,0.16657315,9.790631294250488,-2.1594510078430176,-0.18588241934776306,-19.671701431274414,-47.33845520019531, -1.6483268737792969
437,898141298,0.655075,-0.077331446,-0.73347783,0.16403331,10.291993141174316,-2.3996572494506836,0.08325550705194473,-23.815143585205078,-50.87686538696289, -1.8280497789382935
438,898157965,0.64862937,-0.0785109,-0.73970705,0.16108933,10.194243431091309,-3.0456647872924805,-0.5509621500968933,-28.649137496948242,-53.8404655456543, -0.8108701705932617
439,898174632,0.6414645,-0.08026057,-0.7464527,0.15776542,10.306710243225098,-3.8014886379241943,-0.2882937788963318,-34.08000946044922,-59.042179107666016, 0.9323109984397888
440,898191299,0.633852,-0.082087204,-0.75337833,0.15464354,9.337735176086426,-3.067638635635376,-1.657523274421692,-33.82825469970703,-62.260772705078125, 2.5935304164886475
441,898207966,0.6247338,-0.083894104,-0.76166207,0.1501353,10.138139724731445,-2.237074375152588,-0.8595700263977051,-43.196563720703125,-75.26409912109375, -2.7119827270507812
442,898224633,0.6145155,-0.084853835,-0.7703886,0.14721516,10.410375595092773,-2.689286231994629,0.058089062571525574,-32.31761932373047,-84.81282043457031, 0.5950707197189331
443,898241300,0.60214376,-0.0853681,-0.78049463,0.14478733,11.91947078704834,-1.4867695569992065,0.4556763768196106,-30.47785186767578,-102.93294525146484, 1.703473687171936
444,898257967,0.5874819,-0.0849383,-0.79191595,0.14324658,11.957327842712402,-1.9437248706817627,-0.07448236644268036,-24.44794273376465,-122.32003021240234, 1.8860623836517334
445,898274634,0.5700872,-0.08333697,-0.8047206,0.14311057,11.821106910705566,-1.650771975517273,1.0365184545516968,-14.998291015625,-144.9452667236328, 3.0982353687286377
446,898291301,0.5496229,-0.0823358,-0.8189365,0.14310339,12.072320938110352,-2.3677713871002197,1.680445909500122,-9.33398723602295,-170.7969512939453, 5.048022270202637
447,898307968,0.525765,-0.08168219,-0.83458805,0.14269552,14.1651611328125,-3.4436657428741455,4.261102199554443,-20.924800872802734,-193.48422241210938, 9.506329536437988
448,898324635,0.49880388,-0.08098163,-0.8515447,0.13967264,19.336042404174805,-6.2422943115234375,8.627552032470703,-47.75950622558594,-211.88198852539062, 6.448730945587158
449,898341302,0.47195634,-0.08310886,-0.8673493,0.13437098,24.763120651245117,-7.055690765380859,11.248205184936523,-66.56058502197266,-205.21954345703125, 13.938068389892578
450,898357969,0.44907045,-0.09063461,-0.8809807,0.118297614,23.159839630126953,0.006304949522018433,14.366525650024414,-144.30880737304688,-164.43902587890625, 8.776361465454102
451,898374636,0.425118,-0.10662648,-0.89468783,0.08625065,13.728530883789062,-3.4836788177490234,-2.69895339012146,-268.13824462890625,-155.52720642089844, 11.72668743133545
452,898391303,0.39564925,-0.11784365,-0.9088084,0.060348567,16.30579376220703,-13.725616455078125,1.437915325164795,-220.64035034179688,-198.4078369140625, 3.1363584995269775
453,898407970,0.37112948,-0.12549888,-0.9188192,0.047794633,14.817959785461426,-9.015571594238281,0.9497542977333069,-122.1415023803711,-169.14752197265625, 18.028804779052734
454,898424637,0.35271817,-0.13199194,-0.92571485,0.034934554,12.745987892150879,-5.909572601318359,2.845906972885132,-115.07568359375,-123.22791290283203, 10.313959121704102
455,898441304,0.34345958,-0.13922691,-0.9285254,0.022183526,9.493579864501953,-3.5148520469665527,7.024078369140625,-107.10450744628906,-55.483333587646484, 16.613630294799805
456,898457971,0.3423715,-0.14346546,-0.92832696,0.020212693,6.5852556228637695,-7.646631717681885,5.810338020324707,-23.11569595336914,-7.489222049713135, 24.460079193115234
457,898474638,0.35029212,-0.14496663,-0.92481476,0.03159093,5.22036600112915,-5.989496231079102,4.575643539428711,77.54145812988281,43.92507553100586, 40.28528594970703
458,898491305,0.36578783,-0.14600302,-0.9180075,0.04631316,4.073596000671387,-4.1513895988464355,4.485931396484375,107.90296936035156,96.36315155029297, 46.9968147277832
459,898507972,0.38737044,-0.14771384,-0.90788984,0.062136114,3.844545602798462,-4.902087211608887,0.07785430550575256,120.07524871826172,142.04835510253906, 55.445858001708984
460,898524639,0.41458118,-0.14684422,-0.89438057,0.08150144,5.395466327667236,-3.2021522521972656,-0.8754420280456543,156.006591796875,181.5044403076172, 49.83798599243164
461,898541306,0.44626728,-0.14422515,-0.8775682,0.09959279,6.2992634773254395,-1.1934444904327393,-1.2818818092346191,159.3744354248047,218.73861694335938, 36.3709716796875
462,898557973,0.48188198,-0.14055689,-0.8572031,0.11505004,6.564281463623047,-1.076210618019104,-1.7706767320632935,152.9407958984375,255.24005126953125, 22.939424514770508
463,898574640,0.521185,-0.13474543,-0.83263695,0.13009949,7.35240364074707,-1.3742924928665161,-2.3200464248657227,164.46224975585938,289.6459655761719, 10.241154670715332
464,898591307,0.5631836,-0.12681685,-0.8034293,0.1457509,9.567913055419922,-1.7777762413024902,-3.276954412460327,182.0885467529297,319.3511962890625, 2.3107194900512695
465,898607974,0.6066361,-0.115177155,-0.7697223,0.16203263,9.645367622375488,-0.49473002552986145,-4.146155834197998,205.67816162109375,340.6722717285156, -13.118075370788574
466,898624641,0.64973485,-0.10966145,-0.7335986,0.16628937,12.913970947265625,1.6064083576202393,-4.071390151977539,118.81824493408203,365.3960876464844, -28.404504776000977
467,898641308,0.6922924,-0.108961076,-0.69470453,0.16200183,17.86051368713379,-0.8868634700775146,-7.764427661895752,56.895965576171875,387.1737060546875, -39.405059814453125
468,898657975,0.73257184,-0.108549275,-0.6545558,0.15202822,23.220705032348633,-0.5599988698959351,-12.077791213989258,28.046493530273438,387.18634033203125, -61.5338020324707
469,898674642,0.76717174,-0.112307176,-0.6173603,0.13304535,22.1516170501709,-2.958085298538208,-14.023202896118164,-40.78042984008789,358.3775634765625, -84.28044891357422
470,898691309,0.79387075,-0.1136665,-0.58545804,0.118693456,18.562801361083984,-11.879766464233398,-17.282852172851562,-19.263341903686523,291.80023193359375, -66.84324645996094
471,898707976,0.8129764,-0.10699437,-0.56002206,0.11830934,14.58161735534668,-7.6968889236450195,-18.111591339111328,69.92182159423828,209.34109497070312, -22.055618286132812
472,898724643,0.8244844,-0.102858685,-0.5430368,0.121476196,10.55935001373291,-3.568845272064209,-19.33026885986328,57.261070251464844,133.23570251464844, 7.388909816741943
473,898741310,0.8279092,-0.100731365,-0.53761786,0.12404361,7.572582721710205,-3.066235065460205,-21.471973419189453,28.56163787841797,40.522865295410156, 10.034461975097656
474,898757977,0.82251084,-0.09934883,-0.5449458,0.12899634,7.51535177230835,-8.87382698059082,-20.860248565673828,16.52338981628418,-64.71941375732422, 25.02743148803711
475,898774644,0.8110095,-0.08710228,-0.5603127,0.14396794,9.591952323913574,-6.477776050567627,-18.73839569091797,104.70608520507812,-148.62998962402344, 40.623992919921875
476,898791311,0.7975784,-0.075409874,-0.577851,0.15578955,15.205119132995605,4.331166744232178,6.915999412536621,86.600341796875,-164.88658142089844, 25.56047821044922
477,898807978,0.78615034,-0.059945274,-0.59024227,0.17317213,26.060165405273438,8.015717506408691,13.476971626281738,135.85537719726562,-135.6867218017578, 41.802574157714844
478,898824645,0.7724338,-0.054526158,-0.6076712,0.17637666,10.312728881835938,7.5819854736328125,-14.33642578125,16.86295509338379,-154.5853271484375, 7.098289489746094
479,898841312,0.7541374,-0.062911905,-0.629306,0.17689848,16.28095245361328,-11.883660316467285,-2.4720115661621094,-74.26753234863281,-177.70419311523438, 54.89693832397461
480,898857979,0.73920965,-0.050398827,-0.643308,0.19283143,6.767279624938965,-3.3727385997772217,-1.426633596420288,111.81470489501953,-155.43162536621094, 43.251747131347656
481,898874646,0.7262984,-0.048712786,-0.65656555,0.19758417,9.632473945617676,-0.9161632061004639,1.978846549987793,9.144081115722656,-124.419189453125, 31.732215881347656
482,898891313,0.7149017,-0.05269673,-0.66850317,0.19809596,9.09362506866455,-6.668013572692871,-0.13856004178524017,-35.969058990478516,-101.95641326904297, 34.587913513183594
483,898907980,0.70558316,-0.05556058,-0.6781432,0.19795819,9.971808433532715,-2.9088306427001953,-0.33185872435569763,-29.480411529541016,-82.42647552490234, 24.10312843322754
484,898924647,0.6976924,-0.056596052,-0.6858331,0.19913606,10.831865310668945,-5.496455669403076,-1.2643977403640747,-11.22541332244873,-69.32061004638672, 20.76818084716797
485,898941314,0.6906173,-0.051885337,-0.6916792,0.20478195,10.666108131408691,-2.9937188625335693,-0.38115787506103516,40.30781555175781,-66.21334838867188, 14.594864845275879
486,898957981,0.6841126,-0.051410995,-0.698133,0.20483458,9.731779098510742,-2.383896827697754,-0.8611283898353577,-7.035319805145264,-58.44472122192383, 7.146371841430664
487,898974648,0.6781362,-0.051348805,-0.70413405,0.2041811,9.426734924316406,-4.366005897521973,-1.2775403261184692,-11.517959594726562,-52.964698791503906, 5.242302417755127
488,898991315,0.6729041,-0.050449997,-0.70924085,0.20404033,10.013910293579102,-2.8213443756103516,-1.4033530950546265,-3.59509015083313,-46.551876068115234, 2.7978568077087402
489,899007982,0.6681926,-0.05014573,-0.7139428,0.20319912,9.89197063446045,-3.0771067142486572,-1.4950320720672607,-8.996734619140625,-41.0679931640625, 1.8785432577133179
490,899024649,0.6640331,-0.05021994,-0.718115,0.20211159,10.663464546203613,-3.4160244464874268,-0.6138486266136169,-11.0005521774292,-35.320064544677734, 2.0229454040527344
491,899041316,0.66028047,-0.051749606,-0.72231627,0.19902566,10.655653953552246,-2.8253962993621826,-0.6348122954368591,-27.418479919433594,-30.782712936401367, -0.47367122769355774
492,899057983,0.6563215,-0.05451507,-0.7269192,0.1945737,9.755918502807617,-3.126338243484497,-0.7062526345252991,-40.44280242919922,-31.51388931274414, -0.34688881039619446
493,899074650,0.6523196,-0.05726441,-0.73141587,0.19034469,9.45566463470459,-3.472823143005371,-1.3089221715927124,-39.137451171875,-31.41745948791504, 0.707704484462738
494,899091317,0.64817894,-0.05964408,-0.7359655,0.18617633,10.041751861572266,-3.3267087936401367,-1.0617128610610962,-37.29931640625,-32.90323257446289, -0.7073647975921631
495,899107984,0.6439568,-0.06464395,-0.74047637,0.1812061,10.110774040222168,-5.299544334411621,0.6364744901657104,-53.020668029785156,-29.52367401123047, 9.127571105957031
496,899124651,0.63829386,-0.070785284,-0.74656475,0.17381454,8.544347763061523,-2.164717674255371,-1.1004329919815063,-73.04100036621094,-41.48479080200195, 5.283947944641113
497,899141318,0.6311784,-0.07570249,-0.75354713,0.16748026,8.96942138671875,-2.2190239429473877,-0.5706137418746948,-64.01057434082031,-54.91598129272461, 5.002445697784424
498,899157985,0.6224048,-0.079022616,-0.7614952,0.162766,9.843247413635254,-0.9316028356552124,-0.5874755382537842,-50.65900802612305,-70.47899627685547, 5.212048053741455
499,899174652,0.61210096,-0.08151985,-0.7703836,0.15873282,11.227725982666016,-2.0187110900878906,-0.7207005023956299,-45.43962097167969,-83.914794921875, 5.107214450836182
500,899191319,0.6003033,-0.08418387,-0.7802873,0.15395078,12.338337898254395,-0.766340434551239,-0.47590172290802,-52.04070281982422,-95.62235260009766, 3.959216594696045
501,899207986,0.5863939,-0.08667364,-0.79156405,0.14851369,12.161053657531738,-2.2066566944122314,-0.20320740342140198,-57.4863166809082,-112.5813980102539, 1.8723167181015015
502,899224653,0.570673,-0.08743854,-0.8034052,0.14569506,11.902318000793457,-2.4662981033325195,0.39261114597320557,-28.177112579345703,-131.6658935546875, 1.3183506727218628
503,899241320,0.5521621,-0.086806275,-0.81647503,0.14474201,11.53136920928955,-3.0519449710845947,1.123028039932251,-16.281158447265625,-154.293212890625, 2.8868024349212646
504,899257987,0.53065205,-0.086390726,-0.83083785,0.14371392,12.705519676208496,-3.6860005855560303,3.132631778717041,-25.249509811401367,-174.37918090820312, 7.565072536468506
505,899274654,0.50646794,-0.08756294,-0.84631974,0.13987876,14.800416946411133,-4.870322227478027,6.138251304626465,-56.70200729370117,-188.33445739746094, 11.611817359924316
506,899291321,0.48006693,-0.09134413,-0.8626306,0.1306169,21.54813575744629,-7.07542085647583,10.44414234161377,-96.75375366210938,-199.90098571777344, 8.018098831176758
507,899307988,0.4549441,-0.09787579,-0.8772495,0.11781231,23.32400131225586,-3.1883552074432373,13.526131629943848,-124.72419738769531,-182.82711791992188, 12.522701263427734
508,899324655,0.4332742,-0.10689605,-0.8898381,0.09505193,20.463829040527344,2.1908841133117676,8.733323097229004,-188.7784881591797,-147.8932342529297, -4.967566967010498
509,899341322,0.40469977,-0.118588015,-0.9044753,0.06387082,14.118274688720703,-9.16883659362793,-5.792764186859131,-254.70556640625,-189.1432342529297, -10.593768119812012
510,899357989,0.37741762,-0.1220147,-0.916442,0.052941736,19.149267196655273,-13.789740562438965,5.588723659515381,-103.56573486328125,-194.01121520996094, -4.312594890594482
511,899374656,0.3557769,-0.12471241,-0.92505795,0.046232905,13.6763916015625,-7.011653900146484,3.098081588745117,-69.47380065917969,-154.20166015625, 2.490234375
512,899391323,0.34117484,-0.12727068,-0.9304527,0.040740836,11.38819694519043,-8.911745071411133,1.2535886764526367,-54.519996643066406,-103.05380249023438, 4.948040962219238
513,899407990,0.3365673,-0.13084924,-0.931829,0.035996538,10.401897430419922,-1.2938766479492188,6.780452728271484,-42.51142120361328,-30.348020553588867, 13.74836540222168
514,899424657,0.34021202,-0.13475068,-0.9302123,0.02834034,5.986518859863281,-2.900954008102417,7.82296895980835,-53.84553146362305,31.777257919311523, 9.695241928100586
515,899441324,0.35212606,-0.13989606,-0.9251292,0.023929542,5.824633598327637,-5.264030933380127,4.330004692077637,-27.817005157470703,89.77159881591797, 26.745777130126953
516,899457991,0.37158343,-0.14328931,-0.9169039,0.026102182,4.3452839851379395,-4.788872718811035,2.2804393768310547,25.870189666748047,138.62232971191406, 33.20458221435547
517,899474658,0.39804947,-0.14512913,-0.9052348,0.032315426,4.982233047485352,-4.174093246459961,2.8827388286590576,62.667640686035156,187.35231018066406, 35.7942008972168
518,899491325,0.43087038,-0.14590162,-0.88957244,0.04152709,5.772230625152588,-2.6562788486480713,2.325634479522705,91.33819580078125,234.61341857910156, 39.89302062988281
519,899507992,0.46841323,-0.14753185,-0.86973995,0.04874176,7.087340831756592,-1.3561588525772095,0.9338780045509338,82.4025650024414,278.1280517578125, 42.05830383300781
520,899524659,0.50940824,-0.15059948,-0.8455745,0.053167313,7.902861595153809,-1.2324482202529907,-0.05236276984214783,65.97575378417969,316.1050109863281, 44.92063903808594
521,899541326,0.5535331,-0.155093,-0.8163782,0.055442855,9.625826835632324,-1.4357590675354004,-1.1514019966125488,53.499446868896484,354.7876281738281, 49.73611068725586
522,899557993,0.60063297,-0.1570774,-0.7815661,0.061000623,11.353923797607422,-2.2865352630615234,-3.4032156467437744,86.7585678100586,388.5703125, 52.994441986083984
523,899574660,0.6494792,-0.1561885,-0.7409667,0.06892279,15.387136459350586,-1.3946064710617065,-3.9502182006835938,115.64149475097656,418.34912109375, 52.839942932128906
524,899591327,0.69667083,-0.15179218,-0.69674647,0.07844357,19.790494918823242,-0.1962001621723175,-6.707451820373535,139.39634704589844,422.9517517089844, 46.8536491394043
525,899607994,0.73982877,-0.1475142,-0.6509174,0.08485155,21.84634780883789,-4.464729309082031,-13.134013175964355,120.5810317993164,414.9687805175781, 36.49568557739258
526,899624661,0.7781413,-0.13531077,-0.60681736,0.08921773,26.52389907836914,-1.9591307640075684,-14.905153274536133,145.9582061767578,382.4555969238281, -8.274859428405762
527,899641328,0.80715066,-0.13049085,-0.56971407,0.083102666,20.872467041015625,-4.297602653503418,-16.78093147277832,49.85589599609375,321.0414123535156, -34.22860336303711
528,899657995,0.8272396,-0.12844962,-0.54110485,0.07988113,15.842460632324219,-9.647764205932617,-20.67548942565918,33.08013153076172,238.55123901367188, -9.799467086791992
529,899674662,0.8398318,-0.12640178,-0.52140564,0.0827126,11.252446174621582,-3.718538284301758,-21.53317642211914,44.38999938964844,155.29824829101562, 20.71167755126953
530,899691329,0.8440903,-0.12801738,-0.5138604,0.08408761,8.300517082214355,0.6239335536956787,-22.69534683227539,4.078065395355225,59.20085525512695, 19.583629608154297
531,899707996,0.8391215,-0.1311985,-0.5209532,0.085263915,8.472310066223145,-2.2473931312561035,-21.20955467224121,-22.108001708984375,-56.71303176879883, 16.46584701538086
532,899724663,0.8276836,-0.12567043,-0.5386809,0.094709866,9.732621192932129,-4.310565948486328,-17.212738037109375,45.90485382080078,-153.3349609375, 27.159574508666992
533,899741330,0.81293774,-0.10779834,-0.56090343,0.11357527,12.850207328796387,-0.6149064898490906,-10.88349437713623,145.48040771484375,-206.9952850341797, 33.2037467956543
534,899757997,0.8015203,-0.08919798,-0.57626957,0.13237289,24.092117309570312,-6.844733715057373,28.303943634033203,157.2069549560547,-156.08816528320312, 32.43426513671875
535,899774664,0.79143655,-0.055849582,-0.58696526,0.16118602,14.750100135803223,16.24587631225586,-2.5732474327087402,283.1517639160156,-145.15530395507812, 30.738327026367188
536,899791331,0.7752621,-0.05980233,-0.6086698,0.15784025,11.250015258789062,1.5768324136734009,-15.591235160827637,-64.3303451538086,-175.83470153808594, 9.124238967895508
537,899807998,0.7584382,-0.06958249,-0.628179,0.15912618,15.732491493225098,-8.156103134155273,0.622626006603241,-73.77115631103516,-162.15658569335938, 59.89546585083008
538,899824665,0.7443932,-0.070523344,-0.6437818,0.16263579,8.969039916992188,0.079837366938591,-0.9089844226837158,-12.40342903137207,-140.56491088867188, 32.04222106933594
539,899841332,0.7327126,-0.079797775,-0.6570268,0.15836824,9.577319145202637,-4.471123218536377,-0.03022494912147522,-85.68647003173828,-105.00331115722656, 27.658477783203125
540,899857999,0.72339433,-0.08212365,-0.6664296,0.16071115,10.792609214782715,-5.361682891845703,-0.6589772701263428,-15.322232246398926,-86.24529266357422, 29.0620174407959
541,899874666,0.7158082,-0.08249969,-0.6737819,0.16380006,10.508092880249023,-3.228914976119995,0.15056094527244568,1.0479192733764648,-70.74543762207031, 23.01496696472168
542,899891333,0.7088894,-0.08656264,-0.68093634,0.16219921,9.084019660949707,-5.234171390533447,-0.2437916100025177,-38.229835510253906,-59.94736099243164, 16.35665512084961
543,899908000,0.70300794,-0.08820119,-0.6870409,0.1611683,9.106812477111816,-5.512156009674072,-0.4295788109302521,-21.967323303222656,-53.09202575683594, 7.19761848449707
544,899924667,0.6976143,-0.08917667,-0.6925641,0.16042764,10.859216690063477,-3.022594451904297,-0.7576450109481812,-16.46530532836914,-48.956241607666016, 5.221652984619141
545,899941334,0.69243,-0.091589965,-0.6982234,0.15695882,9.901312828063965,-2.8994081020355225,-1.680785894393921,-36.392032623291016,-45.41704559326172, -1.3311718702316284
546,899958001,0.6876246,-0.092217505,-0.703204,0.1554756,9.483207702636719,-3.438366651535034,-1.5434433221817017,-17.40018653869629,-43.59184646606445, -0.43540647625923157
547,899974668,0.682923,-0.09070376,-0.7080278,0.15519558,9.61132526397705,-3.3380002975463867,-1.1656997203826904,-1.241623044013977,-45.448734283447266, -5.132707118988037
548,899991335,0.678009,-0.08890238,-0.7131217,0.15445933,9.155835151672363,-3.6769721508026123,-1.2841386795043945,-2.55184006690979,-47.827640533447266, -8.637429237365723
549,900008002,0.6730749,-0.087152645,-0.7182653,0.15319827,8.851358413696289,-3.840851068496704,-1.3246039152145386,-5.44999361038208,-47.83179473876953, -10.865922927856445
550,900024669,0.66808474,-0.08543295,-0.7233994,0.1518471,9.701735496520996,-3.418929100036621,-0.6347578167915344,-6.077485084533691,-48.02808380126953, -11.098591804504395
551,900041336,0.6631196,-0.083645284,-0.72838116,0.15078765,10.54946517944336,-2.276064157485962,-0.5718289017677307,-4.163558483123779,-47.505611419677734, -10.049712181091309
552,900058003,0.6579642,-0.08203928,-0.73342574,0.14979753,10.135093688964844,-1.6876784563064575,-0.45857489109039307,-4.840047836303711,-48.65448760986328, -8.658051490783691
553,900074670,0.6523083,-0.081182405,-0.73874277,0.14887078,9.593732833862305,-1.9156506061553955,-0.7983383536338806,-8.491204261779785,-51.735015869140625, -4.221590042114258
554,900091337,0.6458668,-0.08157742,-0.7447097,0.14699996,9.92418384552002,-2.0966591835021973,-0.7347231507301331,-20.02004051208496,-56.88474655151367, -1.6513489484786987
555,900108004,0.63834256,-0.083200835,-0.7514919,0.14441761,9.906694412231445,-4.81791877746582,0.7648554444313049,-30.563682556152344,-64.46284484863281, 2.1205198764801025
556,900124671,0.6301661,-0.0836588,-0.7584131,0.14388055,9.195516586303711,-3.75390362739563,-0.6626797914505005,-15.417325019836426,-70.84302520751953, 5.611647605895996
557,900141338,0.6205194,-0.0847585,-0.76662135,0.14164671,10.803693771362305,-2.1061673164367676,-0.34094417095184326,-29.17997932434082,-82.52680969238281, 2.2997686862945557
558,900158005,0.6094638,-0.086241245,-0.7756379,0.13965137,11.335636138916016,-2.539198637008667,-0.5639538168907166,-31.17973518371582,-93.22599029541016, 6.247297763824463
559,900174672,0.59674394,-0.08616124,-0.78556484,0.13914378,12.54547119140625,-1.1958389282226562,-0.8190281391143799,-18.569190979003906,-108.35762023925781, 5.209339141845703
560,900191339,0.58215874,-0.085636966,-0.7966031,0.13849647,11.720070838928223,-1.5190397500991821,-0.8184428215026855,-19.675477981567383,-123.39344787597656, 3.3855764865875244
561,900208006,0.5651049,-0.08566771,-0.80894125,0.13759273,11.845008850097656,-2.7690701484680176,0.8726151585578918,-16.462833404541016,-144.7271270751953, 3.628713846206665
562,900224673,0.54505885,-0.085599914,-0.82266986,0.13710599,12.525936126708984,-3.6470117568969727,1.924527645111084,-19.000450134277344,-166.50575256347656, 7.075217247009277
563,900241340,0.5218387,-0.08699892,-0.8379005,0.13430744,14.496562957763672,-3.1515369415283203,4.625628471374512,-47.25376510620117,-185.2625732421875, 11.34196949005127
564,900258007,0.49540603,-0.089118324,-0.8546139,0.12753786,19.874656677246094,-6.532534599304199,8.557107925415039,-80.9977798461914,-204.45277404785156, 5.980478286743164
565,900274674,0.4691866,-0.09354804,-0.8699861,0.11931927,24.040361404418945,-5.789606094360352,11.635932922363281,-92.17951965332031,-197.3203125, 13.062612533569336
566,900291341,0.44725972,-0.10106127,-0.88284117,0.101671845,22.72515296936035,2.787929058074951,14.288999557495117,-153.7812957763672,-155.18678283691406, -0.8074097037315369
567,900308008,0.424635,-0.112475164,-0.8955666,0.07067631,14.535388946533203,-1.628709077835083,-1.7393132448196411,-247.2584991455078,-147.32223510742188, -17.551456451416016
568,900324675,0.39457688,-0.12083214,-0.9096696,0.04701172,14.956897735595703,-18.76620101928711,1.046847939491272,-199.5887908935547,-204.3577117919922, -12.454910278320312
569,900341342,0.37189823,-0.11901344,-0.9191125,0.05253249,15.564754486083984,-9.115550994873047,2.832899570465088,18.110681533813477,-173.1501007080078, 4.42310094833374
570,900358009,0.35551077,-0.120541535,-0.9255684,0.049040314,12.812156677246094,-4.736673831939697,4.263932228088379,-41.25153732299805,-117.27164459228516, 2.6628990173339844
571,900374676,0.34909555,-0.12704167,-0.9276498,0.0381952,10.366804122924805,-2.48785138130188,7.664260387420654,-90.4984130859375,-35.44095230102539, 16.568737030029297
572,900391343,0.35073426,-0.13350314,-0.92653,0.026546665,6.316368103027344,-3.821195125579834,6.410301685333252,-87.68496704101562,24.206729888916016, 15.046957969665527
573,900408010,0.3593717,-0.14054762,-0.9223337,0.019979069,5.233366966247559,-5.4471282958984375,2.0253889560699463,-49.776161193847656,71.6053466796875, 32.516502380371094
574,900424677,0.37476626,-0.14517114,-0.9154802,0.019282136,4.888790607452393,-4.884325981140137,2.5118160247802734,0.2861403524875641,115.01380157470703, 33.263633728027344
575,900441344,0.3971144,-0.14840488,-0.90535444,0.024691692,4.658329010009766,-5.638866901397705,1.6779248714447021,49.64630126953125,160.93931579589844, 42.566673278808594
576,900458011,0.42603782,-0.14872274,-0.89164615,0.036614817,5.792593479156494,-3.4608640670776367,1.4574276208877563,105.44917297363281,204.5326690673828, 44.71808624267578
577,900474678,0.45992258,-0.14864433,-0.87413174,0.047642615,7.377714157104492,-1.7629605531692505,1.192173957824707,107.1438217163086,246.93191528320312, 42.310035705566406
578,900491345,0.4977228,-0.14878842,-0.8525644,0.05716702,7.782125949859619,-1.4138940572738647,-0.19677889347076416,102.73843383789062,284.90899658203125, 41.76543426513672
579,900508012,0.538918,-0.1490713,-0.8265083,0.06503394,8.642240524291992,-0.38805603981018066,-1.0855711698532104,97.79586029052734,321.96148681640625, 40.175777435302734
580,900524679,0.582613,-0.15011063,-0.7956006,0.07105391,10.989521026611328,-1.329471230506897,-2.7783966064453125,89.24567413330078,356.4298400878906, 41.5030517578125
581,900541346,0.627835,-0.14978416,-0.75984967,0.07756578,12.266081809997559,-1.3329838514328003,-3.4390695095062256,101.37690734863281,383.0819091796875, 40.26861572265625
582,900558013,0.6722842,-0.14944674,-0.72028035,0.08304328,15.187979698181152,-0.8004025220870972,-5.1137824058532715,97.279296875,396.6507873535156, 40.10771560668945
583,900574680,0.7148217,-0.14753936,-0.6776979,0.08937526,18.67577362060547,-4.0110907554626465,-10.52265453338623,108.55547332763672,399.4143981933594, 40.503318786621094
584,900591347,0.7540372,-0.13980831,-0.6346792,0.09520524,23.25555992126465,-1.6128497123718262,-13.539633750915527,131.7910614013672,383.12335205078125, 13.387080192565918
585,900608014,0.78640884,-0.13341936,-0.59613484,0.09156361,23.2763671875,-2.4302892684936523,-15.189664840698242,74.00901794433594,340.1562194824219, -29.644161224365234
586,900624681,0.81071424,-0.12808058,-0.56478435,0.085771486,18.517608642578125,-7.338200569152832,-17.742618560791016,47.63661575317383,270.97650146484375, -38.440799713134766
587,900641348,0.82703876,-0.12269039,-0.5414601,0.08817569,12.568445205688477,-7.85936975479126,-20.195966720581055,68.07095336914062,188.1883087158203, 4.683233261108398
588,900658015,0.8361606,-0.11708991,-0.5274714,0.094336554,10.105393409729004,-0.4009409248828888,-21.927719116210938,71.60797119140625,105.21123504638672, 21.721973419189453
589,900674682,0.83629835,-0.11881108,-0.5267109,0.09520821,8.873284339904785,1.3386794328689575,-21.65617561340332,-5.409175395965576,5.819459438323975, 13.069446563720703
590,900691349,0.82863563,-0.12006705,-0.538038,0.09727329,9.141593933105469,-4.387838840484619,-19.665868759155273,-12.632569313049316,-92.991943359375, 13.516267776489258
591,900708016,0.81583136,-0.11090909,-0.55695754,0.10916329,10.41919231414795,-4.168509006500244,-15.485111236572266,73.8131103515625,-170.1638946533203, 28.116302490234375
592,900724683,0.80370736,-0.09870524,-0.5737189,0.12312042,22.768089294433594,-5.517272472381592,21.376670837402344,101.02481842041016,-159.15628051757812, 29.143707275390625
593,900741350,0.7951226,-0.067081004,-0.58393615,0.14932904,18.101648330688477,16.32576560974121,5.426488876342773,264.6243591308594,-133.94740295410156, 21.65959358215332
594,900758017,0.78180593,-0.068212196,-0.60198295,0.14745589,7.962656497955322,1.7319713830947876,-16.308691024780273,-37.5540657043457,-149.14044189453125, 1.0584754943847656
595,900774684,0.7651394,-0.074209966,-0.6212686,0.15192112,17.33805274963379,-14.411151885986328,-2.8404743671417236,-40.25185012817383,-167.55580139160156, 58.12565612792969
596,900791351,0.75150067,-0.06829422,-0.63622683,0.16061807,10.1898193359375,-1.9305931329727173,-0.1676955670118332,46.62548065185547,-146.40969848632812, 28.441373825073242
597,900808018,0.7405294,-0.065479256,-0.648132,0.16508707,8.016646385192871,-1.9323749542236328,1.0568567514419556,16.738393783569336,-113.55023956298828, 18.63875389099121
598,900824685,0.73091084,-0.06990423,-0.65866655,0.16444276,9.622387886047363,-3.760653018951416,0.7044484615325928,-40.74567794799805,-90.04230499267578, 23.94809913635254
599,900841352,0.7230383,-0.0719415,-0.6668645,0.16532356,10.932316780090332,-4.720419406890869,-0.3090810775756836,-18.3546199798584,-73.8400650024414, 19.941408157348633
600,900858019,0.71647215,-0.071099475,-0.67343277,0.16763298,10.03010368347168,-4.5808868408203125,-0.7176389098167419,5.013089179992676,-63.732975006103516, 13.148253440856934
601,900874686,0.7106692,-0.06671251,-0.6788592,0.17218886,10.455612182617188,-2.8352739810943604,-0.322273313999176,34.56920623779297,-59.76083755493164, 7.457167148590088
602,900891353,0.70533544,-0.06721099,-0.68453145,0.171469,10.356468200683594,-0.6185587644577026,-0.8133112788200378,-14.002382278442383,-50.576087951660156, 3.813326597213745
603,900908020,0.7004682,-0.07132997,-0.6901677,0.16710787,9.9959135055542,-3.6129252910614014,-1.535749912261963,-48.44194412231445,-42.25891876220703, 2.692209482192993
604,900924687,0.6963961,-0.0731079,-0.6946549,0.16474974,10.187450408935547,-3.254279375076294,-1.258158802986145,-25.949434280395508,-36.620853424072266, 0.8833050727844238
605,900941354,0.6927711,-0.075164065,-0.6987782,0.16164027,10.12161636352539,-2.5542449951171875,-0.2956172227859497,-30.233232498168945,-32.05276107788086, -1.704050064086914
606,900958021,0.6893797,-0.07748867,-0.7026328,0.15829828,9.759931564331055,-3.0686514377593994,-0.7136017084121704,-32.21385955810547,-29.243267059326172, -1.6298877000808716
607,900974688,0.6858456,-0.07929244,-0.7065341,0.15536462,9.193502426147461,-3.3946895599365234,-0.5003255605697632,-27.901695251464844,-30.947614669799805, -2.0741288661956787
608,900991355,0.6820808,-0.08058367,-0.710502,0.1531626,9.069859504699707,-3.6473681926727295,-0.5189445614814758,-22.130573272705078,-33.339820861816406, -0.9052987694740295
609,901008022,0.67780834,-0.08184623,-0.71488225,0.15106454,9.696450233459473,-2.641530990600586,-0.31549614667892456,-22.207164764404297,-37.85176467895508, -0.25583416223526
610,901024689,0.67284155,-0.08344796,-0.7199269,0.14841224,9.907404899597168,-2.3845112323760986,0.7982638478279114,-27.596817016601562,-43.711483001708984, -0.8172193169593811
611,901041356,0.6670208,-0.084585674,-0.7255678,0.14656071,9.439607620239258,-2.7064480781555176,0.3865240812301636,-22.592622756958008,-51.656585693359375, 1.1303200721740723
612,901058023,0.6603145,-0.08533674,-0.73181474,0.14542866,9.941625595092773,-2.6388778686523438,-0.10035017132759094,-18.361663818359375,-59.68448257446289, 3.044271469116211
613,901074690,0.65328765,-0.08742791,-0.73816794,0.14380476,10.460741996765137,-3.659330368041992,-0.23420140147209167,-27.217859268188477,-60.17152786254883, 7.818263053894043
614,901091357,0.64528346,-0.0909559,-0.7457888,0.13833106,10.506332397460938,-1.9950366020202637,-0.8583016395568848,-55.0568962097168,-67.11307525634766, -1.975508689880371
615,901108024,0.636634,-0.09454201,-0.75376964,0.13262895,10.356802940368652,-1.6611976623535156,-1.0360286235809326,-57.23318099975586,-71.83765411376953, -2.2825820446014404
616,901124691,0.62616247,-0.09787515,-0.763201,0.12595752,11.575458526611328,-1.9110027551651,1.4833208322525024,-63.65738296508789,-87.25008392333984, -7.0957536697387695
617,901141358,0.6136892,-0.09794906,-0.773527,0.12428931,11.41991138458252,-3.9519731998443604,-0.1483493149280548,-25.501619338989258,-107.84440612792969, -1.5079232454299927
618,901158025,0.59888124,-0.09612147,-0.7853344,0.123902775,11.595112800598145,-2.1189370155334473,0.9807038307189941,-13.507248878479004,-129.0357208251953, -5.223891258239746
619,901174692,0.5814548,-0.09511277,-0.7985588,0.12315751,10.91057014465332,-2.8406267166137695,1.1714545488357544,-14.026543617248535,-150.60232543945312, -3.398977041244507
620,901191359,0.56114674,-0.09399787,-0.81318176,0.122533694,11.608586311340332,-3.3252668380737305,1.3511731624603271,-19.6226863861084,-171.0974884033203, -1.0598106384277344
621,901208026,0.53767705,-0.09370419,-0.82914805,0.12098113,13.179041862487793,-2.9395053386688232,2.858304977416992,-36.227298736572266,-191.10276794433594, 3.6600115299224854
622,901224693,0.5112697,-0.09641231,-0.8462334,0.11487819,16.096805572509766,-2.929690361022949,7.048067092895508,-79.05665588378906,-205.69381713867188, 7.250462055206299
623,901241360,0.4833124,-0.102223225,-0.86332923,0.10306427,21.93403434753418,-6.189050674438477,10.179647445678711,-120.3803482055664,-209.95448303222656, 4.486600399017334
624,901258027,0.45752284,-0.10911387,-0.87797,0.08908489,23.578598022460938,-1.8490850925445557,13.046080589294434,-133.61819458007812,-186.86737060546875, 3.8897876739501953
625,901274694,0.43434787,-0.117898054,-0.89061284,0.06519813,18.492401123046875,-0.09294858574867249,4.576228618621826,-196.25772094726562,-156.492919921875, -15.919281005859375
626,901291361,0.40394306,-0.12452209,-0.90546787,0.038110938,15.352413177490234,-10.601810455322266,-2.510798931121826,-216.2801055908203,-205.95755004882812, -37.2540283203125
627,901308028,0.37724724,-0.12503278,-0.9171269,0.030494286,19.389619827270508,-14.623481750488281,4.2397379875183105,-74.07868194580078,-192.32339477539062, -19.552566528320312
628,901324695,0.3540745,-0.12487724,-0.92632633,0.030925836,13.62019157409668,-10.46846866607666,0.029834598302841187,-18.1722469329834,-170.97010803222656, -1.5894463062286377
629,901341362,0.33866963,-0.1248316,-0.9320354,0.03209436,12.03868293762207,-6.102931976318359,2.4002842903137207,-6.423856258392334,-113.71160888671875, 2.1958961486816406
630,901358029,0.33200604,-0.1286977,-0.9341073,0.02554468,9.882980346679688,-1.3900548219680786,5.668182373046875,-56.74760437011719,-41.855960845947266, 10.455297470092773
631,901374696,0.3324566,-0.1326087,-0.93356204,0.018700654,5.7689290046691895,-5.410722732543945,5.458222389221191,-52.01146697998047,9.950643539428711, 11.127302169799805
632,901391363,0.34137046,-0.13631599,-0.92976016,0.020742923,5.017281532287598,-5.30160665512085,3.9405574798583984,13.561784744262695,63.50620651245117, 31.97125244140625
633,901408030,0.35785446,-0.13909708,-0.9229763,0.026586864,3.437089681625366,-3.8734402656555176,2.785640001296997,47.49556350708008,115.14288330078125, 36.65925979614258
634,901424697,0.3818303,-0.14088506,-0.9127128,0.036229495,3.5639827251434326,-4.823845863342285,2.2112324237823486,81.80463409423828,167.40664672851562, 41.64847946166992
635,901441364,0.41318938,-0.14003755,-0.89837945,0.050781693,4.62522554397583,-2.8035707473754883,2.5082848072052,127.66295623779297,219.0028076171875, 40.089019775390625
636,901458031,0.45033792,-0.13905196,-0.8796656,0.063630074,6.107683181762695,-0.9478517174720764,1.4073853492736816,124.61119842529297,268.7832946777344, 36.596763610839844
637,901474698,0.49225125,-0.13933033,-0.8561976,0.07212131,7.465181827545166,0.10911902040243149,0.5704644918441772,100.96736145019531,317.033203125, 33.22443771362305
638,901491365,0.53749985,-0.14232956,-0.82777286,0.075024016,9.148916244506836,-0.18361154198646545,-0.5852921009063721,64.50173950195312,360.1492919921875, 33.43167495727539
639,901508032,0.5860981,-0.14405088,-0.79333407,0.07974729,11.53261947631836,-2.6259114742279053,-3.1451029777526855,85.9836196899414,399.0317687988281, 37.052650451660156
640,901524699,0.6372835,-0.14060335,-0.7523258,0.09003743,14.201647758483887,-1.2430381774902344,-5.104956150054932,143.39523315429688,431.3470764160156, 36.38090133666992
641,901541366,0.6860153,-0.13888574,-0.70766777,0.09643744,18.80771255493164,0.9888951778411865,-6.547266006469727,115.57421875,439.5194396972656, 33.36006164550781
642,901558033,0.73100054,-0.13765614,-0.660723,0.100668594,22.7061767578125,-4.959371089935303,-12.913434982299805,100.66471099853516,434.5314636230469, 30.24085807800293
643,901574700,0.7708679,-0.1300062,-0.6152981,0.101339124,26.5328311920166,-3.244983673095703,-14.313482284545898,110.92144012451172,402.7002258300781, -14.727331161499023
644,901591367,0.80227244,-0.12458588,-0.5758228,0.09625807,22.829177856445312,-6.061981678009033,-16.893573760986328,63.09953689575195,342.2104797363281, -35.14508819580078
645,901608034,0.82426775,-0.12151852,-0.54509586,0.09320252,17.388240814208984,-8.443721771240234,-20.0280818939209,44.37575912475586,256.7461853027344, -15.90263557434082
646,901624701,0.8378297,-0.11726639,-0.5243647,0.096600465,10.741873741149902,-3.158477306365967,-23.139041900634766,61.95340347290039,162.63865661621094, 13.257267951965332
647,901641368,0.84190124,-0.11915626,-0.51720893,0.09746452,6.874413013458252,1.7164554595947266,-23.98212242126465,0.8841548562049866,56.68133544921875, 16.168964385986328
648,901658035,0.8364207,-0.12076917,-0.52532184,0.09926058,7.912227630615234,-3.492854118347168,-22.685056686401367,-12.156745910644531,-66.28016662597656, 14.522546768188477
649,901674702,0.8244567,-0.10761663,-0.54410374,0.11243242,9.94354248046875,-4.1516289710998535,-18.918052673339844,101.32389068603516,-170.26625061035156, 22.161245346069336
650,901691369,0.8084942,-0.08668371,-0.56701404,0.13159895,13.392602920532227,1.2061212062835693,-9.39972972869873,161.85179138183594,-218.81494140625, 27.018707275390625
651,901708036,0.7974645,-0.07112451,-0.58016723,0.14965896,25.884326934814453,-11.464292526245117,34.57346725463867,139.46267700195312,-139.59817504882812, 43.175025939941406
652,901724703,0.78815526,-0.04768664,-0.5893018,0.17105806,11.759222030639648,21.242700576782227,-4.707192420959473,200.88267517089844,-120.79228973388672, 30.164283752441406
653,901741370,0.77316177,-0.06824182,-0.6118638,0.1522721,10.86676025390625,0.5254452228546143,-16.670604705810547,-218.13954162597656,-151.56961059570312, -6.749090194702148
654,901758037,0.7568875,-0.08587816,-0.6309946,0.14694315,17.361196517944336,-16.40625762939453,-1.4540650844573975,-142.89547729492188,-147.82046508789062, 55.56407165527344
655,901774704,0.7435845,-0.082762115,-0.6458257,0.15212451,10.13677978515625,1.763272762298584,-0.2691374719142914,16.90163230895996,-139.6495819091797, 19.615169525146484
656,901791371,0.73249704,-0.08565898,-0.65777874,0.15309523,8.613163948059082,-4.395051002502441,0.08049874007701874,-28.254196166992188,-106.38627624511719, 24.168699264526367
657,901808038,0.72361255,-0.08165574,-0.66602165,0.16165555,10.80231761932373,-5.004545211791992,-1.0761616230010986,46.049720764160156,-89.46112823486328, 31.01688003540039
658,901824705,0.7162694,-0.08282959,-0.67315716,0.1641859,10.112003326416016,-1.158621907234192,1.4926154613494873,-5.197576999664307,-67.72537231445312, 23.59691047668457
659,901841372,0.70904577,-0.09428357,-0.6813449,0.15535122,8.770990371704102,-6.037290096282959,-0.17634700238704681,-109.54635620117188,-54.30015182495117, 14.520683288574219
660,901858039,0.7030118,-0.09853763,-0.68771946,0.15200874,8.41654109954834,-7.3143463134765625,-0.023655667901039124,-45.992515563964844,-51.13539123535156, 7.448727607727051
661,901874706,0.69773424,-0.09807715,-0.69287527,0.15320554,11.243992805480957,-2.6544055938720703,-1.1548194885253906,0.05314042046666145,-49.672672271728516, 7.071504592895508
662,901891373,0.6928953,-0.09679835,-0.6977768,0.15373373,10.333431243896484,-2.353304147720337,-2.093602418899536,1.3667234182357788,-46.757240295410156, -0.30930131673812866
663,901908040,0.6886282,-0.09716198,-0.70208746,0.15304944,9.934157371520996,-1.4876887798309326,-1.6133365631103516,-11.255910873413086,-38.62639617919922, 1.6006875038146973
664,901924707,0.6846276,-0.100325,-0.70633817,0.14935394,10.228873252868652,-2.405022621154785,-1.1566661596298218,-38.794837951660156,-32.081302642822266, 0.6528927087783813
665,901941374,0.68084675,-0.10233832,-0.71041125,0.14591314,9.77304744720459,-3.8294429779052734,-1.0372077226638794,-31.806241989135742,-31.52617645263672, -3.8058693408966064
666,901958041,0.67718107,-0.10314693,-0.71430993,0.14334571,9.202038764953613,-3.4975640773773193,-1.52913236618042,-21.641986846923828,-31.964780807495117, -5.593651294708252
667,901974708,0.6736205,-0.10369677,-0.71812713,0.1406274,9.221083641052246,-3.6973862648010254,-1.3988046646118164,-21.018489837646484,-31.20379066467285, -7.612222671508789
668,901991375,0.67003757,-0.10408519,-0.72194684,0.13787308,9.630928993225098,-3.643756151199341,-1.3618119955062866,-20.464704513549805,-31.447792053222656, -8.559256553649902
669,902008042,0.66629976,-0.10408011,-0.72591424,0.1351314,10.438331604003906,-2.8976669311523438,-0.726212739944458,-18.839204788208008,-33.2718620300293, -10.4132080078125
670,902024709,0.6620811,-0.10339244,-0.730222,0.1331713,9.656866073608398,-2.8699426651000977,-0.5201769471168518,-12.473907470703125,-38.429908752441406, -10.022988319396973
671,902041376,0.6567249,-0.1017968,-0.7353565,0.13266772,8.908366203308105,-3.4586918354034424,-0.782928466796875,-2.5970611572265625,-49.78250503540039, -7.492754936218262
672,902058043,0.6496881,-0.099739395,-0.74172187,0.13343988,8.543488502502441,-4.896720886230469,0.2043382227420807,3.637909412384033,-65.15730285644531, -3.410266637802124
673,902074710,0.6404146,-0.09772461,-0.74998325,0.1335831,8.708503723144531,-3.253201484680176,0.3448994755744934,-3.04280161857605,-84.58882141113281, -5.292882919311523
674,902091377,0.6299909,-0.09679003,-0.7589173,0.13337141,10.359825134277344,-1.780731439590454,0.15020759403705597,-11.028011322021484,-92.28328704833984, -0.6935361623764038
675,902108044,0.6179592,-0.097398706,-0.7690332,0.13125566,12.933356285095215,-0.2381262481212616,-0.6837801933288574,-29.80382537841797,-103.15010070800781, -0.17774653434753418
676,902124711,0.6046982,-0.09823885,-0.7798616,0.12847279,12.705102920532227,-0.8095320463180542,0.5199103951454163,-35.771602630615234,-112.06258392333984, -1.0903087854385376
677,902141378,0.58960587,-0.09663288,-0.7915005,0.12866181,12.851555824279785,-0.8830143809318542,-0.3251122236251831,-11.616243362426758,-129.48776245117188, -0.7296980619430542
678,902158045,0.57259315,-0.094889194,-0.8040498,0.12898482,11.603814125061035,-1.9358398914337158,0.07306420803070068,-6.302119255065918,-145.93617248535156, -1.8549342155456543
679,902174712,0.5527859,-0.09247966,-0.81788635,0.13014328,11.918460845947266,-3.6701416969299316,1.3465453386306763,-5.40678071975708,-166.54571533203125, 0.40865853428840637
680,902191379,0.53011715,-0.09147193,-0.832985,0.12940183,13.13398551940918,-4.399611949920654,3.8032994270324707,-28.584997177124023,-183.65550231933594, 4.549875259399414
681,902208046,0.5042312,-0.09284014,-0.8495864,0.12383373,16.64097023010254,-6.119868278503418,7.4758806228637695,-70.53266143798828,-201.80580139160156, 3.7663588523864746
682,902224713,0.47745395,-0.09711728,-0.8657052,0.11471958,23.450950622558594,-7.913051605224609,10.41705322265625,-97.8340072631836,-202.1676483154297, 7.54843807220459
683,902241380,0.453258,-0.10375384,-0.87959903,0.10048845,23.056034088134766,-0.35555827617645264,14.032485961914062,-132.68003845214844,-174.6177520751953, 4.24088191986084
684,902258047,0.4312474,-0.1131498,-0.8920676,0.07374549,18.296716690063477,1.10695219039917,4.846734523773193,-214.49363708496094,-146.6168212890625, -18.474809646606445
685,902274714,0.40126306,-0.12135493,-0.9066804,0.046816375,12.764461517333984,-12.084004402160645,-2.2514801025390625,-219.39791870117188,-202.68272399902344, -23.916641235351562
686,902291381,0.3759947,-0.123598486,-0.91744536,0.040565763,18.131772994995117,-13.539894104003906,3.2745416164398193,-68.93104553222656,-181.9442138671875, -2.4973151683807373
687,902308048,0.3560141,-0.12354843,-0.92529297,0.042692762,12.647647857666016,-7.304107666015625,2.0279130935668945,-5.029423236846924,-149.09060668945312, 5.568811416625977
688,902324715,0.3448351,-0.12556325,-0.92936903,0.03995123,11.317378997802734,-5.08798360824585,5.295009136199951,-32.58229064941406,-79.32190704345703, 7.354091167449951
689,902341382,0.34348208,-0.12748466,-0.92968845,0.038044766,8.826058387756348,-2.089404344558716,8.188169479370117,-17.606082916259766,-8.608429908752441, 9.246782302856445
