PacketCounter,SampleTimeFine,Quat_W,Quat_X,Quat_Y,Quat_Z,Acc_X,Acc_Y,Acc_Z,Gyr_X,Gyr_Y,Gyr_Z 
1,1243776906,0.4664841,0.47955546,-0.25579348,0.6978461,-0.13418830931186676,-0.021846598014235497,-0.15713053941726685,-0.21081480383872986,0.6760309338569641, 0.019354449585080147
2,1243793573,0.46612763,0.4802434,-0.2536591,0.6983898,15.359628677368164,1.6538244485855103,7.010828018188477,0.3770509660243988,2.856257915496826, 1.6605160236358643
3,1243810240,0.46677843,0.47984663,-0.25257763,0.6986201,15.69892406463623,1.6592557430267334,6.941126823425293,-0.1736925095319748,2.5003819465637207, 2.0028939247131348
4,1243826907,0.46691734,0.48031092,-0.25267622,0.6981723,15.083876609802246,1.4990235567092896,6.84250020980835,0.8192413449287415,2.7395403385162354, 2.210343837738037
5,1243843574,0.4669971,0.47992516,-0.25324148,0.69817936,15.374493598937988,1.620442271232605,6.876408100128174,-2.1747360229492188,2.7143125534057617, 1.4369173049926758
6,1243860241,0.46683484,0.4798228,-0.25340804,0.6982978,15.315336227416992,1.4576064348220825,6.909670829772949,-0.04190237447619438,3.0933032035827637, 1.6039631366729736
7,1243876908,0.46679655,0.47953182,-0.253781,0.6983879,15.418971061706543,1.4745211601257324,6.98229455947876,0.7746624946594238,2.656440258026123, 0.9399669170379639
8,1243893575,0.46660858,0.4792273,-0.25401193,0.6986385,15.174514770507812,1.5480713844299316,6.8180975914001465,1.4816371202468872,2.5481629371643066, 1.030904769897461
9,1243910242,0.4664591,0.47907567,-0.25403154,0.6988351,15.209839820861816,1.561973214149475,6.937083721160889,0.9904878735542297,2.364647626876831, 0.18154920637607574
10,1243926909,0.46668762,0.47876984,-0.25420412,0.69882923,15.611736297607422,1.4298160076141357,6.9601335525512695,0.17626021802425385,2.146965503692627, 0.23153242468833923
11,1243943576,0.46689948,0.4784917,-0.25450733,0.69876796,14.999732971191406,1.733452558517456,6.866062164306641,0.03368709981441498,1.9692387580871582, 0.07697256654500961
12,1243960243,0.46711597,0.4783371,-0.25442445,0.6987593,15.348034858703613,1.4162651300430298,6.813210964202881,0.7528660893440247,2.1399476528167725, -0.24668869376182556
13,1243976910,0.46710426,0.47824967,-0.25435337,0.69885284,15.506758689880371,1.5870317220687866,6.960169792175293,0.44696083664894104,2.058563232421875, -0.13236643373966217
14,1243993577,0.46715695,0.4781536,-0.25433698,0.69888943,15.406193733215332,1.526692271232605,6.822855472564697,0.5298690795898438,1.9772042036056519, 0.12871019542217255
15,1244010244,0.46731204,0.47796828,-0.2544463,0.69887257,15.010536193847656,1.711118221282959,6.823574542999268,-0.2893850803375244,2.3302371501922607, 0.26806890964508057
16,1244026911,0.46727833,0.47787005,-0.25423977,0.6990376,15.501309394836426,1.679478645324707,6.877858638763428,0.918772280216217,2.790189743041992, 0.5095582008361816
17,1244043578,0.46742678,0.4776347,-0.2543505,0.69905895,15.236470222473145,1.5547035932540894,6.859491348266602,-0.44169098138809204,2.597351551055908, 1.3530739545822144
18,1244060245,0.46758378,0.4773509,-0.2544527,0.6991104,15.140458106994629,1.7673169374465942,6.876379489898682,0.12741675972938538,2.955173969268799, 1.6976416110992432
19,1244076912,0.4676197,0.47710517,-0.25441483,0.6992679,15.44432544708252,1.6172503232955933,6.86328125,0.40016642212867737,3.104445219039917, 1.9679710865020752
20,1244093579,0.4676232,0.47688267,-0.25446397,0.69939953,14.955084800720215,1.4238330125808716,6.735405445098877,0.25991126894950867,2.6928231716156006, 2.317750930786133
21,1244110246,0.46758264,0.47669944,-0.25437835,0.69958264,15.139433860778809,1.5582914352416992,6.9066009521484375,1.0880210399627686,2.9545722007751465, 1.84623384475708
22,1244126913,0.4675316,0.4766172,-0.25416276,0.69975114,15.554341316223145,1.366278886795044,6.891998291015625,2.0673484802246094,2.6856136322021484, 1.2246392965316772
23,1244143580,0.46760294,0.47643548,-0.25412577,0.6998407,14.934099197387695,1.6986498832702637,6.721512794494629,1.0205445289611816,2.713672161102295, 1.138503909111023
24,1244160247,0.4679046,0.4761573,-0.25413674,0.69982445,15.042733192443848,1.4742141962051392,6.806403636932373,-0.7664473056793213,3.032806634902954, 0.08131392300128937
25,1244176914,0.46817937,0.47584757,-0.2541526,0.69984543,15.451766967773438,1.7325912714004517,6.949754238128662,-1.2019784450531006,3.1462063789367676, 0.09871774911880493
26,1244193581,0.46847853,0.4755232,-0.2543388,0.69979805,15.334185600280762,1.570226788520813,6.836463928222656,-2.0743086338043213,2.5119848251342773, 0.5714385509490967
27,1244210248,0.4685415,0.47530988,-0.25428623,0.69991994,15.016556739807129,1.5057871341705322,6.747964859008789,0.4813074767589569,2.9295358657836914, 1.2474473714828491
28,1244226915,0.4686307,0.475071,-0.25421685,0.70004773,15.312507629394531,1.8843848705291748,6.882346153259277,0.06622803211212158,3.1338095664978027, 0.9266481399536133
29,1244243582,0.4684943,0.47495785,-0.25398222,0.70030075,15.257993698120117,1.4945049285888672,6.842956066131592,2.102520704269409,3.0732293128967285, 1.8251608610153198
30,1244260249,0.46841916,0.47479686,-0.2538735,0.7004997,14.982009887695312,1.6845388412475586,6.8026204109191895,1.4125852584838867,2.8706395626068115, 1.9319853782653809
31,1244276916,0.4683072,0.47462878,-0.25372615,0.7007419,15.376836776733398,1.6698182821273804,6.926923751831055,1.7505064010620117,2.6455678939819336, 1.9277080297470093
32,1244293583,0.46817458,0.47437462,-0.2535701,0.7010588,15.303302764892578,1.5614893436431885,6.852830410003662,1.6165521144866943,2.8478188514709473, 2.0796937942504883
33,1244310250,0.46829292,0.4738999,-0.25365743,0.70126927,15.018573760986328,1.535335659980774,6.714651584625244,-0.7890120148658752,3.1119625568389893, 1.8223243951797485
34,1244326917,0.46847585,0.47331953,-0.25368395,0.7015296,15.202938079833984,1.803566813468933,6.834795951843262,-0.9884325265884399,4.041280746459961, 1.6156812906265259
35,1244343584,0.4686933,0.4727132,-0.25373676,0.7017737,15.457329750061035,1.495215654373169,6.797401428222656,-1.4705661535263062,4.058569431304932, 1.4682673215866089
36,1244360251,0.46878287,0.47220173,-0.2536644,0.7020844,14.93780517578125,1.2390873432159424,6.824831008911133,0.06344906240701675,4.003592014312744, 1.7615711688995361
37,1244376918,0.4687986,0.4718198,-0.2533135,0.7024573,15.560720443725586,1.7773332595825195,6.997791290283203,2.4357101917266846,4.366779804229736, 1.3047429323196411
38,1244393585,0.4687833,0.4715422,-0.25299335,0.7027693,15.163453102111816,1.4452050924301147,6.849495887756348,2.134901523590088,3.465891122817993, 0.9555649161338806
39,1244410252,0.46885383,0.47134006,-0.2527191,0.70295644,14.920135498046875,1.4968726634979248,6.809882640838623,1.9125068187713623,2.721867799758911, 0.27395981550216675
40,1244426919,0.4689965,0.47116423,-0.2524788,0.7030655,15.387113571166992,1.6119381189346313,6.941766262054443,1.649553894996643,2.3750338554382324, -0.17251434922218323
41,1244443586,0.46915662,0.47100544,-0.25238895,0.7030974,15.24686336517334,1.5494681596755981,6.864904403686523,0.5798138976097107,1.569373369216919, -0.1446349173784256
42,1244460253,0.46936488,0.47082046,-0.25233513,0.70310146,15.449699401855469,1.7286677360534668,6.830435752868652,-0.016917185857892036,1.5615485906600952, -0.3682977855205536
43,1244476920,0.46947628,0.4705745,-0.25222522,0.7032312,15.375494956970215,1.640489935874939,6.659597873687744,0.6123164296150208,2.281496286392212, 0.44470691680908203
44,1244493587,0.46960816,0.47025552,-0.25212094,0.70339394,15.140697479248047,1.6982464790344238,6.7542266845703125,0.15005840361118317,2.7447144985198975, 0.5071890950202942
45,1244510254,0.46961167,0.4699511,-0.25194088,0.7036597,15.622167587280273,1.6448862552642822,6.799437999725342,1.2283657789230347,3.036442995071411, 1.2270467281341553
46,1244526921,0.46949872,0.46965122,-0.25173077,0.70401007,15.166013717651367,1.5353667736053467,6.683657169342041,2.3885316848754883,3.2320477962493896, 2.1890342235565186
47,1244543588,0.46946922,0.4693454,-0.25153828,0.7043027,15.57875919342041,1.7267354726791382,6.8896284103393555,1.6430741548538208,3.1366660594940186, 1.5343482494354248
48,1244560255,0.46942088,0.4689135,-0.2514888,0.7046401,15.416372299194336,1.7226868867874146,6.766090393066406,0.5960907340049744,3.3897573947906494, 2.4116084575653076
49,1244576922,0.46958134,0.4684081,-0.25158527,0.70483494,14.874698638916016,1.51692533493042,6.710079193115234,-1.0413868427276611,3.199404239654541, 1.6503864526748657
50,1244593589,0.4696944,0.46792063,-0.2515726,0.7050878,16.079519271850586,1.6179925203323364,6.983719825744629,-0.3942691385746002,3.549670696258545, 1.5913747549057007
51,1244610256,0.46969235,0.46751225,-0.25160682,0.7053478,15.127954483032227,1.479784369468689,6.63014030456543,-0.06669546663761139,2.8344101905822754, 2.145057201385498
52,1244626923,0.46978405,0.4671131,-0.25152773,0.7055793,15.165945053100586,1.483099102973938,6.764422416687012,0.5048967003822327,3.25982403755188, 1.3858839273452759
53,1244643590,0.46981812,0.46667606,-0.25139952,0.70589143,16.047143936157227,1.7816442251205444,6.9420342445373535,0.910973310470581,3.7586824893951416, 1.8177014589309692
54,1244660257,0.4699701,0.46623152,-0.25151142,0.7060441,15.228349685668945,1.3908865451812744,6.789044380187988,-0.8635321259498596,2.7220726013183594, 1.5530322790145874
55,1244676924,0.47001386,0.4658324,-0.2514002,0.70631814,15.556809425354004,1.662381887435913,6.815755844116211,0.7018200159072876,3.4035890102386475, 1.5654290914535522
56,1244693591,0.4701493,0.4653819,-0.2513549,0.706541,15.277935981750488,1.6134284734725952,6.747773170471191,0.023749375715851784,3.454583168029785, 1.3527026176452637
57,1244710258,0.4703687,0.46490353,-0.25136378,0.7067067,15.608197212219238,1.5864795446395874,6.8143310546875,-0.6615631580352783,3.380972385406494, 1.0025129318237305
58,1244726925,0.47055387,0.46438825,-0.25141025,0.7069058,15.309065818786621,1.439997673034668,6.720359802246094,-0.8048407435417175,3.489147901535034, 1.4588162899017334
59,1244743592,0.47080618,0.46391657,-0.2514081,0.70704824,15.431334495544434,1.6455304622650146,6.949849605560303,-0.6780449748039246,3.3769638538360596, 0.7489345073699951
60,1244760259,0.47088113,0.46352285,-0.25134137,0.7072801,15.740900039672852,1.5284194946289062,6.7317657470703125,0.7166626453399658,3.194845199584961, 1.6182551383972168
61,1244776926,0.4710115,0.46313155,-0.25128967,0.7074682,15.225593566894531,1.6356977224349976,6.827338218688965,0.20471589267253876,3.0767829418182373, 1.1532565355300903
62,1244793593,0.47117496,0.46271393,-0.25123104,0.70765316,15.771689414978027,1.7315547466278076,6.872028350830078,-0.1040387824177742,3.2562255859375, 0.9342807531356812
63,1244810260,0.4713548,0.46220186,-0.25133187,0.7078322,15.305030822753906,1.5186346769332886,6.589779376983643,-0.9580815434455872,3.233802080154419, 1.655188798904419
64,1244826927,0.47143102,0.4617387,-0.25117582,0.7081392,15.354377746582031,1.6906965970993042,6.875174522399902,-0.16118071973323822,3.9526731967926025, 1.0840381383895874
65,1244843594,0.4715125,0.46122944,-0.2512168,0.70840216,15.88446044921875,1.5738059282302856,6.811534881591797,-1.3635050058364868,3.4056508541107178, 1.622366189956665
66,1244860261,0.47159186,0.46080348,-0.2511862,0.7086374,15.122979164123535,1.5848616361618042,6.653290271759033,0.5210199356079102,3.257032632827759, 1.8373717069625854
67,1244876928,0.47153512,0.46044722,-0.25100276,0.70897156,15.616897583007812,1.4938061237335205,6.780366897583008,0.8025547862052917,3.3786675930023193, 1.557629942893982
68,1244893595,0.4714706,0.46003622,-0.25094962,0.7093001,15.468093872070312,1.7293875217437744,6.746582508087158,0.005128943827003241,3.193769693374634, 2.083279609680176
69,1244910262,0.4716779,0.45955887,-0.25098705,0.7094585,15.34394645690918,1.5300230979919434,6.761953353881836,-0.3193647861480713,3.283529281616211, 1.375293254852295
70,1244926929,0.4717899,0.45910203,-0.25098234,0.70968145,15.681990623474121,1.5316438674926758,6.734142780303955,0.37273523211479187,3.3597657680511475, 1.8861130475997925
71,1244943596,0.47183394,0.45867807,-0.2509332,0.7099436,15.247369766235352,1.6344821453094482,6.711727619171143,-0.4795081615447998,3.2302286624908447, 1.393029808998108
72,1244960263,0.47187015,0.45831287,-0.25079232,0.71020496,16.039859771728516,1.4202110767364502,6.894042015075684,0.18116503953933716,3.226015329360962, 1.0404709577560425
73,1244976930,0.4718531,0.45796907,-0.25067666,0.71047884,15.484596252441406,1.5659195184707642,6.7072906494140625,0.3176807165145874,2.992056369781494, 1.3811200857162476
74,1244993597,0.4719387,0.4575844,-0.25058448,0.7107025,14.984636306762695,1.3549261093139648,6.531732082366943,-0.3400341868400574,3.1367037296295166, 0.8620401620864868
75,1245010264,0.47203466,0.45720533,-0.25042635,0.7109383,15.899755477905273,1.8018814325332642,6.879166126251221,-0.011051878333091736,3.3810107707977295, 0.6321278214454651
76,1245026931,0.47210386,0.45679787,-0.2504641,0.7111409,15.13354778289795,1.430643081665039,6.5450639724731445,-1.0355855226516724,2.7373764514923096, 1.3242470026016235
77,1245043598,0.4721172,0.45647588,-0.25033253,0.7113853,15.536471366882324,1.4532579183578491,6.752790927886963,0.31736060976982117,2.9071505069732666, 1.053277611732483
78,1245060265,0.47212404,0.45614713,-0.25023833,0.71162456,15.707061767578125,1.7523863315582275,6.686160087585449,0.12413834035396576,2.794070243835449, 1.196068286895752
79,1245076932,0.47215518,0.45583105,-0.2501512,0.7118371,15.257019996643066,1.4746923446655273,6.614413738250732,0.006512029096484184,2.67289662361145, 0.9953287839889526
80,1245093599,0.47215804,0.45554402,-0.24991994,0.71210027,15.618889808654785,1.6438859701156616,6.697761535644531,0.9815235137939453,3.1106433868408203, 0.7953960299491882
81,1245110266,0.4721672,0.4552552,-0.24982686,0.71231145,15.210723876953125,1.658797025680542,6.560728073120117,0.1888616532087326,2.522972583770752, 1.0333893299102783
82,1245126933,0.47212273,0.45495862,-0.24957979,0.7126169,15.169754028320312,1.482320785522461,6.602509021759033,1.246025800704956,3.2670981884002686, 1.1354557275772095
83,1245143600,0.472189,0.45457822,-0.24952303,0.71283567,16.118877410888672,1.681350827217102,6.778984069824219,-0.45361363887786865,2.9812474250793457, 1.0503191947937012
84,1245160267,0.47212273,0.4542736,-0.24938476,0.71312195,15.18771743774414,1.4040528535842896,6.510416507720947,0.7206965088844299,2.8654911518096924, 1.535833477973938
85,1245176934,0.47218552,0.4539024,-0.24932875,0.7133365,15.263802528381348,1.7151864767074585,6.554274082183838,-0.4242359697818756,2.9260525703430176, 1.0397027730941772
86,1245193601,0.47224095,0.45349452,-0.24921747,0.7135978,15.689393043518066,1.4660296440124512,6.6392927169799805,-0.1711568832397461,3.4221835136413574, 1.1215482950210571
87,1245210268,0.4722505,0.45314753,-0.24914977,0.7138358,15.18451976776123,1.5584977865219116,6.60181999206543,-0.08413772284984589,2.837266206741333, 1.301490068435669
88,1245226935,0.4722944,0.45283666,-0.24899876,0.71405655,15.136932373046875,1.565282940864563,6.532865047454834,0.304733544588089,2.9379496574401855, 0.7567721009254456
89,1245243602,0.4722568,0.45264006,-0.24873683,0.7142974,15.753684043884277,1.6778181791305542,6.688284397125244,1.5076212882995605,2.6637914180755615, 0.6828026175498962
90,1245260269,0.47229934,0.4523809,-0.24868095,0.7144528,15.25634765625,1.6265169382095337,6.469094276428223,-0.10505048930644989,2.17971134185791, 0.7619074583053589
91,1245276936,0.4722726,0.45214364,-0.24843547,0.7147061,15.393119812011719,1.4745670557022095,6.538395404815674,1.279271125793457,2.8762741088867188, 0.7935903072357178
92,1245293603,0.47235832,0.45174643,-0.24850667,0.7148759,15.131488800048828,1.5554448366165161,6.379861831665039,-1.2873200178146362,2.5656564235687256, 1.2255229949951172
93,1245310270,0.47240478,0.45136943,-0.24845953,0.71509963,15.16397762298584,1.5018819570541382,6.46999979019165,-0.425375759601593,2.9486169815063477, 1.1911762952804565
94,1245326937,0.47235548,0.4510456,-0.24827124,0.7154017,15.42994499206543,1.6702523231506348,6.555800914764404,0.8731818199157715,3.222724437713623, 1.3864346742630005
95,1245343604,0.47231323,0.4507566,-0.2481968,0.71563756,15.079720497131348,1.409702181816101,6.346844673156738,0.29101788997650146,2.487165927886963, 1.4316283464431763
96,1245360271,0.4721509,0.45058683,-0.24786833,0.71596545,15.331765174865723,1.434152364730835,6.52003812789917,2.458582639694214,2.8055193424224854, 1.3287807703018188
97,1245376938,0.47216985,0.4503592,-0.24779823,0.71612036,15.150951385498047,1.5005595684051514,6.478632926940918,0.14313016831874847,2.024639129638672, 0.7721268534660339
98,1245393605,0.4722411,0.45008326,-0.24780603,0.7162442,15.485608100891113,1.605146884918213,6.478520393371582,-0.6122972369194031,2.0026891231536865, 0.7374216914176941
99,1245410272,0.47223008,0.44987378,-0.24762608,0.7164452,14.828418731689453,1.5165222883224487,6.298397064208984,0.9135473370552063,2.3870716094970703, 0.700628936290741
100,1245426939,0.4724133,0.4495104,-0.2477949,0.7164944,15.033172607421875,1.5514028072357178,6.33489990234375,-2.164247751235962,1.8744080066680908, 0.5916085839271545
101,1245443606,0.47233683,0.44925663,-0.24762371,0.7167629,15.27423095703125,1.4684503078460693,6.299875736236572,1.0422128438949585,2.677276372909546, 1.347055196762085
102,1245460273,0.4722915,0.44905454,-0.24751978,0.71695536,14.882107734680176,1.267480731010437,6.302474021911621,0.6528613567352295,2.0278022289276123, 1.065866231918335
103,1245476940,0.47208622,0.44885683,-0.24736224,0.71726847,15.437368392944336,1.5789848566055298,6.326969146728516,1.6314456462860107,2.2826740741729736, 2.070601224899292
104,1245493607,0.4720912,0.4485903,-0.24738182,0.71742517,14.663348197937012,1.5420489311218262,6.213191032409668,-0.3814883530139923,1.9289758205413818, 1.1916500329971313
105,1245510274,0.47216713,0.44824967,-0.24738161,0.71758825,15.055041313171387,1.4610642194747925,6.377111911773682,-0.7336117625236511,2.5004847049713135, 0.9292351007461548
106,1245526941,0.4721995,0.44790345,-0.24734122,0.7177971,15.131621360778809,1.587857961654663,6.186654090881348,-0.34166058897972107,2.7292957305908203, 1.178882122039795
107,1245543608,0.47226778,0.44755554,-0.24728596,0.7179882,14.578224182128906,1.2549445629119873,6.227646350860596,-0.4166802167892456,2.7993719577789307, 0.903404712677002
108,1245560275,0.47235528,0.44721973,-0.24717075,0.7181795,15.374216079711914,1.464118480682373,6.313323974609375,-0.13938432931900024,2.9693636894226074, 0.601584792137146
109,1245576942,0.47245038,0.44686466,-0.24706747,0.71837354,15.141322135925293,1.4977755546569824,6.268332004547119,-0.2803182005882263,3.054807424545288, 0.6430644392967224
110,1245593609,0.47254184,0.44649535,-0.24694309,0.7185857,14.647252082824707,1.3526928424835205,6.1997270584106445,-0.18147878348827362,3.2496049404144287, 0.6809200048446655
111,1245610276,0.47273248,0.44602752,-0.2470587,0.71871114,14.757291793823242,1.7391893863677979,6.203153610229492,-2.139108657836914,2.8624563217163086, 0.8129151463508606
112,1245626943,0.47266802,0.4458256,-0.24692497,0.7189245,14.96086311340332,1.3560031652450562,6.3400163650512695,0.8856167197227478,2.2000606060028076, 1.1487743854522705
113,1245643610,0.47250408,0.4457551,-0.24678509,0.7191241,15.070566177368164,1.5403132438659668,6.301379680633545,1.6249016523361206,1.364087700843811, 1.3529590368270874
114,1245660277,0.4722966,0.44578713,-0.2466639,0.71928215,14.345977783203125,1.5565237998962402,6.055957317352295,1.9267603158950806,0.6020073890686035, 1.3183817863464355
115,1245676944,0.4721799,0.44579604,-0.24661325,0.71937066,15.038721084594727,1.496950387954712,6.260756015777588,1.1048357486724854,0.43247681856155396, 0.9020856022834778
116,1245693611,0.47197798,0.44592172,-0.2466267,0.71942055,14.961337089538574,1.4138370752334595,6.102206707000732,1.3612699508666992,-0.6089802384376526, 1.1975023746490479
117,1245710278,0.47176728,0.44605532,-0.2467246,0.71944237,15.059182167053223,1.4746440649032593,6.195679664611816,0.9479836225509644,-1.013891339302063, 1.3948227167129517
118,1245726945,0.47159573,0.44615984,-0.24689876,0.71943027,14.89365291595459,1.4249324798583984,6.100310325622559,0.29784369468688965,-1.1469238996505737, 1.375536561012268
119,1245743612,0.47149637,0.44625217,-0.24704404,0.71938825,14.737621307373047,1.532190203666687,6.134768486022949,0.1281595379114151,-0.9543291926383972, 0.8541387319564819
120,1245760279,0.47125152,0.4464867,-0.24696878,0.71942914,14.940975189208984,1.2523208856582642,6.0705790519714355,2.265193462371826,-0.9298819303512573, 0.9264817833900452
121,1245776946,0.4709612,0.44683537,-0.24683012,0.71945024,14.788926124572754,1.3257434368133545,5.92917537689209,3.055511951446533,-1.421172022819519, 0.6959291696548462
122,1245793613,0.47080082,0.4472743,-0.24667473,0.71933573,14.816875457763672,1.286661982536316,6.0756425857543945,2.8022918701171875,-2.0075361728668213, -0.5922808051109314
123,1245810280,0.47062624,0.44771773,-0.2464721,0.71924365,15.127714157104492,1.5925638675689697,6.163543224334717,3.133527994155884,-1.8352521657943726, -0.6049591302871704
124,1245826947,0.47065985,0.44818774,-0.24656565,0.71889687,14.683756828308105,1.3025625944137573,5.956037521362305,0.681880533695221,-3.3586320877075195, -1.5897419452667236
125,1245843614,0.4705888,0.44874954,-0.24651724,0.71860933,15.147980690002441,1.5017768144607544,5.990966320037842,2.104525089263916,-3.3513193130493164, -1.4765210151672363
126,1245860281,0.4705303,0.4493579,-0.24656756,0.71825004,14.67348575592041,1.4767067432403564,5.814054489135742,1.6070754528045654,-4.100055694580078, -1.5442795753479004
127,1245876948,0.4704248,0.44997773,-0.24661447,0.71791494,15.343189239501953,1.6040185689926147,6.010858058929443,1.8468616008758545,-4.1515631675720215, -1.2637180089950562
128,1245893615,0.47016603,0.45062038,-0.24659933,0.7176866,14.542932510375977,1.6468720436096191,5.6819610595703125,2.8808460235595703,-3.9905223846435547, -0.3910675048828125
129,1245910282,0.4700648,0.4511609,-0.24670245,0.7173778,14.778132438659668,1.5401561260223389,5.695448875427246,1.3410872220993042,-3.8500752449035645, -0.8862890005111694
130,1245926949,0.46984532,0.4517054,-0.24669471,0.7171815,14.959129333496094,1.6355422735214233,5.70245885848999,2.458249092102051,-3.3602452278137207, -0.28941068053245544
131,1245943616,0.4696196,0.4522525,-0.2466931,0.7169851,14.606867790222168,1.5630230903625488,5.660129070281982,2.454253673553467,-3.3995866775512695, -0.24280837178230286
132,1245960283,0.46943468,0.45262462,-0.24675865,0.71684897,15.05959415435791,1.783354640007019,5.623013496398926,1.5333105325698853,-2.494920015335083, 0.25742679834365845
133,1245976950,0.46931607,0.45282036,-0.2469874,0.71672404,14.39803409576416,1.829996943473816,5.573968410491943,-0.03082488477230072,-1.998469352722168, 0.7769932746887207
134,1245993617,0.46926406,0.45297366,-0.247417,0.7165131,14.543539047241211,1.602867603302002,5.575148105621338,-1.513441801071167,-2.5901358127593994, 0.8736172318458557
135,1246010284,0.46892625,0.45324776,-0.2476452,0.7164823,14.85988998413086,1.6236913204193115,5.554357051849365,1.0674412250518799,-2.4567313194274902, 2.032514810562134
136,1246026951,0.46853533,0.45362416,-0.24793765,0.71639866,14.162819862365723,1.4436331987380981,5.472167491912842,1.1527059078216553,-3.41605544090271, 2.149244785308838
137,1246043618,0.46800467,0.4540661,-0.24801312,0.71643925,14.680474281311035,1.772337794303894,5.5596604347229,3.079613208770752,-2.8885488510131836, 2.4478118419647217
138,1246060285,0.4675529,0.45448753,-0.24837197,0.7163427,14.340052604675293,1.451242446899414,5.454949855804443,1.1393873691558838,-3.9869112968444824, 2.543731927871704
139,1246076952,0.4670621,0.4549907,-0.24867085,0.7162396,14.088048934936523,1.714156985282898,5.355935096740723,1.8103764057159424,-4.279550075531006, 2.3880069255828857
140,1246093619,0.46656966,0.45555356,-0.24904704,0.71607226,14.349966049194336,1.386766791343689,5.292446613311768,1.5111684799194336,-5.021791934967041, 2.332183599472046
141,1246110286,0.46599156,0.4561383,-0.2494833,0.7159244,14.282423973083496,1.5475454330444336,5.37748384475708,1.5853943824768066,-5.400540828704834, 2.9640753269195557
142,1246126953,0.46534258,0.45680708,-0.24995619,0.7157553,14.159466743469238,1.6169263124465942,5.2289934158325195,1.8608075380325317,-6.114315509796143, 3.2182424068450928
143,1246143620,0.464622,0.45748836,-0.2504917,0.7156012,13.611644744873047,1.4594498872756958,5.039140701293945,1.8402535915374756,-6.446000576019287, 3.79634690284729
144,1246160287,0.46384445,0.45812243,-0.25102624,0.7155125,14.064491271972656,1.511528730392456,5.102289199829102,1.9862333536148071,-6.098820209503174, 4.365025997161865
145,1246176954,0.46296424,0.45874003,-0.25164726,0.7154688,13.916746139526367,1.5984312295913696,5.028657913208008,1.9059886932373047,-6.321138381958008, 5.315667152404785
146,1246193621,0.46211746,0.45928988,-0.25241837,0.7153917,13.775434494018555,1.442898154258728,4.997884273529053,0.7878404855728149,-6.506627082824707, 5.639053821563721
147,1246210288,0.46114612,0.45981565,-0.25311014,0.71543634,14.027178764343262,1.5026042461395264,4.996779918670654,1.708975911140442,-5.961498260498047, 6.433162689208984
148,1246226955,0.4604244,0.4601719,-0.2541309,0.71531034,13.368752479553223,1.7032535076141357,4.862729549407959,-1.5369670391082764,-6.267543792724609, 6.001357078552246
149,1246243622,0.45975745,0.46054083,-0.25505993,0.71517104,13.451985359191895,1.1867631673812866,4.623523235321045,-1.2465574741363525,-5.981821060180664, 5.384500980377197
150,1246260289,0.46037865,0.4605234,-0.2566905,0.7141989,13.698351860046387,1.0840641260147095,4.724936008453369,-0.45225635170936584,-6.022366523742676, 5.0313401222229
151,1246276956,0.46109477,0.46040285,-0.25838616,0.7132023,13.054825782775879,1.1815390586853027,4.567431926727295,-2.2761240005493164,-5.6899261474609375, 4.4141764640808105
152,1246293623,0.46182695,0.4603044,-0.25989285,0.71224415,12.948909759521484,1.0841293334960938,4.594607353210449,-2.0829787254333496,-5.110168933868408, 3.3738393783569336
153,1246310290,0.4625234,0.4602325,-0.26125574,0.7113394,13.266959190368652,1.2322527170181274,4.53728723526001,-1.4216713905334473,-4.71251916885376, 3.0213825702667236
154,1246326957,0.46318248,0.46027055,-0.26259953,0.7103905,13.079813003540039,1.1460272073745728,4.48964786529541,-1.7683902978897095,-5.451919078826904, 2.3641483783721924
155,1246343624,0.46392828,0.4601996,-0.26413608,0.7093794,12.841767311096191,0.8779215812683105,4.5976243019104,-4.1939263343811035,-5.624651908874512, 2.1485280990600586
156,1246360291,0.46451142,0.460141,-0.2653914,0.7085668,12.72517204284668,0.8197040557861328,4.492486000061035,-2.235386610031128,-4.488637924194336, 2.4748589992523193
157,1246376958,0.46491292,0.46042323,-0.2663276,0.70776856,12.841536521911621,0.9488043189048767,4.512322902679443,0.35458865761756897,-5.4584641456604, 1.4234195947647095
158,1246393625,0.46558988,0.4601133,-0.26772833,0.7069961,12.6516695022583,1.105614423751831,4.383480072021484,-5.5318708419799805,-3.5301737785339355, 2.2502872943878174
159,1246410292,0.4663262,0.4600563,-0.26905715,0.7060428,12.4563570022583,0.8800287246704102,4.190418720245361,-4.705066680908203,-4.9937214851379395, 0.775123655796051
160,1246426959,0.4673164,0.45978174,-0.2707943,0.7049019,12.321956634521484,0.9470623135566711,4.4693217277526855,-8.87175464630127,-5.392563819885254, 0.4530823528766632
161,1246443626,0.4680659,0.4597552,-0.27222213,0.70387113,12.421704292297363,0.7419618368148804,4.157512664794922,-6.366512298583984,-5.746211051940918, 0.1486753672361374
162,1246460293,0.46862,0.46017137,-0.27319935,0.7028513,11.75239086151123,0.843076229095459,3.9030165672302246,-2.929478645324707,-6.8059611320495605, -1.5349693298339844
163,1246476960,0.46894732,0.4610116,-0.27367553,0.7018965,11.930391311645508,0.8864836692810059,3.978804111480713,1.3898669481277466,-7.471968173980713, -2.7721140384674072
164,1246493627,0.46939808,0.461573,-0.2744456,0.70092463,12.008602142333984,1.17656409740448,4.123313903808594,-1.8389155864715576,-6.915277004241943, -2.212092638015747
165,1246510294,0.46987972,0.46207276,-0.27545962,0.6998741,11.381659507751465,1.0542972087860107,3.8991565704345703,-3.7883498668670654,-7.6108808517456055, -1.8837124109268188
166,1246526961,0.47012404,0.46293768,-0.27628022,0.6988143,11.5394868850708,1.3528566360473633,3.7072954177856445,-1.0619924068450928,-9.229294776916504, -2.1395444869995117
167,1246543628,0.4703803,0.4639635,-0.27740452,0.6975151,11.321070671081543,1.5792080163955688,3.8786346912384033,-2.7898261547088623,-11.73206901550293, -2.4484214782714844
168,1246560295,0.47060075,0.46505526,-0.27894512,0.69602317,11.340439796447754,1.3218188285827637,3.7906692028045654,-4.966536045074463,-14.085164070129395, -1.757531762123108
169,1246576962,0.47044274,0.46639478,-0.2805507,0.694587,11.223268508911133,1.3438231945037842,3.4550838470458984,-3.9631075859069824,-16.060956954956055, -0.4023502767086029
170,1246593629,0.47036165,0.46772966,-0.28245813,0.6929693,10.90006160736084,1.2653923034667969,3.5895028114318848,-5.785928249359131,-17.435623168945312, -0.27386412024497986
171,1246610296,0.46963602,0.46951783,-0.28384033,0.6916861,10.755935668945312,0.7585894465446472,3.4059174060821533,0.38170015811920166,-18.093961715698242, 1.0784945487976074
172,1246626963,0.46868163,0.47148,-0.28522453,0.6904283,11.01895523071289,1.2223551273345947,3.375164270401001,2.0135257244110107,-19.280445098876953, 2.032440662384033
173,1246643630,0.4683178,0.473196,-0.2876033,0.6885118,10.557589530944824,1.300345540046692,3.288020610809326,-6.308572769165039,-22.278005599975586, 0.9793866872787476
174,1246660297,0.46813947,0.47509116,-0.28996158,0.6863354,10.323541641235352,0.9833358526229858,3.2713253498077393,-7.684056758880615,-23.570802688598633, -1.5387630462646484
175,1246676964,0.4680883,0.47730076,-0.29223216,0.68386984,10.08464527130127,0.08262882381677628,3.559055805206299,-7.634090423583984,-25.478107452392578, -4.134221076965332
176,1246693631,0.4675856,0.47993588,-0.29367703,0.68174714,9.718257904052734,-0.4538287818431854,3.341357469558716,-0.22249801456928253,-24.614627838134766, -4.491926670074463
177,1246710298,0.4664722,0.48324582,-0.2941885,0.67994887,10.065942764282227,-0.4410877823829651,2.0251431465148926,8.663651466369629,-24.95996856689453, -5.175852298736572
178,1246726965,0.46520936,0.48706388,-0.29397613,0.67817926,10.045829772949219,0.6520737409591675,3.2502076625823975,14.099177360534668,-25.207714080810547, -7.883485317230225
179,1246743632,0.46385726,0.49104145,-0.2933573,0.67650306,9.359132766723633,1.2720367908477783,2.5687150955200195,17.820234298706055,-24.498247146606445, -8.559229850769043
180,1246760299,0.46228078,0.4950932,-0.2934899,0.6745687,9.931753158569336,1.8950873613357544,2.153735637664795,14.794188499450684,-28.562904357910156, -5.939300060272217
181,1246776966,0.46105018,0.49860752,-0.2948852,0.67220986,9.51657485961914,2.4848239421844482,2.977142333984375,5.186314582824707,-30.818012237548828, -3.4869251251220703
182,1246793633,0.45951474,0.5020134,-0.2967978,0.66988057,9.349172592163086,1.3079493045806885,1.794585943222046,3.5454704761505127,-32.484256744384766, 0.043945152312517166
183,1246810300,0.4568183,0.50605965,-0.2979732,0.6681563,9.290262222290039,1.6841639280319214,2.1390297412872314,14.203042984008789,-33.37174987792969, 3.4582362174987793
184,1246826967,0.45403662,0.510214,-0.29965046,0.6661397,9.109186172485352,1.2699635028839111,2.269672155380249,11.930761337280273,-36.63345718383789, 4.471508979797363
185,1246843634,0.45069468,0.51482326,-0.3008608,0.66431487,9.032427787780762,0.2800918221473694,1.6633061170578003,17.849620819091797,-37.744258880615234, 5.065935134887695
186,1246860301,0.44733217,0.5198164,-0.30171728,0.66230774,9.098540306091309,0.7560112476348877,1.604684829711914,20.357004165649414,-39.08011245727539, 2.531557321548462
187,1246876968,0.44463184,0.5246193,-0.3028764,0.6598053,8.536688804626465,0.4205930829048157,1.289157748222351,15.001688957214355,-39.53337478637695, -0.536307692527771
188,1246893635,0.4419987,0.5296322,-0.30365413,0.6572072,8.921689987182617,0.4246063530445099,0.773756206035614,16.935604095458984,-39.517337799072266, -2.9587981700897217
189,1246910302,0.43917802,0.5351291,-0.303961,0.6544978,8.895440101623535,1.2158632278442383,0.39607366919517517,20.98607063293457,-41.04880905151367, -5.186264514923096
190,1246926969,0.43578956,0.5407443,-0.30456173,0.651863,8.302567481994629,-0.10541068017482758,0.7230329513549805,22.262277603149414,-43.354251861572266, -1.5647441148757935
191,1246943636,0.4313986,0.54655284,-0.30416813,0.650121,7.499821186065674,2.2857956886291504,2.5783209800720215,32.9000244140625,-40.009769439697266, 1.4759137630462646
192,1246960303,0.42639804,0.5519052,-0.30434516,0.6488139,7.646294116973877,-0.0021624043583869934,2.651400089263916,32.19223403930664,-39.345306396484375, 8.626470565795898
193,1246976970,0.41962945,0.55760705,-0.30145854,0.6496987,6.937353134155273,3.7656147480010986,2.7994978427886963,58.18815994262695,-27.347253799438477, 10.558768272399902
194,1246993637,0.4151283,0.56098574,-0.30194533,0.6494556,8.179824829101562,1.1874821186065674,-0.14346417784690857,25.37352752685547,-26.374832153320312, 15.000714302062988
195,1247010304,0.4065842,0.56632465,-0.29785132,0.65211225,7.088897705078125,-0.09832711517810822,0.04746802896261215,73.03571319580078,-19.226226806640625, 19.594833374023438
196,1247026971,0.39744678,0.5719219,-0.2934756,0.6548386,8.310898780822754,1.7020853757858276,-0.689378023147583,77.47964477539062,-20.516857147216797, 20.79418182373047
197,1247043638,0.38974595,0.5763275,-0.2908381,0.65677834,7.666806697845459,0.2637569308280945,-0.820496141910553,59.154396057128906,-20.048931121826172, 21.433147430419922
198,1247060305,0.38297987,0.5798935,-0.28808284,0.65883094,7.519321441650391,-0.223312109708786,-0.3126126527786255,53.960060119628906,-13.583333015441895, 18.706798553466797
199,1247076972,0.37858957,0.5823532,-0.28622794,0.6600064,7.439016819000244,-0.07885777205228806,0.18635249137878418,35.763065338134766,-9.708429336547852, 11.386550903320312
200,1247093639,0.37515235,0.5848939,-0.2837335,0.66079897,6.60616397857666,-0.7382082939147949,0.774175763130188,34.3102912902832,-8.06083869934082, 3.3211305141448975
201,1247110306,0.3717601,0.5879229,-0.28044474,0.6614317,6.439113140106201,-0.16922563314437866,1.1128947734832764,38.69279479980469,-8.79744815826416, -1.4802175760269165
202,1247126973,0.36900792,0.5907305,-0.27776822,0.6616007,6.2480621337890625,1.487410545349121,0.547037661075592,31.865568161010742,-10.0186767578125, -2.6953115463256836
203,1247143640,0.36590144,0.5935225,-0.27482504,0.6620563,6.752877712249756,0.6639348268508911,0.21362753212451935,35.01963806152344,-8.789305686950684, -1.3814527988433838
204,1247160307,0.36316544,0.59556663,-0.2722469,0.66279185,7.224863052368164,1.286179780960083,-0.08516155183315277,30.492835998535156,-4.454268455505371, 0.5409612059593201
205,1247176974,0.36236048,0.5962816,-0.2710488,0.6630805,6.412884712219238,1.00452721118927,-0.023996487259864807,12.135939598083496,-0.04080105572938919, -1.2149134874343872
206,1247193641,0.36259884,0.5966409,-0.27011368,0.6630087,5.853707313537598,-0.4715699553489685,0.10497867316007614,5.09765100479126,1.403172492980957, -5.115753173828125
207,1247210308,0.36259136,0.5977242,-0.26835176,0.6627524,5.5479888916015625,-0.5216341018676758,0.7286115884780884,11.341395378112793,-1.0447555780410767, -9.22191047668457
208,1247226975,0.36244282,0.5995871,-0.26675743,0.661794,5.6269659996032715,0.07834579795598984,1.0492801666259766,11.810776710510254,-8.174454689025879, -11.109724998474121
209,1247243642,0.36220038,0.60220194,-0.26663542,0.6595979,5.0670976638793945,0.8762520551681519,1.6827092170715332,5.105446815490723,-20.563875198364258, -9.087953567504883
210,1247260309,0.36365122,0.6045157,-0.27054635,0.6550752,5.060343265533447,0.7224628329277039,3.00193190574646,-25.208703994750977,-35.81526565551758, -5.294578552246094
211,1247276976,0.36669204,0.6070762,-0.27641773,0.6485282,7.260842800140381,-2.5943281650543213,3.5914230346679688,-43.78927993774414,-47.37200927734375, -9.816956520080566
212,1247293643,0.36722022,0.61193305,-0.27750096,0.6431802,8.484358787536621,-5.795703411102295,1.1144276857376099,-3.860661506652832,-45.40367126464844, -20.043302536010742
213,1247310310,0.36818126,0.6147957,-0.2775519,0.6398701,9.846139907836914,0.7743015885353088,2.120548963546753,-2.2363288402557373,-24.5860538482666, -17.558700561523438
214,1247326977,0.37757745,0.6102314,-0.28947052,0.6334507,11.717679023742676,-3.490828037261963,7.108371257781982,-114.8382797241211,-19.03782844543457, 1.8061720132827759
215,1247343644,0.38619262,0.6032716,-0.30854982,0.6258721,8.32796573638916,-1.5588104724884033,0.929204523563385,-151.24566650390625,-33.7994384765625, 36.863739013671875
216,1247360311,0.4067347,0.59097564,-0.34023756,0.60790896,4.8673481941223145,2.0231196880340576,2.600241184234619,-291.2473449707031,-62.07024002075195, 21.51886558532715
217,1247376978,0.42884535,0.5777006,-0.36991474,0.5878068,3.427382469177246,-4.0387654304504395,-1.2986583709716797,-296.9744873046875,-57.41143035888672, 3.1569957733154297
218,1247393645,0.44250777,0.5662455,-0.3898876,0.5757957,5.160885810852051,-9.942848205566406,1.316093921661377,-198.18348693847656,-25.38651466369629, 17.848569869995117
219,1247410312,0.43504572,0.5633971,-0.39098144,0.58348316,2.9620120525360107,-15.166565895080566,1.57271409034729,37.850101470947266,18.032695770263672, 64.49819946289062
220,1247426979,0.4122643,0.56445223,-0.37682065,0.6078143,1.709474802017212,-7.776599884033203,2.942167043685913,214.919921875,71.20378112792969, 105.67646026611328
221,1247443646,0.38731793,0.5601256,-0.3596818,0.6378662,2.38675594329834,0.7258481383323669,3.563103675842285,235.42320251464844,118.5386734008789, 133.143310546875
222,1247460313,0.36918545,0.5493491,-0.34319672,0.66643363,0.12921637296676636,9.446821212768555,3.2294325828552246,185.4743194580078,156.01272583007812, 117.8935317993164
223,1247476980,0.3686257,0.5299947,-0.34006014,0.68379813,2.2383034229278564,10.975462913513184,1.497536540031433,9.639107704162598,160.4318084716797, 80.00250244140625
224,1247493647,0.3838217,0.5028369,-0.3509458,0.69041526,4.842132091522217,10.774274826049805,-2.198582172393799,-158.7230224609375,159.2635955810547, 48.46082305908203
225,1247510314,0.40282682,0.47485936,-0.3663919,0.69137275,4.007204055786133,6.486729621887207,-7.446094036102295,-209.48484802246094,140.90687561035156, 33.58498001098633
226,1247526981,0.41251966,0.45593327,-0.3717578,0.6955204,2.856832981109619,-1.325140118598938,-12.389269828796387,-98.07156372070312,113.06989288330078, 31.217376708984375
227,1247543648,0.40814248,0.45245665,-0.3559807,0.70850587,2.954777240753174,1.9437029361724854,-12.160551071166992,113.64629364013672,91.3986587524414, 17.765928268432617
228,1247560315,0.39999616,0.4578056,-0.33422428,0.7202163,1.454663634300232,6.685214996337891,-13.00879955291748,176.1893768310547,52.48140335083008, -7.599055290222168
229,1247576982,0.3972,0.46293038,-0.32662818,0.7219708,1.595475673675537,5.172504901885986,-12.137502670288086,65.66505432128906,-3.902914047241211, -16.18088150024414
230,1247593649,0.39695457,0.466882,-0.3310997,0.7175106,0.847201943397522,0.24409164488315582,-10.886910438537598,-19.554357528686523,-44.636688232421875, -4.593406677246094
231,1247610316,0.39592606,0.47137702,-0.33928457,0.71128917,0.929364025592804,-0.5727056860923767,-8.762539863586426,-37.841346740722656,-64.50977325439453, 5.162527561187744
232,1247626983,0.39349696,0.4775799,-0.34547535,0.7054961,-0.12186722457408905,-0.29716014862060547,-6.338226318359375,-17.84891700744629,-69.01696014404297, 2.717332363128662
233,1247643650,0.38937226,0.48613012,-0.34769788,0.7008374,-0.06619320809841156,0.810164749622345,-9.569599151611328,16.04615592956543,-69.78202819824219, -4.621088981628418
234,1247660317,0.38308865,0.4980549,-0.3496083,0.6949522,14.709490776062012,-2.986069440841675,3.579622983932495,30.896665573120117,-94.14268493652344, -6.6153883934021
235,1247676984,0.36529955,0.52082354,-0.3384142,0.6933794,31.37158966064453,14.087786674499512,5.278511047363281,171.87847900390625,-124.38337707519531, -11.376603126525879
236,1247693651,0.35229614,0.54129463,-0.33480963,0.68614155,-6.063487529754639,10.68214225769043,1.139621615409851,99.39807891845703,-141.5594482421875, -15.3015775680542
237,1247710318,0.336615,0.5579153,-0.33074522,0.6826629,1.6027655601501465,0.37499696016311646,0.677412211894989,110.77685546875,-114.58905792236328, 13.925064086914062
238,1247726985,0.32624915,0.56931204,-0.33223686,0.67754287,0.903577446937561,-0.9430516362190247,-1.22251296043396,48.51788330078125,-97.1881103515625, 18.306236267089844
239,1247743652,0.32180834,0.57481444,-0.3400897,0.6710937,2.43491792678833,-4.309946537017822,-0.6195414662361145,-20.516714096069336,-75.66065216064453, 26.015029907226562
240,1247760319,0.31691712,0.5803803,-0.34390557,0.6666719,5.820803165435791,-0.15856674313545227,-0.18822181224822998,4.833009719848633,-60.08080291748047, 16.275537490844727
241,1247776986,0.31285298,0.5856765,-0.3474824,0.6620892,3.082984685897827,0.9877074360847473,0.6275319457054138,1.6772741079330444,-57.055519104003906, 11.807038307189941
242,1247793653,0.30888045,0.59156644,-0.3502186,0.65725875,3.0469138622283936,-0.793772280216217,0.40255025029182434,5.823024272918701,-58.86861038208008, 6.068882942199707
243,1247810320,0.30385762,0.5984628,-0.35076886,0.65305,1.916769027709961,-2.7583019733428955,-0.040074460208415985,23.614492416381836,-58.9290771484375, 0.7389048337936401
244,1247826987,0.2990717,0.6055657,-0.34966865,0.6492906,2.882783889770508,-1.3267818689346313,0.6059505343437195,31.57448959350586,-54.1402702331543, -6.858318328857422
245,1247843654,0.2970106,0.61123383,-0.35105613,0.64415634,2.261523723602295,-0.40866485238075256,-0.5436825752258301,2.8618178367614746,-52.2136344909668, -8.142509460449219
246,1247860321,0.29457992,0.6169299,-0.35148525,0.6395925,2.1041817665100098,0.474511981010437,-0.770587146282196,10.085098266601562,-49.01704025268555, -9.487336158752441
247,1247876988,0.2918621,0.62280786,-0.35099864,0.6353951,2.106722354888916,0.3428013026714325,-0.559773862361908,16.573226928710938,-47.23170471191406, -11.82325267791748
248,1247893655,0.29007217,0.6281465,-0.35135943,0.63074315,1.972726821899414,0.47558799386024475,-0.49871814250946045,6.708334922790527,-46.41718673706055, -11.879806518554688
249,1247910322,0.2898145,0.6330961,-0.35443512,0.62415767,1.4617116451263428,0.6876263618469238,1.029436707496643,-17.13761329650879,-54.92348098754883, -9.725373268127441
250,1247926989,0.28904548,0.6387925,-0.35882637,0.6161497,2.2020328044891357,-0.9951037764549255,1.595386266708374,-22.54367446899414,-68.36722564697266, -6.457528591156006
251,1247943656,0.2848699,0.6466861,-0.36157313,0.6082034,3.4650497436523438,-0.3759434223175049,0.9267257452011108,3.8970468044281006,-82.72305297851562, -4.6104230880737305
252,1247960323,0.28062552,0.6542955,-0.36760876,0.5983398,4.308608531951904,-3.8793251514434814,3.320023775100708,-14.875248908996582,-96.81745147705078, 7.218794345855713
253,1247976990,0.27808216,0.6625896,-0.37599054,0.5850441,4.494848251342773,2.4364736080169678,1.483270287513733,-39.547245025634766,-115.52023315429688, 2.2776265144348145
254,1247993657,0.2751636,0.6721948,-0.38474375,0.56957144,4.2946367263793945,1.1748385429382324,0.8039529323577881,-42.44814682006836,-132.5308837890625, -1.9855551719665527
255,1248010324,0.26931682,0.68404853,-0.39087301,0.5538633,7.86098575592041,5.062575340270996,2.565499782562256,-15.000580787658691,-145.30967712402344, -9.008051872253418
256,1248026991,0.2660466,0.695483,-0.40091798,0.53365475,9.23040771484375,4.169451713562012,4.788416385650635,-54.8729362487793,-165.39312744140625, -7.454030513763428
257,1248043658,0.25882414,0.70859903,-0.41124848,0.51163715,11.677769660949707,0.7811892032623291,8.765608787536621,-38.89596176147461,-191.89382934570312, 0.573923647403717
258,1248060325,0.24928468,0.72281635,-0.42142817,0.4876394,14.205877304077148,1.3159101009368896,13.644566535949707,-30.702404022216797,-212.0898895263672, 1.3376924991607666
259,1248076992,0.24219836,0.73623824,-0.43191832,0.46123713,18.002058029174805,0.9716461896896362,18.08234214782715,-52.249107360839844,-215.33184814453125, -7.16825008392334
260,1248093659,0.24173824,0.747622,-0.4428166,0.4318999,16.681434631347656,2.060354471206665,13.217846870422363,-99.18154907226562,-205.40126037597656, -24.994220733642578
261,1248110326,0.24118467,0.76036614,-0.4484201,0.4032278,13.629987716674805,-3.735079765319824,8.714107513427734,-78.6295166015625,-197.97425842285156, -55.01018524169922
262,1248126993,0.24206504,0.76918924,-0.45544487,0.37725666,8.385193824768066,-7.835315227508545,9.919309616088867,-88.25981140136719,-171.17929077148438, -35.18348693847656
263,1248143660,0.2321753,0.77850354,-0.45668814,0.36257815,1.7499909400939941,-11.79094409942627,3.3964765071868896,19.784236907958984,-137.01437377929688, -20.8165340423584
264,1248160327,0.21712756,0.78431493,-0.45216906,0.3650326,0.912247359752655,-5.726719856262207,15.787995338439941,109.77906799316406,-43.47835159301758, -0.6891307830810547
265,1248176994,0.21431758,0.7841257,-0.44879305,0.37121406,-0.6948758959770203,4.065027236938477,21.857948303222656,43.477813720703125,27.8242244720459, -1.0778309106826782
266,1248193661,0.22374529,0.77753705,-0.4478009,0.3805901,-2.321152687072754,0.6833505630493164,17.736371994018555,-28.058076858520508,95.34172058105469, 5.118114948272705
267,1248210328,0.2317749,0.76788485,-0.4393642,0.40446576,-4.795847415924072,1.6674892902374268,18.72162628173828,38.86589431762695,187.8885040283203, 0.7508505582809448
268,1248226995,0.24254033,0.752606,-0.4275897,0.43809336,-5.254522800445557,0.8185323476791382,16.675617218017578,54.249176025390625,268.50738525390625, 8.157057762145996
269,1248243662,0.25827658,0.7307081,-0.4136796,0.47773254,-1.0665632486343384,1.7552869319915771,11.577489852905273,41.612735748291016,337.6839599609375, 11.69284439086914
270,1248260329,0.28201708,0.7006849,-0.40005195,0.51910096,3.1310291290283203,4.878306865692139,6.588306903839111,-9.054488182067871,395.34368896484375, 13.072809219360352
271,1248276996,0.31580642,0.6611238,-0.3935554,0.55524385,7.538215160369873,7.571253776550293,0.5113952159881592,-115.85665130615234,418.101806640625, 27.752363204956055
272,1248293663,0.34706497,0.61957103,-0.3834664,0.59045017,11.63803482055664,6.130751132965088,-9.283753395080566,-97.5123062133789,422.5721435546875, 24.54874038696289
273,1248310330,0.371827,0.5820203,-0.3661286,0.6236562,12.438398361206055,5.554985046386719,-16.243911743164062,-36.143672943115234,398.3778381347656, 4.810492992401123
274,1248326997,0.38861546,0.55066496,-0.34891495,0.6511563,10.586368560791016,-3.8048954010009766,-25.183847427368164,-3.339289665222168,329.1670837402344, 9.4273681640625
275,1248343664,0.39245316,0.5332971,-0.3190104,0.67809093,5.779309272766113,1.0694199800491333,-26.461627960205078,138.58018493652344,268.1228942871094, -15.83518123626709
276,1248360331,0.40245596,0.5171107,-0.31013545,0.68879753,-0.02398449182510376,-0.6330116987228394,-24.775835037231445,-14.5404691696167,160.68397521972656, -13.849746704101562
277,1248376998,0.4077967,0.50685704,-0.30747813,0.694446,-0.6124305725097656,-7.745314598083496,-23.035165786743164,-21.78057098388672,88.14134979248047, 3.6395103931427
278,1248393665,0.40725818,0.5035443,-0.30363834,0.69884753,-1.1310936212539673,-3.324645757675171,-17.3121280670166,21.264175415039062,42.11833572387695, 9.201750755310059
279,1248410332,0.40696275,0.5015839,-0.3063511,0.6992453,-0.6361509561538696,-1.5482889413833618,-13.33678150177002,-15.592668533325195,4.2841997146606445, 16.59455680847168
280,1248426999,0.4062249,0.5013686,-0.31305826,0.69685405,-0.7946123480796814,-1.8283692598342896,-12.495064735412598,-34.23920440673828,-25.597898483276367, 20.99256134033203
281,1248443666,0.40246874,0.5087435,-0.32354924,0.68885046,2.249882698059082,2.2653963565826416,-25.967988967895508,-32.8199348449707,-98.18641662597656, 16.46038818359375
282,1248460333,0.38998702,0.52584934,-0.32954463,0.6802891,24.67868423461914,-0.7764046788215637,6.193713665008545,44.67271423339844,-152.6464385986328, 18.922515869140625
283,1248477000,0.36933565,0.5490828,-0.31905162,0.6784583,1.1936156749725342,13.175753593444824,-3.0863633155822754,183.03431701660156,-131.46434020996094, 1.6166876554489136
284,1248493667,0.35689777,0.56565803,-0.32329115,0.66943103,-0.647126317024231,3.4687447547912598,-2.0860586166381836,50.48066329956055,-147.031982421875, 15.516372680664062
285,1248510334,0.34371132,0.5797166,-0.32318297,0.66433716,-0.6341598033905029,-2.5670316219329834,-0.9657912850379944,75.96536254882812,-111.24528503417969, 17.338151931762695
286,1248527001,0.3381986,0.588055,-0.33054247,0.65616673,-0.04167938977479935,-5.3163228034973145,-1.3467326164245605,-9.057302474975586,-98.09503173828125, 17.39735221862793
287,1248543668,0.3337207,0.5943645,-0.3368322,0.64954275,1.545426607131958,-1.625627875328064,0.6510111689567566,-9.580493927001953,-77.94593048095703, 16.47527503967285
288,1248560335,0.32990935,0.59973013,-0.342191,0.6437304,1.2382670640945435,-2.269923210144043,-1.9549506902694702,-8.421724319458008,-66.87360382080078, 13.71191692352295
289,1248577002,0.32297382,0.60598487,-0.3425251,0.6412074,2.8703088760375977,1.1704849004745483,1.026644229888916,36.46717834472656,-53.25765609741211, 12.132028579711914
290,1248593669,0.31860337,0.6107378,-0.34547842,0.637288,1.8993430137634277,3.4579594135284424,0.8715923428535461,7.603305339813232,-52.36392593383789, 12.206350326538086
291,1248610336,0.31649402,0.61493134,-0.3499287,0.6318553,1.086687684059143,0.12031010538339615,0.21354679763317108,-13.283112525939941,-54.295249938964844, 6.6991472244262695
292,1248627003,0.31468585,0.619219,-0.35353002,0.626544,0.9874398708343506,-0.9987768530845642,0.7094956636428833,-10.372809410095215,-51.71098327636719, 1.8485952615737915
293,1248643670,0.31468228,0.6223479,-0.3583421,0.6206845,1.2763211727142334,0.024550458416342735,1.6699284315109253,-27.11023712158203,-47.38445281982422, 0.8417254090309143
294,1248660337,0.31512377,0.6252056,-0.3648918,0.6137337,0.245099276304245,-1.7735275030136108,-0.8452100157737732,-39.70758056640625,-53.67767333984375, 4.698537826538086
295,1248677004,0.31463194,0.6288048,-0.37131983,0.6064099,-0.6664104461669922,-0.3703075051307678,0.9798964858055115,-34.50862503051758,-60.525638580322266, 5.40915584564209
296,1248693671,0.3140321,0.63280684,-0.37890303,0.5978061,-0.07179500162601471,0.4921329617500305,0.7141202092170715,-41.25516891479492,-70.59798431396484, 7.0577287673950195
297,1248710338,0.31290495,0.63772947,-0.3867383,0.588069,0.7155559062957764,0.5462714433670044,1.574833869934082,-40.96379470825195,-81.3027114868164, 5.501032829284668
298,1248727005,0.31139702,0.6433889,-0.3948039,0.57724565,1.0317778587341309,1.2230916023254395,1.210771083831787,-41.530548095703125,-90.64674377441406, 3.779202938079834
299,1248743672,0.30977452,0.649591,-0.4033398,0.5651445,1.4115476608276367,1.995886206626892,1.0861672163009644,-45.19770050048828,-99.85066223144531, 2.146108627319336
300,1248760339,0.30929846,0.6556084,-0.4129414,0.55135435,1.8305749893188477,3.143350601196289,1.361641764640808,-59.534812927246094,-105.8416519165039, -0.5735236406326294
301,1248777006,0.30990034,0.66146827,-0.4239834,0.53540593,2.697098731994629,1.5806256532669067,2.1486544609069824,-76.31074523925781,-115.06224060058594, -2.221231460571289
302,1248793673,0.30922085,0.6684688,-0.43437538,0.51850754,3.197633981704712,-0.969820499420166,3.280754804611206,-68.4209213256836,-126.04481506347656, -5.771152496337891
303,1248810340,0.30517957,0.6777267,-0.4418043,0.5023555,4.01287841796875,-1.7111417055130005,2.486799955368042,-35.37643814086914,-134.54129028320312, -12.595808029174805
304,1248827007,0.29982448,0.6879365,-0.44792485,0.48601654,4.1139445304870605,-0.6427733302116394,3.1399588584899902,-23.3106746673584,-140.06338500976562, -17.495288848876953
305,1248843674,0.2935155,0.69888973,-0.45378926,0.46848375,5.588444709777832,-0.46094757318496704,5.188926696777344,-20.087345123291016,-150.7371063232422, -20.29677391052246
306,1248860341,0.28617254,0.7107124,-0.45986325,0.44890866,7.087555885314941,0.637056291103363,9.73958969116211,-20.410043716430664,-167.198486328125, -22.814245223999023
307,1248877008,0.27851027,0.7235321,-0.46538275,0.42702752,7.315672397613525,2.408323287963867,10.406990051269531,-22.452116012573242,-181.7890625, -32.22530746459961
308,1248893675,0.27120382,0.7366543,-0.46881413,0.40497196,7.85391902923584,5.060709476470947,10.371551513671875,-18.027488708496094,-178.7291259765625, -44.91904067993164
309,1248910342,0.26684,0.7494236,-0.4735104,0.37808537,13.362675666809082,-0.6989738345146179,7.032757759094238,-52.604705810546875,-195.40463256835938, -54.491695404052734
310,1248927009,0.25847936,0.76275307,-0.47499526,0.35464862,18.882104873657227,-4.6155476570129395,14.648785591125488,-11.370965957641602,-186.4912872314453, -56.2121696472168
311,1248943676,0.24784514,0.77557576,-0.47698122,0.33097437,12.795258522033691,-13.391100883483887,9.626006126403809,-2.3505685329437256,-195.36566162109375, -46.96949768066406
312,1248960343,0.22745278,0.7874635,-0.47517422,0.31996274,9.57540225982666,-12.39360237121582,9.210884094238281,98.10032653808594,-151.5454864501953, -20.638896942138672
313,1248977010,0.21642815,0.7917328,-0.47777897,0.31312224,5.635072708129883,-3.48535418510437,15.194212913513184,39.21028518676758,-88.70703887939453, 13.838949203491211
314,1248993677,0.22325832,0.7890825,-0.4841436,0.30513862,2.779353141784668,0.8130725622177124,18.758243560791016,-80.16266632080078,-27.218303680419922, 16.83225440979004
315,1249010344,0.246745,0.7803169,-0.4928914,0.295433,0.8261207342147827,1.586660623550415,16.8705997467041,-190.62149047851562,27.836702346801758, 12.462593078613281
316,1249027011,0.2727034,0.76860714,-0.49916935,0.29275584,1.4292869567871094,-4.15000581741333,12.40689754486084,-179.97146606445312,83.9746322631836, 15.997771263122559
317,1249043678,0.28770646,0.75785244,-0.49888697,0.3065887,2.062533140182495,-7.517198085784912,10.896588325500488,-50.409584045410156,143.9503173828125, 30.907432556152344
318,1249060345,0.29229215,0.7483477,-0.49183428,0.33561903,1.1524289846420288,-7.342903137207031,9.965237617492676,72.71522521972656,198.1146240234375, 43.260040283203125
319,1249077012,0.29293433,0.7378792,-0.47913912,0.3743655,0.7829453945159912,-4.848292827606201,8.462882041931152,136.94874572753906,248.3047332763672, 46.10378646850586
320,1249093679,0.29582068,0.7236558,-0.46373224,0.41685116,1.2432777881622314,-1.751218557357788,7.234042167663574,137.32351684570312,289.7823791503906, 46.5423469543457
321,1249110346,0.30692464,0.70286566,-0.45028597,0.45718694,1.2312920093536377,0.7442399859428406,5.209970951080322,70.62422180175781,320.114501953125, 49.414817810058594
322,1249127013,0.32677057,0.6754374,-0.43995434,0.49340212,2.001436233520508,1.9943690299987793,2.5449368953704834,-8.163211822509766,341.6185302734375, 48.93906021118164
323,1249143680,0.34979808,0.64285684,-0.43040377,0.52832687,3.9623234272003174,-0.09822079539299011,-2.342769145965576,-41.04628372192383,361.1068115234375, 54.534236907958984
324,1249160347,0.37082738,0.606971,-0.41822127,0.5649465,4.811284065246582,-0.8161439895629883,-4.682860374450684,-25.56001853942871,381.2752685546875, 64.03469848632812
325,1249177014,0.388142,0.56883955,-0.40386727,0.6022116,5.398313999176025,-0.08826036006212234,-6.685959815979004,-5.460744857788086,387.8402099609375, 77.52184295654297
326,1249193681,0.40768033,0.52837336,-0.39204204,0.63318366,6.867343902587891,0.37960514426231384,-11.19961166381836,-48.33161163330078,372.6388244628906, 67.91337585449219
327,1249210348,0.42102855,0.49185222,-0.37377712,0.66415906,11.931402206420898,0.8440597057342529,-17.96946144104004,13.325146675109863,357.2862243652344, 60.889183044433594
328,1249227015,0.43689382,0.4583053,-0.35965633,0.68536675,9.528375625610352,6.866147041320801,-15.88287353515625,-30.566476821899414,305.7674560546875, 27.5556583404541
329,1249243682,0.45117077,0.42801276,-0.35526258,0.6978815,6.864379405975342,-1.9581595659255981,-22.878564834594727,-83.16239929199219,230.43971252441406, 31.73830795288086
330,1249260349,0.45504007,0.40834275,-0.35057178,0.70943236,1.7210757732391357,-1.4477357864379883,-24.992727279663086,-20.393722534179688,152.83819580078125, 51.867977142333984
331,1249277016,0.45406953,0.39893797,-0.35084227,0.7152477,-0.3269832134246826,4.492298126220703,-25.002086639404297,7.450822830200195,57.409202575683594, 41.11688232421875
332,1249293683,0.4495417,0.40090826,-0.3557499,0.71458155,-0.950126051902771,4.138227462768555,-22.841678619384766,13.121073722839355,-38.823604583740234, 24.181354522705078
333,1249310350,0.43887454,0.41390413,-0.35901344,0.71216714,-0.4621583819389343,3.989471912384033,-18.928043365478516,66.2512435913086,-107.20606994628906, 17.6357421875
334,1249327017,0.42421168,0.4348063,-0.35804024,0.7090805,-0.3777148723602295,7.052459239959717,-12.588431358337402,103.58946990966797,-141.7578887939453, 8.646438598632812
335,1249343684,0.40860265,0.4570218,-0.35469866,0.70594895,-0.741628885269165,6.022818088531494,-5.480022430419922,121.63079071044922,-143.52040100097656, 2.868973731994629
336,1249360351,0.39118588,0.47479448,-0.34910038,0.7068754,17.55590057373047,-2.0800621509552,21.060148239135742,135.61929321289062,-107.2809829711914, 26.812522888183594
337,1249377018,0.36962616,0.5010404,-0.3237854,0.71238893,12.15986442565918,21.705293655395508,-5.322396278381348,278.76385498046875,-91.01167297363281, -25.54499626159668
338,1249393685,0.35965768,0.5169722,-0.33394003,0.7013346,1.5081682205200195,-0.552105724811554,-13.1195707321167,1.6988385915756226,-161.74484252929688, 21.184505462646484
339,1249410352,0.34698933,0.53529054,-0.34202543,0.68998635,12.328327178955078,6.179821014404297,1.1596057415008545,26.568424224853516,-175.13063049316406, 20.586061477661133
340,1249427019,0.3345183,0.5535805,-0.34290275,0.68122226,-3.7858357429504395,-1.35481858253479,0.6024014353752136,66.0114974975586,-147.9212646484375, -0.5200627446174622
341,1249443686,0.32665074,0.56595296,-0.34909475,0.67166173,-0.08863486349582672,-4.687686443328857,-3.1588823795318604,8.132143020629883,-124.77810668945312, 10.174304962158203
342,1249460353,0.32727888,0.5720893,-0.35876393,0.6609773,0.45731109380722046,-5.237009048461914,-5.769954681396484,-57.64370346069336,-87.80752563476562, -3.2140958309173584
343,1249477020,0.3271609,0.57665044,-0.36289707,0.6547869,1.374140739440918,-1.3777092695236206,-3.332810163497925,-21.971973419189453,-52.3081169128418, -7.728219985961914
344,1249493687,0.32496312,0.58182776,-0.36139548,0.65212643,1.9959100484848022,-0.33919256925582886,-3.0789847373962402,21.834409713745117,-33.62759017944336, -14.342958450317383
345,1249510354,0.31829587,0.58928293,-0.35261852,0.6535241,0.819684624671936,2.4913666248321533,-2.6996009349823,87.49752044677734,-22.4876651763916, -20.043973922729492
346,1249527021,0.3153286,0.593879,-0.3498617,0.6522825,0.6414765119552612,3.370725631713867,-0.08680868148803711,32.77477264404297,-24.578153610229492, -11.094069480895996
347,1249543688,0.31576496,0.596676,-0.35258502,0.6480386,-0.3603092432022095,1.1992011070251465,-0.6553342938423157,-16.846811294555664,-32.578792572021484, -6.083993434906006
348,1249560355,0.3172527,0.59906405,-0.35768133,0.6422906,-0.7752480506896973,0.2826250195503235,1.2227096557617188,-36.277122497558594,-39.62323760986328, -3.2719788551330566
349,1249577022,0.31914327,0.6015624,-0.36434725,0.6352333,-0.14598895609378815,0.07008662819862366,0.5440188050270081,-47.8519287109375,-48.078128814697266, -1.6956524848937988
350,1249593689,0.320702,0.604589,-0.37107724,0.62763375,1.4481861591339111,0.32715216279029846,0.291288286447525,-46.96073913574219,-53.71116638183594, -2.4817616939544678
351,1249610356,0.32096142,0.60803694,-0.3773241,0.6204043,0.8948096632957458,0.13590937852859497,0.8270580172538757,-37.60322952270508,-56.336456298828125, 0.8754371404647827
352,1249627023,0.31970683,0.61209226,-0.3836887,0.613118,-0.1678757220506668,0.7000159025192261,1.3751691579818726,-30.58285903930664,-63.458168029785156, 6.131640911102295
353,1249643690,0.31796083,0.6166696,-0.39155743,0.6044025,-0.2616514265537262,-0.5356597304344177,2.053830623626709,-37.47712326049805,-76.39103698730469, 10.032669067382812
354,1249660357,0.31517923,0.6225959,-0.40020666,0.5940297,-1.812301516532898,-2.5133323669433594,1.7678943872451782,-37.838348388671875,-93.64604949951172, 10.37554931640625
355,1249677024,0.31091657,0.63070095,-0.4078522,0.5824122,1.2882481813430786,-2.840546131134033,2.732090950012207,-26.09746551513672,-109.8787841796875, 3.3627591133117676
356,1249693691,0.30524874,0.63980466,-0.4150224,0.5702892,2.9234042167663574,0.7191508412361145,1.9182116985321045,-17.383638381958008,-119.13079833984375, 2.9727554321289062
357,1249710358,0.30114403,0.6488462,-0.42353156,0.55581665,4.336912631988525,3.4857869148254395,1.845123052597046,-36.34809875488281,-127.68673706054688, -1.9928430318832397
358,1249727025,0.29556003,0.65875804,-0.4315716,0.5407662,3.8076400756835938,3.2466819286346436,1.1993043422698975,-27.831806182861328,-137.04647827148438, -2.0615291595458984
359,1249743692,0.28644615,0.6711084,-0.43751732,0.5254912,4.824365139007568,2.790320873260498,2.6245813369750977,0.24588315188884735,-153.44345092773438, -6.030794143676758
360,1249760359,0.2738467,0.68633837,-0.44196945,0.5085379,5.87959623336792,1.1660826206207275,5.205556392669678,22.36669158935547,-179.28395080566406, -12.229005813598633
361,1249777026,0.26041195,0.7024634,-0.44783193,0.48803422,8.278664588928223,-0.16978293657302856,8.721879005432129,12.288167953491211,-204.59632873535156, -12.036300659179688
362,1249793693,0.24866241,0.71752006,-0.45607713,0.46403193,10.154123306274414,0.42252424359321594,9.584988594055176,-16.5272274017334,-217.34725952148438, -9.167912483215332
363,1249810360,0.2411668,0.7300621,-0.46640474,0.4373953,11.007290840148926,2.845433235168457,11.35130786895752,-56.7099723815918,-212.9381103515625, -9.083553314208984
364,1249827027,0.24113543,0.7393619,-0.4787252,0.40745547,11.22082233428955,3.278878688812256,14.324356079101562,-116.10868072509766,-199.5908966064453, -16.573163986206055
365,1249843694,0.2434061,0.7481621,-0.48817512,0.37774584,11.267352104187012,0.059325963258743286,8.222078323364258,-119.78146362304688,-185.20068359375, -35.58320999145508
366,1249860361,0.2412454,0.7574974,-0.49561843,0.34980094,9.501258850097656,-5.800785541534424,3.070204973220825,-84.91790771484375,-189.35491943359375, -33.32537841796875
367,1249877028,0.22809023,0.76860046,-0.49578485,0.3338048,4.782717704772949,-7.674161434173584,3.973188877105713,33.450958251953125,-156.8998565673828, -31.16778564453125
368,1249893695,0.20985031,0.7788098,-0.49095228,0.32921734,2.214113235473633,-6.120193004608154,10.424234390258789,109.19060516357422,-104.11434173583984, -25.12159538269043
369,1249910362,0.20522293,0.7812714,-0.49014908,0.32749465,-0.03982890397310257,0.17259395122528076,19.752487182617188,25.586652755737305,-31.25364112854004, -4.16361141204834
370,1249927029,0.22202648,0.7770543,-0.49395856,0.32077393,-2.0157487392425537,4.263003826141357,17.77921485900879,-126.16780090332031,22.34758186340332, -12.219584465026855
371,1249943696,0.24884774,0.7677435,-0.49856186,0.31635547,-1.3527185916900635,-1.0222173929214478,13.92347240447998,-181.3251953125,78.50183868408203, -9.281363487243652
372,1249960363,0.2719934,0.7567211,-0.49910715,0.32293198,-0.8162742853164673,-4.508277416229248,9.109489440917969,-118.31334686279297,134.4964141845703, 1.8383097648620605
373,1249977030,0.28661796,0.7462551,-0.4934435,0.34273496,-0.1765545755624771,-5.43738317489624,7.567789077758789,-13.788509368896484,184.43450927734375, 11.144722938537598
374,1249993697,0.29642838,0.7350911,-0.48344713,0.37155107,0.07886403799057007,-3.623737096786499,6.380976676940918,50.30023193359375,224.5347137451172, 20.307703018188477
375,1250010364,0.30697468,0.72119874,-0.4718524,0.40372542,1.0101466178894043,-2.3548760414123535,5.723429203033447,56.26216125488281,254.1940460205078, 26.25396728515625
376,1250027031,0.3226505,0.70247287,-0.46242893,0.4342672,2.297499656677246,-0.048705436289310455,4.744002819061279,9.294970512390137,271.5753173828125, 35.02207565307617
377,1250043698,0.34502295,0.67781365,-0.45653525,0.46163124,4.039327621459961,0.4416508972644806,2.4752328395843506,-56.8592643737793,287.420654296875, 43.906490325927734
378,1250060365,0.36855468,0.6491606,-0.4512436,0.48901656,5.324038982391357,0.20847976207733154,-0.09329007565975189,-73.58121490478516,302.4725036621094, 55.61045837402344
379,1250077032,0.38968888,0.61791116,-0.4453427,0.5176856,6.578493118286133,-0.44234102964401245,-2.247044086456299,-63.43006896972656,311.1642761230469, 72.24678802490234
380,1250093699,0.4037879,0.5875077,-0.43504345,0.5500247,5.865907192230225,-0.9843848347663879,-4.571723937988281,-4.375850200653076,314.1636047363281, 85.8448257446289
381,1250110366,0.41428348,0.5581998,-0.4213629,0.5824395,4.78786039352417,4.170921802520752,-3.7986626625061035,26.23887062072754,309.1811828613281, 82.7591781616211
382,1250127033,0.42924896,0.5268984,-0.4116966,0.6071485,5.635751724243164,3.3125102519989014,-7.441926956176758,-35.04201126098633,289.3200378417969, 64.22203826904297
383,1250143700,0.44200742,0.49870032,-0.39833587,0.6302826,5.128011226654053,4.491246700286865,-11.900062561035156,-6.933516979217529,275.65350341796875, 46.71491622924805
384,1250160367,0.45421353,0.47428942,-0.38460457,0.6487056,6.290859699249268,1.637777328491211,-14.325726509094238,-4.845802307128906,243.16030883789062, 23.276397705078125
385,1250177034,0.45887217,0.45759332,-0.3666531,0.66754025,4.910488128662109,-1.8614299297332764,-17.222885131835938,63.79256820678711,203.84259033203125, 24.130146026611328
386,1250193701,0.4565531,0.448656,-0.34857672,0.6846615,1.5619494915008545,1.8504891395568848,-18.267602920532227,106.54403686523438,146.22640991210938, 30.77425765991211
387,1250210368,0.45354056,0.44509485,-0.3401489,0.6931742,-0.0000817030668258667,5.437277317047119,-19.550304412841797,59.51360321044922,62.96696853637695, 23.93430519104004
388,1250227035,0.4497997,0.44884536,-0.33857045,0.69396544,-0.25711488723754883,2.52848482131958,-20.267311096191406,33.80108642578125,-18.009334564208984, 7.3003950119018555
389,1250243702,0.44157875,0.4612932,-0.33864158,0.69104165,0.629642128944397,-0.05803319066762924,-18.426639556884766,58.010108947753906,-85.95036315917969, 2.062034845352173
390,1250260369,0.42928696,0.48024544,-0.33846307,0.6859443,1.008284568786621,0.9983881711959839,-14.262801170349121,86.83092498779297,-131.98638916015625, -1.1862285137176514
391,1250277036,0.41709358,0.49962017,-0.3422019,0.6777246,4.344690322875977,0.8997116088867188,-2.322918176651001,62.01411437988281,-155.2760009765625, 1.0472848415374756
392,1250293703,0.4035799,0.5157986,-0.3463727,0.6716407,11.918705940246582,1.1914681196212769,13.01657485961914,60.387725830078125,-137.39393615722656, 22.310565948486328
393,1250310370,0.38702193,0.53675586,-0.33642912,0.6700169,3.0525124073028564,7.589082717895508,-3.9198217391967773,160.2266845703125,-112.17121124267578, -12.706233978271484
394,1250327037,0.37398505,0.55434,-0.33990735,0.6612908,1.7142865657806396,-0.29305320978164673,-14.367018699645996,59.90575408935547,-150.36895751953125, 9.64324951171875
395,1250343704,0.35965365,0.57125497,-0.34397462,0.65268576,7.398589134216309,4.222480297088623,0.07143771648406982,60.742149353027344,-151.04458618164062, 19.585296630859375
396,1250360371,0.34712574,0.5857638,-0.3458717,0.6455674,-0.3841480016708374,0.5822679996490479,-0.9318756461143494,60.93996047973633,-124.86949157714844, 12.412810325622559
397,1250377038,0.33875018,0.5960764,-0.35146868,0.63750386,1.2252310514450073,-2.236412525177002,-1.4530799388885498,15.538232803344727,-109.09864807128906, 16.593164443969727
398,1250393705,0.3334222,0.6034335,-0.3569333,0.6303144,1.8398817777633667,-0.02220817282795906,-0.3852655291557312,-1.119905948638916,-84.95427703857422, 11.803912162780762
399,1250410372,0.33273557,0.60771453,-0.3648744,0.62196225,1.6411916017532349,-1.2709929943084717,-1.0204191207885742,-41.008522033691406,-70.83635711669922, 6.862156867980957
400,1250427039,0.3310729,0.612025,-0.37000334,0.61555976,1.6737613677978516,-1.3082736730575562,-1.6586421728134155,-19.93685531616211,-58.90634536743164, 3.65519380569458
401,1250443706,0.3280427,0.6166962,-0.37236786,0.6110779,1.6066581010818481,0.8015884160995483,-0.6496672630310059,3.2299110889434814,-49.588523864746094, 1.2355225086212158
402,1250460373,0.32480904,0.621519,-0.37432608,0.6067069,1.1221671104431152,-0.4022483825683594,-0.493330180644989,6.421114921569824,-49.442970275878906, 0.25175580382347107
403,1250477040,0.321855,0.62625253,-0.376871,0.6018185,0.5109466910362244,-0.41677147150039673,0.6767610907554626,1.2476640939712524,-51.953826904296875, 0.656197190284729
404,1250493707,0.31894886,0.6316317,-0.379448,0.5960977,0.49548083543777466,-0.865533709526062,0.3593681752681732,0.18024513125419617,-58.26913070678711, -2.9281303882598877
405,1250510374,0.31688625,0.63644606,-0.3831044,0.58970386,0.6271429657936096,-0.43989694118499756,1.5088279247283936,-10.901775360107422,-59.139747619628906, -1.7182883024215698
406,1250527041,0.31592056,0.6401387,-0.38878968,0.58245975,0.44511616230010986,-2.716552734375,1.764393925666809,-28.611793518066406,-59.97081756591797, 3.8149502277374268
407,1250543708,0.3144086,0.6449756,-0.3942938,0.5741831,-0.4846561849117279,-0.3313652276992798,0.5878549814224243,-25.753589630126953,-70.28968048095703, -0.15662474930286407
408,1250560375,0.31329966,0.6507178,-0.40045306,0.5639567,1.1178953647613525,-0.30158430337905884,1.2817273139953613,-33.459808349609375,-82.912841796875, -5.5060529708862305
409,1250577042,0.31162402,0.65685153,-0.40658125,0.5532887,1.4442241191864014,1.1609307527542114,0.8283348083496094,-31.180219650268555,-88.00271606445312, -5.468402862548828
410,1250593709,0.30920094,0.66395783,-0.41218978,0.54189897,2.3940696716308594,2.476743221282959,1.3710665702819824,-25.76578140258789,-96.02576446533203, -9.19127368927002
411,1250610376,0.3060254,0.67177176,-0.41760978,0.52978593,2.4686036109924316,2.468881368637085,1.1322377920150757,-22.173824310302734,-103.80368041992188, -10.712708473205566
412,1250627043,0.30067763,0.68120563,-0.42173275,0.5173909,2.247663736343384,1.8088796138763428,1.8291983604431152,-4.812750339508057,-114.61243438720703, -13.964265823364258
413,1250643710,0.29262972,0.6925985,-0.4241153,0.5047785,2.836132526397705,1.5712355375289917,2.36665415763855,17.452991485595703,-126.94561004638672, -18.595535278320312
414,1250660377,0.28309837,0.7053098,-0.42673525,0.49019432,3.597006320953369,0.9010599851608276,3.829784631729126,20.607118606567383,-145.8477020263672, -20.093278884887695
415,1250677044,0.27223378,0.71893126,-0.43022633,0.47321466,4.597114086151123,-0.0973149836063385,5.4654154777526855,18.894268035888672,-166.32220458984375, -18.693580627441406
416,1250693711,0.2603534,0.7329522,-0.43473917,0.45387146,5.740078449249268,0.11080699414014816,6.868115425109863,14.360923767089844,-184.4623260498047, -15.95425796508789
417,1250710378,0.24840067,0.74664557,-0.44033325,0.43234745,6.7342119216918945,1.027908444404602,7.325899600982666,4.264158725738525,-196.87158203125, -13.208823204040527
418,1250727045,0.2388799,0.7588045,-0.44781178,0.40818727,7.815737724304199,2.895318031311035,9.189009666442871,-24.395118713378906,-202.00914001464844, -10.606232643127441
419,1250743712,0.23538488,0.76842684,-0.4582294,0.37965795,7.918110370635986,3.5730369091033936,11.025495529174805,-81.6510238647461,-204.33956909179688, -11.503095626831055
420,1250760379,0.23547097,0.7767258,-0.46897537,0.34829974,8.292566299438477,0.7647003531455994,6.496311187744141,-112.4103775024414,-205.50502014160156, -19.502052307128906
421,1250777046,0.23396799,0.7841089,-0.47798178,0.31932116,12.635814666748047,-4.924747943878174,7.97055721282959,-93.52212524414062,-193.19021606445312, -18.240297317504883
422,1250793713,0.22640511,0.791889,-0.48344266,0.29654,12.462546348571777,-6.455772876739502,8.891434669494629,-32.09147644042969,-175.2481689453125, -15.59174633026123
423,1250810380,0.21586074,0.7999038,-0.48572326,0.27862376,7.979918956756592,-7.347362995147705,7.34946346282959,7.095768451690674,-154.58938598632812, -20.229557037353516
424,1250827047,0.20707521,0.80496347,-0.48693296,0.2684215,6.483325004577637,-5.729155540466309,12.284445762634277,20.748958587646484,-99.26909637451172, -8.343514442443848
425,1250843714,0.21482804,0.8039756,-0.49041492,0.2587776,2.7575953006744385,3.4795262813568115,18.04225730895996,-81.78157806396484,-33.169551849365234, -5.400458812713623
426,1250860381,0.23947883,0.79680187,-0.4973175,0.24582984,0.705769956111908,1.4467577934265137,14.742255210876465,-201.4596710205078,11.214265823364258, -0.6205950379371643
427,1250877048,0.26427838,0.7866476,-0.50271565,0.24211448,0.1807275116443634,-4.942386627197266,9.432430267333984,-172.9925994873047,69.68804168701172, 16.15532875061035
428,1250893715,0.27961206,0.77737856,-0.5031861,0.2535811,1.003790020942688,-6.646290302276611,8.48069953918457,-59.54158020019531,126.55716705322266, 29.608510971069336
429,1250910382,0.28743768,0.7688364,-0.49963257,0.27683485,1.0995707511901855,-6.565061092376709,6.940307140350342,29.72618865966797,170.02841186523438, 41.22032165527344
430,1250927049,0.29278457,0.7596237,-0.49308744,0.30678004,1.3451805114746094,-3.855581521987915,5.888467311859131,70.14433288574219,204.06503295898438, 45.59672927856445
431,1250943716,0.29973593,0.74825656,-0.4852078,0.33888614,1.8255739212036133,-2.5452916622161865,5.069523334503174,67.5649185180664,228.01300048828125, 46.92489242553711
432,1250960383,0.31040993,0.73350567,-0.4777919,0.3705806,3.028275489807129,-0.09113674610853195,4.378578186035156,38.99376678466797,245.24095153808594, 51.11029052734375
433,1250977050,0.3267246,0.71430004,-0.47227237,0.39998177,3.342585802078247,0.13921982049942017,2.494236469268799,-11.30673599243164,259.50823974609375, 56.09832763671875
434,1250993717,0.34438702,0.6921267,-0.4666987,0.42959356,2.8776931762695312,-0.036591582000255585,1.000062108039856,-23.743408203125,273.2598571777344, 62.26857376098633
435,1251010384,0.3630587,0.66682965,-0.4613193,0.45903307,2.3942270278930664,0.8852988481521606,-0.28022703528404236,-37.064056396484375,284.5564270019531, 69.8463134765625
436,1251027051,0.38379008,0.6374429,-0.45708218,0.48728597,2.0702431201934814,1.8501381874084473,-1.1693593263626099,-64.09244537353516,295.867919921875, 78.62529754638672
437,1251043718,0.40567797,0.6042022,-0.45425984,0.51382214,1.6984634399414062,1.7939496040344238,-2.0800013542175293,-89.47933959960938,301.3504333496094, 88.56993103027344
438,1251060385,0.42544985,0.56898063,-0.44994193,0.54111546,1.303918719291687,0.6433543562889099,-5.140260696411133,-78.57786560058594,309.275146484375, 98.17021942138672
439,1251077052,0.4411137,0.5351481,-0.44033414,0.5702114,2.739211320877075,1.9115352630615234,-7.883024215698242,-33.169944763183594,314.2216796875, 93.75863647460938
440,1251093719,0.4516763,0.5050721,-0.42284173,0.60174394,6.62169075012207,4.728619575500488,-10.84654712677002,35.31100082397461,317.29656982421875, 80.86222076416016
441,1251110386,0.46030346,0.4802697,-0.4001707,0.6303376,8.537070274353027,6.315694332122803,-12.874334335327148,71.29000854492188,296.1664123535156, 46.6115837097168
442,1251127053,0.46717298,0.46023208,-0.3799326,0.6523704,6.824381351470947,2.057992458343506,-15.9308443069458,63.53286361694336,241.8074951171875, 28.60409927368164
443,1251143720,0.46928334,0.44601604,-0.36487842,0.66910887,3.169128656387329,1.2164173126220703,-18.580778121948242,60.21549606323242,170.4320526123047, 34.230613708496094
444,1251160387,0.4700341,0.436473,-0.36039677,0.67725456,0.28159475326538086,5.351095676422119,-19.642072677612305,9.290908813476562,85.67192077636719, 33.50656509399414
445,1251177054,0.47013304,0.4343797,-0.36341232,0.67692,-0.37403738498687744,3.5487492084503174,-20.018930435180664,-20.631061553955078,0.2909289002418518, 13.311120986938477
446,1251193721,0.46439415,0.44273338,-0.36589894,0.67412406,0.268762469291687,0.8163911700248718,-17.794652938842773,26.887022018432617,-67.98220825195312, 4.926945686340332
447,1251210388,0.45234463,0.45926923,-0.3658292,0.6712864,0.8934181332588196,2.0906126499176025,-14.132942199707031,84.0106201171875,-113.25822448730469, 5.664614677429199
448,1251227055,0.4375075,0.4793137,-0.36435807,0.6678989,0.6140792369842529,4.32808256149292,-9.944999694824219,108.82438659667969,-133.47019958496094, 3.5514888763427734
449,1251243722,0.424853,0.495849,-0.36787787,0.6620421,5.1039299964904785,1.042797327041626,8.729599952697754,61.93527603149414,-134.80181884765625, 11.37489128112793
450,1251260389,0.40450054,0.5174245,-0.35726815,0.6640864,15.358136177062988,7.946258068084717,4.759888648986816,187.20062255859375,-109.35089111328125, 8.523367881774902
451,1251277056,0.3887236,0.5385218,-0.34326234,0.664123,-2.41634464263916,11.703124046325684,-8.60368537902832,180.0521697998047,-93.73819732666016, -28.752784729003906
452,1251293723,0.37784156,0.551656,-0.35510892,0.65330637,8.976305961608887,-4.366000652313232,-10.998750686645508,-3.144366502761841,-154.91732788085938, 34.638343811035156
453,1251310390,0.3658921,0.56808597,-0.36001113,0.6432678,9.797064781188965,7.120716094970703,2.9219696521759033,42.645240783691406,-151.01968383789062, 6.922876358032227
454,1251327057,0.35653952,0.58176655,-0.3647492,0.63354987,-3.8806047439575195,-2.6338956356048584,-1.0734899044036865,27.057098388671875,-130.93731689453125, 2.5796749591827393
455,1251343724,0.35095134,0.5913235,-0.37064415,0.62433386,-0.4628998041152954,-2.7081799507141113,-3.2264111042022705,-1.849628210067749,-104.4427261352539, 2.2809176445007324
456,1251360391,0.35207283,0.5956879,-0.38059804,0.6134704,1.477914810180664,-1.6140682697296143,-3.227527618408203,-63.248558044433594,-81.54957580566406, -0.8306637406349182
457,1251377058,0.35368794,0.5987796,-0.38686532,0.6055603,2.3330984115600586,-1.2707549333572388,-2.7134552001953125,-45.057289123535156,-53.872371673583984, -7.551717758178711
458,1251393725,0.35422793,0.60164624,-0.38981697,0.60048926,1.2267413139343262,1.3493692874908447,-2.0968222618103027,-19.8162841796875,-36.06563949584961, -9.24540901184082
459,1251410392,0.35606068,0.6035181,-0.3932976,0.59523404,0.6384379863739014,1.9005542993545532,-2.1165974140167236,-30.27375602722168,-30.587230682373047, -10.135130882263184
460,1251427059,0.3554118,0.60656744,-0.39376295,0.59220713,0.6125550270080566,0.13804131746292114,-1.5650664567947388,1.2595014572143555,-25.527963638305664, -10.1715087890625
461,1251443726,0.354973,0.6097281,-0.39429358,0.5888621,-0.16958485543727875,-0.4729934334754944,0.1602523773908615,-0.4747712016105652,-26.95252799987793, -11.844383239746094
462,1251460393,0.3540553,0.6131767,-0.39456227,0.58564496,-0.5506172776222229,-1.1999355554580688,0.010647695511579514,3.6414783000946045,-28.347909927368164, -11.499512672424316
463,1251477060,0.35267976,0.61749357,-0.39531937,0.5814133,-0.9537725448608398,0.3155450224876404,0.22305087745189667,2.97045636177063,-38.647056579589844, -12.469807624816895
464,1251493727,0.35164216,0.6222026,-0.3976429,0.575406,-0.32182714343070984,1.1186363697052002,0.4590047299861908,-8.60396671295166,-50.7294807434082, -12.542521476745605
465,1251510394,0.34975648,0.6281065,-0.4008036,0.5678989,-0.3988528847694397,0.39539358019828796,1.9185398817062378,-9.504144668579102,-66.31646728515625, -12.4735746383667
466,1251527061,0.34452417,0.63614506,-0.40248126,0.5609202,0.15436102449893951,-1.1504852771759033,2.307974100112915,17.330917358398438,-78.16853332519531, -10.423941612243652
467,1251543728,0.3372962,0.6455508,-0.40365565,0.55367666,0.6026345491409302,0.41235077381134033,2.025160074234009,30.514310836791992,-89.0771255493164, -9.390104293823242
468,1251560395,0.33066615,0.6545519,-0.40771088,0.544053,1.5723435878753662,-1.9777321815490723,2.8519318103790283,9.354721069335938,-103.25675964355469, -3.2786777019500732
469,1251577062,0.3240871,0.6636302,-0.4119907,0.53369117,0.4437645971775055,0.746673047542572,1.060097336769104,6.401777267456055,-107.39449310302734, -4.416923522949219
470,1251593729,0.31869894,0.6733035,-0.41728365,0.52054584,0.9335676431655884,0.7812602519989014,1.7937546968460083,-9.30346965789795,-121.25157165527344, -12.036564826965332
471,1251610396,0.3105366,0.68441445,-0.42210996,0.50691926,1.3685537576675415,0.4664575755596161,2.2484443187713623,6.985762596130371,-135.67515563964844, -9.430006980895996
472,1251627063,0.29875842,0.69731134,-0.42552707,0.4933833,3.5888092517852783,1.0555120706558228,2.185274839401245,32.99934768676758,-149.08509826660156, -8.445613861083984
473,1251643730,0.28581133,0.7108133,-0.4290545,0.47850683,4.607594966888428,2.0154101848602295,3.3655364513397217,35.56507110595703,-161.35256958007812, -8.459205627441406
474,1251660397,0.27377993,0.7237019,-0.434439,0.46104544,4.922543525695801,2.262502908706665,3.997387170791626,16.172592163085938,-173.10443115234375, -5.620551109313965
475,1251677064,0.26279745,0.7362744,-0.4417753,0.44008204,5.627404689788818,1.5435192584991455,5.7724714279174805,-6.2586750984191895,-190.2828369140625, -4.832825660705566
476,1251693731,0.25196508,0.74863094,-0.45071638,0.4158369,6.970282077789307,0.30447840690612793,8.086615562438965,-22.198575973510742,-208.962158203125, -2.408083915710449
477,1251710398,0.2415334,0.7601329,-0.46062353,0.3894684,9.587925910949707,0.5798242688179016,9.939885139465332,-35.052146911621094,-218.23751831054688, 0.3710830509662628
478,1251727065,0.23693143,0.7685843,-0.47255325,0.36032665,11.017499923706055,3.020634889602661,13.057607650756836,-84.75462341308594,-209.9045867919922, 0.36580896377563477
479,1251743732,0.24384746,0.772536,-0.48679516,0.32673687,9.830137252807617,3.2881968021392822,13.588726997375488,-173.07818603515625,-189.16683959960938, -8.588138580322266
480,1251760399,0.25243187,0.77651876,-0.50200164,0.2851162,9.25600814819336,-5.933096408843994,-1.6373841762542725,-210.874755859375,-228.48403930664062, -20.85430335998535
481,1251777066,0.24525551,0.78421247,-0.50849015,0.25748503,11.388917922973633,-11.051459312438965,5.852163791656494,-54.933616638183594,-200.38233947753906, -25.298383712768555
482,1251793733,0.22947563,0.7931519,-0.50862455,0.24403325,5.23992919921875,-5.177677631378174,10.217371940612793,54.2371940612793,-145.80519104003906, -25.07596778869629
483,1251810400,0.22255951,0.7966531,-0.50949407,0.23712231,2.6174044609069824,-3.484675407409668,17.567419052124023,18.90546226501465,-71.42269897460938, -6.697107315063477
484,1251827067,0.2313642,0.7951226,-0.51069975,0.23116323,-0.5248709917068481,4.064099311828613,19.557580947875977,-72.11509704589844,-3.7657394409179688, -11.49610424041748
485,1251843734,0.2524704,0.7882737,-0.5136662,0.22589909,-0.29169583320617676,-1.7090133428573608,15.843029975891113,-148.0493927001953,48.63517379760742, -1.6238174438476562
486,1251860401,0.26906767,0.78033894,-0.513232,0.23508896,-0.3174287974834442,-5.833005428314209,11.60962963104248,-69.12577056884766,118.47976684570312, 15.766592025756836
487,1251877068,0.27979395,0.7725002,-0.5087287,0.25720426,0.14797034859657288,-6.355006694793701,10.03907585144043,14.704345703125,174.41102600097656, 26.883132934570312
488,1251893735,0.28714815,0.7638386,-0.5011572,0.28799012,0.8744902610778809,-4.989992618560791,7.766576290130615,66.75504302978516,215.96360778808594, 36.049407958984375
489,1251910402,0.29547057,0.7528401,-0.49170765,0.32272673,1.9159483909606934,-2.893850564956665,5.732499122619629,74.37454986572266,248.33827209472656, 40.11891174316406
490,1251927069,0.30834663,0.73767763,-0.48260748,0.357553,2.661836624145508,-0.5069684386253357,5.457554340362549,41.87132263183594,272.7001953125, 46.10994338989258
491,1251943736,0.32974246,0.7162581,-0.47769982,0.38735962,4.3323798179626465,1.2692312002182007,3.6308977603912354,-41.56965637207031,281.97271728515625, 56.575435638427734
492,1251960403,0.35518125,0.690038,-0.47536576,0.4143926,4.30593729019165,-0.2464742809534073,0.1517876535654068,-88.33086395263672,288.548828125, 67.97720336914062
493,1251977070,0.37924194,0.6612567,-0.47319362,0.44159144,4.556509494781494,0.0348181426525116,-1.062624216079712,-87.97581481933594,291.84857177734375, 81.38885498046875
494,1251993737,0.40124878,0.630271,-0.4710996,0.46885312,5.099708080291748,0.24405714869499207,-2.462608575820923,-84.43622589111328,292.0922546386719, 95.27959442138672
495,1252010404,0.42041382,0.597593,-0.4683514,0.4967717,5.378452301025391,1.994093656539917,-2.830474615097046,-72.57345581054688,293.1889953613281, 108.88226318359375
496,1252027071,0.4388242,0.5649519,-0.46401697,0.522447,4.16239595413208,4.078530788421631,-3.006181001663208,-71.19622802734375,286.2006530761719, 98.37509155273438
497,1252043738,0.45397392,0.535067,-0.4542513,0.54887784,4.844659328460693,3.396085739135742,-7.220122814178467,-28.30385398864746,285.4336242675781, 82.58578491210938
498,1252060405,0.46582764,0.50990325,-0.43751886,0.5758305,5.426070213317871,5.099653244018555,-8.762472152709961,26.48358154296875,281.33294677734375, 56.406654357910156
499,1252077072,0.4756781,0.48798415,-0.41818973,0.60059917,7.0203447341918945,2.7202346324920654,-11.670140266418457,47.591346740722656,263.5059814453125, 38.670433044433594
500,1252093739,0.479241,0.4714182,-0.3956155,0.6257648,7.175420761108398,0.6526178121566772,-13.65562629699707,100.74494171142578,235.74624633789062, 39.79172897338867
501,1252110406,0.47833785,0.45884326,-0.3752955,0.64792675,3.9771668910980225,3.4418442249298096,-15.060022354125977,110.5156478881836,189.7852020263672, 45.640167236328125
502,1252127073,0.47676784,0.45023945,-0.36300632,0.66196924,1.6419932842254639,5.58583402633667,-17.577512741088867,68.9192886352539,118.87577056884766, 37.10750198364258
503,1252143740,0.47388488,0.44853553,-0.35718158,0.668334,-0.026238031685352325,3.3723764419555664,-19.976661682128906,46.96061706542969,39.82112503051758, 20.844635009765625
504,1252160407,0.46672022,0.45563978,-0.35470665,0.6698865,-0.39549899101257324,1.3739559650421143,-19.20333480834961,61.64408493041992,-36.30528259277344, 13.608814239501953
505,1252177074,0.45482376,0.47133252,-0.35336053,0.6679203,0.28188082575798035,2.2878198623657227,-17.36232566833496,90.2720718383789,-101.48764038085938, 6.702235698699951
506,1252193741,0.4409928,0.4912315,-0.35452953,0.66221285,1.6217600107192993,3.548650026321411,-13.199495315551758,89.05731964111328,-145.00192260742188, 1.8173232078552246
507,1252210408,0.42692113,0.5116258,-0.35712942,0.65455025,1.3977710008621216,3.364358901977539,-8.826499938964844,80.0648193359375,-158.4217529296875, 0.6343368291854858
508,1252227075,0.41584116,0.5272854,-0.3631401,0.64589137,4.171488285064697,-0.7993005514144897,8.650705337524414,37.8160514831543,-143.06578063964844, 7.904555797576904
509,1252243742,0.3998801,0.54230577,-0.36119908,0.6446206,10.7802152633667,6.287351608276367,11.647455215454102,107.46819305419922,-103.24393463134766, 23.408601760864258
510,1252260409,0.38880378,0.55899817,-0.3549594,0.6405908,3.99273943901062,13.676836013793945,-6.288759708404541,105.97898864746094,-97.3923568725586, -25.892780303955078
511,1252277076,0.3860837,0.56601304,-0.37352237,0.62533975,3.4890804290771484,-8.005012512207031,-10.986337661743164,-88.76900482177734,-143.65469360351562, 26.599952697753906
512,1252293743,0.37267455,0.579328,-0.38073614,0.6168734,7.480661869049072,3.122901678085327,-2.6510791778564453,35.90200424194336,-141.3558807373047, 30.007078170776367
513,1252310410,0.36255416,0.5914141,-0.38530564,0.6085422,0.8747994303703308,-1.361617922782898,0.18721610307693481,31.226112365722656,-120.19953918457031, 9.144700050354004
514,1252327077,0.35499376,0.6002128,-0.39089224,0.6007722,-1.3814600706100464,-1.513785481452942,-3.0726404190063477,9.88429069519043,-100.01102447509766, 12.6151762008667
515,1252343744,0.35616353,0.6033671,-0.40204692,0.5894523,1.2959150075912476,1.1714788675308228,-1.6548771858215332,-72.43441009521484,-81.46294403076172, 6.000698566436768
516,1252360411,0.3586444,0.6048467,-0.41218135,0.5793457,2.4065957069396973,-2.143554210662842,-2.9375736713409424,-74.4798583984375,-63.565948486328125, 4.120844841003418
517,1252377078,0.35847336,0.60761774,-0.41669017,0.5732948,1.3513456583023071,0.10456201434135437,-2.346944808959961,-26.34376335144043,-45.48812484741211, -2.4103190898895264
518,1252393745,0.35735175,0.6108179,-0.41908124,0.56883425,0.661467432975769,2.0529305934906006,-1.3794742822647095,-8.409193992614746,-38.057952880859375, -4.820271968841553
519,1252410412,0.35703683,0.6133506,-0.4223448,0.5638711,0.42464151978492737,0.13602028787136078,-0.8901191353797913,-18.304689407348633,-37.42512512207031, -3.572148323059082
520,1252427079,0.3574503,0.615641,-0.42589173,0.55841905,0.18239057064056396,-0.09898822754621506,0.2788640558719635,-24.4872989654541,-37.191837310791016, -5.698033332824707
521,1252443746,0.3581101,0.61814415,-0.4298815,0.5521386,0.01164331380277872,-1.8103363513946533,0.12459606677293777,-29.131675720214844,-41.980690002441406, -7.43203067779541
522,1252460413,0.35727316,0.62199533,-0.43274993,0.5460817,-0.27444857358932495,-1.1461091041564941,-0.10718332976102829,-14.527667045593262,-47.89900207519531, -10.004297256469727
523,1252477080,0.35516357,0.6271287,-0.4345339,0.5401377,-0.561469316482544,-0.2029307335615158,0.566279411315918,-1.526341199874878,-53.426334381103516, -13.442560195922852
524,1252493747,0.35282543,0.6329575,-0.43653455,0.5332135,-0.18089434504508972,0.17395007610321045,0.6486920118331909,-2.5780959129333496,-61.53715133666992, -16.14775848388672
525,1252510414,0.34957945,0.63963455,-0.4384969,0.52572083,-0.0006506815552711487,-1.336108684539795,0.9630038738250732,1.8622115850448608,-69.8416748046875, -16.917842864990234
526,1252527081,0.34478265,0.6473114,-0.4400029,0.51818,0.48000648617744446,-1.0080560445785522,1.5683661699295044,12.590368270874023,-77.34270477294922, -16.50004768371582
527,1252543748,0.3413295,0.6542383,-0.4438884,0.50835997,1.9402137994766235,-0.5655702948570251,3.2341434955596924,-10.540018081665039,-86.50532531738281, -13.86698055267334
528,1252560415,0.33907688,0.6605229,-0.45011356,0.4961193,0.4461878836154938,-1.0462127923965454,1.1360702514648438,-33.010887145996094,-97.15148162841797, -11.274852752685547
529,1252577082,0.33609563,0.66871303,-0.4562907,0.48131233,1.5647549629211426,0.38014352321624756,2.044090986251831,-33.03846740722656,-117.5401840209961, -20.91355323791504
530,1252593749,0.32997248,0.6787292,-0.4615023,0.46632662,1.7987521886825562,1.65529465675354,2.1403095722198486,-11.735882759094238,-132.15594482421875, -21.086660385131836
531,1252610416,0.3206396,0.69085497,-0.4658872,0.45039853,3.787116050720215,2.1377882957458496,2.9672434329986572,7.699312686920166,-151.75421142578125, -23.447383880615234
532,1252627083,0.3083743,0.70419097,-0.46953356,0.43423337,5.467438220977783,2.3207755088806152,3.3205487728118896,25.842960357666016,-164.5647430419922, -22.229400634765625
533,1252643750,0.29454815,0.7183162,-0.47374648,0.4157252,6.386926651000977,1.9043809175491333,5.248693466186523,25.846141815185547,-184.70822143554688, -22.299835205078125
534,1252660417,0.27890995,0.7330357,-0.47824198,0.39516166,7.137983322143555,0.5690813064575195,6.550537586212158,28.532577514648438,-203.30557250976562, -21.792993545532227
535,1252677084,0.26367262,0.747066,-0.48428813,0.37126026,9.046075820922852,0.25940677523612976,9.902604103088379,10.033132553100586,-220.22943115234375, -19.210805892944336
536,1252693751,0.25195807,0.75851905,-0.49269664,0.3441169,10.452705383300781,0.44409361481666565,11.690168380737305,-29.525033950805664,-223.2926788330078, -13.392351150512695
537,1252710418,0.24708964,0.76657087,-0.50250554,0.3143312,9.652863502502441,2.1307480335235596,13.635112762451172,-83.34842681884766,-208.7585906982422, -15.387906074523926
538,1252727085,0.24901524,0.7732404,-0.51026934,0.2823408,8.820096015930176,1.602089762687683,8.622235298156738,-124.63457489013672,-190.96054077148438, -39.85840606689453
539,1252743752,0.25525102,0.77641916,-0.5213979,0.24528472,10.474761009216309,-8.512495040893555,1.3557395935058594,-177.78524780273438,-202.1259002685547, -26.863344192504883
540,1252760419,0.24965967,0.7818627,-0.5276209,0.21903723,9.55871295928955,-8.58897590637207,6.322551250457764,-63.73798751831055,-182.2101287841797, -22.58009910583496
541,1252777086,0.2386101,0.78827363,-0.5297468,0.20262867,5.609476089477539,-7.517568111419678,8.182679176330566,9.017096519470215,-143.8177032470703, -23.2637996673584
542,1252793753,0.23203102,0.79165787,-0.5302587,0.19561557,2.61299991607666,-2.331474542617798,18.747440338134766,16.192899703979492,-69.95683288574219, -11.965426445007324
543,1252810420,0.24181873,0.79026544,-0.53085256,0.18761615,-1.2375195026397705,3.0107483863830566,17.703916549682617,-84.17509460449219,-9.677632331848145, -17.753171920776367
544,1252827087,0.26040426,0.7851654,-0.53134054,0.18270728,-0.6852726936340332,-3.6288795471191406,13.84959888458252,-126.58891296386719,44.023895263671875, -10.996847152709961
545,1252843754,0.27188665,0.78085744,-0.52787673,0.19412784,-0.1725476235151291,-7.236804485321045,10.348060607910156,-22.18124008178711,112.2120132446289, 2.835155963897705
546,1252860421,0.27686563,0.7777313,-0.5202221,0.21874355,-0.30579763650894165,-6.995837211608887,8.90107536315918,68.39360809326172,165.65403747558594, 9.305438041687012
547,1252877088,0.28066397,0.7732234,-0.5103101,0.2508729,-0.19840046763420105,-4.756054401397705,7.255003929138184,102.32734680175781,207.9459686279297, 18.235239028930664
548,1252893755,0.28793672,0.76572573,-0.49909163,0.28576982,0.3341067433357239,-1.465787649154663,6.6965532302856445,90.05571746826172,242.50439453125, 21.165912628173828
549,1252910422,0.3029163,0.75313646,-0.48934832,0.31869328,0.9891656041145325,-0.6961235404014587,5.470963954925537,29.762542724609375,265.6143493652344, 27.423866271972656
550,1252927089,0.32519442,0.73514736,-0.48164034,0.34904093,3.191384792327881,0.831405758857727,4.315708160400391,-32.37812805175781,284.423095703125, 34.80194854736328
551,1252943756,0.35352984,0.7112825,-0.4770984,0.3761264,3.8083324432373047,0.04944157600402832,1.6841319799423218,-94.5143051147461,295.0091552734375, 48.439144134521484
552,1252960423,0.38135958,0.6839595,-0.4730526,0.40371475,4.0130486488342285,-0.9270616769790649,-0.33630430698394775,-100.06624603271484,303.6079406738281, 64.68592834472656
553,1252977090,0.4065104,0.65416914,-0.46836528,0.43295044,5.441947937011719,-0.1775943487882614,-1.945624589920044,-86.80026245117188,311.2898254394531, 81.39128875732422
554,1252993757,0.42927104,0.6218144,-0.4636801,0.46268123,6.738727569580078,0.25929102301597595,-2.515488624572754,-81.63459777832031,313.6006164550781, 98.12478637695312
555,1253010424,0.44710952,0.58892494,-0.45711425,0.49427465,6.281335353851318,1.7070698738098145,-4.08310604095459,-50.251068115234375,313.2825012207031, 112.94351196289062
556,1253027091,0.46415117,0.5571102,-0.44889486,0.5221931,4.394224643707275,4.869375228881836,-8.091378211975098,-49.66741180419922,297.5321960449219, 94.32344818115234
557,1253043758,0.4772955,0.5294309,-0.43531296,0.54990447,5.24248743057251,6.87847900390625,-13.108248710632324,-2.9460041522979736,287.3271484375, 74.50936889648438
558,1253060425,0.49087566,0.50580174,-0.42101294,0.57092375,5.654836654663086,6.147311687469482,-12.86851692199707,-8.606924057006836,251.8136444091797, 36.380794525146484
559,1253077092,0.49786428,0.48910472,-0.40578565,0.5901235,5.654923915863037,-2.815016984939575,-18.10283851623535,36.04155731201172,202.81051635742188, 33.02094268798828
560,1253093759,0.4953426,0.48225504,-0.3882348,0.60937655,1.7403936386108398,1.3770332336425781,-20.364572525024414,111.365966796875,145.08984375, 36.49079895019531
561,1253110426,0.49369377,0.4775774,-0.38452554,0.6167062,-0.058039501309394836,7.247230052947998,-20.341318130493164,26.0357723236084,52.308349609375, 32.39194869995117
562,1253127093,0.49209115,0.47821516,-0.39072904,0.6135858,0.3585713505744934,1.3000168800354004,-21.724199295043945,-25.819923400878906,-37.41749954223633, 15.422869682312012
563,1253143760,0.48205024,0.49037856,-0.39428675,0.6096674,0.6442477703094482,-0.7147657871246338,-19.11594581604004,49.94221878051758,-101.72022247314453, 8.708348274230957
564,1253160427,0.46537325,0.5106643,-0.3955122,0.6051612,1.8139755725860596,4.58995246887207,-13.549821853637695,107.45601654052734,-147.4615478515625, 4.649590015411377
565,1253177094,0.45130488,0.52889633,-0.4025714,0.5954235,9.807849884033203,8.61520004272461,12.349274635314941,53.17527770996094,-168.47698974609375, 3.1908416748046875
566,1253193761,0.42752913,0.557084,-0.39087355,0.59505814,11.759817123413086,9.507896423339844,1.130113124847412,222.0425262451172,-144.25958251953125, -23.623764038085938
567,1253210428,0.4035508,0.5839626,-0.37945816,0.5934189,-1.1923177242279053,5.7644734382629395,-14.323214530944824,214.29454040527344,-145.19760131835938, -21.81401824951172
568,1253227095,0.38096005,0.60531986,-0.38093475,0.5859574,9.913311958312988,0.5115392804145813,-7.353224277496338,125.54525756835938,-177.77066040039062, 22.579544067382812
569,1253243762,0.35988984,0.6261699,-0.37523866,0.58102196,1.812519907951355,3.751054286956787,0.7309467792510986,153.41693115234375,-142.262451171875, -5.551513195037842
570,1253260429,0.35392106,0.63688415,-0.38281485,0.5679535,-2.173440456390381,-0.07774397730827332,-1.6198614835739136,-10.712496757507324,-130.75985717773438, -2.6597588062286377
571,1253277096,0.35128263,0.6440924,-0.39045304,0.55614036,1.7382174730300903,-3.471776008605957,-2.3342127799987793,-30.754945755004883,-102.9775161743164, -3.1012861728668213
572,1253293763,0.350743,0.6491502,-0.39691526,0.5459322,2.2126901149749756,-1.663008689880371,-2.9117331504821777,-36.41846466064453,-79.18379974365234, -6.763305187225342
573,1253310430,0.3456487,0.65574694,-0.39636892,0.54167783,1.718390703201294,-1.3848178386688232,-1.9889558553695679,30.18006134033203,-53.91312026977539, -10.83730697631836
574,1253327097,0.33817866,0.6627445,-0.39292634,0.5403832,1.3635982275009155,1.8668056726455688,-2.219014883041382,60.69758224487305,-41.68205642700195, -9.177233695983887
575,1253343764,0.3354849,0.6672648,-0.3932589,0.53624165,0.7597543597221375,4.013051509857178,-0.37157195806503296,11.44788646697998,-41.34710693359375, -9.62142562866211
576,1253360431,0.33869454,0.668849,-0.39946526,0.52759314,0.31358155608177185,-0.27456074953079224,-0.28708988428115845,-56.25677490234375,-48.86885452270508, -6.774948596954346
577,1253377098,0.33758804,0.67271745,-0.40147585,0.5218265,0.4326882064342499,-2.939940929412842,-0.8224075436592102,-7.948850631713867,-46.062469482421875, -9.971488952636719
578,1253393765,0.33270216,0.67867213,-0.39920697,0.51898694,0.4744781255722046,-0.1649281084537506,0.8386653661727905,37.80931091308594,-40.564212799072266, -15.26374626159668
579,1253410432,0.33002973,0.6835689,-0.3999531,0.51366496,0.053009092807769775,0.4769233763217926,0.9725815653800964,7.491661548614502,-49.300926208496094, -11.886821746826172
580,1253427099,0.32672992,0.6889384,-0.40115952,0.5076245,0.3870082497596741,-0.6685348749160767,0.3411012291908264,7.914900302886963,-57.222801208496094, -10.429604530334473
581,1253443766,0.3223016,0.69500667,-0.4020096,0.50147367,0.3831445872783661,-0.09249008446931839,0.9628990888595581,15.773750305175781,-62.57964324951172, -10.380587577819824
582,1253460433,0.31904915,0.6998754,-0.40555045,0.49387348,0.6178733110427856,-2.4747183322906494,2.203986644744873,-5.780370235443115,-68.18122863769531, -1.4780566692352295
583,1253477100,0.3177965,0.7044771,-0.4111005,0.48343995,1.1279852390289307,-0.4827675521373749,1.0608086585998535,-30.702547073364258,-79.87417602539062, -4.13019323348999
584,1253493767,0.3156396,0.70994824,-0.41655475,0.47204602,1.1985424757003784,-0.3293912708759308,2.6704297065734863,-26.81097412109375,-89.8634262084961, -6.146329402923584
585,1253510434,0.31104466,0.7170872,-0.42144355,0.45980728,1.4143928289413452,0.9444457292556763,1.6281354427337646,-11.864864349365234,-105.30262756347656, -7.604354381561279
586,1253527101,0.30414337,0.7258262,-0.42574808,0.44655547,2.244696855545044,2.184581995010376,3.117020606994629,1.8509531021118164,-120.90373229980469, -9.968416213989258
587,1253543768,0.29573902,0.73555,-0.43017715,0.4318015,3.074462652206421,2.393099784851074,2.3056640625,6.656238555908203,-136.25070190429688, -10.703817367553711
588,1253560435,0.28541008,0.74649084,-0.4341552,0.41569453,4.311784267425537,2.7849860191345215,2.829700469970703,16.22907829284668,-151.6309051513672, -13.567795753479004
589,1253577102,0.2732974,0.7585755,-0.43799427,0.39753348,4.4852824211120605,2.929028034210205,3.9961307048797607,21.933155059814453,-170.67555236816406, -16.57219123840332
590,1253593769,0.2585605,0.771899,-0.44188234,0.3769067,5.701953411102295,2.031569242477417,6.017656326293945,30.44061279296875,-195.13157653808594, -17.45506477355957
591,1253610436,0.24195977,0.78540325,-0.44649765,0.35388878,7.919958114624023,1.140572190284729,8.343377113342285,31.563390731811523,-215.5293426513672, -13.54309368133545
592,1253627103,0.22749765,0.7972009,-0.45336938,0.3273711,10.721457481384277,0.30440157651901245,11.616961479187012,1.0001860857009888,-227.8392333984375, -7.153426647186279
593,1253643770,0.21952035,0.80566144,-0.46331477,0.296749,12.01611328125,-0.7049564123153687,14.87436294555664,-59.422645568847656,-227.9186248779297, -0.9692203998565674
594,1253660437,0.21917084,0.8120081,-0.4734594,0.2616169,12.587665557861328,-1.2275806665420532,8.365817070007324,-119.59635162353516,-225.18075561523438, -15.61369800567627
595,1253677104,0.21794072,0.81917375,-0.4792534,0.22753525,14.06060791015625,-3.511284589767456,7.953867435455322,-102.16053771972656,-217.51954650878906, -39.559547424316406
596,1253693771,0.22026931,0.822643,-0.48472598,0.19945125,10.24205493927002,-4.499499320983887,14.669596672058105,-107.47394561767578,-166.15931701660156, -25.989933013916016
597,1253710438,0.21992531,0.825104,-0.49037233,0.1742733,4.47269344329834,-9.139391899108887,3.5036981105804443,-84.4426498413086,-157.9400634765625, -13.808491706848145
598,1253727105,0.20805787,0.8286808,-0.49127382,0.1692642,4.283783435821533,-8.517189979553223,11.724584579467773,56.14982986450195,-76.59213256835938, -0.3855346143245697
599,1253743772,0.20277958,0.82899326,-0.49123305,0.174186,0.6216405034065247,1.2951420545578003,21.08636474609375,48.47121047973633,7.182908535003662, 11.68424129486084
600,1253760439,0.21422614,0.8230674,-0.49554282,0.17636475,-0.6126896739006042,-2.462071180343628,14.005964279174805,-69.92410278320312,49.18577194213867, 33.7404670715332
601,1253777106,0.22542949,0.81592685,-0.4974574,0.18968678,-1.1180977821350098,-3.3144712448120117,10.303977012634277,-29.46876335144043,116.3320541381836, 40.9764518737793
602,1253793773,0.23970275,0.80683804,-0.4977594,0.20926197,-1.177610993385315,-2.239313840866089,9.901246070861816,-26.241958618164062,166.94039916992188, 44.23659133911133
603,1253810440,0.25378695,0.7960378,-0.49634343,0.23571013,-0.289445161819458,-2.2429685592651367,7.828592300415039,-2.0126571655273438,209.7016143798828, 52.1540412902832
604,1253827107,0.2704081,0.7824075,-0.4940031,0.26585564,-0.03694815933704376,0.03385797142982483,6.185969829559326,-6.719137668609619,244.7881317138672, 59.08552932739258
605,1253843774,0.29141328,0.76483077,-0.49198842,0.29674855,0.34176141023635864,0.7297742962837219,4.847864627838135,-35.67973327636719,270.31915283203125, 67.64652252197266
606,1253860441,0.3153237,0.7433704,-0.49068913,0.32740742,1.599204659461975,0.8988595008850098,2.8768186569213867,-60.97847366333008,285.4313049316406, 78.17118835449219
607,1253877108,0.34142584,0.7175041,-0.49061206,0.3576537,2.9678854942321777,1.6762261390686035,1.2759521007537842,-85.8837890625,298.0346374511719, 93.45398712158203
608,1253893775,0.36709708,0.6882907,-0.4900492,0.3890343,4.593921661376953,1.5296504497528076,-0.8140274286270142,-86.60497283935547,311.6143493652344, 106.07610321044922
609,1253910442,0.38964668,0.6575609,-0.4864587,0.42325807,5.55669641494751,2.085379123687744,-2.377335548400879,-57.988983154296875,326.3489685058594, 112.39045715332031
610,1253927109,0.40753424,0.6278493,-0.47729445,0.46033815,4.837405204772949,4.411577224731445,-3.995650053024292,-8.407864570617676,335.7662658691406, 105.0560531616211
611,1253943776,0.42568254,0.59839356,-0.46505722,0.4944103,4.730622291564941,6.545893669128418,-5.71565580368042,-8.978474617004395,331.6196594238281, 81.82604217529297
612,1253960443,0.4409943,0.5724115,-0.44642496,0.52780133,8.098371505737305,4.659989833831787,-9.812265396118164,32.40407943725586,326.90594482421875, 52.259552001953125
613,1253977110,0.45139426,0.5515239,-0.42195943,0.5603703,9.822881698608398,2.3606343269348145,-13.02574348449707,85.8177490234375,308.1615295410156, 29.17091941833496
614,1253993777,0.45533693,0.535115,-0.39712104,0.5904365,8.852710723876953,1.8881133794784546,-16.264076232910156,118.36488342285156,264.3038024902344, 32.00297164916992
615,1254010444,0.45638105,0.5220842,-0.37888694,0.61285347,3.38531494140625,6.131909370422363,-19.08765411376953,91.86135864257812,194.42189025878906, 34.98933410644531
616,1254027111,0.45652777,0.5150266,-0.3694373,0.62437654,1.0525025129318237,6.111464500427246,-22.76234245300293,48.33883285522461,100.89826202392578, 20.721216201782227
617,1254043778,0.45190677,0.5186856,-0.36378714,0.62801623,-0.6107984185218811,3.1045749187469482,-24.17303466796875,62.44160461425781,3.6984293460845947, 2.8193118572235107
618,1254060445,0.440522,0.53292483,-0.3598322,0.62646025,0.3215745985507965,2.7148566246032715,-22.138219833374023,99.08924102783203,-81.93827819824219, -4.490001678466797
619,1254077112,0.4263166,0.553265,-0.35804635,0.619641,2.283031940460205,4.787388324737549,-17.359224319458008,105.50796508789062,-140.3758087158203, -15.4204683303833
620,1254093779,0.41477054,0.57192135,-0.3624299,0.6078784,3.877169370651245,1.2889299392700195,-6.701317310333252,51.94004821777344,-163.0295867919922, -13.56693172454834
621,1254110446,0.40898567,0.5794154,-0.37219492,0.5987318,10.330917358398438,-3.0906009674072266,22.090682983398438,-18.520566940307617,-106.92007446289062, 18.807418823242188
622,1254127113,0.41130343,0.5840511,-0.38444978,0.58473265,3.6831960678100586,8.822734832763672,-1.0434138774871826,-81.42306518554688,-101.54979705810547, -11.02297306060791
623,1254143780,0.41381267,0.5882334,-0.40529448,0.5643378,2.7074759006500244,-6.011519908905029,-17.659353256225586,-134.9821014404297,-149.25083923339844, 6.087893962860107
624,1254160447,0.40170786,0.60019636,-0.41377714,0.5542418,7.358302593231201,1.5881891250610352,-1.8999963998794556,23.014734268188477,-142.8114776611328, 20.281217575073242
625,1254177114,0.3894806,0.6129949,-0.41908443,0.54489493,3.403560161590576,0.877005934715271,-0.8170183897018433,40.07923889160156,-134.4989471435547, 7.346124649047852
626,1254193781,0.37806088,0.62420124,-0.42278376,0.53730524,-1.046923041343689,-1.0847045183181763,-1.2691575288772583,43.519569396972656,-114.54269409179688, 6.822067737579346
627,1254210448,0.36904246,0.632922,-0.42500734,0.5315886,0.40781188011169434,-1.5645332336425781,-4.642428398132324,37.67268371582031,-86.52375030517578, 3.6462554931640625
628,1254227115,0.36775628,0.63709533,-0.43023863,0.5232204,0.27914169430732727,-0.6207369565963745,-2.114457607269287,-26.242952346801758,-66.39643859863281, -5.0211405754089355
629,1254243782,0.36998153,0.63899493,-0.4354787,0.51493466,1.661422848701477,-0.6619548201560974,-1.51844322681427,-47.156314849853516,-47.499412536621094, -10.684690475463867
630,1254260449,0.37084493,0.6415333,-0.43842617,0.5086174,1.3682788610458374,-0.9325363636016846,-2.2520804405212402,-25.53717041015625,-39.39321517944336, -12.845513343811035
631,1254277116,0.367743,0.64650935,-0.43679017,0.5059696,0.7099651098251343,-0.28109657764434814,-0.6531894207000732,25.255325317382812,-32.00511932373047, -17.22422218322754
632,1254293783,0.3637934,0.6518224,-0.434231,0.50420773,0.6060646176338196,0.1778181940317154,-0.09478809684515,35.74282455444336,-29.504535675048828, -17.185590744018555
633,1254310450,0.36271343,0.6551582,-0.43394312,0.50089955,0.5492373704910278,0.14280837774276733,0.8361344933509827,5.442160129547119,-26.765771865844727, -14.935135841369629
634,1254327117,0.36261418,0.65856373,-0.4344101,0.49607757,0.281465619802475,0.12594766914844513,0.17306064069271088,-5.920623302459717,-32.88422393798828, -18.89964485168457
635,1254343784,0.36196,0.6626533,-0.43510824,0.4904657,0.025581371039152145,-0.4434647858142853,-0.06853559613227844,-4.853975772857666,-41.10526657104492, -19.974008560180664
636,1254360451,0.35870913,0.6683628,-0.43485066,0.48530814,-0.010648984462022781,0.8813108801841736,0.1833687126636505,15.586505889892578,-49.95130157470703, -19.308408737182617
637,1254377118,0.35454154,0.67477226,-0.43557626,0.4788069,-0.3435434103012085,1.1228930950164795,1.302834153175354,14.22598934173584,-63.696868896484375, -17.127294540405273
638,1254393785,0.350142,0.6815719,-0.43784305,0.47027004,-0.0498468279838562,-0.22126230597496033,2.7050423622131348,5.086472034454346,-78.97856140136719, -15.322813987731934
639,1254410452,0.34339452,0.689903,-0.4398536,0.4611321,-0.3409627676010132,-1.568853735923767,1.7082980871200562,18.805377960205078,-93.3442153930664, -15.006611824035645
640,1254427119,0.3350549,0.69942546,-0.44199517,0.45075765,-0.16585856676101685,-1.1169341802597046,2.357909917831421,25.021841049194336,-108.21437072753906, -15.917397499084473
641,1254443786,0.32614896,0.70946586,-0.4445108,0.43897063,0.8713753819465637,-1.2157795429229736,1.464532732963562,23.493759155273438,-119.31675720214844, -17.23607063293457
642,1254460453,0.31841478,0.7191137,-0.44789958,0.42529228,2.228397846221924,-0.09384109824895859,1.8095300197601318,8.483061790466309,-125.8359375, -19.596466064453125
643,1254477120,0.3121128,0.728034,-0.453284,0.40876135,3.4258453845977783,-0.0029128119349479675,2.1852619647979736,-14.804047584533691,-137.9011993408203, -17.93040657043457
644,1254493787,0.305386,0.73673505,-0.45946893,0.39095956,3.6464896202087402,-1.110182762145996,2.7120349407196045,-19.346845626831055,-146.8434600830078, -14.779208183288574
645,1254510454,0.29738462,0.7464142,-0.46543455,0.37121302,4.473430156707764,1.957011103630066,3.1965363025665283,-16.38423728942871,-163.06260681152344, -19.67514419555664
646,1254527121,0.2881825,0.75659156,-0.4715906,0.3494603,5.4187188148498535,2.3687682151794434,4.2940673828125,-16.078834533691406,-179.06224060058594, -21.288944244384766
647,1254543788,0.27548787,0.7681421,-0.4767886,0.3267061,7.291782379150391,2.0322036743164062,4.94254207611084,3.9128522872924805,-197.24359130859375, -24.280107498168945
648,1254560455,0.26097524,0.7801279,-0.48164034,0.30218413,10.035758018493652,1.6652309894561768,8.727173805236816,9.376781463623047,-213.15704345703125, -26.786579132080078
649,1254577122,0.24812473,0.79039764,-0.48718035,0.27633518,12.090242385864258,0.810251772403717,12.903599739074707,-8.374671936035156,-212.87916564941406, -23.254257202148438
650,1254593789,0.23814471,0.7994068,-0.49137416,0.2505739,13.810541152954102,0.6758191585540771,15.887454986572266,-23.194406509399414,-198.66282653808594, -31.70981216430664
651,1254610456,0.2375152,0.8053269,-0.4968192,0.21955869,11.667023658752441,-0.8705718517303467,12.837089538574219,-99.46688842773438,-193.3387451171875, -39.20691680908203
652,1254627123,0.24126695,0.8093921,-0.5034885,0.18213834,8.289461135864258,-5.770817279815674,3.7334911823272705,-150.43896484375,-213.55426025390625, -43.3572883605957
653,1254643790,0.23587526,0.8141034,-0.50694716,0.15685391,9.451346397399902,-10.170488357543945,5.610899925231934,-52.5004997253418,-173.3138427734375, -32.128074645996094
654,1254660457,0.22418778,0.81894225,-0.5081319,0.14448343,5.224766731262207,-8.238519668579102,12.307685852050781,30.25802230834961,-119.66487121582031, -17.857433319091797
655,1254677124,0.21803458,0.82103735,-0.5078422,0.14302039,0.7358015775680542,-2.7774884700775146,19.940814971923828,34.34652328491211,-34.16324234008789, -5.413224697113037
656,1254693791,0.22456199,0.8194541,-0.50740427,0.1435547,-1.8928277492523193,-0.9321317672729492,18.158069610595703,-35.56916809082031,24.99254608154297, -2.891270399093628
657,1254710458,0.23647684,0.815184,-0.5066092,0.15133086,-0.9462426900863647,-5.1867218017578125,13.997036933898926,-44.36745834350586,87.68016052246094, 10.338812828063965
658,1254727125,0.24683577,0.8104993,-0.503263,0.16996975,-0.6294268369674683,-4.323081970214844,11.853354454040527,4.168336391448975,147.6526336669922, 16.697635650634766
659,1254743792,0.2574501,0.8043009,-0.4986531,0.19535765,-0.7998650074005127,-4.603735446929932,9.096726417541504,25.022029876708984,189.9971466064453, 26.028932571411133
660,1254760459,0.2693918,0.79610443,-0.49242124,0.22620189,-0.1303187757730484,-2.971034526824951,7.040651798248291,35.03632354736328,230.2552947998047, 31.776472091674805
661,1254777126,0.2853081,0.7847956,-0.4854176,0.25896898,1.0328710079193115,-1.4695165157318115,6.2315545082092285,15.24871826171875,260.4951477050781, 35.47825241088867
662,1254793793,0.30624765,0.7694414,-0.4790707,0.29097003,2.7629289627075195,-0.2990776300430298,4.323083400726318,-23.481748580932617,279.0103759765625, 42.09062957763672
663,1254810460,0.3325064,0.7492241,-0.47450733,0.3208514,4.248994827270508,0.03798405081033707,2.0300567150115967,-72.38099670410156,291.2721252441406, 52.431373596191406
664,1254827127,0.35951096,0.7252308,-0.47028,0.35160872,4.576328754425049,-1.0226243734359741,-0.3954937160015106,-82.70953369140625,305.80218505859375, 66.8020248413086
665,1254843794,0.38494393,0.69810086,-0.46609357,0.38370574,4.810990333557129,-0.7009151577949524,-1.9717490673065186,-78.38529968261719,314.9718322753906, 84.19843292236328
666,1254860461,0.40645757,0.66867125,-0.46122372,0.4182627,5.609555721282959,-1.2459663152694702,-3.9974844455718994,-55.97209548950195,322.2311096191406, 105.11502838134766
667,1254877128,0.42222244,0.63848233,-0.4541384,0.45588037,5.839369297027588,0.7165946960449219,-5.849874496459961,-15.582626342773438,326.6377868652344, 122.4085464477539
668,1254893795,0.43701014,0.6085719,-0.44393402,0.49151307,6.621719837188721,3.9697017669677734,-8.937402725219727,-6.915431022644043,323.2950439453125, 105.20245361328125
669,1254910462,0.44936028,0.5814985,-0.42872638,0.5254794,8.068137168884277,7.133398056030273,-13.386937141418457,23.616426467895508,314.6730651855469, 79.00398254394531
670,1254927129,0.46384236,0.5562598,-0.41550285,0.55025715,7.833209037780762,5.244952201843262,-14.438894271850586,-13.55146598815918,271.9468994140625, 45.67127990722656
671,1254943796,0.47182813,0.5369021,-0.40297347,0.5716002,6.045896053314209,-0.9990801811218262,-19.304697036743164,17.562334060668945,216.32431030273438, 45.334678649902344
672,1254960463,0.4718386,0.5263281,-0.39084986,0.58956224,0.24879488348960876,6.019437313079834,-21.857606887817383,64.55062103271484,146.60855102539062, 42.8936767578125
673,1254977130,0.47373033,0.52042866,-0.39193332,0.5925555,-1.219689965248108,8.781270027160645,-22.846778869628906,-20.947025299072266,36.46531677246094, 22.1369686126709
674,1254993797,0.4712247,0.5247262,-0.397984,0.5867014,-0.9577174782752991,2.5748674869537354,-22.8289852142334,-16.201358795166016,-63.988094329833984, 1.7933458089828491
675,1255010464,0.45788315,0.5415072,-0.4000407,0.58058643,0.48527124524116516,2.2716190814971924,-18.813535690307617,78.70587921142578,-131.2623291015625, -3.8315787315368652
676,1255027131,0.43936875,0.56412464,-0.40090033,0.5727106,2.1368658542633057,5.384027481079102,-12.939056396484375,116.25554656982422,-171.00144958496094, -9.22110652923584
677,1255043798,0.42028874,0.58742195,-0.40119955,0.56332237,2.687060832977295,6.952867031097412,-4.556822299957275,118.47974395751953,-179.0369415283203, -15.545567512512207
678,1255060465,0.4033773,0.60269165,-0.40457323,0.5571088,12.860118865966797,-3.144082546234131,22.517595291137695,83.31133270263672,-137.93560791015625, 19.905855178833008
679,1255077132,0.38033718,0.62456745,-0.39285678,0.5576044,6.098146438598633,11.010025978088379,-3.864640235900879,203.58645629882812,-111.52743530273438, -19.106334686279297
680,1255093799,0.361408,0.64267945,-0.3928223,0.54958004,1.4673430919647217,-5.017496109008789,-20.008899688720703,108.1963119506836,-153.0580596923828, 3.4099528789520264
681,1255110466,0.34229764,0.6595829,-0.39484328,0.54026055,8.754851341247559,8.412910461425781,1.8149409294128418,94.7378921508789,-159.1914825439453, 13.00452709197998
682,1255127133,0.3322703,0.6719237,-0.40031162,0.52712965,-0.6283987760543823,-0.5962981581687927,0.060778673738241196,19.63646697998047,-143.17218017578125, -1.4858124256134033
683,1255143800,0.32108727,0.682815,-0.4034429,0.51759106,-0.05363524705171585,-5.3545823097229,-4.028869152069092,40.04010009765625,-119.23661041259766, 4.063816070556641
684,1255160467,0.3128454,0.69138867,-0.40456152,0.51033294,1.37128746509552,0.5572499632835388,-2.8321590423583984,34.61455535888672,-87.61402130126953, -4.57044792175293
685,1255177134,0.3107215,0.69649893,-0.40719578,0.50252646,2.2796952724456787,0.34110674262046814,-3.112621545791626,-8.766118049621582,-64.30702209472656, -10.36917781829834
686,1255193801,0.31174216,0.69909245,-0.4111464,0.49502048,1.8654776811599731,0.7571226358413696,-0.3428569436073303,-32.91315460205078,-48.17890167236328, -7.2199883460998535
687,1255210468,0.31317437,0.700933,-0.41459456,0.4885961,1.6949769258499146,1.384541630744934,-1.1900657415390015,-31.736968994140625,-38.26389694213867, -6.547571659088135
688,1255227135,0.3126154,0.7031014,-0.41581208,0.48478913,0.5581234097480774,1.2099097967147827,-0.7647604942321777,-6.47881555557251,-27.678804397583008, -5.859601020812988
689,1255243802,0.31487232,0.7040644,-0.41898715,0.47916472,-0.06397313624620438,1.587469458580017,-0.8157914876937866,-34.401302337646484,-28.657869338989258, -6.199880123138428
690,1255260469,0.31769225,0.705065,-0.42300567,0.47225136,0.05977777764201164,-0.8382489681243896,-0.04468327760696411,-43.53545379638672,-35.26960754394531, -6.807945251464844
691,1255277136,0.3189023,0.706403,-0.42695352,0.46584025,-1.156003713607788,-2.0922770500183105,0.08038035035133362,-33.29990005493164,-38.52641296386719, -1.8185440301895142
692,1255293803,0.32061264,0.70835865,-0.4314585,0.45747042,-0.7681673169136047,-0.32480016350746155,0.20287321507930756,-41.90875244140625,-49.82549285888672, -6.867560386657715
693,1255310470,0.3209065,0.71130764,-0.4351991,0.44906816,-0.4031952917575836,-1.4339675903320312,0.458229124546051,-30.508495330810547,-55.68899917602539, -9.148706436157227
694,1255327137,0.31924295,0.7153807,-0.43822882,0.44076064,0.04817350208759308,-0.40753138065338135,0.7310979962348938,-15.975113868713379,-63.05895233154297, -9.772086143493652
695,1255343804,0.31760195,0.71963334,-0.44259423,0.4305431,0.1126975268125534,0.2368585616350174,2.63594913482666,-25.489469528198242,-75.94954681396484, -8.011539459228516
