PacketCounter,SampleTimeFine,Quat_W,Quat_X,Quat_Y,Quat_Z,Acc_X,Acc_Y,Acc_Z,Gyr_X,Gyr_Y,Gyr_Z 
1,1177017692,0.4255643,-0.5022895,-0.3784984,-0.65064526,-0.29511868953704834,-1.1731288433074951,0.095665842294693,-1.2132121324539185,1.4240573644638062, -0.15357011556625366
2,1177034359,0.42560437,-0.50228846,-0.37862936,-0.6505437,9.616843223571777,0.5600410103797913,2.0700089931488037,0.658649742603302,-0.12018759548664093, 0.14718978106975555
3,1177051026,0.426087,-0.5026256,-0.37812743,-0.6502593,9.643658638000488,0.6379784941673279,2.1059255599975586,0.6535143852233887,-0.42753997445106506, 0.4819861650466919
4,1177067693,0.42637977,-0.50257933,-0.3778189,-0.65028244,9.683128356933594,0.687057375907898,2.106024980545044,0.05486880615353584,-0.3605499863624573, 0.4834460914134979
5,1177084360,0.42644727,-0.50235695,-0.3778299,-0.6504036,9.639376640319824,0.5836346745491028,2.061223030090332,0.4496757686138153,-0.37254950404167175, 0.6331267356872559
6,1177101027,0.42669076,-0.5022704,-0.3778842,-0.65027916,9.634964942932129,0.5883303284645081,2.0331525802612305,1.0967679023742676,-0.2863500118255615, 0.6292208433151245
7,1177117694,0.42687234,-0.50232214,-0.3779285,-0.6500942,9.637398719787598,0.5288333892822266,2.0026955604553223,1.1799834966659546,-0.22660836577415466, 0.6256990432739258
8,1177134361,0.4271144,-0.5024751,-0.37799042,-0.64978105,9.62808895111084,0.5648756623268127,2.0160958766937256,1.416683316230774,-0.30573880672454834, 0.6110485792160034
9,1177151028,0.42720968,-0.50267726,-0.377966,-0.64957625,9.635300636291504,0.5976808071136475,2.0531649589538574,0.7043684124946594,-0.17325709760189056, 0.340821772813797
10,1177167695,0.4272272,-0.5028569,-0.37789807,-0.6494651,9.633326530456543,0.616995632648468,2.073117256164551,0.2500631809234619,-0.12701337039470673, 0.27661073207855225
11,1177184362,0.42726696,-0.5029466,-0.37787652,-0.64938194,9.649710655212402,0.5899165868759155,2.0918455123901367,0.0755254477262497,-0.08101297169923782, 0.16337700188159943
12,1177201029,0.42735508,-0.5029827,-0.3778965,-0.64928454,9.631295204162598,0.560577929019928,2.031482219696045,0.6047030687332153,-0.17343638837337494, 0.23993977904319763
13,1177217696,0.42740202,-0.5030108,-0.37793562,-0.6492091,9.621896743774414,0.5411615371704102,2.055185556411743,1.1594035625457764,-0.12459297478199005, 0.006460803560912609
14,1177234363,0.42752856,-0.5030115,-0.37805238,-0.6490572,9.633224487304688,0.5707401633262634,2.043820858001709,1.708745002746582,-0.37397104501724243, 0.09650225937366486
15,1177251030,0.42774647,-0.5029343,-0.37826326,-0.64885056,9.669635772705078,0.6445401310920715,2.0515966415405273,1.3823750019073486,-0.3495493233203888, -0.1091357171535492
16,1177267697,0.427727,-0.50297886,-0.37830138,-0.6488065,9.61242961883545,0.5902261137962341,2.048736095428467,1.044197678565979,-0.3214777708053589, -0.05666809156537056
17,1177284364,0.4278498,-0.50294167,-0.37843633,-0.6486757,9.622318267822266,0.6220458149909973,2.0531115531921387,0.7580910325050354,-0.3095550537109375, -0.024075936526060104
18,1177301031,0.42717412,-0.5033519,-0.37796944,-0.64907485,9.637560844421387,0.590563952922821,2.032923460006714,0.5827017426490784,-0.31552284955978394, -0.10406439751386642
19,1177317698,0.42785951,-0.5029502,-0.37859493,-0.6485701,9.652816772460938,0.5555190443992615,2.0379984378814697,1.2571673393249512,-0.3227840065956116, -0.15297183394432068
20,1177334365,0.42927703,-0.50211847,-0.3797903,-0.64757836,9.633613586425781,0.5646601319313049,2.044062376022339,1.6197022199630737,-0.3070834279060364, -0.13088089227676392
21,1177351032,0.43026742,-0.50156546,-0.38061115,-0.6468674,9.626818656921387,0.6631171703338623,2.0781023502349854,1.3628709316253662,-0.3276504874229431, 0.08434902131557465
22,1177367699,0.4298704,-0.50180304,-0.38034332,-0.6471045,9.65368938446045,0.6444382667541504,2.04644775390625,0.886487603187561,-0.16968415677547455, 0.0102770971134305
23,1177384366,0.4297205,-0.5018869,-0.38026765,-0.6471834,9.645630836486816,0.5724735260009766,2.049960136413574,1.1544476747512817,-0.09794295579195023, 0.0856296569108963
24,1177401033,0.43049112,-0.50143653,-0.38088623,-0.6466566,9.653314590454102,0.6121105551719666,2.062710762023926,1.0916966199874878,-0.05533624067902565, 0.13904495537281036
25,1177417700,0.42962188,-0.50194806,-0.38022286,-0.6472279,9.624134063720703,0.6229715943336487,2.064300060272217,0.9160445928573608,-0.008132031187415123, 0.134383425116539
26,1177434367,0.42880872,-0.50241894,-0.3796006,-0.6477667,9.642660140991211,0.6409099698066711,2.0833375453948975,0.7641227841377258,0.020009920001029968, 0.10010082274675369
27,1177451034,0.4283808,-0.50266916,-0.3792742,-0.648047,9.631369590759277,0.5867912173271179,2.083094358444214,0.6314619183540344,-0.039866168051958084, 0.1426435261964798
28,1177467701,0.43093637,-0.5012063,-0.38125977,-0.6463182,9.638371467590332,0.5697160959243774,2.089189291000366,1.0650849342346191,-0.30339524149894714, 0.42634257674217224
29,1177484368,0.43148035,-0.500928,-0.3816944,-0.6459144,9.642757415771484,0.6570396423339844,2.098851203918457,0.9205908179283142,-0.41260775923728943, 0.3664216697216034
30,1177501035,0.43176523,-0.50079113,-0.38194203,-0.6456837,9.62877368927002,0.5938029289245605,2.045973777770996,0.8612205982208252,-0.43486520648002625, 0.2923497259616852
31,1177517702,0.43282834,-0.5001924,-0.3828143,-0.64491904,9.639568328857422,0.5615223050117493,2.064647674560547,1.251763105392456,-0.5123435854911804, 0.3056299388408661
32,1177534369,0.4326681,-0.5003147,-0.38271433,-0.644991,9.641129493713379,0.6151162981987,2.0584793090820312,0.9108195900917053,-0.3810657560825348, 0.25793907046318054
33,1177551036,0.43381822,-0.49963066,-0.38364324,-0.6441963,9.657394409179688,0.5911288857460022,2.0292184352874756,0.7167649269104004,-0.2644510865211487, 0.046813610941171646
34,1177567703,0.43423972,-0.49938112,-0.38398588,-0.6439015,9.621905326843262,0.558575451374054,2.0146100521087646,0.9601495862007141,-0.13175171613693237, 0.1656821221113205
35,1177584370,0.4340564,-0.49947053,-0.38387477,-0.64402217,9.635957717895508,0.6061221957206726,2.0552916526794434,0.9365988969802856,-0.046845629811286926, -0.014368725940585136
36,1177601037,0.4343143,-0.49928373,-0.38413164,-0.64383996,9.653931617736816,0.5559919476509094,2.0575246810913086,1.1523857116699219,-0.08202466368675232, -0.10656163096427917
37,1177617704,0.43400612,-0.4994228,-0.3839541,-0.64404577,9.609606742858887,0.5723193883895874,2.0465638637542725,1.7200273275375366,0.011147928424179554, -0.07866941392421722
38,1177634371,0.43304944,-0.49992684,-0.38330084,-0.64468753,9.644990921020508,0.5828861594200134,2.0557861328125,1.8454780578613281,0.02016359753906727, -0.24667590856552124
39,1177651038,0.4330661,-0.49985558,-0.38339937,-0.6446729,9.650472640991211,0.5863986015319824,2.07291316986084,1.7070802450180054,-0.0009348636958748102, -0.25028732419013977
40,1177667705,0.43201742,-0.50043476,-0.38264582,-0.6453746,9.6536226272583,0.6545175909996033,2.09371280670166,0.9948805570602417,-0.0343722440302372, -0.23669977486133575
41,1177684372,0.43093517,-0.50102,-0.38184664,-0.64611685,9.63060474395752,0.6322841644287109,2.0481581687927246,0.619103729724884,0.12057818472385406, -0.29983508586883545
42,1177701039,0.43076473,-0.5010522,-0.38177815,-0.646246,9.591634750366211,0.5816120505332947,2.02336049079895,1.302924394607544,0.13414011895656586, -0.2831612229347229
43,1177717706,0.430222,-0.50127935,-0.38147795,-0.64660853,9.587592124938965,0.580032467842102,2.0075972080230713,2.3125901222229004,0.07468023151159286, -0.37052613496780396
44,1177734373,0.43079838,-0.50080633,-0.38215214,-0.6461932,9.667710304260254,0.5282407402992249,2.0490055084228516,3.291942596435547,-0.1480029821395874, -0.6875985264778137
45,1177751040,0.4298019,-0.5012011,-0.3817533,-0.6467861,9.628218650817871,0.43648117780685425,2.0683670043945312,4.449919700622559,-0.4218027591705322, -1.2116730213165283
46,1177767707,0.4303453,-0.5006912,-0.3826441,-0.64629316,9.61538314819336,0.49779579043388367,2.112760305404663,4.6079487800598145,-0.9712976217269897, -1.4815922975540161
47,1177784374,0.4313946,-0.499896,-0.3840443,-0.6453782,9.5892333984375,0.704429030418396,2.135695457458496,2.617816925048828,-1.8727881908416748, -2.1845972537994385
48,1177801041,0.4305133,-0.50032777,-0.38413703,-0.6455766,9.641741752624512,0.6099109053611755,2.224804162979126,1.2645440101623535,-3.5692200660705566, -2.582221269607544
49,1177817708,0.42994344,-0.5006628,-0.38442132,-0.6455275,9.867000579833984,0.6688534617424011,2.317197561264038,1.331277847290039,-3.9573934078216553, -1.9716273546218872
50,1177834375,0.42783955,-0.5017915,-0.38366282,-0.64649945,9.52070140838623,0.8616661429405212,2.200161933898926,2.838393211364746,-3.865135908126831, -2.695378303527832
51,1177851042,0.4277987,-0.50159544,-0.3845576,-0.64614695,9.726927757263184,0.5657153725624084,1.9790825843811035,4.967257499694824,-3.339153528213501, -2.866368532180786
52,1177867709,0.42599046,-0.5025673,-0.38381398,-0.64702797,9.774343490600586,0.7691933512687683,2.004568338394165,4.110294818878174,-2.7695653438568115, -1.682741641998291
53,1177884376,0.4273707,-0.50178945,-0.38526002,-0.64586097,9.604736328125,0.7308516502380371,1.8442754745483398,0.2519841194152832,-2.50813627243042, -0.8654658794403076
54,1177901043,0.42700246,-0.50211495,-0.38521126,-0.6458805,9.475706100463867,0.780486524105072,1.8314977884292603,1.1916629076004028,-2.1153786182403564, 0.06412780284881592
55,1177917710,0.42840505,-0.5014074,-0.38626736,-0.6448701,9.641548156738281,0.8859676122665405,1.9110589027404785,0.3584689199924469,-0.8476522564888, 0.8392961025238037
56,1177934377,0.42772922,-0.50192744,-0.38552776,-0.64535654,9.763509750366211,0.7918441891670227,1.9652280807495117,-0.6830266118049622,0.1760040670633316, 1.1129934787750244
57,1177951044,0.425081,-0.5036404,-0.38313657,-0.6471931,9.57763957977295,0.5573762059211731,1.9227031469345093,0.06374360620975494,0.7050215601921082, 1.7419004440307617
58,1177967711,0.4264909,-0.50297993,-0.38370475,-0.6464422,9.79826831817627,0.7288801670074463,1.9373579025268555,0.3544861674308777,1.533540964126587, 2.5562050342559814
59,1177984378,0.42864254,-0.50190526,-0.38454625,-0.64535326,9.77170467376709,0.8221246600151062,1.985810399055481,-2.146395683288574,2.8141767978668213, 3.0893337726593018
60,1178001045,0.43007886,-0.50123423,-0.38458067,-0.6448987,9.699761390686035,0.7196874618530273,1.9980416297912598,-3.2966878414154053,4.24739933013916, 3.498023271560669
61,1178017712,0.43045703,-0.50120026,-0.38358402,-0.6452662,9.6689453125,0.6345169544219971,1.9910136461257935,-3.676793336868286,5.306331157684326, 4.0684309005737305
62,1178034379,0.43010032,-0.50165075,-0.38186243,-0.64617455,9.660198211669922,0.7138477563858032,2.0320284366607666,-4.9527153968811035,5.704172611236572, 4.512913227081299
63,1178051046,0.43083063,-0.5014765,-0.38082644,-0.64643455,9.652653694152832,0.7759196758270264,2.086597204208374,-6.4043803215026855,6.320133209228516, 4.791695594787598
64,1178067713,0.43173975,-0.50127953,-0.3798117,-0.6465778,9.642574310302734,0.7323954701423645,2.1555604934692383,-7.814195156097412,6.275760650634766, 5.280938148498535
65,1178084380,0.43201947,-0.50150704,-0.3783153,-0.6470915,9.633489608764648,0.8084842562675476,2.231929063796997,-8.07214069366455,5.823235511779785, 5.5049848556518555
66,1178101047,0.4337147,-0.50096345,-0.37797156,-0.64657927,9.674546241760254,0.7859708666801453,2.2680983543395996,-8.97758960723877,5.0588884353637695, 5.455885410308838
67,1178117714,0.43398452,-0.5012599,-0.3765717,-0.64698523,9.725774765014648,0.6428367495536804,2.260188341140747,-9.079911231994629,4.733465671539307, 5.344367980957031
68,1178134381,0.43529922,-0.5009916,-0.37600675,-0.64663833,9.587441444396973,0.45495232939720154,2.1876420974731445,-8.164114952087402,4.330231666564941, 5.6981940269470215
69,1178151048,0.43366697,-0.5024166,-0.37317833,-0.6482657,9.566336631774902,0.5661079287528992,2.0981709957122803,-7.781871318817139,4.327132225036621, 5.643074989318848
70,1178167715,0.43514615,-0.50211453,-0.37290987,-0.647663,9.504508972167969,0.39573851227760315,2.1648178100585938,-8.5858154296875,3.006579875946045, 5.380122661590576
71,1178184382,0.4330256,-0.50377065,-0.37001595,-0.6494552,9.568428039550781,0.24120715260505676,2.2511847019195557,-5.914038181304932,3.0048253536224365, 4.919272422790527
72,1178201049,0.43197578,-0.5047688,-0.36807427,-0.65048206,9.586837768554688,0.25297972559928894,2.174837589263916,-5.170640468597412,2.6344008445739746, 4.500260353088379
73,1178217716,0.42973363,-0.50635093,-0.3654315,-0.6522252,9.547650337219238,0.032151009887456894,2.1216371059417725,-4.291971683502197,2.0615856647491455, 3.575629472732544
74,1178234383,0.43146348,-0.50560343,-0.3661112,-0.65128124,9.471628189086914,-0.013558439910411835,2.0733299255371094,-1.7627557516098022,1.6198559999465942, 2.8666439056396484
75,1178251050,0.43118933,-0.505914,-0.36548615,-0.6515726,9.52249526977539,0.09226631373167038,2.131377696990967,-1.2274117469787598,0.835210919380188, 1.8112214803695679
76,1178267717,0.43653032,-0.5028791,-0.3695062,-0.6480887,9.574676513671875,0.13739073276519775,2.18576717376709,-0.2903968095779419,0.6228176355361938, 0.22296495735645294
77,1178284384,0.43607196,-0.5029087,-0.36947688,-0.648391,9.525749206542969,0.016324734315276146,2.164257526397705,1.7102943658828735,-0.1039363294839859, -1.8572406768798828
78,1178301051,0.43751022,-0.50157887,-0.37148088,-0.6473063,9.509302139282227,-0.029640324413776398,2.196510076522827,5.7605719566345215,-0.9223261475563049, -4.114693641662598
79,1178317718,0.43784297,-0.5007034,-0.37301475,-0.646877,9.503093719482422,0.0033101120498031378,2.112488031387329,8.248603820800781,-1.6188255548477173, -5.672702312469482
80,1178334385,0.44097584,-0.49810433,-0.37703142,-0.64442223,9.537576675415039,0.1012798473238945,2.1356725692749023,9.171098709106445,-2.625558853149414, -6.926548004150391
81,1178351052,0.44058037,-0.49759558,-0.37844372,-0.6442578,9.645938873291016,0.2080737054347992,2.2455856800079346,8.810050010681152,-3.630615234375, -7.17841100692749
82,1178367719,0.4393547,-0.49773347,-0.3790871,-0.64460987,9.673088073730469,0.5705199241638184,2.3815784454345703,6.870845317840576,-4.167789459228516, -6.431364059448242
83,1178384386,0.43895614,-0.4975002,-0.38009623,-0.6444672,9.695158958435059,0.7989906668663025,2.314401626586914,3.6856486797332764,-3.702188491821289, -5.7204179763793945
84,1178401053,0.43903816,-0.49707162,-0.38121882,-0.64407885,9.729711532592773,0.8161375522613525,2.174950122833252,2.980402708053589,-3.0025899410247803, -4.618226528167725
85,1178417720,0.43778744,-0.4975097,-0.38106403,-0.64468336,9.586746215820312,0.8195047974586487,2.0901451110839844,4.2305588722229,-2.145857810974121, -3.1702380180358887
86,1178434387,0.4379523,-0.49715024,-0.38180196,-0.6444119,9.61027717590332,0.8175665736198425,2.0564334392547607,6.327368259429932,-1.2239540815353394, -1.883570909500122
87,1178451054,0.4366585,-0.4976475,-0.3812721,-0.64521956,9.591195106506348,0.7488691210746765,2.023550271987915,8.429658889770508,-0.2739790976047516, -1.0091661214828491
88,1178467721,0.43468285,-0.4986302,-0.38003474,-0.6465235,9.605602264404297,0.7096351981163025,2.082277774810791,8.702666282653809,0.13302598893642426, 0.05087323859333992
89,1178484388,0.43580595,-0.4978653,-0.38092077,-0.645835,9.724379539489746,0.7674154043197632,2.2438671588897705,6.932431221008301,0.9165315628051758, 0.8706591725349426
90,1178501055,0.43391672,-0.49893886,-0.37913957,-0.647325,9.858949661254883,0.8148357272148132,2.3821327686309814,2.3815391063690186,2.018620014190674, 1.2624691724777222
91,1178517722,0.43403137,-0.49890366,-0.37855342,-0.6476182,9.672520637512207,0.7400399446487427,2.166719913482666,-2.444181442260742,3.0961334705352783, 1.6294735670089722
92,1178534389,0.43559214,-0.49813652,-0.37912586,-0.6468256,9.523457527160645,0.55576092004776,2.2332794666290283,-3.108856439590454,2.0158281326293945, 1.946955680847168
93,1178551056,0.43710238,-0.49733627,-0.37964472,-0.6461177,9.510300636291504,0.5089927911758423,2.1877996921539307,-1.309731125831604,2.618572235107422, 2.0717923641204834
94,1178567723,0.43543518,-0.49838582,-0.37793684,-0.64743453,9.587665557861328,0.4791887104511261,2.1473934650421143,0.09377449005842209,1.609739065170288, 1.6617968082427979
95,1178584390,0.43478724,-0.4987816,-0.37723893,-0.64797217,9.544343948364258,0.3193175792694092,2.226961612701416,2.7740795612335205,0.9431684613227844, 1.2978402376174927
96,1178601057,0.43582806,-0.49818954,-0.3779046,-0.6473403,9.650609970092773,0.4489187002182007,2.291159152984619,3.533867120742798,0.6624660491943359, 1.2409672737121582
97,1178617724,0.43462837,-0.49884763,-0.37684503,-0.648257,9.640658378601074,0.432371586561203,2.214153528213501,1.3978323936462402,0.928620457649231, 0.4744816720485687
98,1178634391,0.4308023,-0.5009548,-0.37385523,-0.6509118,9.623778343200684,0.3816007971763611,2.1641995906829834,1.4075266122817993,0.8860777020454407, -0.12609131634235382
99,1178651058,0.42942017,-0.5015738,-0.37287235,-0.6519114,9.571784019470215,0.3812926411628723,2.1830251216888428,0.9782450795173645,0.6930604577064514, -0.972168505191803
100,1178667725,0.43250668,-0.49949828,-0.3754921,-0.6499579,9.616379737854004,0.4562157094478607,2.179107427597046,1.0368726253509521,0.7219002842903137, -2.1305410861968994
101,1178684392,0.43244135,-0.49906838,-0.37561652,-0.6502596,9.64773178100586,0.5292693972587585,2.112143039703369,0.6161070466041565,2.2430896759033203, -2.8574423789978027
102,1178701059,0.43444002,-0.49745077,-0.3775138,-0.64906704,9.500373840332031,0.3146318197250366,2.07502818107605,1.616385579109192,1.2301844358444214, -3.168483257293701
103,1178717726,0.4314059,-0.49866945,-0.37570518,-0.65120155,9.524247169494629,0.3256210684776306,2.304861307144165,5.478026390075684,1.2268421649932861, -3.181840658187866
104,1178734393,0.4308987,-0.4983753,-0.37579733,-0.65170914,9.703291893005371,0.668218731880188,2.225445508956909,5.7891950607299805,1.7774896621704102, -3.2607920169830322
105,1178751060,0.42812222,-0.499427,-0.37416193,-0.6536719,9.724064826965332,0.5378496050834656,2.244734048843384,4.384209632873535,1.366379976272583, -3.371361494064331
106,1178767727,0.4260536,-0.49994665,-0.3730723,-0.655247,9.590749740600586,0.5154550075531006,2.312180995941162,6.029929161071777,2.308799982070923, -3.6009414196014404
107,1178784394,0.42284963,-0.5011682,-0.3709685,-0.6575798,9.717378616333008,0.5167250037193298,2.090670108795166,2.9786994457244873,2.4476330280303955, -3.488513946533203
108,1178801061,0.42066702,-0.5020045,-0.3698439,-0.6589737,9.897157669067383,-0.2595781087875366,2.146221876144409,1.5519310235977173,-0.09349916130304337, -3.441514253616333
109,1178817728,0.4173211,-0.50367063,-0.3683481,-0.6606656,10.01802921295166,-0.29148492217063904,2.573323965072632,10.853495597839355,-3.4495837688446045, -2.1249969005584717
110,1178834395,0.41762847,-0.5029638,-0.36987802,-0.66015464,10.096989631652832,0.36386942863464355,3.2072365283966064,17.348085403442383,-1.9216208457946777, -3.137815475463867
111,1178851062,0.41836283,-0.5016316,-0.371279,-0.65991676,10.58447551727295,0.3595867156982422,2.2152843475341797,8.858201026916504,2.516967535018921, -5.530309677124023
112,1178867729,0.4188938,-0.5006616,-0.37222683,-0.6597827,10.399094581604004,-0.038613662123680115,1.6687030792236328,-1.226822853088379,1.5823848247528076, -5.661674976348877
113,1178884396,0.41727713,-0.50102514,-0.370723,-0.66137606,10.176257133483887,-0.8082260489463806,1.938462734222412,-6.662965774536133,4.664681434631348, -3.715686082839966
114,1178901063,0.42061824,-0.49992323,-0.36964482,-0.66069645,9.187798500061035,-4.02817440032959,2.3415210247039795,-34.31613540649414,10.834665298461914, 6.949929714202881
115,1178917730,0.41999108,-0.50097805,-0.36436465,-0.66322476,10.235612869262695,-1.7867213487625122,1.2392730712890625,-33.72573471069336,17.547313690185547, 10.274750709533691
116,1178934397,0.41756064,-0.50226736,-0.3564466,-0.6680692,10.00986099243164,-1.3955069780349731,1.1534123420715332,-39.64890670776367,28.79831886291504, 9.467580795288086
117,1178951064,0.4178548,-0.504578,-0.35115907,-0.66894376,8.75264835357666,-0.33903026580810547,1.8095552921295166,-63.39649200439453,6.6537861824035645, 13.750852584838867
118,1178967731,0.4127818,-0.510679,-0.34098044,-0.67271864,9.194844245910645,-0.5106861591339111,2.548279047012329,-87.51312255859375,2.277961015701294, 15.559846878051758
119,1178984398,0.40844622,-0.51758826,-0.33121893,-0.67495793,8.517812728881836,-1.9097886085510254,2.957484483718872,-95.7332534790039,-6.783843517303467, 20.152057647705078
120,1179001065,0.40465808,-0.5241069,-0.32184115,-0.67674375,9.411270141601562,-0.4717878997325897,3.7456963062286377,-75.55393981933594,-6.037933349609375, 25.187515258789062
121,1179017732,0.40048534,-0.5302993,-0.31256318,-0.67874795,9.804302215576172,0.0706881433725357,4.224602222442627,-67.27648162841797,-4.925103187561035, 23.86867904663086
122,1179034399,0.39953202,-0.53471035,-0.3063702,-0.6786726,9.620967864990234,1.4745240211486816,4.79240608215332,-53.13042068481445,-5.886318206787109, 24.227313995361328
123,1179051066,0.39834157,-0.53869534,-0.30081287,-0.67870694,9.697516441345215,3.2217633724212646,4.053510665893555,-49.82863998413086,-5.801949977874756, 19.7956485748291
124,1179067733,0.396406,-0.54182214,-0.29616845,-0.6793936,9.919978141784668,3.405177116394043,2.659578323364258,-35.98386001586914,-3.734273672103882, 12.427903175354004
125,1179084400,0.39454943,-0.5436497,-0.29338828,-0.68022,9.574594497680664,3.2855300903320312,1.7102463245391846,-18.535921096801758,-2.2337377071380615, 4.3604583740234375
126,1179101067,0.39512706,-0.5435822,-0.29427946,-0.6795535,8.91617202758789,2.4492347240448,1.4023791551589966,-2.8754866123199463,-3.3914802074432373, -2.0570714473724365
127,1179117734,0.39549354,-0.54296196,-0.29638204,-0.67892194,8.622300148010254,1.2949103116989136,1.8850460052490234,13.952369689941406,-4.665740966796875, -6.0248799324035645
128,1179134401,0.39675832,-0.5411003,-0.29935765,-0.67836463,9.043736457824707,1.1114087104797363,2.029656410217285,25.95313835144043,0.8419362902641296, -7.383659839630127
129,1179151068,0.39862385,-0.5388748,-0.30265987,-0.67757684,9.21230697631836,-0.4947550296783447,2.032461166381836,26.84468650817871,2.1396074295043945, -6.868884086608887
130,1179167735,0.4010009,-0.5364418,-0.30564514,-0.67676437,9.26965045928955,-0.8480210304260254,2.0254063606262207,30.55774688720703,4.9018707275390625, -3.048715353012085
131,1179184402,0.4020827,-0.53505313,-0.30674937,-0.6767222,9.218157768249512,-0.5175633430480957,2.2172939777374268,20.817773818969727,5.230076789855957, -0.08180709928274155
132,1179201069,0.40280002,-0.5345829,-0.30721873,-0.67645437,9.31552505493164,-0.5538871884346008,2.2722809314727783,9.832968711853027,1.1935840845108032, 1.9621319770812988
133,1179217736,0.40325728,-0.5341829,-0.3073199,-0.6764519,10.078666687011719,-0.3547319769859314,3.010007381439209,5.896768093109131,2.322566270828247, 1.367148518562317
134,1179234403,0.4026733,-0.53464955,-0.3057366,-0.6771481,10.69243049621582,-0.41436994075775146,3.035085439682007,-12.882476806640625,3.344860315322876, 1.7918078899383545
135,1179251070,0.40013123,-0.5361376,-0.30271062,-0.67883617,10.515039443969727,-0.8846404552459717,3.2938942909240723,-13.236102104187012,1.766349196434021, 1.9581753015518188
136,1179267737,0.39990315,-0.536094,-0.3019917,-0.6793248,10.702144622802734,0.5635368824005127,4.103738784790039,-4.659168243408203,3.230370044708252, -0.017570313066244125
137,1179284404,0.39812613,-0.53667057,-0.299378,-0.681068,10.738947868347168,1.6601128578186035,3.7420740127563477,-21.7603702545166,6.826571941375732, -1.9294847249984741
138,1179301071,0.39526758,-0.5371652,-0.29627278,-0.6836959,10.220131874084473,1.3110342025756836,2.7459404468536377,-22.637155532836914,9.389975547790527, -5.858584880828857
139,1179317738,0.39432904,-0.53530085,-0.29499853,-0.68624634,10.005226135253906,1.063666820526123,2.7261483669281006,-8.885689735412598,19.295650482177734, -10.245123863220215
140,1179334405,0.3939557,-0.5329893,-0.29543313,-0.68807065,8.771345138549805,0.521747350692749,2.0626344680786133,7.244939804077148,15.191317558288574, -11.848258018493652
141,1179351072,0.39553347,-0.530199,-0.29834104,-0.6880663,8.34736156463623,0.6066258549690247,1.5896648168563843,20.002784729003906,8.183549880981445, -10.610774040222168
142,1179367739,0.39665687,-0.52820545,-0.30153915,-0.68755865,7.953153610229492,0.23630905151367188,1.428911566734314,24.862775802612305,0.8313453197479248, -9.091633796691895
143,1179384406,0.39821947,-0.5264933,-0.30533123,-0.6862939,8.256723403930664,0.16366921365261078,1.8154035806655884,29.724637985229492,-3.9102137088775635, -6.598735809326172
144,1179401073,0.39974076,-0.5251143,-0.30863374,-0.6849874,9.136322975158691,0.08262099325656891,2.0617337226867676,25.837472915649414,-4.35465669631958, -4.356539249420166
145,1179417740,0.40105826,-0.5234008,-0.31186068,-0.684067,9.92241382598877,-0.967094898223877,2.1429636478424072,26.571781158447266,-1.578271508216858, -6.350762367248535
146,1179434407,0.4044482,-0.5170807,-0.31545076,-0.68523014,11.372376441955566,-2.1293411254882812,3.921469211578369,44.38599395751953,31.06504249572754, -13.492303848266602
147,1179451074,0.40025494,-0.5184186,-0.3061313,-0.69088525,9.354108810424805,-1.2956069707870483,1.7750351428985596,-73.89469146728516,30.35989761352539, 0.7935569882392883
148,1179467741,0.3928499,-0.5241086,-0.29494572,-0.6956914,8.457565307617188,-1.2408705949783325,-1.586352825164795,-105.49933624267578,5.078756809234619, 3.2741684913635254
149,1179484408,0.38644215,-0.5305469,-0.2846626,-0.6986774,8.941962242126465,-0.7517160177230835,-4.869925498962402,-95.64505004882812,-5.222702980041504, 11.216482162475586
150,1179501075,0.3806155,-0.53825545,-0.27448675,-0.70005035,10.681902885437012,-2.0257434844970703,-2.819269895553589,-93.00292205810547,-15.902743339538574, 20.409517288208008
151,1179517742,0.3758491,-0.5465473,-0.2668893,-0.6991381,10.507702827453613,-1.3230866193771362,-2.6850857734680176,-73.85002899169922,-31.55916976928711, 22.94725799560547
152,1179534409,0.37132612,-0.55596423,-0.26163146,-0.6961107,10.23824405670166,-1.900583028793335,-2.235100269317627,-60.76654815673828,-50.17753982543945, 22.786272048950195
153,1179551076,0.3684994,-0.5654472,-0.260425,-0.69040346,10.183147430419922,-2.5185322761535645,-0.9140173196792603,-30.123064041137695,-67.74683380126953, 22.31846046447754
154,1179567743,0.36533296,-0.57644784,-0.25942764,-0.6833283,10.006667137145996,-1.8593318462371826,-0.48882752656936646,-31.811750411987305,-81.21904754638672, 25.958133697509766
155,1179584410,0.3618948,-0.5884792,-0.25805026,-0.6753776,9.876008987426758,-1.6352354288101196,-0.3287830948829651,-35.732177734375,-88.91374206542969, 30.146686553955078
156,1179601077,0.3596003,-0.5997651,-0.25999382,-0.66586274,9.571243286132812,-1.2388721704483032,-0.5903917551040649,-10.996443748474121,-97.9024658203125, 24.54384422302246
157,1179617744,0.3593717,-0.6097563,-0.26461133,-0.65500426,9.758774757385254,-1.414866328239441,-0.03357838839292526,15.370148658752441,-100.32762145996094, 23.941757202148438
158,1179634411,0.35964432,-0.61920184,-0.26959607,-0.64386594,9.730461120605469,-1.0712329149246216,1.5084785223007202,20.985149383544922,-98.98616027832031, 24.30506706237793
159,1179651078,0.35853562,-0.62917334,-0.2731877,-0.63321567,9.529417037963867,-0.5723541378974915,1.7073719501495361,6.713876724243164,-98.41024017333984, 23.867965698242188
160,1179667745,0.35769397,-0.63819784,-0.2771004,-0.6228759,9.631978034973145,-0.04071086645126343,1.9624208211898804,11.021652221679688,-93.32177734375, 21.11740493774414
161,1179684412,0.3582366,-0.6449957,-0.28267995,-0.61297613,9.595579147338867,0.20789164304733276,2.511606216430664,28.83702850341797,-83.43179321289062, 14.459627151489258
162,1179701079,0.35823727,-0.651366,-0.28760394,-0.60388154,9.589595794677734,0.20396044850349426,2.5457592010498047,23.14249610900879,-77.66151428222656, 12.340201377868652
163,1179717746,0.3575394,-0.6572086,-0.29163918,-0.59597784,10.050796508789062,0.6505114436149597,2.1602671146392822,15.245808601379395,-69.5031967163086, 9.522263526916504
164,1179734413,0.35626262,-0.66250867,-0.29494464,-0.5892092,10.260055541992188,0.4457968771457672,2.2395341396331787,8.672266006469727,-61.6738166809082, 6.683898448944092
165,1179751080,0.35557443,-0.66658646,-0.2986385,-0.58313364,10.257333755493164,0.1994437277317047,2.376845598220825,14.506376266479492,-53.49620819091797, 3.2286884784698486
166,1179767747,0.355529,-0.6694346,-0.3030651,-0.5775885,10.089330673217773,0.028432458639144897,2.258746862411499,22.287504196166992,-46.795204162597656, -1.2822095155715942
167,1179784414,0.35645658,-0.67082363,-0.30843207,-0.57254225,10.078984260559082,-0.14331689476966858,2.161132335662842,33.01310348510742,-39.162288665771484, -5.928064346313477
168,1179801081,0.35848305,-0.6709872,-0.31460965,-0.5677035,9.961438179016113,-0.6336019039154053,2.1710257530212402,43.81800079345703,-33.221134185791016, -8.380208969116211
169,1179817748,0.36076513,-0.6707966,-0.3205469,-0.5631435,9.797859191894531,-0.6045787334442139,1.6976836919784546,44.31071090698242,-29.595226287841797, -7.687961101531982
170,1179834415,0.36379126,-0.6699673,-0.32612935,-0.55896336,9.734016418457031,-0.6730533242225647,2.4011082649230957,47.101348876953125,-23.010547637939453, -5.4806718826293945
171,1179851082,0.36654323,-0.66885304,-0.33071712,-0.55579525,9.497294425964355,-0.5466911196708679,2.7054760456085205,40.443016052246094,-15.582795143127441, -5.083707332611084
172,1179867749,0.36986575,-0.66659564,-0.334735,-0.5538977,9.444059371948242,-0.5114466547966003,3.1003754138946533,40.85714340209961,-2.8545522689819336, -6.035348415374756
173,1179884416,0.37352163,-0.66361785,-0.3382128,-0.55290645,9.230084419250488,-0.5246145129203796,2.0059680938720703,40.051719665527344,5.9467597007751465, -6.200653553009033
174,1179901083,0.37622038,-0.6611835,-0.3405013,-0.5525885,9.988198280334473,-0.02820497378706932,-2.1192777156829834,28.186447143554688,7.614161014556885, -4.8314666748046875
175,1179917750,0.376804,-0.6600056,-0.3434886,-0.55174935,11.434343338012695,0.012489485554397106,-3.2756240367889404,19.21297264099121,-6.216943264007568, -11.686443328857422
176,1179934417,0.3752789,-0.6599183,-0.34680176,-0.55082005,9.955767631530762,0.3472208082675934,-3.5068395137786865,8.28902530670166,-16.456762313842773, -18.282081604003906
177,1179951084,0.37497434,-0.65896213,-0.35170212,-0.5490621,7.7766218185424805,-0.290472149848938,-1.0838600397109985,24.07872200012207,-17.961105346679688, -20.716737747192383
178,1179967751,0.3745305,-0.6585569,-0.35566276,-0.54729724,8.542234420776367,-1.9505046606063843,0.6000419855117798,18.509326934814453,-17.968297958374023, -15.606852531433105
179,1179984418,0.37707454,-0.65721,-0.36026666,-0.5441493,10.352822303771973,-3.240504026412964,0.9140312671661377,40.24896240234375,-15.123886108398438, -6.075526237487793
180,1180001085,0.37734964,-0.65776855,-0.36337662,-0.54120773,11.337848663330078,-1.7577884197235107,-0.13442231714725494,18.936019897460938,-23.190515518188477, -3.7473676204681396
181,1180017752,0.37714702,-0.6581837,-0.36724755,-0.5382229,11.377545356750488,-0.8562823534011841,-0.8467187881469727,20.079984664916992,-26.08899688720703, -9.243302345275879
182,1180034419,0.37505823,-0.65967846,-0.36994278,-0.53600216,8.668757438659668,-1.8732942342758179,-0.27853724360466003,2.4679198265075684,-28.372175216674805, -10.140151977539062
183,1180051086,0.373048,-0.66261405,-0.3714387,-0.5327397,7.939408779144287,-4.615911960601807,-1.871882677078247,-2.6686885356903076,-35.1643180847168, 1.8823111057281494
184,1180067753,0.3736463,-0.66438675,-0.3748763,-0.52768105,8.66468620300293,-1.9579719305038452,-2.4926061630249023,23.87468147277832,-37.368873596191406, 4.010919570922852
185,1180084420,0.37374604,-0.666431,-0.37884802,-0.52216697,7.873143672943115,-0.17884714901447296,-2.119621992111206,24.00864601135254,-43.02641296386719, 1.5732669830322266
186,1180101087,0.3742577,-0.6686508,-0.38349232,-0.5155304,8.393933296203613,-1.3271852731704712,-2.1066293716430664,30.7918701171875,-49.40519332885742, 3.349457263946533
187,1180117754,0.37690967,-0.6697978,-0.39040604,-0.50684696,11.21228313446045,-1.323835849761963,-1.3530073165893555,56.83417510986328,-55.174869537353516, 2.9210712909698486
188,1180134421,0.38346806,-0.66726184,-0.40278482,-0.4954583,14.599637031555176,0.07914957404136658,-1.6408820152282715,110.67469787597656,-58.521018981933594, -11.50103759765625
189,1180151088,0.3916565,-0.6608959,-0.42143658,-0.4818856,15.193251609802246,0.21531498432159424,-1.5559214353561401,155.692626953125,-67.58934783935547, -39.46015167236328
190,1180167755,0.39691058,-0.65489936,-0.43678698,-0.47200257,13.027117729187012,-0.5780845880508423,-1.684564232826233,119.75078582763672,-51.74052429199219, -42.91185760498047
191,1180184422,0.39875233,-0.651941,-0.44322318,-0.4685333,10.50095272064209,0.9537777900695801,-2.144829034805298,47.90988540649414,-18.701513290405273, -22.161109924316406
192,1180201089,0.39611778,-0.654842,-0.43596673,-0.47350422,9.358373641967773,1.184206485748291,-3.534820556640625,-58.03152084350586,24.13819122314453, 19.618070602416992
193,1180217756,0.39430553,-0.6578644,-0.42649272,-0.47941828,9.444159507751465,1.8772027492523193,-3.5501134395599365,-64.68518829345703,36.557674407958984, 30.173017501831055
194,1180234423,0.39344132,-0.6604654,-0.4149514,-0.4866264,13.338523864746094,0.7204049229621887,-2.589296817779541,-69.84504699707031,52.24821472167969, 38.04204559326172
195,1180251090,0.39408958,-0.6612038,-0.40454355,-0.49380982,17.298601150512695,-0.9115301370620728,-0.6609468460083008,-54.07475280761719,59.58433151245117, 32.81122589111328
196,1180267757,0.39822286,-0.65814716,-0.398598,-0.49938065,19.686782836914062,-2.2063210010528564,0.7164565920829773,-8.343591690063477,62.57686996459961, 18.2232723236084
197,1180284424,0.4015103,-0.6531751,-0.39184883,-0.50853413,20.373186111450195,0.5194465517997742,2.929035186767578,-19.55133819580078,85.0082778930664, 3.904844045639038
198,1180301091,0.4015997,-0.6478384,-0.38260964,-0.52214324,16.123920440673828,-0.26452937722206116,3.0520896911621094,-53.65980911254883,104.2117691040039, -9.227999687194824
199,1180317758,0.40566245,-0.63658845,-0.3697949,-0.54170614,11.245904922485352,-2.5890614986419678,3.6977813243865967,-48.19623565673828,172.00965881347656, -10.971389770507812
200,1180334425,0.40471646,-0.63051105,-0.3558529,-0.55859613,1.8689601421356201,-5.039392471313477,-1.5988831520080566,-82.02423095703125,131.1835479736328, -4.197635650634766
201,1180351092,0.40440527,-0.6267882,-0.3478318,-0.56798464,2.8399360179901123,-4.310876846313477,-7.873550891876221,-44.729652404785156,74.77228546142578, -1.0980714559555054
202,1180367759,0.40641484,-0.6219098,-0.34547296,-0.5733273,5.397058963775635,0.6669927835464478,-7.559842109680176,0.31362420320510864,52.07822799682617, -8.189434051513672
203,1180384426,0.4027711,-0.621008,-0.34302136,-0.57832646,5.883482933044434,0.6887540817260742,-5.858123302459717,-34.48371505737305,22.173465728759766, -19.62723159790039
204,1180401093,0.400695,-0.62089795,-0.34482965,-0.5788113,4.771629810333252,-1.6407514810562134,-5.78585147857666,-2.367435932159424,-8.034150123596191, -17.16191291809082
205,1180417760,0.39753434,-0.62233996,-0.34821743,-0.5774118,3.8188276290893555,-0.5057496428489685,-4.479662895202637,-0.47929248213768005,-28.870882034301758, -19.423574447631836
206,1180434427,0.39838162,-0.6226597,-0.35595027,-0.5717402,2.609513759613037,-3.2223572731018066,-2.221906900405884,47.2384033203125,-44.73869705200195, -13.132694244384766
207,1180451094,0.40507624,-0.62000734,-0.36892426,-0.56160456,0.6533553600311279,-2.712980270385742,1.2842925786972046,111.95597839355469,-52.099388122558594, -7.793430328369141
208,1180467761,0.40551874,-0.6219582,-0.37785777,-0.55312437,-0.9785769581794739,-0.9775580167770386,1.9954437017440796,52.674747467041016,-67.49042510986328, -7.781685829162598
209,1180484428,0.40233302,-0.6254089,-0.38518766,-0.54646397,1.8411409854888916,1.516044020652771,-0.853614330291748,22.144283294677734,-70.46890258789062, -15.950040817260742
210,1180501095,0.394422,-0.63105303,-0.39120483,-0.541445,2.2694623470306396,4.014648914337158,-0.2063835859298706,-13.516210556030273,-80.49431610107422, -26.707477569580078
211,1180517762,0.38468072,-0.64026666,-0.3966149,-0.5336447,3.9888596534729004,-3.4771790504455566,-8.711312294006348,-25.888765335083008,-109.12767791748047, -13.533987045288086
212,1180534429,0.375672,-0.6470317,-0.40657774,-0.52432376,8.025066375732422,0.5142174959182739,-6.438073635101318,4.678139686584473,-116.46644592285156, -33.718448638916016
213,1180551096,0.36903134,-0.6518754,-0.41723457,-0.5145775,7.562899112701416,-5.280470371246338,1.7112023830413818,23.881481170654297,-106.34352111816406, -32.50041580200195
214,1180567763,0.36919382,-0.65290093,-0.43196085,-0.5008257,8.656421661376953,-2.0441207885742188,-1.8294628858566284,89.9139175415039,-101.76725769042969, -27.70895004272461
215,1180584430,0.37045884,-0.6549666,-0.44657123,-0.4841008,18.569005966186523,-0.19926732778549194,3.114624261856079,100.62660217285156,-115.14179992675781, -12.842813491821289
216,1180601097,0.36710137,-0.6598228,-0.45824313,-0.46891817,25.44673728942871,1.1684602499008179,1.0892311334609985,58.17063903808594,-124.57737731933594, -10.307548522949219
217,1180617764,0.36390692,-0.66382694,-0.46724752,-0.45671207,17.487396240234375,4.379530429840088,-0.11276498436927795,43.09246826171875,-101.47736358642578, -7.737135887145996
218,1180634431,0.35820827,-0.6671364,-0.47544047,-0.44785395,16.38471221923828,0.5922812819480896,-2.7649855613708496,20.166349411010742,-90.27971649169922, -22.24103546142578
219,1180651098,0.35479215,-0.66942835,-0.4813682,-0.44076452,12.911958694458008,1.0219906568527222,-4.691432952880859,20.414810180664062,-66.12284088134766, -12.432966232299805
220,1180667765,0.3463817,-0.6751565,-0.47633874,-0.44416836,11.402445793151855,2.5225870609283447,-6.177486419677734,-78.86233520507812,-18.04161262512207, 8.707720756530762
221,1180684432,0.33490065,-0.68344474,-0.46207976,-0.45522285,10.131122589111328,3.4264652729034424,-7.0537848472595215,-152.42071533203125,21.64997673034668, 32.454227447509766
222,1180701099,0.3292366,-0.68750817,-0.44832456,-0.46684197,13.917716979980469,0.887371301651001,-5.940276622772217,-115.51897430419922,54.96942138671875, 33.72019577026367
223,1180717766,0.3356986,-0.68354416,-0.4420452,-0.473994,17.088272094726562,0.653091311454773,-4.606950759887695,-2.2594027519226074,80.09593200683594, 22.72195816040039
224,1180734433,0.3495968,-0.6737214,-0.44175074,-0.47826633,18.635942459106445,1.2308897972106934,-2.6688647270202637,74.4604721069336,94.39015197753906, 7.732198715209961
225,1180751100,0.36256078,-0.663014,-0.4418051,-0.4834987,19.291967391967773,0.9856931567192078,0.7498903274536133,70.48779296875,97.9355697631836, -1.8427361249923706
226,1180767767,0.37026763,-0.6548466,-0.4357568,-0.49416018,18.096277236938477,0.7736901044845581,2.2927234172821045,3.3758742809295654,113.20364379882812, 2.785641670227051
227,1180784434,0.37516764,-0.6468593,-0.4229935,-0.51176095,14.728642463684082,-0.8122994899749756,3.7012040615081787,-53.376182556152344,152.20494079589844, 6.427860260009766
228,1180801101,0.37431678,-0.6419395,-0.40155914,-0.5353051,6.450956344604492,-4.677053451538086,2.1713204383850098,-134.75051879882812,173.1620635986328, 18.299898147583008
229,1180817768,0.36431944,-0.6466359,-0.37961736,-0.5522903,-0.045525260269641876,-7.638688564300537,-5.397848129272461,-183.71559143066406,84.68885040283203, 30.012521743774414
230,1180834435,0.36437604,-0.6427393,-0.3723978,-0.5616374,4.073337554931641,-2.352083683013916,-11.870752334594727,-41.66127395629883,72.9761734008789, -0.980376124382019
231,1180851102,0.36866063,-0.6370937,-0.37286705,-0.56495297,5.4254889488220215,-2.1711268424987793,-7.580373764038086,26.559602737426758,45.19157791137695, -8.111956596374512
232,1180867769,0.37294868,-0.6330303,-0.37486026,-0.56538695,3.3123629093170166,-1.251622200012207,-3.160114288330078,35.89044189453125,22.912199020385742, -3.503480911254883
233,1180884436,0.37922028,-0.62844354,-0.37844083,-0.5639448,1.80606210231781,0.026967911049723625,-0.36213383078575134,56.875648498535156,17.965028762817383, 0.7128422856330872
234,1180901103,0.3879496,-0.6230494,-0.382005,-0.5615847,0.04077327996492386,-1.04740309715271,4.200247287750244,71.92449951171875,23.584089279174805, 10.618953704833984
235,1180917770,0.39261234,-0.6206485,-0.38210985,-0.56093097,-1.5374350547790527,-1.8143640756607056,0.2567993700504303,28.672632217407227,17.691471099853516, 13.009024620056152
236,1180934437,0.3976819,-0.61739373,-0.38461956,-0.5592337,3.2878408432006836,2.9781272411346436,-1.4933161735534668,44.714454650878906,11.108663558959961, 4.809492588043213
237,1180951104,0.3948538,-0.61982465,-0.38405967,-0.5589337,0.8494977355003357,2.027649164199829,-3.438338279724121,-19.842052459716797,-17.244237899780273, -1.1660592555999756
238,1180967771,0.38728818,-0.62769055,-0.38301048,-0.5561618,1.0488735437393188,1.5539648532867432,-10.130784034729004,-50.12008285522461,-59.686065673828125, 3.8619205951690674
239,1180984438,0.3739424,-0.64174134,-0.38107723,-0.5505596,5.911828517913818,2.6831369400024414,-10.277709007263184,-87.41863250732422,-107.96553802490234, 9.464378356933594
240,1181001105,0.35685295,-0.6549781,-0.38253245,-0.5452787,10.055994987487793,-1.8068372011184692,2.2565741539001465,-89.80547332763672,-121.55998992919922, -22.480220794677734
241,1181017772,0.35033324,-0.66176647,-0.39171037,-0.5346919,7.816497325897217,-5.238205909729004,0.9517176151275635,16.516855239868164,-112.59439086914062, -21.627351760864258
242,1181034439,0.34544754,-0.66708326,-0.4011272,-0.52417874,13.546342849731445,2.503925085067749,-0.8885130286216736,28.13880157470703,-103.12799835205078, -21.0672550201416
243,1181051106,0.34218743,-0.6727831,-0.40843704,-0.5132744,11.687946319580078,3.0177059173583984,-2.035043954849243,28.19423484802246,-96.89573669433594, -3.42671799659729
244,1181067773,0.34284228,-0.67662185,-0.41774562,-0.50013125,14.33081340789795,-1.332848310470581,-0.4362645149230957,64.06715393066406,-94.41897583007812, 1.3284955024719238
245,1181084440,0.347704,-0.6760027,-0.43549177,-0.48215124,16.431621551513672,-1.1185896396636963,-1.8607144355773926,137.0540008544922,-109.53767395019531, -24.896297454833984
246,1181101107,0.35041896,-0.67568004,-0.45328316,-0.4638941,20.129446029663086,-1.584715723991394,-1.8189783096313477,127.34521484375,-118.45823669433594, -30.68497657775879
247,1181117774,0.3461733,-0.67843044,-0.46261218,-0.45374718,22.407732009887695,0.01363929733633995,-0.39911550283432007,35.31529235839844,-92.06678771972656, -23.54938316345215
248,1181134441,0.33707297,-0.6833125,-0.46547073,-0.45033672,19.532102584838867,-0.28704017400741577,-2.4018938541412354,-34.011741638183594,-67.64324951171875, -17.716299057006836
249,1181151108,0.33280262,-0.684327,-0.4666354,-0.45076698,12.32899284362793,4.051512241363525,-6.58716344833374,-19.88807487487793,-18.44403839111328, -16.06358528137207
250,1181167775,0.33538184,-0.67959154,-0.465636,-0.45700964,10.178903579711914,3.7066702842712402,-7.026384353637695,0.21570616960525513,53.729736328125, -16.226964950561523
251,1181184442,0.34169546,-0.6719801,-0.4590099,-0.47010374,12.113411903381348,0.943410336971283,-5.881450176239014,-15.266173362731934,119.8456039428711, -3.0529346466064453
252,1181201109,0.34846556,-0.66475433,-0.44989195,-0.48401573,13.800531387329102,-1.6351025104522705,-4.628840923309326,-24.707115173339844,129.73724365234375, 9.27904987335205
253,1181217776,0.3544142,-0.6593279,-0.44399056,-0.49249393,15.202986717224121,-2.3156025409698486,-3.045006513595581,-5.301119804382324,88.67216491699219, 10.372429847717285
254,1181234443,0.35461897,-0.65757847,-0.43299043,-0.50433695,19.682430267333984,-0.3268350660800934,2.666496515274048,-67.88267517089844,86.31172943115234, 16.97639274597168
255,1181251110,0.35159388,-0.65517384,-0.40699667,-0.5305498,20.140724182128906,0.5911039710044861,4.030584812164307,-175.740234375,180.19589233398438, 36.56435775756836
256,1181267777,0.34000656,-0.6586143,-0.3805025,-0.55302906,5.59873628616333,-2.67665958404541,-0.802075982093811,-219.8759765625,118.92031860351562, 32.94124984741211
257,1181284444,0.3279291,-0.66419023,-0.35743412,-0.568819,1.7663142681121826,-3.726278066635132,-4.9362077713012695,-196.5877685546875,71.1897201538086, 36.60145950317383
258,1181301111,0.3287208,-0.6608425,-0.34747297,-0.5783536,2.9578583240509033,-2.899606227874756,-11.198637008666992,-51.066551208496094,79.79267883300781, 19.050090789794922
259,1181317778,0.3377015,-0.65310943,-0.34880164,-0.5811572,5.710574150085449,-1.4790947437286377,-9.666609764099121,57.033138275146484,61.156471252441406, 4.9339919090271
260,1181334445,0.34525812,-0.6475903,-0.35365403,-0.57995963,5.872011661529541,0.22305110096931458,-7.587335586547852,69.19595336914062,23.12677574157715, -2.0303313732147217
261,1181351112,0.35228324,-0.6440022,-0.36132818,-0.57497865,3.6894469261169434,0.49509960412979126,-4.920844078063965,82.7173843383789,-9.116473197937012, -3.0213732719421387
262,1181367779,0.35951522,-0.64130276,-0.37081107,-0.56743205,1.895142912864685,1.2499264478683472,-1.0717276334762573,95.02032470703125,-27.669981002807617, -1.7731512784957886
263,1181384446,0.36571753,-0.63825667,-0.3809376,-0.5601483,-1.0467716455459595,1.89353346824646,2.815981149673462,93.1853256225586,-29.338729858398438, -10.117385864257812
264,1181401113,0.36633623,-0.6384181,-0.38817263,-0.55456537,0.35699859261512756,0.2030460089445114,-1.589875340461731,45.03213882446289,-41.69169616699219, -14.737497329711914
265,1181417780,0.3662022,-0.6387455,-0.39626357,-0.5485215,2.5924360752105713,3.3701303005218506,-3.226072311401367,45.81120681762695,-48.45060729980469, -19.757726669311523
266,1181434447,0.35945877,-0.6435225,-0.40076917,-0.54410726,1.5500400066375732,2.6710023880004883,-1.1805386543273926,-12.345003128051758,-66.93890380859375, -20.786970138549805
267,1181451114,0.3517123,-0.6480686,-0.40662056,-0.5394124,2.6392464637756348,0.6824249029159546,1.9879778623580933,-10.374402046203613,-73.37342834472656, -30.334802627563477
268,1181467781,0.3406481,-0.6549115,-0.40998945,-0.5356854,1.9726667404174805,-0.8199516534805298,-0.9071657061576843,-42.6220703125,-80.95309448242188, -27.47174835205078
269,1181484448,0.3389168,-0.65561724,-0.4204101,-0.52778554,8.222532272338867,0.8032512068748474,-11.504890441894531,51.51639938354492,-67.32844543457031, -32.416255950927734
270,1181501115,0.33833772,-0.6529647,-0.4347456,-0.51977056,16.41365623474121,3.2360422611236572,3.9618608951568604,79.09461212158203,-61.06708908081055, -55.31401062011719
271,1181517782,0.3341196,-0.6542779,-0.44632855,-0.510956,12.652981758117676,-2.3590054512023926,3.066164970397949,46.115325927734375,-83.59789276123047, -42.13838577270508
272,1181534449,0.33064628,-0.65765864,-0.4567359,-0.49955055,19.124919891357422,-4.78687047958374,0.989531934261322,48.500083923339844,-97.7688217163086, -22.03733253479004
273,1181551116,0.33524722,-0.6577293,-0.4707325,-0.4831282,19.00284767150879,1.8600008487701416,-3.0109810829162598,120.55659484863281,-92.13157653808594, -9.714599609375
274,1181567783,0.3379826,-0.657799,-0.48072442,-0.47113997,16.35015106201172,3.428997755050659,-2.546869993209839,84.48402404785156,-68.9775390625, -7.966384410858154
275,1181584450,0.3376763,-0.6596095,-0.48396397,-0.4654777,12.225652694702148,-0.8697164058685303,-4.382150173187256,23.950563430786133,-40.466548919677734, 3.889094829559326
276,1181601117,0.34026784,-0.65969616,-0.48356345,-0.46388116,13.510647773742676,0.27988654375076294,-6.6328630447387695,15.898027420043945,1.589008092880249, 14.460075378417969
277,1181617784,0.34616208,-0.65662664,-0.48201448,-0.4654844,14.331725120544434,0.6264248490333557,-5.584515571594238,23.96150779724121,39.904720306396484, 12.22899055480957
278,1181634451,0.3533026,-0.6527813,-0.48030058,-0.46729615,16.667055130004883,-0.2334224283695221,-3.6400115489959717,30.224769592285156,47.87549591064453, 13.916203498840332
279,1181651118,0.35899743,-0.6505134,-0.47755262,-0.468932,19.251893997192383,-0.398893803358078,-1.7431455850601196,17.152376174926758,39.68703842163086, 19.54582405090332
280,1181667785,0.3619905,-0.6497767,-0.47059217,-0.47465444,22.216411590576172,1.194645643234253,1.1471272706985474,-25.735422134399414,54.39500427246094, 24.613487243652344
281,1181684452,0.36119273,-0.64962643,-0.44982097,-0.49516356,24.66839599609375,2.4515578746795654,3.8252737522125244,-137.0790252685547,140.37379455566406, 39.087120056152344
282,1181701119,0.36162317,-0.6462679,-0.42134413,-0.5234846,14.195405006408691,0.5391541719436646,-0.2822831869125366,-174.07589721679688,208.75973510742188, 48.43167495727539
283,1181717786,0.3617212,-0.64163584,-0.4031622,-0.5430673,4.063388824462891,-2.0548453330993652,1.5868524312973022,-110.02216339111328,147.80953979492188, 19.497053146362305
284,1181734453,0.3533256,-0.6460656,-0.3803496,-0.55954903,3.0329205989837646,-5.550239562988281,-4.52537727355957,-178.78085327148438,88.18132019042969, 40.916542053222656
285,1181751120,0.35583594,-0.64110404,-0.37183702,-0.5693013,2.7209012508392334,-1.5964444875717163,-11.533859252929688,-34.9307861328125,88.3568344116211, 10.899097442626953
286,1181767787,0.36533588,-0.63227856,-0.3717918,-0.57317084,6.2227582931518555,-0.34306979179382324,-8.77779769897461,53.54142761230469,75.12715911865234, 5.393767356872559
287,1181784454,0.36992782,-0.62762135,-0.37079147,-0.57598525,4.700511455535889,1.9304393529891968,-5.041062831878662,20.690502166748047,44.27383804321289, 3.5088863372802734
288,1181801121,0.3723085,-0.626499,-0.37093842,-0.5755784,3.0044186115264893,0.3565172255039215,-4.57297945022583,14.939360618591309,7.996082782745361, 7.08376932144165
289,1181817788,0.3772322,-0.6249445,-0.37548807,-0.571095,0.6083168983459473,0.33255988359451294,-0.8546050786972046,54.83926010131836,-12.476240158081055, 7.532915115356445
290,1181834455,0.37850285,-0.625508,-0.38062143,-0.56621844,-0.29194530844688416,-0.8584718704223633,-2.9226999282836914,36.964447021484375,-33.394798278808594, -2.8194580078125
291,1181851122,0.37984127,-0.625667,-0.38903728,-0.55938524,1.8575918674468994,1.6638520956039429,-2.933532953262329,56.20964813232422,-48.49488830566406, -12.672662734985352
292,1181867789,0.37451932,-0.6297519,-0.39492482,-0.5542406,1.747972011566162,4.343789100646973,-1.9760652780532837,3.0869545936584473,-67.4437255859375, -21.26220703125
293,1181884456,0.36420584,-0.63624775,-0.3993084,-0.55054164,1.552080512046814,3.998436689376831,-2.2217979431152344,-34.34426498413086,-79.99230194091797, -30.794713973999023
294,1181901123,0.35359862,-0.6418353,-0.40431568,-0.54730695,1.1213905811309814,0.5403837561607361,4.080708980560303,-32.22034454345703,-76.82442474365234, -38.15361404418945
295,1181917790,0.34349024,-0.6498288,-0.40552744,-0.5434013,0.1150079220533371,-3.1909141540527344,-5.355297565460205,-48.27996063232422,-78.38103485107422, -11.194034576416016
296,1181934457,0.34830874,-0.6478371,-0.4206158,-0.5311036,9.61974811553955,2.991461992263794,-13.882081031799316,117.22735595703125,-69.53942108154297, -25.5672550201416
297,1181951124,0.3481029,-0.6458021,-0.43520096,-0.52188593,14.848512649536133,-1.6535838842391968,7.012131690979004,84.25817108154297,-68.56160736083984, -49.10292434692383
298,1181967791,0.3525294,-0.64325505,-0.45312223,-0.50658363,11.221538543701172,-4.160933494567871,2.3649723529815674,136.19683837890625,-88.2136459350586, -34.33807373046875
299,1181984458,0.35223287,-0.6462121,-0.4670999,-0.49006143,19.761831283569336,-6.336552143096924,2.951162338256836,91.96028137207031,-118.10570526123047, -13.3905668258667
300,1182001125,0.35590136,-0.64861155,-0.48369497,-0.46762893,18.757978439331055,1.0173728466033936,-1.8130625486373901,138.62501525878906,-136.38014221191406, 0.6604923605918884
301,1182017792,0.35178995,-0.65553373,-0.49244037,-0.4516882,17.83948516845703,5.174709796905518,-2.3707358837127686,46.025875091552734,-128.75497436523438, 9.851213455200195
302,1182034459,0.34280068,-0.6636072,-0.49413782,-0.4449065,12.382826805114746,1.8846757411956787,-4.578956127166748,-31.566177368164062,-90.6333999633789, 8.381698608398438
303,1182051126,0.3422968,-0.66542506,-0.49612242,-0.44034716,14.393142700195312,-0.6472572684288025,-6.66316032409668,15.261136054992676,-33.20631790161133, 6.595409870147705
304,1182067793,0.34718204,-0.66234523,-0.49741128,-0.43971136,16.307235717773438,1.7041038274765015,-5.858386993408203,35.94703674316406,19.62323760986328, 0.14191438257694244
305,1182084460,0.34940428,-0.6601393,-0.49446753,-0.44456178,15.782533645629883,0.33620208501815796,-5.2589874267578125,-9.792814254760742,42.94160842895508, 1.3195561170578003
306,1182101127,0.35069412,-0.65883446,-0.4894536,-0.45098394,18.406890869140625,-0.24292539060115814,-3.638852119445801,-27.854856491088867,49.09641647338867, 7.170797824859619
307,1182117794,0.3542443,-0.6559564,-0.4823696,-0.45994797,21.600568771362305,1.0883218050003052,-1.7809767723083496,-28.812490463256836,77.98457336425781, 12.136322021484375
308,1182134461,0.36016622,-0.649587,-0.47298607,-0.47392142,21.122228622436523,3.8745038509368896,0.2117357850074768,-33.50510787963867,124.90502166748047, 6.271339416503906
309,1182151128,0.3568587,-0.64903396,-0.45049816,-0.4984564,18.40543556213379,1.9557316303253174,4.135005474090576,-166.18080139160156,155.35260009765625, 27.600173950195312
310,1182167795,0.37021396,-0.6345378,-0.43247235,-0.52275383,12.493234634399414,-1.790526032447815,0.9071977138519287,-41.60079574584961,242.4635772705078, 22.22910499572754
311,1182184462,0.37267995,-0.62770617,-0.41614258,-0.54214436,0.5380358099937439,-2.0980844497680664,-0.3343447744846344,-87.98953247070312,156.6692352294922, 10.89211654663086
312,1182201129,0.367017,-0.62990147,-0.39454162,-0.5593389,2.0035879611968994,-6.510798454284668,-7.1444525718688965,-159.61517333984375,103.8018569946289, 34.6849479675293
313,1182217796,0.370886,-0.626585,-0.38699186,-0.5657495,4.506333351135254,-3.011878490447998,-12.468169212341309,-21.175363540649414,68.91952514648438, 22.510883331298828
314,1182234463,0.3779236,-0.62077236,-0.38725355,-0.56731874,6.722151279449463,1.512387990951538,-7.57453727722168,42.11591720581055,46.68058776855469, 6.797916412353516
315,1182251130,0.3805789,-0.6187317,-0.38640812,-0.5683486,3.046239137649536,0.08468139171600342,-3.7171521186828613,10.765288352966309,21.10579490661621, 5.93339204788208
316,1182267797,0.3814735,-0.6177711,-0.3866993,-0.5685954,1.6879132986068726,2.3892719745635986,-0.43133512139320374,6.987293720245361,6.017673015594482, -0.8564889430999756
317,1182284464,0.38221648,-0.6185603,-0.3864583,-0.5674013,0.1349049061536789,0.765025794506073,0.866963267326355,3.5250072479248047,-5.938435077667236, 9.321150779724121
318,1182301131,0.38421884,-0.6191373,-0.38855514,-0.56397736,0.023420682176947594,-1.5155894756317139,-0.6083606481552124,24.488021850585938,-17.415414810180664, 9.611307144165039
319,1182317798,0.38689575,-0.61916006,-0.39423046,-0.55815345,0.3426874279975891,-0.36512717604637146,-3.204216718673706,49.101318359375,-33.11269760131836, 1.8067611455917358
320,1182334465,0.38621604,-0.6210252,-0.39959663,-0.55270964,0.974853515625,3.4303529262542725,-3.6843574047088623,27.701047897338867,-46.73800277709961, -5.785701274871826
321,1182351132,0.37808967,-0.6276648,-0.401756,-0.549252,0.30811917781829834,3.772907018661499,-1.8839830160140991,-34.36515426635742,-68.23397064208984, -12.440312385559082
322,1182367799,0.3686039,-0.6363114,-0.4057356,-0.54278755,1.9409644603729248,1.6756281852722168,-6.1855998039245605,-30.211503982543945,-97.22358703613281, -11.95654010772705
323,1182384466,0.36541125,-0.6421336,-0.41571334,-0.53039813,4.43801736831665,-2.181583881378174,-11.462127685546875,43.43962860107422,-110.07136535644531, -7.5291619300842285
324,1182401133,0.3651014,-0.64438945,-0.42914504,-0.5170089,11.656280517578125,-3.1707167625427246,0.6542870998382568,80.59632873535156,-101.59036254882812, -20.027963638305664
325,1182417800,0.36344895,-0.6489916,-0.43972,-0.5033506,12.63964557647705,-3.750117063522339,2.899158477783203,59.34642791748047,-108.00225830078125, -4.644407272338867
326,1182434467,0.36049977,-0.65516776,-0.45151633,-0.48675314,16.39394187927246,-3.8006081581115723,2.502214193344116,62.6682014465332,-133.71522521972656, -2.5840203762054443
327,1182451134,0.35977256,-0.65886647,-0.46652973,-0.46777052,20.46621322631836,0.060935188084840775,-0.719650387763977,96.9164810180664,-137.44932556152344, -11.512974739074707
328,1182467801,0.36114624,-0.65946674,-0.48308757,-0.44866902,16.796796798706055,1.3975728750228882,-3.7518789768218994,119.43804168701172,-125.2625961303711, -21.371002197265625
329,1182484468,0.3600454,-0.65952665,-0.49736917,-0.43360865,15.14036750793457,1.3750243186950684,-2.846799850463867,89.13890075683594,-107.88877868652344, -30.451515197753906
330,1182501135,0.3585788,-0.6594327,-0.50628096,-0.4245583,15.916783332824707,-0.30273064970970154,-4.645708084106445,51.321529388427734,-68.2073745727539, -22.53670883178711
331,1182517802,0.3604524,-0.65711856,-0.5101216,-0.42195478,13.34875202178955,0.8137253522872925,-7.3808441162109375,34.6981315612793,-8.4129056930542, -13.40259075164795
332,1182534469,0.36335364,-0.6540352,-0.50947744,-0.42502382,15.61501693725586,0.5075808763504028,-5.470664978027344,8.378700256347656,34.21853256225586, -6.881778240203857
333,1182551136,0.3685099,-0.64925146,-0.50550157,-0.43259895,19.385908126831055,0.1733739823102951,-4.694067478179932,-2.739179849624634,75.64984130859375, -2.4917562007904053
334,1182567803,0.37505493,-0.6432352,-0.49977636,-0.44250003,21.132919311523438,1.7912737131118774,-2.2399027347564697,-6.70493221282959,98.88156127929688, -0.7011846899986267
335,1182584470,0.37902614,-0.6389819,-0.4896656,-0.45636556,21.925262451171875,2.567737102508545,0.5803171992301941,-49.58783721923828,113.3698959350586, 6.767324447631836
336,1182601137,0.3809835,-0.6366094,-0.4728368,-0.47540072,19.07921028137207,2.189784526824951,1.552378535270691,-101.82308959960938,140.697998046875, 22.90360450744629
337,1182617804,0.38542125,-0.6301802,-0.45665804,-0.49576944,13.399142265319824,0.9357706308364868,2.925541877746582,-82.55744934082031,165.9603729248047, 11.539469718933105
338,1182634471,0.38099894,-0.62892973,-0.42732084,-0.52600825,6.906641483306885,-0.5493133664131165,1.2643024921417236,-210.59666442871094,197.98243713378906, 28.457979202270508
339,1182651138,0.37284443,-0.63194555,-0.4054754,-0.54518086,-0.6329198479652405,-3.999866247177124,-6.451395034790039,-178.30484008789062,103.99112701416016, 24.008264541625977
340,1182667805,0.37536335,-0.62782407,-0.39666295,-0.5546154,3.1299006938934326,-3.281290292739868,-8.458474159240723,-37.650638580322266,84.95819091796875, 12.31161880493164
341,1182684472,0.3785154,-0.6240656,-0.3931992,-0.5591628,3.8618111610412598,-0.4584079682826996,-6.1889472007751465,-2.143738031387329,50.638832092285156, 5.146425724029541
342,1182701139,0.38062578,-0.621859,-0.39169866,-0.5612379,3.131761074066162,-1.4244661331176758,-6.482077121734619,3.59605073928833,26.308757781982422, 3.340934991836548
343,1182717806,0.38220444,-0.6207189,-0.39159286,-0.561501,3.172452211380005,1.6014829874038696,-4.524156093597412,8.798357963562012,9.544918060302734, 2.9049623012542725
344,1182734473,0.38255754,-0.62151384,-0.39198864,-0.56010294,1.2575030326843262,-0.3519987463951111,-2.3477635383605957,4.928852558135986,-9.511765480041504, 5.658519744873047
345,1182751140,0.38272962,-0.62293,-0.39408636,-0.55693144,1.098806381225586,0.09144443273544312,-2.6634809970855713,13.85377311706543,-24.38185691833496, 4.019700050354004
346,1182767807,0.38153985,-0.62546086,-0.3970197,-0.55281264,0.7798608541488647,0.10374557971954346,-2.7154972553253174,10.86751651763916,-38.524688720703125, 0.7433232069015503
347,1182784474,0.375809,-0.6306546,-0.39835522,-0.549869,1.0776820182800293,1.7159233093261719,-2.4933578968048096,-24.914043426513672,-51.723758697509766, -5.455875873565674
348,1182801141,0.3674846,-0.6376881,-0.3990919,-0.54684126,2.0321555137634277,1.7644870281219482,-1.0731604099273682,-42.91521453857422,-64.53935241699219, -7.360056400299072
349,1182817808,0.35844886,-0.6462341,-0.40049058,-0.5417597,1.187951922416687,-0.952158510684967,-4.361255168914795,-41.69792556762695,-82.83747863769531, -3.549502372741699
350,1182834475,0.35409865,-0.6518568,-0.40889075,-0.5315127,4.356696128845215,-0.24783872067928314,-9.316859245300293,26.630342483520508,-99.14268493652344, -12.551874160766602
351,1182851142,0.3519058,-0.6541359,-0.4228194,-0.5191271,9.868230819702148,-2.8811144828796387,-0.6893043518066406,70.6800308227539,-103.67800903320312, -33.65277099609375
352,1182867809,0.354592,-0.6537621,-0.4429135,-0.5006871,11.167176246643066,-4.519220352172852,2.553870439529419,138.6098175048828,-122.21866607666016, -37.11844253540039
353,1182884476,0.35230088,-0.65749896,-0.46409017,-0.47770277,17.297653198242188,-3.6574296951293945,1.20444655418396,123.6899185180664,-174.7485809326172, -35.64100646972656
354,1182901143,0.35085857,-0.6607618,-0.48353672,-0.45440587,22.4993896484375,3.5269997119903564,-0.39692097902297974,123.9041976928711,-167.8682403564453, -25.86409568786621
355,1182917810,0.34621975,-0.6630873,-0.5004249,-0.43591562,17.630455017089844,2.8129422664642334,-0.47654062509536743,87.70215606689453,-147.7339630126953, -38.83495330810547
356,1182934477,0.34259337,-0.66382086,-0.51210165,-0.42393902,14.059836387634277,2.535489082336426,-5.371450901031494,58.115943908691406,-97.52316284179688, -32.9421272277832
357,1182951144,0.34382623,-0.6623642,-0.51971275,-0.41588017,8.788858413696289,1.9055179357528687,-8.997687339782715,59.86100769042969,-46.580814361572266, -17.096023559570312
358,1182967811,0.3456534,-0.6608127,-0.52154845,-0.41453376,10.3961820602417,0.7569707036018372,-7.766140937805176,22.358510971069336,0.16055989265441895, -5.262945175170898
359,1182984478,0.34759966,-0.6599317,-0.5183482,-0.4183063,15.802799224853516,-0.36676692962646484,-5.587282657623291,-11.371106147766113,33.97276306152344, 8.213973999023438
360,1183001145,0.35073638,-0.65803796,-0.5136106,-0.4244699,19.34490203857422,0.8282592296600342,-4.758458137512207,-16.4998722076416,55.61384963989258, 9.291829109191895
361,1183017812,0.35523635,-0.6553503,-0.5068826,-0.43289003,19.882686614990234,2.803882360458374,-3.5337600708007812,-22.19074249267578,77.6656265258789, 14.062070846557617
362,1183034479,0.3619005,-0.6506964,-0.49873757,-0.44371548,20.30022621154785,3.8884477615356445,-1.8636622428894043,-20.200857162475586,105.24771118164062, 14.234678268432617
363,1183051146,0.36645088,-0.64715236,-0.484679,-0.46042812,20.272960662841797,2.3928043842315674,0.8168691992759705,-70.60630798339844,135.52667236328125, 23.498090744018555
364,1183067813,0.37156492,-0.6422422,-0.4657963,-0.4821813,15.904131889343262,-0.24039457738399506,0.8712838888168335,-96.73766326904297,176.1299591064453, 29.5576229095459
365,1183084480,0.3760372,-0.63555974,-0.4459609,-0.5057461,9.453694343566895,-0.9653976559638977,0.029133886098861694,-104.05538177490234,190.24771118164062, 21.31983184814453
366,1183101147,0.367139,-0.63875246,-0.4152245,-0.5336604,5.802861213684082,-6.365417003631592,1.0509836673736572,-239.3552703857422,162.054443359375, 41.44966506958008
367,1183117814,0.3600665,-0.64032817,-0.396011,-0.5509153,-1.0013312101364136,-5.04910135269165,-9.76174545288086,-154.6156463623047,97.21420288085938, 19.62092399597168
368,1183134481,0.3618054,-0.6361257,-0.3898767,-0.5589611,3.9394359588623047,-2.6958465576171875,-11.499503135681152,-26.939298629760742,70.41534423828125, 2.339965343475342
369,1183151148,0.36558297,-0.6316259,-0.38950798,-0.56185555,4.023282051086426,-1.0810754299163818,-6.181387901306152,18.679798126220703,40.429500579833984, -3.0855579376220703
370,1183167815,0.36800402,-0.6293853,-0.3899988,-0.56244886,3.179142951965332,-0.046953797340393066,-2.9895365238189697,16.593799591064453,16.060850143432617, -0.2445889115333557
371,1183184482,0.37447917,-0.6270893,-0.39364642,-0.55818206,2.2199559211730957,-0.3561969995498657,-2.6037235260009766,59.52593231201172,-1.8064621686935425, 13.924854278564453
372,1183201149,0.38405022,-0.6235801,-0.399183,-0.5516399,1.7870389223098755,0.11211463809013367,0.7190256714820862,89.41043853759766,-3.3869316577911377, 20.23232078552246
373,1183217816,0.38933066,-0.6221444,-0.40256864,-0.54708046,-1.0005171298980713,0.3358277976512909,1.9188090562820435,51.93115997314453,-8.869114875793457, 13.643147468566895
374,1183234483,0.3895715,-0.6238392,-0.40388754,-0.54399824,0.94156414270401,2.437534809112549,-2.218816041946411,10.135526657104492,-22.785930633544922, 8.245587348937988
375,1183251150,0.3838285,-0.6281655,-0.40346664,-0.5434142,2.245540142059326,5.553746700286865,-2.6856513023376465,-35.98019027709961,-33.818870544433594, -5.9943461418151855
376,1183267817,0.37290385,-0.6359893,-0.40257886,-0.54257846,1.4473930597305298,3.202927827835083,-6.486006259918213,-68.5412368774414,-61.06277847290039, -12.833695411682129
377,1183284484,0.36530453,-0.6449056,-0.4071252,-0.5337591,3.863698959350586,-2.762697696685791,-11.425211906433105,-14.347161293029785,-104.63328552246094, -0.6205176711082458
378,1183301151,0.36193836,-0.6483838,-0.417713,-0.52356035,7.89101505279541,2.269763708114624,-3.3730249404907227,44.104652404785156,-93.85952758789062, -23.697877883911133
379,1183317818,0.3638638,-0.648144,-0.43315467,-0.5097942,8.589798927307129,-0.6225446462631226,2.2081055641174316,104.71086120605469,-93.21841430664062, -28.04636573791504
380,1183334485,0.36108017,-0.650398,-0.44937116,-0.49464098,13.57398796081543,-3.946223735809326,2.083785057067871,84.31997680664062,-124.19709777832031, -37.1351432800293
381,1183351152,0.36206645,-0.65376836,-0.47016194,-0.4695138,18.967514038085938,-3.2434167861938477,-0.13078859448432922,144.71006774902344,-172.4458770751953, -16.648609161376953
382,1183367819,0.36508873,-0.65429556,-0.48962814,-0.4459512,18.492412567138672,1.0280734300613403,-2.271550416946411,151.5349884033203,-146.46910095214844, -17.27033042907715
383,1183384486,0.36411083,-0.6556171,-0.5031952,-0.42940047,15.903985977172852,0.2635617256164551,-2.107816219329834,89.84734344482422,-116.09278106689453, -17.88665199279785
384,1183401153,0.36027345,-0.658409,-0.508141,-0.42248562,18.565828323364258,-1.0951414108276367,-5.022434234619141,14.486985206604004,-65.38492584228516, -6.482626438140869
385,1183417820,0.3600853,-0.65791464,-0.5102469,-0.42087504,20.811738967895508,-0.32052183151245117,-6.209955215454102,12.349607467651367,-12.095624923706055, -7.648268222808838
386,1183434487,0.36196524,-0.6557821,-0.50802135,-0.42525968,18.28221893310547,2.754255771636963,-5.299123764038086,-7.804626941680908,37.690059661865234, -2.647380828857422
387,1183451154,0.36614913,-0.65144664,-0.5046373,-0.43231228,17.94379234313965,2.31174635887146,-4.449377536773682,-4.580008506774902,67.04401397705078, -4.954677104949951
388,1183467821,0.37329644,-0.6448674,-0.49994764,-0.44141668,19.844762802124023,1.2731760740280151,-1.6363000869750977,3.387397289276123,96.4191665649414, -3.1891674995422363
389,1183484488,0.37836626,-0.6406203,-0.48833922,-0.45603716,21.601490020751953,-0.5634346008300781,1.2668057680130005,-51.76629638671875,124.29855346679688, 15.083290100097656
390,1183501155,0.38102314,-0.63973296,-0.46595535,-0.47796345,17.308103561401367,-0.6334943771362305,1.6335481405258179,-129.52163696289062,165.70773315429688, 47.25547790527344
391,1183517822,0.3816769,-0.63746035,-0.44748795,-0.49771664,7.4536261558532715,2.5187411308288574,0.3231205642223358,-114.91072082519531,143.87033081054688, 24.672697067260742
392,1183534489,0.37799248,-0.63745266,-0.4249274,-0.51982003,6.349262237548828,-2.4009265899658203,0.49772927165031433,-161.0972137451172,143.7713623046875, 28.59760284423828
393,1183551156,0.37623355,-0.63461727,-0.4021703,-0.5421887,3.8326375484466553,-2.464914560317993,-4.30192756652832,-146.84617614746094,161.14364624023438, 27.306737899780273
394,1183567823,0.37167487,-0.63471174,-0.38700897,-0.5560786,3.700047731399536,-2.2677464485168457,-11.204750061035156,-114.89141845703125,85.90435028076172, 13.679149627685547
395,1183584490,0.37280306,-0.6315008,-0.38227397,-0.5622205,2.7950315475463867,-3.066845178604126,-8.872154235839844,-21.148954391479492,53.4591178894043, 0.8731662034988403
396,1183601157,0.37564296,-0.6269345,-0.3818313,-0.5657305,3.8367090225219727,3.5050857067108154,-5.480029106140137,13.246946334838867,40.96223449707031, -8.026433944702148
397,1183617824,0.3683233,-0.62905186,-0.37564805,-0.57229424,3.4297356605529785,3.8895413875579834,-3.1053824424743652,-78.08091735839844,16.395418167114258, -13.05445384979248
398,1183634491,0.36934766,-0.62979877,-0.37559208,-0.57084745,1.8097128868103027,-0.99317467212677,-2.293034553527832,6.344071388244629,-6.764139175415039, 10.114288330078125
399,1183651158,0.3753743,-0.6283028,-0.37986815,-0.5657123,-0.23749326169490814,-2.079486846923828,1.3136718273162842,60.22052001953125,-11.967009544372559, 14.541845321655273
400,1183667825,0.3783655,-0.62826926,-0.38347304,-0.56130767,-1.6585345268249512,-1.5773612260818481,-1.2959542274475098,38.77615737915039,-20.71954917907715, 7.521944999694824
401,1183684492,0.3796951,-0.62836695,-0.3882159,-0.55702394,1.2993844747543335,4.169527053833008,-2.9580211639404297,35.310054779052734,-28.012569427490234, -3.810966730117798
402,1183701159,0.37717965,-0.6307801,-0.39346233,-0.55230415,1.0244972705841064,3.802638530731201,-4.546658039093018,15.814604759216309,-50.28217315673828, -13.300058364868164
403,1183717826,0.37317485,-0.63404554,-0.4005394,-0.5461643,1.7499363422393799,4.907321929931641,-4.617639064788818,18.025121688842773,-68.36217498779297, -20.82634162902832
404,1183734493,0.3629534,-0.6440206,-0.40562782,-0.5375581,2.4525399208068848,-2.7771859169006348,-13.01928997039795,-26.86067771911621,-116.24127960205078, -10.597162246704102
405,1183751160,0.3594992,-0.6475922,-0.41936064,-0.52490187,9.378561973571777,-1.113966464996338,-0.7609429955482483,62.32406234741211,-112.94078063964844, -31.681419372558594
406,1183767827,0.36355,-0.6464407,-0.4396978,-0.5065693,6.5623064041137695,-6.538030624389648,-2.2346384525299072,147.60305786132812,-115.8759765625, -33.63262939453125
407,1183784494,0.36816835,-0.6442031,-0.46537217,-0.4825802,14.638073921203613,-3.8702898025512695,3.242157220840454,188.43161010742188,-148.8575439453125, -44.6812629699707
408,1183801161,0.36821756,-0.6471869,-0.4833671,-0.46034977,19.741670608520508,-0.6284310817718506,1.4374265670776367,123.7438735961914,-153.7085723876953, -13.646535873413086
409,1183817828,0.37052768,-0.6462083,-0.4994072,-0.44239905,19.797649383544922,0.7605896592140198,-0.31416428089141846,123.39037322998047,-109.80303192138672, -21.801218032836914
410,1183834495,0.37036636,-0.64717,-0.5096605,-0.42923948,17.957807540893555,-1.7705354690551758,-2.2098121643066406,73.40023040771484,-88.28396606445312, -9.121070861816406
411,1183851162,0.36908376,-0.64862144,-0.5165186,-0.41985282,19.916494369506836,-1.8851439952850342,-5.361654281616211,43.87664031982422,-68.30827331542969, -5.2257399559021
412,1183867829,0.36725968,-0.6493296,-0.51885486,-0.41747063,18.031797409057617,-0.9450215697288513,-6.193402290344238,5.384924411773682,-25.420516967773438, -7.0479416847229
413,1183884496,0.36608166,-0.64945287,-0.5167497,-0.4209103,15.424003601074219,2.0861027240753174,-6.782985687255859,-23.775209426879883,15.746878623962402, -2.153125047683716
414,1183901163,0.36634338,-0.64902437,-0.5120169,-0.42708224,17.298627853393555,3.189434051513672,-5.499434947967529,-33.209617614746094,41.28178787231445, 4.951759338378906
415,1183917830,0.3708795,-0.6455812,-0.50614804,-0.4353024,21.156543731689453,4.061182975769043,-3.089837074279785,-17.015522003173828,77.15591430664062, 6.8622236251831055
416,1183934497,0.37608045,-0.64174956,-0.49574408,-0.44828495,23.29945182800293,0.7113322019577026,0.8346288800239563,-43.14876937866211,113.2424087524414, 15.566302299499512
417,1183951164,0.3809472,-0.63829696,-0.47931343,-0.46659973,19.665010452270508,1.3673617839813232,1.8791003227233887,-82.38001251220703,149.88294982910156, 28.659378051757812
418,1183967831,0.37929487,-0.63834566,-0.46009216,-0.48679146,12.11259651184082,0.7354070544242859,2.694333791732788,-135.3189239501953,132.55897521972656, 26.63783073425293
419,1183984498,0.38270825,-0.6330131,-0.44379205,-0.5058439,8.37212085723877,-1.9016838073730469,-0.2019500434398651,-85.68008422851562,153.85983276367188, 16.719348907470703
420,1184001165,0.38072962,-0.6305948,-0.42385507,-0.52701294,6.150420665740967,-2.754633903503418,-3.353522539138794,-135.98138427734375,146.02935791015625, 17.064908981323242
421,1184017832,0.37639883,-0.6314573,-0.40822786,-0.54123586,2.5205631256103516,-3.2475521564483643,-5.528047561645508,-118.9371337890625,85.92627716064453, 17.525245666503906
422,1184034499,0.37577444,-0.6301586,-0.40007746,-0.5492107,0.9480140209197998,-3.083585262298584,-4.493810176849365,-51.93559646606445,58.001468658447266, 8.884655952453613
423,1184051166,0.37920102,-0.6263717,-0.39685568,-0.5535079,2.3250856399536133,1.762527585029602,-4.380714416503906,0.7338360548019409,49.964778900146484, 5.422154903411865
424,1184067833,0.3772932,-0.6249735,-0.3896979,-0.5614213,2.6149654388427734,3.947463035583496,-0.12490567564964294,-53.26506042480469,52.23832321166992, -0.8024488687515259
425,1184084500,0.38076702,-0.62237203,-0.38544983,-0.5648878,1.2563797235488892,1.4044636487960815,-0.22528769075870514,-3.8030805587768555,44.64448165893555, 15.857942581176758
426,1184101167,0.38612565,-0.620347,-0.3828568,-0.56524134,0.938895583152771,-1.0425251722335815,-2.5936224460601807,17.450641632080078,29.751020431518555, 25.803817749023438
427,1184117834,0.3955444,-0.6167812,-0.38514626,-0.5610602,0.886802077293396,-3.1740314960479736,-4.257969856262207,69.75154113769531,14.177967071533203, 28.725027084350586
428,1184134501,0.4052438,-0.611861,-0.39174446,-0.55492383,0.9334803223609924,4.621260643005371,-6.219419479370117,96.3987808227539,0.2217942178249359, 13.209623336791992
429,1184151168,0.40832677,-0.6094732,-0.39922172,-0.5499401,1.3451944589614868,5.0496039390563965,-5.439688205718994,61.84347915649414,-24.744571685791016, -12.023537635803223
430,1184167835,0.4006761,-0.6135922,-0.4035349,-0.5478351,-0.1406209021806717,5.529263973236084,-5.66910457611084,-21.151748657226562,-57.764434814453125, -29.467252731323242
431,1184184502,0.38796312,-0.62305003,-0.40697208,-0.54375327,3.1226165294647217,0.13934803009033203,-7.470414638519287,-54.91134262084961,-97.74868774414062, -24.475452423095703
432,1184201169,0.3815652,-0.6302598,-0.41596636,-0.5330602,4.598580360412598,-3.028315305709839,-5.767240047454834,17.456552505493164,-114.68505096435547, -13.329923629760742
433,1184217836,0.37871367,-0.631815,-0.43171546,-0.52058434,9.67790412902832,3.9133460521698,-6.390508651733398,77.47264099121094,-109.16448211669922, -41.1681022644043
434,1184234503,0.37598702,-0.63087285,-0.44931754,-0.508672,12.807746887207031,0.3099004328250885,2.421083927154541,89.57874298095703,-102.13650512695312, -57.5984001159668
435,1184251170,0.3710479,-0.63600606,-0.46198532,-0.49435806,13.43200397491455,-8.4227876663208,6.20383358001709,54.431396484375,-127.96550750732422, -18.96735382080078
436,1184267837,0.3695405,-0.6429247,-0.47757146,-0.47118333,22.02278709411621,-9.632545471191406,1.706385850906372,102.76326751708984,-169.50588989257812, 8.060211181640625
437,1184284504,0.36953276,-0.64805317,-0.49266326,-0.4480581,25.375934600830078,-1.040062665939331,-2.9397411346435547,111.95123291015625,-157.44261169433594, 8.954668998718262
438,1184301171,0.35979003,-0.65677834,-0.49838978,-0.43680838,16.037521362304688,1.5043365955352783,-3.6457643508911133,-9.686951637268066,-124.8686752319336, 2.707866668701172
439,1184317838,0.3482562,-0.6651425,-0.4989148,-0.432883,12.930876731872559,0.8006554841995239,-4.886204242706299,-57.558414459228516,-84.01599884033203, 1.490220546722412
440,1184334505,0.34467438,-0.6676554,-0.5000448,-0.4305712,13.047773361206055,1.735783338546753,-7.9591803550720215,-10.888110160827637,-33.395626068115234, -1.528022050857544
441,1184351172,0.3484053,-0.6651122,-0.50093967,-0.4304643,12.012003898620605,4.605146408081055,-7.495493412017822,26.44467544555664,17.433992385864258, -1.3825016021728516
442,1184367839,0.35378945,-0.66004616,-0.4992543,-0.43579558,15.390029907226562,2.1409108638763428,-5.938566207885742,13.800315856933594,61.68307876586914, -6.342830657958984
443,1184384506,0.3625987,-0.6523398,-0.49484015,-0.4450942,19.683414459228516,-0.4830719530582428,-3.5653300285339355,14.027090072631836,105.9901123046875, -2.3721132278442383
444,1184401173,0.37218818,-0.64419466,-0.4855655,-0.45903787,22.879554748535156,0.4684782028198242,-0.713003933429718,-12.07666301727295,142.8779754638672, 8.752642631530762
445,1184417840,0.37650758,-0.6400806,-0.46831304,-0.47877178,21.619186401367188,2.3105640411376953,2.4601619243621826,-90.27046203613281,158.50750732421875, 26.12335968017578
446,1184434507,0.37869215,-0.63661987,-0.44930574,-0.49943188,14.736005783081055,1.9331536293029785,2.9350545406341553,-110.1090316772461,157.94638061523438, 26.568920135498047
447,1184451174,0.38428622,-0.62900084,-0.43133265,-0.52022547,11.311819076538086,-1.0656921863555908,4.738937854766846,-81.20841979980469,180.5347137451172, 20.58912467956543
448,1184467841,0.38213292,-0.6255519,-0.40604544,-0.5456987,3.229308843612671,-2.2896554470062256,-2.5531270503997803,-165.86099243164062,182.09674072265625, 24.487037658691406
449,1184484508,0.3787908,-0.62595975,-0.38877815,-0.5599501,2.426130533218384,-3.93822979927063,-12.008793830871582,-119.70711517333984,94.97730255126953, 25.72327423095703
450,1184501175,0.38125116,-0.62206084,-0.3832315,-0.56641155,4.042969226837158,1.9199888706207275,-9.379671096801758,-17.593122482299805,63.22148132324219, 6.32188081741333
451,1184517842,0.38274747,-0.6193743,-0.38164058,-0.56941265,4.029309272766113,1.3610126972198486,-9.445601463317871,-0.32999515533447266,30.95005226135254, -2.0424790382385254
452,1184534509,0.3784589,-0.62006193,-0.3792803,-0.573096,3.240039110183716,5.662065029144287,-4.878142356872559,-38.59968566894531,7.6504387855529785, -14.323592185974121
453,1184551176,0.3713794,-0.6228355,-0.3782462,-0.5753986,1.9519710540771484,3.173980712890625,-1.7778844833374023,-46.99063491821289,-17.109718322753906, -21.834030151367188
454,1184567843,0.36885327,-0.6239445,-0.3825339,-0.5729823,0.9639980792999268,-0.6756103038787842,-1.8044573068618774,10.149618148803711,-32.45329666137695, -18.83314323425293
455,1184584510,0.37070903,-0.6235963,-0.39056507,-0.5667115,-0.188364177942276,-3.306896686553955,-0.27031639218330383,57.51691436767578,-41.18350601196289, -11.7059326171875
456,1184601177,0.37372953,-0.6234998,-0.39920378,-0.55875856,-0.7270878553390503,-3.021360397338867,-0.8373475670814514,68.69644165039062,-47.785640716552734, -4.878507614135742
457,1184617844,0.3763381,-0.6225893,-0.40835443,-0.5513614,0.7260128855705261,2.4547228813171387,-3.7758264541625977,69.41095733642578,-44.70268249511719, -12.379562377929688
458,1184634511,0.37585273,-0.62324244,-0.41519532,-0.5458176,1.6371570825576782,4.798922061920166,0.44870996475219727,38.2148323059082,-45.34175491333008, -14.589953422546387
459,1184651178,0.36610138,-0.628985,-0.41736755,-0.5441989,-0.2128651738166809,4.043084621429443,-3.375209093093872,-43.27912139892578,-62.02242660522461, -24.896793365478516
460,1184667845,0.35752237,-0.6369745,-0.42082053,-0.5379143,6.009799957275391,-2.0031261444091797,-11.392678260803223,-25.589065551757812,-90.41566467285156, -7.79864501953125
461,1184684512,0.34976947,-0.6402017,-0.42831048,-0.5332485,11.19776439666748,1.9666600227355957,-4.582513332366943,-0.03384801372885704,-73.07168579101562, -40.222679138183594
462,1184701179,0.34235626,-0.6432971,-0.4360736,-0.5280166,10.791437149047852,-6.823022842407227,3.26887845993042,4.486196994781494,-74.69285583496094, -39.188880920410156
463,1184717846,0.34068623,-0.6452952,-0.4512585,-0.51370513,12.982937812805176,-5.988297939300537,1.4763792753219604,86.49183654785156,-111.21314239501953, -33.208621978759766
464,1184734513,0.34280333,-0.648353,-0.4719069,-0.48931453,16.744548797607422,-4.60748291015625,0.2601238489151001,151.25831604003906,-160.8146514892578, -17.287128448486328
465,1184751180,0.3465187,-0.65063643,-0.4916771,-0.46352044,18.616243362426758,-1.2554352283477783,-0.30309969186782837,161.6848907470703,-157.29283142089844, -7.277273178100586
466,1184767847,0.34479666,-0.65491617,-0.50465566,-0.44443586,19.361047744750977,-2.155332088470459,-2.019913911819458,88.21784973144531,-135.9186248779297, -3.4834258556365967
467,1184784514,0.3404974,-0.6597548,-0.5074681,-0.43733478,14.104289054870605,-1.7019098997116089,-5.932864665985107,2.5600643157958984,-68.58055877685547, 7.931175708770752
468,1184801181,0.33864674,-0.6609484,-0.50917464,-0.4349796,20.136959075927734,-0.6630896329879761,-4.704730033874512,2.2863292694091797,-24.957775115966797, -3.5360586643218994
469,1184817848,0.33864552,-0.65957564,-0.50777787,-0.4386815,19.454648971557617,3.083820343017578,-5.1001386642456055,-13.847817420959473,23.885251998901367, -6.9921345710754395
470,1184834515,0.34248945,-0.6553331,-0.5078971,-0.4419055,18.334930419921875,4.642822742462158,-5.454521656036377,16.574010848999023,40.2214241027832, -11.141192436218262
471,1184851182,0.35003564,-0.6485963,-0.5082161,-0.44555014,20.044662475585938,4.012308120727539,-4.027624130249023,38.363040924072266,62.12417221069336, -10.441370010375977
472,1184867849,0.35947183,-0.6408793,-0.5049692,-0.4528363,19.768543243408203,3.701561212539673,-2.462601900100708,25.5768985748291,96.49732971191406, -0.8897265791893005
473,1184884516,0.3648646,-0.6361437,-0.49401,-0.4670648,17.384624481201172,2.1714468002319336,-0.1458345651626587,-47.66701126098633,122.75996398925781, 13.746447563171387
474,1184901183,0.36745855,-0.6357058,-0.46891978,-0.49088404,14.872464179992676,0.3713378608226776,0.3968272805213928,-148.6543731689453,176.78709411621094, 57.13890838623047
475,1184917850,0.37782058,-0.6254963,-0.44735116,-0.5156388,10.745772361755371,0.5515412092208862,1.4426640272140503,-81.15884399414062,229.94122314453125, 34.09431457519531
476,1184934517,0.37932855,-0.6202832,-0.4240836,-0.5399185,3.0268635749816895,-2.7974491119384766,-2.8632278442382812,-136.79788208007812,187.29086303710938, 26.61243438720703
477,1184951184,0.3793535,-0.6186559,-0.40735212,-0.5544552,2.0170514583587646,-5.425649642944336,-8.071295738220215,-99.85055541992188,111.06975555419922, 29.042861938476562
478,1184967851,0.3821705,-0.61629105,-0.39918622,-0.56105417,4.364062309265137,-1.3403377532958984,-9.289724349975586,-31.239906311035156,65.7176284790039, 21.79812240600586
479,1184984518,0.38436309,-0.6143565,-0.39558312,-0.56422114,4.106468677520752,0.1437515914440155,-6.569217681884766,-8.007275581359863,35.95359420776367, 10.237288475036621
480,1185001185,0.3871,-0.6127289,-0.39421993,-0.56507355,3.2163615226745605,0.3538911044597626,-3.739455223083496,8.489326477050781,20.645763397216797, 9.845789909362793
481,1185017852,0.3905722,-0.610975,-0.39445415,-0.56441927,1.5883084535598755,1.9051787853240967,-1.1729321479797363,22.22538185119629,12.585708618164062, 9.64901351928711
482,1185034519,0.39379674,-0.6103835,-0.3946031,-0.5627122,0.8333752751350403,1.4140223264694214,0.44828981161117554,20.631298065185547,3.224395990371704, 15.059025764465332
483,1185051186,0.39673972,-0.61051834,-0.396334,-0.55927163,0.13501045107841492,-0.21486034989356995,-1.1195690631866455,28.32530403137207,-11.915984153747559, 14.017674446105957
484,1185067853,0.3996508,-0.6106107,-0.40021032,-0.55431575,0.6894704103469849,0.8164913058280945,-2.9806301593780518,40.68587875366211,-24.035011291503906, 8.902682304382324
485,1185084520,0.40079015,-0.61128235,-0.4052903,-0.54903686,1.8126026391983032,3.283087968826294,-5.780252933502197,37.15581130981445,-35.736427307128906, -0.40875688195228577
486,1185101187,0.39569068,-0.61573195,-0.40763655,-0.5460183,1.7183188199996948,5.173135280609131,-2.2874085903167725,-16.01142692565918,-50.267818450927734, -8.117321968078613
487,1185117854,0.38132295,-0.6269183,-0.40648878,-0.54436535,1.346833348274231,3.1960289478302,-6.396128177642822,-90.41303253173828,-86.2275161743164, -12.874067306518555
488,1185134521,0.37175095,-0.63598394,-0.40965858,-0.5380576,5.6873555183410645,-4.299734115600586,-6.981746673583984,-34.92121887207031,-96.18339538574219, -7.213495254516602
489,1185151188,0.36909926,-0.63918865,-0.4203493,-0.52774113,8.091980934143066,-3.401050090789795,-1.8800885677337646,49.37348937988281,-91.66743469238281, -20.831684112548828
490,1185167855,0.3706516,-0.6397692,-0.44166017,-0.5081827,10.700998306274414,-6.770987510681152,3.17879581451416,139.69610595703125,-137.5640106201172, -36.44922637939453
491,1185184522,0.3713836,-0.64133906,-0.46821827,-0.4811763,16.465068817138672,-4.635348320007324,4.529555797576904,174.381591796875,-189.74606323242188, -40.523685455322266
492,1185201189,0.37159356,-0.64475423,-0.48727706,-0.45691562,22.22881507873535,0.2988259792327881,0.8962537050247192,133.57305908203125,-166.38404846191406, -10.303213119506836
493,1185217856,0.37121373,-0.64738524,-0.49946678,-0.44002986,17.39084243774414,1.4948372840881348,-3.00225830078125,86.65276336669922,-115.7460708618164, -3.160698890686035
494,1185234523,0.36987782,-0.6498926,-0.50545394,-0.43051913,14.431424140930176,3.4418320655822754,-5.407034397125244,38.65071105957031,-70.03453063964844, 2.3319289684295654
495,1185251190,0.367707,-0.65178907,-0.50627387,-0.428544,12.521150588989258,0.6644695401191711,-5.995872974395752,-4.917200565338135,-24.3160343170166, 1.7015385627746582
496,1185267857,0.36764467,-0.6528754,-0.5027809,-0.43104854,15.769185066223145,-0.18851816654205322,-6.236654758453369,-21.68744659423828,16.402841567993164, 13.107834815979004
497,1185284524,0.3683898,-0.6529437,-0.49721795,-0.43672436,20.378475189208984,2.0653836727142334,-4.741131782531738,-32.57420349121094,41.67914581298828, 13.264053344726562
498,1185301191,0.3684183,-0.65199345,-0.49099573,-0.4450799,22.445497512817383,2.76924467086792,-3.436089277267456,-44.2995719909668,55.94456100463867, 3.8355512619018555
499,1185317858,0.3705701,-0.6486892,-0.484078,-0.45557573,23.58172035217285,1.8657252788543701,-1.8142436742782593,-38.11444854736328,81.60533905029297, 0.12615256011486053
500,1185334525,0.37480512,-0.64269817,-0.47635338,-0.4685597,22.399398803710938,1.3781580924987793,0.7489436864852905,-32.75735092163086,110.02326202392578, -4.995195388793945
501,1185351192,0.3749979,-0.63997096,-0.45851403,-0.4894681,19.501628875732422,-0.07242254912853241,3.9892706871032715,-117.57369232177734,147.25514221191406, 16.978015899658203
502,1185367859,0.37939224,-0.6344551,-0.43245316,-0.51624894,12.242535591125488,-2.3154096603393555,0.23311594128608704,-138.13780212402344,216.8194580078125, 43.3744010925293
503,1185384526,0.38244855,-0.62584394,-0.41125926,-0.5412198,3.5562283992767334,-2.5612215995788574,0.4367072284221649,-113.29518127441406,203.1811981201172, 12.873260498046875
504,1185401193,0.37884977,-0.6250421,-0.38943496,-0.5604785,0.16961082816123962,-5.5836567878723145,-4.600931644439697,-148.72293090820312,132.3504638671875, 27.877328872680664
505,1185417860,0.37813964,-0.6231143,-0.37664333,-0.5717335,5.33682107925415,0.039945751428604126,-13.800485610961914,-77.23312377929688,86.55900573730469, 17.928152084350586
506,1185434527,0.37979758,-0.6198318,-0.37342307,-0.57629675,5.14589786529541,1.456936240196228,-10.471063613891602,-8.590523719787598,44.65187072753906, 0.1274305135011673
507,1185451194,0.3797823,-0.6182394,-0.37333572,-0.57807124,3.657546043395996,1.6600655317306519,-5.947630405426025,-0.5012537837028503,13.736685752868652, -8.202922821044922
508,1185467861,0.37902096,-0.6176369,-0.37603417,-0.57746553,1.8067102432250977,2.2020416259765625,-3.2206578254699707,10.959080696105957,-9.424129486083984, -14.22359561920166
509,1185484528,0.3793918,-0.617912,-0.38073498,-0.57383615,1.5152742862701416,0.08200468122959137,-2.0020182132720947,29.29187774658203,-27.9964656829834, -8.049339294433594
510,1185501195,0.38182837,-0.61757934,-0.38821065,-0.5675348,0.8068128824234009,-0.25959768891334534,-1.1336348056793213,57.60475158691406,-38.753414154052734, -6.310704708099365
511,1185517862,0.38336265,-0.6184881,-0.39567953,-0.560307,0.3090512454509735,-1.4950844049453735,-0.5392535328865051,52.955955505371094,-49.90561294555664, -4.06496524810791
512,1185534529,0.38269562,-0.6204484,-0.40263942,-0.5535973,0.6920390129089355,1.5295723676681519,-2.186500310897827,37.41932678222656,-56.392520904541016, -8.911751747131348
513,1185551196,0.37929004,-0.6238042,-0.40835473,-0.5479545,0.9376905560493469,2.737497329711914,-2.3429596424102783,14.416797637939453,-61.4306755065918, -12.952402114868164
514,1185567863,0.37191227,-0.6292387,-0.4131305,-0.54319763,0.7663843631744385,3.144623279571533,-0.38198375701904297,-14.006709098815918,-74.13658142089844, -20.327688217163086
515,1185584530,0.3590244,-0.6396975,-0.41389772,-0.53905255,1.2147563695907593,-0.30456262826919556,-5.624685287475586,-67.33824157714844,-95.65837097167969, -10.82131576538086
516,1185601197,0.34917653,-0.64981645,-0.41827312,-0.5299647,6.337738990783691,-4.811910629272461,-9.845090866088867,-25.683269500732422,-116.32450103759766, -4.198580741882324
517,1185617864,0.33780167,-0.6583101,-0.42364967,-0.5225317,11.006757736206055,-1.2936382293701172,-0.8793462514877319,-29.80361557006836,-109.68707275390625, -22.945043563842773
518,1185634531,0.33074865,-0.664747,-0.43104213,-0.5127573,10.479021072387695,-3.3700461387634277,0.006240963935852051,8.568746566772461,-105.00999450683594, -17.114377975463867
519,1185651198,0.3265609,-0.67011875,-0.43958995,-0.5010589,16.02642250061035,-2.913996934890747,2.609771490097046,33.78236770629883,-104.22098541259766, -11.11660385131836
520,1185667865,0.32566398,-0.67464656,-0.44995007,-0.4861485,19.420534133911133,1.0685327053070068,0.056714385747909546,66.72178649902344,-110.3310775756836, -3.5039072036743164
521,1185684532,0.32783997,-0.6758039,-0.46382356,-0.4697642,19.43903350830078,2.068791389465332,-1.7871204614639282,104.84231567382812,-104.34519958496094, -16.650846481323242
522,1185701199,0.32520783,-0.6784954,-0.4689998,-0.46251878,19.89032745361328,1.6119544506072998,-0.7265332937240601,21.847070693969727,-62.62329864501953, -7.459712505340576
523,1185717866,0.32049793,-0.68072724,-0.47050163,-0.460999,17.262123107910156,1.0869163274765015,-4.90004825592041,-16.940444946289062,-33.02032470703125, -11.196280479431152
524,1185734533,0.31461498,-0.68380105,-0.46684936,-0.46420437,12.88796615600586,0.51707923412323,-6.369019985198975,-55.88454055786133,-6.034880638122559, 1.5278338193893433
525,1185751200,0.31318995,-0.68531686,-0.46110207,-0.4686559,12.184916496276855,1.271033763885498,-7.237562656402588,-42.23017883300781,23.651596069335938, 17.912546157836914
526,1185767867,0.3192971,-0.68257314,-0.4587383,-0.47085327,16.89341926574707,-0.9291490912437439,-5.530978679656982,20.514265060424805,43.37721633911133, 17.599475860595703
527,1185784534,0.335078,-0.6724741,-0.46672174,-0.46655387,21.000165939331055,-0.9457210302352905,-2.5525574684143066,136.02915954589844,44.4878044128418, -8.584871292114258
528,1185801201,0.35161138,-0.65902853,-0.4758776,-0.46431872,24.475900650024414,1.7071346044540405,1.2435336112976074,144.3282470703125,64.42149353027344, -27.087541580200195
529,1185817868,0.36027756,-0.6494915,-0.47153994,-0.47540686,21.247201919555664,1.3068841695785522,2.7645511627197266,12.579633712768555,119.07439422607422, -10.454728126525879
530,1185834535,0.36738485,-0.64107287,-0.45985395,-0.4925331,13.26972770690918,-0.05562964454293251,3.233635663986206,-40.74954605102539,155.42056274414062, 5.957435131072998
531,1185851202,0.37171426,-0.63308614,-0.4385843,-0.5183387,8.805685043334961,-0.5699898600578308,0.4056905508041382,-114.02798461914062,207.57887268066406, 18.237545013427734
532,1185867869,0.37143973,-0.6300918,-0.42191046,-0.5357322,2.046198606491089,-2.228684663772583,-6.238842487335205,-105.0875015258789,127.4853744506836, 18.361764907836914
533,1185884536,0.37480596,-0.62653905,-0.4111297,-0.54584104,4.206401348114014,-1.2360864877700806,-7.7396697998046875,-45.084991455078125,93.56450653076172, 23.194509506225586
534,1185901203,0.37783608,-0.623039,-0.40543687,-0.55198175,3.3596887588500977,0.2291574329137802,-7.498691558837891,-16.36834716796875,62.30216598510742, 10.375545501708984
535,1185917870,0.37914357,-0.62094814,-0.40020457,-0.5572345,3.967500686645508,2.126157283782959,-4.60004186630249,-23.165430068969727,47.24393081665039, 8.104700088500977
536,1185934537,0.37860632,-0.61962605,-0.39607942,-0.56199884,1.48191499710083,4.088432312011719,-0.6819548606872559,-27.41071891784668,34.303672790527344, -0.270651251077652
537,1185951204,0.37759733,-0.6193538,-0.39330125,-0.56492114,0.6422285437583923,1.6204380989074707,-1.476884126663208,-21.852609634399414,17.61301040649414, -0.12333828955888748
538,1185967871,0.37806934,-0.61967254,-0.39344016,-0.56415856,0.6272290945053101,-2.491572856903076,-3.564842462539673,4.2512407302856445,-3.9240193367004395, 4.3924055099487305
539,1185984538,0.3839215,-0.6174188,-0.39945465,-0.55842143,0.6897713541984558,-1.308650255203247,-3.498318910598755,70.06314849853516,-15.81299114227295, 6.1671576499938965
540,1186001205,0.38692522,-0.6163107,-0.4064637,-0.55248356,1.0820503234863281,2.505443572998047,-5.234164237976074,59.297340393066406,-31.46571922302246, -5.333801746368408
541,1186017872,0.3864553,-0.6172759,-0.4129442,-0.54690075,1.4879566431045532,3.344115972518921,-5.470263957977295,36.12230682373047,-46.07341766357422, -11.409421920776367
542,1186034539,0.38011208,-0.62129307,-0.4172365,-0.54352903,0.8314611315727234,4.774243354797363,-0.6074385046958923,-11.343117713928223,-58.961219787597656, -21.378765106201172
543,1186051206,0.36826286,-0.63085455,-0.41942155,-0.5389722,3.208281993865967,-2.2765092849731445,-8.042295455932617,-53.724857330322266,-95.03069305419922, -13.901233673095703
544,1186067873,0.36525315,-0.63626546,-0.42984217,-0.52630085,5.153648376464844,-3.4577386379241943,-6.616070747375488,49.01544952392578,-110.1156005859375, -8.326579093933105
545,1186084540,0.36045223,-0.6400878,-0.44235432,-0.5144754,10.718570709228516,-2.308102607727051,-1.124467134475708,50.17411804199219,-111.1410903930664, -30.830747604370117
546,1186101207,0.3605506,-0.64109147,-0.4598934,-0.49749756,8.828810691833496,-3.59151554107666,-2.779627561569214,112.12734985351562,-121.41886901855469, -31.468048095703125
547,1186117874,0.361059,-0.642426,-0.48076457,-0.47517493,14.877561569213867,-2.538933277130127,2.6432886123657227,141.3448944091797,-153.0755157470703, -30.511940002441406
548,1186134541,0.35699967,-0.6467404,-0.49877155,-0.45332706,18.305652618408203,0.5863845944404602,0.03089684247970581,102.76348876953125,-168.78292846679688, -24.144800186157227
549,1186151208,0.35594174,-0.6480794,-0.5153776,-0.43322617,17.854223251342773,3.054265022277832,-1.3167535066604614,113.04844665527344,-138.07345581054688, -23.050920486450195
550,1186167875,0.35365233,-0.64894295,-0.5254869,-0.42150578,17.299556732177734,0.6403222680091858,-2.974294424057007,59.71420669555664,-87.82988739013672, -19.941715240478516
551,1186184542,0.35362515,-0.64867723,-0.53176755,-0.4139939,15.242963790893555,-1.9064048528671265,-5.5214996337890625,46.25228500366211,-48.342079162597656, -10.609540939331055
552,1186201209,0.35416463,-0.6478822,-0.5342307,-0.41159955,16.508872985839844,-1.8032792806625366,-5.98061990737915,20.44829559326172,-12.670426368713379, -6.3578033447265625
553,1186217876,0.35386348,-0.64819676,-0.53224087,-0.41393435,16.01030731201172,0.1154060885310173,-5.757651329040527,-16.011573791503906,12.994136810302734, 3.653170585632324
554,1186234543,0.3541436,-0.64761496,-0.52775204,-0.42030403,16.889331817626953,2.602980613708496,-5.941962242126465,-33.115779876708984,41.71934509277344, 3.3532540798187256
555,1186251210,0.35690275,-0.64509183,-0.52206874,-0.4288608,17.401643753051758,3.8484725952148438,-4.7102203369140625,-28.677772521972656,68.95458984375, 3.4838249683380127
556,1186267877,0.36246014,-0.6406313,-0.51542157,-0.4388113,19.553049087524414,3.101750373840332,-2.489335298538208,-19.28339195251465,93.23062133789062, 5.667265892028809
557,1186284544,0.3683527,-0.636507,-0.5048759,-0.45196903,20.337173461914062,2.647646903991699,0.1327264904975891,-41.72349548339844,117.19073486328125, 17.07884979248047
558,1186301211,0.36987722,-0.6364564,-0.48412785,-0.4730063,17.83479881286621,0.9467844367027283,1.604562520980835,-130.20428466796875,149.61880493164062, 42.3741569519043
559,1186317878,0.37332913,-0.63413525,-0.46388802,-0.493261,9.81698226928711,0.1955501139163971,-0.09775924682617188,-111.74703979492188,158.61428833007812, 40.86355209350586
560,1186334545,0.382166,-0.62411046,-0.4475608,-0.51393116,8.47341251373291,-1.452014446258545,1.018959879875183,-56.5576057434082,193.6573944091797, 16.434053421020508
561,1186351212,0.38790485,-0.61549526,-0.42966273,-0.53487,2.087766647338867,-1.1138839721679688,-5.72252082824707,-79.99427795410156,184.390869140625, 15.85012149810791
562,1186367879,0.38484648,-0.61721724,-0.40986505,-0.5504064,2.929994583129883,-3.9304375648498535,-10.177053451538086,-135.82350158691406,102.63752746582031, 36.470497131347656
563,1186384546,0.3853671,-0.6160021,-0.3998574,-0.5587024,3.2993149757385254,-1.6748778820037842,-9.718355178833008,-55.47450256347656,67.31414031982422, 19.30200958251953
564,1186401213,0.38759476,-0.61321837,-0.3960322,-0.562932,4.163367748260498,1.610108494758606,-7.882228374481201,-9.166685104370117,44.53646469116211, 6.120103359222412
565,1186417880,0.38372704,-0.6138348,-0.39141497,-0.5681155,3.0219924449920654,4.622745990753174,-3.2556161880493164,-49.542266845703125,20.998132705688477, -7.39119815826416
566,1186434547,0.379747,-0.61609834,-0.38914615,-0.56989545,1.8456504344940186,0.6313783526420593,-2.834988594055176,-35.934017181396484,-6.268033027648926, -4.269183158874512
567,1186451214,0.3804886,-0.61732256,-0.39184216,-0.5662169,1.9747494459152222,-2.0756211280822754,-3.012110710144043,20.85224151611328,-25.616792678833008, 4.6781325340271
568,1186467881,0.38294277,-0.61875856,-0.39725432,-0.55918014,0.5275118947029114,-2.51654314994812,-2.9716997146606445,47.14950180053711,-43.15304946899414, 9.143950462341309
569,1186484548,0.38484836,-0.6205891,-0.40410492,-0.55087245,0.7212153077125549,1.1855642795562744,-3.1557629108428955,52.729713439941406,-55.328216552734375, 5.305132865905762
570,1186501215,0.38239923,-0.6240226,-0.4093762,-0.5447734,0.38057073950767517,4.53200626373291,-0.4272197484970093,17.821008682250977,-59.86127471923828, -5.832042217254639
571,1186517882,0.3753602,-0.6283891,-0.41370493,-0.5413692,1.609177827835083,4.412805557250977,1.494518756866455,-15.342682838439941,-62.23533248901367, -23.393272399902344
572,1186534549,0.3667905,-0.63495284,-0.41777357,-0.5364377,1.3395107984542847,-1.381439208984375,-5.335200786590576,-24.15911865234375,-80.71758270263672, -17.73531150817871
573,1186551216,0.3748542,-0.6302544,-0.43711665,-0.5207622,5.815115928649902,-2.5049493312835693,-11.180211067199707,164.05291748046875,-76.77114868164062, -28.35430145263672
574,1186567883,0.3927114,-0.6155085,-0.46716982,-0.49867806,11.155713081359863,-2.843005657196045,-2.8241348266601562,290.0184631347656,-66.6274642944336, -53.44403839111328
575,1186584550,0.40105557,-0.609942,-0.48820212,-0.47831416,11.86437702178955,-3.215428590774536,6.454916000366211,188.4110870361328,-97.0008544921875, -23.091686248779297
576,1186601217,0.39555866,-0.61850405,-0.49818504,-0.46130067,17.380348205566406,-3.1331405639648438,6.049204349517822,43.693668365478516,-145.50083923339844, 15.87816333770752
577,1186617884,0.3830091,-0.6326382,-0.50475127,-0.4453084,24.576507568359375,-0.5317627191543579,1.7467472553253174,-15.91405200958252,-173.8152313232422, 24.332530975341797
578,1186634551,0.3723254,-0.6439704,-0.5107152,-0.43109927,18.69951057434082,0.6112203598022461,-2.9528565406799316,-8.479035377502441,-149.50975036621094, 18.249317169189453
579,1186651218,0.3643726,-0.6512983,-0.5160927,-0.42034754,19.909202575683594,0.09159297496080399,-3.27970814704895,-0.007223096676170826,-111.27410888671875, 6.040398120880127
580,1186667885,0.357611,-0.6565504,-0.5162365,-0.4177992,17.468442916870117,2.1311275959014893,-6.2059431076049805,-33.70973587036133,-51.24565505981445, 5.011864185333252
581,1186684552,0.35497016,-0.65762955,-0.5150213,-0.41984883,12.951349258422852,3.4341750144958496,-8.339741706848145,-25.010648727416992,-0.5488044619560242, -3.1195437908172607
582,1186701219,0.35778642,-0.6547999,-0.5131971,-0.4240936,13.73936939239502,2.4685513973236084,-6.332187652587891,-0.2292862981557846,41.49574279785156, -3.7959787845611572
583,1186717886,0.36733752,-0.6471193,-0.5105692,-0.43083575,17.843305587768555,0.7855958342552185,-4.871169567108154,30.936054229736328,92.63126373291016, -3.7825212478637695
584,1186734553,0.38060454,-0.63521504,-0.5064226,-0.44179055,22.28841209411621,-0.5430405735969543,-1.5947414636611938,38.87099075317383,140.7495880126953, -11.467999458312988
585,1186751220,0.39032447,-0.6246061,-0.496618,-0.45922256,20.431291580200195,-0.18347369134426117,0.516636848449707,-19.782245635986328,167.50135803222656, -9.955045700073242
586,1186767887,0.38381407,-0.6290456,-0.4728077,-0.4831581,14.882652282714844,-0.4250808656215668,2.8365731239318848,-196.35073852539062,130.02134704589844, 32.89200973510742
587,1186784554,0.3818925,-0.63023686,-0.4510471,-0.50350434,10.446176528930664,-1.1225956678390503,1.3970954418182373,-149.4827423095703,134.7152099609375, 38.17953109741211
588,1186801221,0.39010233,-0.62014544,-0.4341545,-0.5241659,7.568373680114746,-1.8119347095489502,0.28084415197372437,-60.1129264831543,193.7452850341797, 16.328527450561523
589,1186817888,0.38908014,-0.6186954,-0.41791672,-0.53960985,1.593536138534546,-2.696051597595215,-10.163674354553223,-104.75680541992188,111.00865173339844, 20.033655166625977
590,1186834555,0.3921791,-0.6154711,-0.41035998,-0.5468053,3.381575107574463,-1.2546418905258179,-8.691607475280762,-26.60152816772461,71.22252655029297, 15.334193229675293
591,1186851222,0.39557427,-0.6119841,-0.40879783,-0.5494373,4.215953826904297,0.6344547867774963,-7.863783359527588,10.7677583694458,37.65959548950195, 2.634338140487671
592,1186867889,0.396576,-0.6100464,-0.4084202,-0.5511482,3.1720669269561768,2.693614959716797,-3.8756844997406006,3.579385757446289,18.060823440551758, -4.520570278167725
593,1186884556,0.39427167,-0.6109566,-0.40728512,-0.5526313,1.9508018493652344,1.6556698083877563,-1.667133092880249,-20.223665237426758,-0.8679516315460205, -5.22151517868042
594,1186901223,0.39418378,-0.61219764,-0.40766755,-0.5510361,0.851100742816925,-0.4916399419307709,-1.0644110441207886,2.613720417022705,-12.949137687683105, 6.115375995635986
595,1186917890,0.39487472,-0.6138509,-0.40942687,-0.54738575,0.17271234095096588,-2.0386784076690674,-0.8862839937210083,15.743367195129395,-24.69887351989746, 9.989160537719727
596,1186934557,0.39646375,-0.6155492,-0.41235223,-0.54210883,0.1302720308303833,-0.8951284289360046,-1.4426416158676147,28.340129852294922,-32.361900329589844, 12.967154502868652
597,1186951224,0.39636013,-0.6170891,-0.41649485,-0.537245,0.7423322796821594,3.1096391677856445,-3.5559005737304688,24.953081130981445,-38.12477111816406, -0.07870840281248093
598,1186967891,0.3914998,-0.6210277,-0.41985378,-0.5336438,1.9098533391952515,4.595826625823975,-4.272219657897949,-8.201081275939941,-53.08088302612305, -10.866085052490234
599,1186984558,0.37939188,-0.62976307,-0.41969264,-0.532277,0.7585570216178894,4.148299694061279,-5.729672908782959,-71.31797790527344,-72.55084991455078, -14.552678108215332
600,1187001225,0.3688566,-0.6399514,-0.42415813,-0.52392495,4.795185089111328,-4.647463798522949,-11.217035293579102,-31.095338821411133,-115.59623718261719, -6.38524866104126
601,1187017892,0.36645696,-0.64185673,-0.43985465,-0.5101546,8.792430877685547,-0.9082016944885254,-0.29450342059135437,81.87266540527344,-114.24807739257812, -36.962120056152344
602,1187034559,0.3718158,-0.6395322,-0.46296254,-0.4882807,7.3432936668396,-5.746969699859619,-3.526784896850586,177.28216552734375,-130.4090118408203, -34.8605842590332
603,1187051226,0.37718415,-0.6377638,-0.48783925,-0.46152234,16.07204246520996,-2.7257559299468994,2.756291389465332,197.27919006347656,-158.23703002929688, -28.414724349975586
604,1187067893,0.3719612,-0.642991,-0.5014811,-0.4435368,18.72356414794922,-0.6216723918914795,3.1487364768981934,67.50003814697266,-148.40664672851562, -12.063616752624512
605,1187084560,0.36438623,-0.649629,-0.5076994,-0.43295133,17.711143493652344,-1.8832968473434448,-3.4883203506469727,5.3000593185424805,-109.20084381103516, -0.47541725635528564
606,1187101227,0.3635944,-0.65206593,-0.5135585,-0.42292714,15.748392105102539,-0.017180252820253372,-2.667410135269165,43.053707122802734,-69.6376724243164, 5.245048522949219
607,1187117894,0.36474347,-0.651704,-0.51806027,-0.41696292,19.967313766479492,1.6853864192962646,-4.183943748474121,40.46500015258789,-33.08594512939453, -3.0520384311676025
608,1187134561,0.36625287,-0.6496904,-0.5208507,-0.41530293,16.441333770751953,0.9106683135032654,-5.916784286499023,26.02046012878418,-3.52892804145813, -11.013070106506348
609,1187151228,0.36958915,-0.6464685,-0.5220939,-0.41581348,14.797018051147461,0.9459971785545349,-6.1626176834106445,25.067642211914062,20.044471740722656, -8.671483039855957
610,1187167895,0.37504452,-0.64189565,-0.52107733,-0.41927367,17.988319396972656,1.1074118614196777,-5.196111679077148,20.90711784362793,50.36561584472656, -4.906983375549316
611,1187184562,0.3819277,-0.6366547,-0.51739836,-0.42556027,19.102474212646484,1.454933762550354,-4.138083457946777,11.164496421813965,76.72669219970703, 1.2897483110427856
612,1187201229,0.38878822,-0.6315943,-0.50972164,-0.43602377,20.360021591186523,0.4423982501029968,-2.075331687927246,-15.931462287902832,104.86919403076172, 8.415214538574219
613,1187217896,0.39303815,-0.629663,-0.49560857,-0.45101932,17.93023681640625,1.0517523288726807,0.7368391752243042,-70.8111343383789,123.18016815185547, 27.40643882751465
614,1187234563,0.39290485,-0.6315822,-0.4737452,-0.4714825,15.188810348510742,1.1611038446426392,1.4120479822158813,-142.8665008544922,140.86378479003906, 45.734683990478516
615,1187251230,0.39563167,-0.62922275,-0.4541401,-0.49123472,10.877631187438965,1.3731740713119507,0.5607715845108032,-109.24295043945312,154.80223083496094, 33.197265625
616,1187267897,0.40232238,-0.6191732,-0.434414,-0.51579684,10.082744598388672,0.7519060969352722,1.3448386192321777,-86.58370208740234,214.2745361328125, 10.029460906982422
617,1187284564,0.39502162,-0.6228585,-0.41141844,-0.5354816,0.47209617495536804,-3.3094186782836914,-7.657219409942627,-181.16131591796875,112.00083923339844, 28.854127883911133
618,1187301231,0.39532366,-0.62140006,-0.40113494,-0.5446764,2.3090267181396484,-1.4655344486236572,-8.300768852233887,-58.20677185058594,73.0587158203125, 16.31028175354004
619,1187317898,0.39687908,-0.618711,-0.39780828,-0.5490289,2.66524600982666,2.162871837615967,-8.308361053466797,-10.105056762695312,41.60532760620117, 1.0379421710968018
620,1187334565,0.39186743,-0.61939114,-0.3947198,-0.55406797,3.4684977531433105,6.142136573791504,-6.563852787017822,-48.144893646240234,13.273634910583496, -17.39667510986328
621,1187351232,0.38425294,-0.6228596,-0.39352885,-0.5563552,2.5062997341156006,0.41061797738075256,-4.902715682983398,-51.90525817871094,-21.18920135498047, -20.34518814086914
622,1187367899,0.38119093,-0.6253771,-0.39757076,-0.5527522,1.4103045463562012,-2.4801907539367676,-4.167596817016602,6.049746036529541,-44.23590087890625, -12.348705291748047
623,1187384566,0.38379034,-0.6244785,-0.4077888,-0.5444634,0.9074140191078186,-2.7715609073638916,-3.4375548362731934,75.6025161743164,-52.069427490234375, -14.478070259094238
624,1187401233,0.3870597,-0.62285787,-0.41944435,-0.53506964,0.750701904296875,1.0337715148925781,-1.3816219568252563,88.81037902832031,-55.988555908203125, -17.285343170166016
625,1187417900,0.38426024,-0.623844,-0.42778495,-0.52930444,0.6442134976387024,4.340075492858887,-0.26925763487815857,33.24551010131836,-58.70347595214844, -27.552091598510742
626,1187434567,0.3768046,-0.6267524,-0.43227994,-0.52757394,-0.13403356075286865,1.1679174900054932,3.853545665740967,-17.573701858520508,-51.92637252807617, -32.97562026977539
627,1187451234,0.37395087,-0.6289754,-0.43907434,-0.5213109,0.710126519203186,-4.5537309646606445,-5.186738014221191,25.865638732910156,-61.28784942626953, -16.484350204467773
628,1187467901,0.37741926,-0.6289681,-0.4526634,-0.507001,3.758774757385254,2.691885232925415,-15.80151653289795,107.49301147460938,-86.4287109375, -9.299288749694824
629,1187484568,0.37871006,-0.62798995,-0.47098342,-0.49028787,10.860819816589355,0.404005765914917,-5.039620399475098,124.668701171875,-112.34654235839844, -34.138065338134766
630,1187501235,0.3771126,-0.6301297,-0.49140278,-0.46823767,9.273599624633789,-3.903388261795044,5.328752517700195,128.46408081054688,-160.70367431640625, -28.97121810913086
631,1187517902,0.37263325,-0.63526076,-0.50784945,-0.44685307,18.112144470214844,-5.777155876159668,6.406768321990967,93.0625991821289,-166.9560546875, -12.69952392578125
632,1187534569,0.37174115,-0.6396807,-0.517739,-0.429609,22.01163101196289,-2.387158155441284,-2.061999559402466,75.75715637207031,-117.46408081054688, 13.845477104187012
633,1187551236,0.37298775,-0.6406951,-0.5269191,-0.41562837,17.079906463623047,0.21627625823020935,-2.5538554191589355,80.08828735351562,-83.67765045166016, 2.811709403991699
634,1187567903,0.3701364,-0.64255327,-0.5318807,-0.40893528,19.170257568359375,-2.4375643730163574,-2.011751651763916,21.404998779296875,-58.050270080566406, -5.938103675842285
635,1187584570,0.36808637,-0.64428544,-0.53321487,-0.40631407,18.75673484802246,-0.5425230860710144,-6.1523261070251465,0.11427776515483856,-27.59880828857422, 1.516423225402832
636,1187601237,0.3665889,-0.64404434,-0.5338978,-0.4071525,17.570175170898438,1.720595121383667,-6.556553363800049,-6.95111083984375,-3.1045939922332764, -10.040261268615723
637,1187617904,0.3671583,-0.6423782,-0.5329535,-0.410495,16.414308547973633,3.753413200378418,-5.5903120040893555,-7.904866695404053,23.650087356567383, -8.58233642578125
638,1187634571,0.37053075,-0.6383663,-0.53111935,-0.41606253,17.373310089111328,3.565288543701172,-4.437160968780518,-0.17164522409439087,52.600521087646484, -10.939153671264648
639,1187651238,0.37656903,-0.63289326,-0.5270988,-0.42403919,17.8290958404541,3.709958553314209,-3.1760432720184326,0.2778981029987335,82.63355255126953, -5.169971466064453
640,1187667905,0.3814154,-0.62818164,-0.51962787,-0.43577236,19.09021759033203,3.067849636077881,0.4924301505088806,-30.475341796875,101.3387222290039, -0.5716211795806885
641,1187684572,0.3843211,-0.6260479,-0.50531167,-0.4527931,18.14957618713379,0.13096116483211517,2.1760103702545166,-84.98649597167969,127.40540313720703, 18.5533390045166
642,1187701239,0.39018646,-0.6224737,-0.49015123,-0.46907696,11.357064247131348,-1.4930071830749512,1.1590640544891357,-68.54236602783203,141.15550231933594, 28.357994079589844
643,1187717906,0.39498305,-0.61822134,-0.4754614,-0.48551798,6.284088611602783,-1.4784165620803833,-1.4189393520355225,-70.3630142211914,139.10829162597656, 20.186302185058594
644,1187734573,0.4000926,-0.6111906,-0.45746356,-0.5070497,7.068639278411865,-1.3563523292541504,-5.053542137145996,-89.21533966064453,180.03854370117188, 12.376754760742188
645,1187751240,0.39649194,-0.6110736,-0.44165686,-0.5237585,1.8321932554244995,-3.2777369022369385,-8.946555137634277,-122.04215240478516,102.26473999023438, 7.803588390350342
646,1187767907,0.40000233,-0.6075629,-0.43475923,-0.5308958,0.8049782514572144,-4.305140018463135,-8.115219116210938,-21.80445671081543,71.65608978271484, 11.738839149475098
647,1187784574,0.40433466,-0.6025913,-0.43128458,-0.53608894,2.4024457931518555,1.5556013584136963,-5.364511489868164,3.868140697479248,61.98969650268555, 1.3838666677474976
648,1187801241,0.39607766,-0.6053739,-0.41928422,-0.54849434,3.648444890975952,5.154781341552734,-2.9769320487976074,-122.60784149169922,49.709415435791016, -6.735889911651611
649,1187817908,0.39236256,-0.6088994,-0.41087285,-0.5536037,2.0583441257476807,-1.7539933919906616,-3.684022903442383,-71.02938079833984,19.877349853515625, 17.518205642700195
650,1187834575,0.3900289,-0.61311346,-0.40598485,-0.5542078,1.2778393030166626,-1.117727518081665,-4.323347568511963,-41.00204086303711,-7.1742377281188965, 22.107999801635742
651,1187851242,0.38753724,-0.61814433,-0.40369478,-0.5520359,2.0103626251220703,-1.7285475730895996,-5.571238040924072,-26.229787826538086,-29.356761932373047, 20.26792335510254
652,1187867909,0.38560563,-0.62336856,-0.40488687,-0.546614,0.676235020160675,1.1891424655914307,-3.38812518119812,-2.1537554264068604,-51.57588195800781, 16.77450942993164
653,1187884576,0.37974742,-0.6298177,-0.40926176,-0.54002464,-0.05023638904094696,3.7574782371520996,-5.097269535064697,-6.999125957489014,-80.52310943603516, -5.10908317565918
654,1187901243,0.36907575,-0.6366719,-0.41210833,-0.5372141,1.8467745780944824,5.795346260070801,3.193458318710327,-45.10655212402344,-75.17455291748047, -25.059417724609375
655,1187917910,0.35516483,-0.6476417,-0.4118889,-0.5336349,1.7808715105056763,-3.693803310394287,-6.16805362701416,-78.7422103881836,-95.1811294555664, -9.949381828308105
656,1187934577,0.35664675,-0.64910686,-0.42484933,-0.52054477,7.241734981536865,2.3389840126037598,-10.454499244689941,88.21723175048828,-91.19390106201172, -15.888816833496094
657,1187951244,0.35739705,-0.64747167,-0.4452745,-0.50475645,9.726858139038086,2.1455559730529785,-3.0550549030303955,127.22657775878906,-112.49976348876953, -54.26710510253906
658,1187967911,0.35703087,-0.6468965,-0.4733702,-0.47955713,10.980331420898438,-6.510373115539551,7.781955242156982,175.16043090820312,-180.35289001464844, -65.94268035888672
659,1187984578,0.3587893,-0.6478631,-0.49342385,-0.45615458,24.244157791137695,-8.275254249572754,2.53939151763916,148.2645263671875,-150.86557006835938, -22.60550308227539
660,1188001245,0.36473158,-0.6487768,-0.5060626,-0.43584475,22.50994110107422,1.4969993829727173,-2.0469589233398438,133.04879760742188,-104.5196762084961, 15.70499038696289
661,1188017912,0.36014035,-0.652658,-0.51368845,-0.4248072,16.146991729736328,-2.912343978881836,-1.1883289813995361,31.348020553588867,-96.18020629882812, -6.4172515869140625
662,1188034579,0.35457906,-0.65758723,-0.51426536,-0.4211702,15.386759757995605,-3.540400743484497,-6.075209617614746,-22.407554626464844,-52.04728317260742, 7.7580413818359375
663,1188051246,0.35214514,-0.660274,-0.51337063,-0.42009878,14.712285995483398,0.8764361143112183,-7.692715167999268,-16.204477310180664,-19.31038475036621, 9.278024673461914
664,1188067913,0.35197067,-0.66047955,-0.511564,-0.42212105,17.276914596557617,2.2960216999053955,-5.666484355926514,-13.452088356018066,12.094979286193848, 3.697460174560547
665,1188084580,0.355669,-0.6581023,-0.50883824,-0.42601085,17.64292335510254,3.9574978351593018,-4.97385835647583,1.212289571762085,43.89963150024414, 5.515252590179443
666,1188101247,0.36242992,-0.6524638,-0.50676054,-0.4314279,18.736324310302734,3.4383656978607178,-3.823730230331421,19.702682495117188,69.46806335449219, -3.5775580406188965
667,1188117914,0.36771345,-0.6476474,-0.50055647,-0.44134283,19.89827537536621,0.331841379404068,-1.0490871667861938,-16.800085067749023,92.30792236328125, 2.22462797164917
668,1188134581,0.3690831,-0.64743745,-0.4844527,-0.45815793,20.092395782470703,-0.2872348129749298,2.434385061264038,-99.67105102539062,120.56431579589844, 32.85160827636719
669,1188151248,0.36834964,-0.64890146,-0.4619995,-0.4793773,15.369248390197754,0.602682888507843,1.592407464981079,-148.00196838378906,143.93072509765625, 48.90113067626953
670,1188167915,0.36714986,-0.648555,-0.44323397,-0.49811807,7.355754375457764,2.911547899246216,-1.8224684000015259,-125.45864868164062,127.95270538330078, 31.436250686645508
671,1188184582,0.37032595,-0.6430164,-0.42539346,-0.5181019,8.777897834777832,-0.13386400043964386,-2.0917441844940186,-93.3846664428711,162.277587890625, 23.353689193725586
672,1188201249,0.37343192,-0.63690645,-0.40977162,-0.53571117,1.4698847532272339,-1.380217432975769,-5.751819610595703,-77.39360809326172,147.95664978027344, 17.67278480529785
673,1188217916,0.3780139,-0.63224244,-0.40168947,-0.5440781,1.5429240465164185,-2.7339119911193848,-7.265704154968262,-20.85213851928711,86.99860382080078, 17.888233184814453
674,1188234583,0.3869757,-0.6252488,-0.4006824,-0.54659665,2.439596176147461,-0.23761865496635437,-7.959244251251221,46.79932403564453,64.06739807128906, 12.263606071472168
675,1188251250,0.39323124,-0.6198232,-0.39962688,-0.54907864,3.938856601715088,4.376654148101807,-5.843266487121582,30.911531448364258,50.762596130371094, 6.721413612365723
676,1188267917,0.3954728,-0.6173859,-0.39825076,-0.55121017,1.9430131912231445,3.546889066696167,-2.9718356132507324,5.602800369262695,27.86989402770996, 2.1384170055389404
677,1188284584,0.39678413,-0.6165459,-0.3991977,-0.5505227,0.8903207778930664,1.2372177839279175,-2.987447738647461,13.915614128112793,1.0094293355941772, 0.8263880014419556
678,1188301251,0.39881492,-0.615528,-0.404133,-0.54657924,0.9205344319343567,-1.948332667350769,-4.148371696472168,41.51731491088867,-20.997926712036133, -4.952099323272705
679,1188317918,0.40440184,-0.6113723,-0.4152059,-0.53878343,1.1314836740493774,1.5014220476150513,-4.356131076812744,98.90498352050781,-32.41750717163086, -15.740541458129883
680,1188334585,0.40408784,-0.61074066,-0.42474943,-0.5322568,1.395941138267517,3.660088062286377,-4.321493625640869,55.04884719848633,-52.68793487548828, -24.63135528564453
681,1188351252,0.39950866,-0.6119316,-0.43430823,-0.5266019,0.8391039371490479,4.461040496826172,-1.1461350917816162,29.68608856201172,-68.15607452392578, -37.379493713378906
682,1188367919,0.39171872,-0.6157398,-0.44161972,-0.52191323,0.5650205612182617,0.30246734619140625,-2.4228267669677734,-1.9256367683410645,-76.97062683105469, -34.361900329589844
683,1188384586,0.38975132,-0.6176141,-0.45257315,-0.5116882,4.038803577423096,-3.61730694770813,-4.182153701782227,57.83082962036133,-85.5739517211914, -19.86257553100586
684,1188401253,0.38804102,-0.6190833,-0.46658838,-0.49845335,9.164693832397461,0.07295017689466476,-7.768125057220459,80.07539367675781,-104.29984283447266, -25.20101547241211
685,1188417920,0.39470682,-0.6155372,-0.49168015,-0.47283345,9.74863338470459,-4.664304733276367,-0.7388371825218201,206.85362243652344,-142.4744110107422, -26.721343994140625
686,1188434587,0.39872628,-0.61397904,-0.5167609,-0.4438533,14.388915061950684,-4.3548126220703125,4.605998992919922,201.46893310546875,-172.09390258789062, -19.49834442138672
