PacketCounter,SampleTimeFine,Quat_W,Quat_X,Quat_Y,Quat_Z,Acc_X,Acc_Y,Acc_Z,Gyr_X,Gyr_Y,Gyr_Z 
2,99815129,0.7698098,0.17803037,-0.59157234,0.1604385,9.552436828613281,0.8418914079666138,2.336874485015869,0.871145486831665,-0.18274660408496857, -0.14775967597961426
3,99831796,0.76978415,0.17829415,-0.591508,0.16050518,9.535187721252441,0.8509592413902283,2.3144469261169434,0.883273184299469,-0.3224126696586609, -0.1721813678741455
4,99848463,0.76972127,0.17852873,-0.59155715,0.16036497,9.55363941192627,0.8655616641044617,2.3258206844329834,0.8658949136734009,-0.21482650935649872, -0.2898717224597931
5,99865130,0.7695318,0.1793026,-0.59142846,0.16088471,9.542448043823242,0.8412163257598877,2.320612907409668,1.05405855178833,-0.21232926845550537, -0.25461581349372864
6,99881797,0.76956743,0.1791436,-0.5915696,0.16037136,9.544500350952148,0.8812806010246277,2.3020758628845215,1.1274775266647339,-0.22687727212905884, -0.26187703013420105
7,99898464,0.76961076,0.17891796,-0.59176624,0.15968835,9.559858322143555,0.8894402980804443,2.2975683212280273,1.119985580444336,-0.3203636109828949, -0.25341203808784485
8,99915131,0.7695616,0.17900723,-0.59187716,0.15941438,9.552711486816406,0.9035442471504211,2.339024782180786,1.064995288848877,-0.30831286311149597, -0.16460002958774567
9,99931798,0.7694994,0.17922008,-0.5919102,0.15935239,9.562480926513672,0.8944021463394165,2.3188822269439697,0.8718754649162292,-0.4333796799182892, 0.0021706761326640844
10,99948465,0.76949936,0.17916676,-0.5920206,0.15900251,9.552742004394531,0.8910283446311951,2.336434841156006,0.8666889071464539,-0.4870254695415497, 0.12490672618150711
11,99965132,0.76950127,0.17915165,-0.59208363,0.1587754,9.565605163574219,0.8738844990730286,2.306623935699463,0.8583135604858398,-0.3728184401988983, 0.22952178120613098
12,99981799,0.76954716,0.17894584,-0.5921954,0.15836743,9.556594848632812,0.8867929577827454,2.309969902038574,0.9301955699920654,-0.2400934249162674, 0.3159262537956238
13,99998466,0.7695798,0.17880797,-0.59227145,0.15807986,9.555130958557129,0.887195885181427,2.3145077228546143,0.9010483026504517,-0.11612796783447266, 0.33293306827545166
14,100015133,0.7695432,0.17893654,-0.592256,0.15817091,9.562682151794434,0.8704269528388977,2.308539867401123,0.8535239696502686,-0.05055946484208107, 0.3748738467693329
15,100031800,0.7695717,0.17881276,-0.59232223,0.15792324,9.547541618347168,0.8444486260414124,2.302910327911377,0.9579982757568359,-0.08295954763889313, 0.25338003039360046
16,100048467,0.76936734,0.1795868,-0.5921033,0.15885961,9.546868324279785,0.8467546701431274,2.33284854888916,1.1588913202285767,0.053767457604408264, 0.20581723749637604
17,100065134,0.76948076,0.1791697,-0.5922419,0.15826331,9.542231559753418,0.8658236265182495,2.332693338394165,0.924022912979126,-0.009105314500629902, 0.11079412698745728
18,100081801,0.7695477,0.17890236,-0.59234494,0.15785362,9.549196243286133,0.8630744218826294,2.3275420665740967,0.7319532632827759,-0.15882433950901031, 0.018588414415717125
19,100098468,0.7696331,0.17858988,-0.59245485,0.15737784,9.551970481872559,0.8564676642417908,2.340073823928833,0.8805838227272034,-0.11094140261411667, -0.021207313984632492
20,100115135,0.7696029,0.17868948,-0.59244865,0.15743577,9.548250198364258,0.8620185256004333,2.3180112838745117,0.9347546100616455,-0.20983202755451202, -0.03282267600297928
21,100131802,0.7694347,0.17934054,-0.5922656,0.15820432,9.535876274108887,0.8885149955749512,2.3172621726989746,1.0224398374557495,-0.11240134388208389, -0.07621058821678162
22,100148469,0.7694015,0.17945093,-0.59225935,0.1582644,9.575203895568848,0.871468722820282,2.325362205505371,0.9122154116630554,-0.2339719980955124, -0.07987320423126221
23,100165136,0.7692339,0.18004155,-0.5921106,0.15896448,9.567248344421387,0.877968966960907,2.3405890464782715,1.0446971654891968,-0.24658623337745667, 0.022545579820871353
24,100181803,0.769296,0.17979106,-0.5922129,0.15856475,9.542683601379395,0.8848398923873901,2.31046986579895,0.8666120767593384,-0.2442682981491089, -0.061432063579559326
25,100198470,0.76927996,0.1798731,-0.59219867,0.15860277,9.550891876220703,0.8654587268829346,2.291857957839966,0.8771516680717468,-0.10124699026346207, -0.0579359270632267
26,100215137,0.7692522,0.17998485,-0.5921714,0.15871258,9.571928977966309,0.867555558681488,2.317260503768921,0.9200401306152344,-0.03838062658905983, 0.08105779439210892
27,100231804,0.76906073,0.18070914,-0.5919576,0.15961212,9.54675006866455,0.8679922819137573,2.322324275970459,1.0510746240615845,-0.022513560950756073, 0.07676766067743301
28,100248471,0.7690141,0.18090567,-0.59189606,0.15984237,9.551063537597656,0.8776469826698303,2.331476926803589,0.9181960225105286,0.03170211613178253, 0.09204563498497009
29,100265138,0.7687569,0.18186422,-0.5916087,0.16105084,9.554046630859375,0.8807593584060669,2.3326802253723145,0.8809679746627808,-0.04771645739674568, 0.05093725025653839
30,100281805,0.7688762,0.18138066,-0.59178233,0.16038796,9.567075729370117,0.8702928423881531,2.3344480991363525,0.8866155743598938,-0.21086934208869934, 0.10375063866376877
31,100298472,0.7689982,0.18088149,-0.5919667,0.15968467,9.569013595581055,0.8735955357551575,2.33154034614563,0.9183242917060852,-0.26699963212013245, 0.02860298566520214
32,100315139,0.76883876,0.18142429,-0.5918302,0.16034095,9.544312477111816,0.8574190139770508,2.3069651126861572,0.9177349805831909,-0.25311750173568726, 0.048196692019701004
33,100331806,0.7689378,0.1810418,-0.59196913,0.15978481,9.5609712600708,0.860120415687561,2.3074188232421875,0.9859800934791565,-0.17301379144191742, -0.007094718050211668
34,100348473,0.76893836,0.18103556,-0.59198684,0.1597236,9.56770133972168,0.8751324415206909,2.3202741146087646,1.0488464832305908,-0.10986566543579102, 0.013670777902007103
35,100365140,0.7692391,0.1799187,-0.5923425,0.15821157,9.55612850189209,0.859355092048645,2.3328421115875244,0.9182729721069336,-0.11548766493797302, -0.05669371411204338
36,100381807,0.7693935,0.17933483,-0.59254044,0.1573801,9.54841423034668,0.8694331049919128,2.3338844776153564,0.9187338948249817,-0.16732776165008545, -0.1047431230545044
37,100398474,0.76965183,0.17832893,-0.5928775,0.15598503,9.547942161560059,0.8753358125686646,2.3188276290893555,0.8892536759376526,-0.283263623714447, -0.15662164986133575
38,100415141,0.7695826,0.17856903,-0.5928357,0.15621,9.553934097290039,0.859846830368042,2.346712112426758,0.8379899263381958,-0.2604939937591553, -0.16465124487876892
39,100431808,0.76964337,0.17829919,-0.59295255,0.15577489,9.585561752319336,0.8695244789123535,2.352137565612793,1.0711294412612915,-0.29033273458480835, -0.09521521627902985
40,100448475,0.7696951,0.17811057,-0.59302986,0.15544036,9.574939727783203,0.8693730235099792,2.3064703941345215,1.1199471950531006,-0.1670588254928589, -0.1386031210422516
41,100465142,0.7695651,0.1786713,-0.5928645,0.15607028,9.549033164978027,0.874132513999939,2.2738053798675537,1.2441047430038452,-0.0019849843811243773, -0.1837967336177826
42,100481809,0.7695362,0.17886256,-0.59279346,0.15626344,9.56160831451416,0.9033238291740417,2.3060495853424072,1.3230175971984863,0.1608029305934906, -0.007376456633210182
43,100498476,0.7695679,0.17885481,-0.59276533,0.15622288,9.663642883300781,0.9185197353363037,2.37904953956604,1.1883972883224487,0.29661428928375244, 0.04067936912178993
44,100515143,0.7695111,0.17920446,-0.59260154,0.15672255,9.68414306640625,0.8724284172058105,2.375838041305542,1.303936243057251,0.5321871042251587, 0.36078688502311707
45,100531810,0.7694444,0.17963073,-0.59237075,0.1574325,9.71572208404541,0.8062847256660461,2.3716275691986084,1.6447898149490356,0.9242278337478638, 0.8406023979187012
46,100548477,0.7695097,0.17960238,-0.5922256,0.15769108,9.628135681152344,0.7885861992835999,2.3060336112976074,2.6825907230377197,1.4566261768341064, 1.5820003747940063
47,100565144,0.76962334,0.17948629,-0.5920869,0.15779062,9.365151405334473,0.9702865481376648,2.192737340927124,3.208906888961792,1.6835294961929321, 1.4439226388931274
48,100581811,0.7695351,0.18010342,-0.59173745,0.15882479,9.294780731201172,1.0120197534561157,2.2549123764038086,2.8064796924591064,1.5676318407058716, 1.3210582733154297
49,100598478,0.7695642,0.18011823,-0.59164697,0.1590042,9.367623329162598,0.9686972498893738,2.48285174369812,1.7043651342391968,0.8298706412315369, 0.9349212050437927
50,100615145,0.7698049,0.17946158,-0.59174645,0.15820964,9.72142505645752,0.7219956517219543,2.6641364097595215,1.012284278869629,0.8428434729576111, 0.3114824593067169
51,100631812,0.76998293,0.1795894,-0.5914314,0.15837625,9.912439346313477,0.7332959175109863,2.6637282371520996,1.6961820125579834,2.3307876586914062, -0.1973586529493332
52,100648479,0.770215,0.18011518,-0.5908497,0.15882042,9.555456161499023,0.7603114247322083,2.4764838218688965,3.2853477001190186,3.655579090118408, -1.226656198501587
53,100665146,0.77081895,0.17928754,-0.5907759,0.15709268,9.48880672454834,0.6597899198532104,2.2314577102661133,5.259665489196777,3.0177464485168457, -2.3781139850616455
54,100681813,0.77104354,0.18025225,-0.5901184,0.15735781,9.526825904846191,0.7082821130752563,2.144918918609619,8.102867126464844,3.6418514251708984, -3.326833963394165
55,100698480,0.7710847,0.18189032,-0.5893649,0.15809298,9.457538604736328,0.9016473293304443,2.145746946334839,12.377182960510254,3.162574529647827, -3.8929529190063477
56,100715147,0.77124643,0.18363184,-0.588492,0.15854187,9.52196216583252,1.1299209594726562,2.618896961212158,16.163043975830078,4.28721809387207, -5.008670806884766
57,100731814,0.77129924,0.18634936,-0.58712834,0.16016155,9.719300270080566,0.9958392381668091,2.513164520263672,16.608936309814453,5.808511734008789, -5.730117321014404
58,100748481,0.77145886,0.18875468,-0.58582175,0.16135709,9.664294242858887,0.8391902446746826,2.622062921524048,18.542165756225586,6.285486698150635, -5.38739538192749
59,100765148,0.7714096,0.19158117,-0.58450574,0.16302516,9.435555458068848,1.2497096061706543,2.6873934268951416,15.64250659942627,4.827915668487549, -6.223880290985107
60,100781815,0.7715309,0.19306877,-0.58392715,0.16276932,9.229050636291504,1.1164277791976929,2.473720073699951,12.07460880279541,1.866904616355896, -7.1225385665893555
61,100798482,0.77115643,0.19559734,-0.5831379,0.16434678,9.303016662597656,0.8738324642181396,2.3932249546051025,5.488475799560547,-0.03863676264882088, -6.422820568084717
62,100815149,0.77122664,0.19530565,-0.5834119,0.16338897,9.4375581741333,0.6436938643455505,1.9532123804092407,-5.175058841705322,-2.273562431335449, -3.5501253604888916
63,100831816,0.7708354,0.19504043,-0.5839464,0.16364303,9.509535789489746,0.6777661442756653,1.9955155849456787,-15.806201934814453,-5.665624141693115, -0.4369658827781677
64,100848483,0.77028376,0.19451644,-0.5847644,0.16394207,9.40114974975586,1.1713414192199707,2.7324540615081787,-23.057531356811523,-8.050100326538086, -0.1198420599102974
65,100865150,0.7700889,0.19250366,-0.58604586,0.16265239,9.526230812072754,1.105555772781372,2.9033944606781006,-28.54111671447754,-8.437119483947754, 0.16029119491577148
66,100881817,0.7702586,0.18898374,-0.58774894,0.15980783,9.48281478881836,0.673050045967102,2.775178909301758,-28.498865127563477,-7.956239223480225, 1.944502830505371
67,100898484,0.7702139,0.18692735,-0.58895814,0.15797797,9.402000427246094,1.0085082054138184,2.245760440826416,-14.968805313110352,-6.461129665374756, 1.1551657915115356
68,100915151,0.7696971,0.18622446,-0.5900958,0.15707912,9.364557266235352,1.867798924446106,1.669098138809204,-8.458906173706055,-8.792588233947754, -0.21692685782909393
69,100931818,0.7687378,0.18852833,-0.5902615,0.15840088,9.250582695007324,2.111067295074463,1.717353343963623,12.351547241210938,-6.366681098937988, -2.689565658569336
70,100948485,0.7679765,0.19016325,-0.5905455,0.15907934,8.616250991821289,1.7899378538131714,0.8363317251205444,16.99993133544922,-5.034003257751465, -0.6053953170776367
71,100965152,0.76695347,0.19188204,-0.59084874,0.1608151,9.079828262329102,1.077594518661499,0.3965454697608948,8.223811149597168,-6.248232364654541, 1.7628775835037231
72,100981819,0.7661971,0.19450487,-0.59032524,0.16317536,10.303370475769043,0.46499869227409363,2.1436734199523926,18.586870193481445,-0.5149439573287964, 0.6123939752578735
73,100998486,0.76557904,0.19888406,-0.58859044,0.16701949,8.832889556884766,-0.8713416457176208,3.649888277053833,32.0235710144043,6.118532180786133, -1.2682431936264038
74,101015153,0.76500195,0.20460364,-0.58617365,0.1712015,8.533445358276367,1.4918476343154907,3.8604533672332764,45.63758087158203,9.084107398986816, -5.071635723114014
75,101031820,0.7647922,0.20831363,-0.5847744,0.17244521,7.87606143951416,2.287810802459717,4.535001754760742,26.733173370361328,3.8356220722198486, -10.135077476501465
76,101048487,0.76456326,0.2115373,-0.5840245,0.17207775,7.293761253356934,2.221112012863159,4.374189853668213,10.250940322875977,-2.4910688400268555, -17.141847610473633
77,101065154,0.7650244,0.21252795,-0.5842291,0.16806494,9.25936508178711,0.28668323159217834,2.8596091270446777,-10.698236465454102,-6.715668678283691, -24.845975875854492
78,101081821,0.76560056,0.21292865,-0.58453715,0.16381076,11.48609447479248,0.87944495677948,1.4054149389266968,-15.988177299499512,-6.645057201385498, -24.06200408935547
79,101098488,0.76698536,0.21092945,-0.5848902,0.15857457,12.977151870727539,-0.879525899887085,0.05000424012541771,-34.19219207763672,-2.268068313598633, -20.59636116027832
80,101115155,0.768638,0.20867568,-0.58503866,0.15290524,11.946648597717285,0.01382108312100172,0.5401520133018494,-9.386438369750977,3.9157187938690186, -16.090198516845703
81,101131822,0.7693062,0.21047993,-0.5832885,0.15375663,9.819125175476074,3.1677966117858887,1.5781694650650024,-4.291078090667725,8.561544418334961, -10.706666946411133
82,101148489,0.7707512,0.20872484,-0.5824426,0.15210907,9.357548713684082,3.432034492492676,1.5780819654464722,-7.279351234436035,11.293703079223633, -2.2794036865234375
83,101165156,0.7714499,0.2080505,-0.5812711,0.15396082,9.785137176513672,2.9920051097869873,1.9365646839141846,-3.826629400253296,11.344890594482422, 8.148218154907227
84,101181823,0.77181524,0.2065041,-0.58066446,0.15648134,9.429208755493164,3.2813267707824707,3.0795414447784424,-3.5034890174865723,9.322144508361816, 17.064617156982422
85,101198490,0.7722564,0.20329292,-0.580711,0.15832523,9.04824447631836,2.4299156665802,3.0514044761657715,-13.098724365234375,7.336884498596191, 21.822372436523438
86,101215157,0.77313805,0.19819982,-0.58116555,0.15881178,9.51253604888916,1.2650516033172607,2.545532703399658,-29.894718170166016,6.983260631561279, 22.23261260986328
87,101231824,0.77448046,0.19299111,-0.58113897,0.15878272,9.691359519958496,0.08538718521595001,2.490292549133301,-33.35769271850586,10.727407455444336, 18.600757598876953
88,101248491,0.77627194,0.18867119,-0.58009493,0.15904324,10.01933765411377,-0.616741955280304,2.646684169769287,-26.318117141723633,17.444351196289062, 14.789198875427246
89,101265158,0.7786717,0.18419893,-0.5783191,0.1590227,10.104100227355957,-0.3290124833583832,2.660292387008667,-22.566492080688477,24.211904525756836, 13.626805305480957
90,101281825,0.78153133,0.17893371,-0.5761892,0.15873702,9.455436706542969,0.9486970901489258,2.5510785579681396,-31.667966842651367,28.076313018798828, 13.293447494506836
91,101298492,0.78486156,0.1724277,-0.5739229,0.15771426,9.454940795898438,1.099635362625122,2.6132986545562744,-44.106571197509766,30.896657943725586, 12.857234001159668
92,101315159,0.7883985,0.1645927,-0.5718734,0.15587768,9.03546142578125,1.3490675687789917,2.3804686069488525,-52.40382766723633,31.281539916992188, 14.498213768005371
93,101331826,0.79151976,0.15773937,-0.56976765,0.15485391,9.016801834106445,0.4922729730606079,2.8717355728149414,-42.98149108886719,29.881141662597656, 15.5875825881958
94,101348493,0.7937491,0.15304337,-0.5678777,0.1550973,8.316293716430664,0.7281895875930786,4.100096702575684,-25.36659812927246,24.29619598388672, 15.248756408691406
95,101365160,0.7948019,0.14981912,-0.56724036,0.15518525,8.265061378479004,0.43520474433898926,4.711956977844238,-18.12071418762207,11.011042594909668, 11.207198143005371
96,101381827,0.79416406,0.14850293,-0.5684399,0.15532656,8.8731050491333,0.309061199426651,4.922893524169922,-7.68965482711792,-7.75943660736084, 7.741603851318359
97,101398494,0.7916209,0.14944047,-0.5715771,0.1558973,9.548955917358398,0.6279026865959167,4.776657581329346,6.1848530769348145,-27.90959358215332, 5.270553112030029
98,101415161,0.78676945,0.15455593,-0.57571435,0.16018517,12.745330810546875,2.177220106124878,5.328573226928711,44.83608627319336,-43.20924377441406, 12.590770721435547
99,101431828,0.7804665,0.15981127,-0.581124,0.16621554,10.84376049041748,6.425137042999268,7.695666313171387,52.580806732177734,-54.238372802734375, 24.523698806762695
100,101448495,0.77426344,0.16685691,-0.5855182,0.17275202,10.356249809265137,6.052115440368652,6.2456183433532715,63.082679748535156,-50.329376220703125, 18.745868682861328
101,101465162,0.7673262,0.18590093,-0.58527327,0.18467955,11.943806648254395,7.928472995758057,1.7157710790634155,156.0382080078125,-36.81217956542969, -4.53887939453125
102,101481829,0.7568136,0.21771228,-0.5812801,0.20481218,13.041914939880371,8.03106689453125,0.005544066429138184,268.4668884277344,-36.71794509887695, -11.58572006225586
103,101498496,0.74113464,0.2564826,-0.5765796,0.22911169,9.98698616027832,10.49934196472168,-1.4639174938201904,330.9200744628906,-56.67924880981445, -10.782431602478027
104,101515163,0.72307056,0.28895605,-0.5775995,0.2450558,11.794219970703125,9.077672004699707,-7.556180000305176,258.0110168457031,-99.87601470947266, -14.46127986907959
105,101531830,0.71118677,0.30612442,-0.5861784,0.2385293,8.862445831298828,17.993919372558594,1.930859088897705,67.51470947265625,-130.8734130859375, -60.27705001831055
106,101548497,0.7122842,0.30358472,-0.5973474,0.20895852,6.173202037811279,5.772486686706543,8.413168907165527,-153.36280822753906,-107.56385803222656, -108.13390350341797
107,101565164,0.72407115,0.2880329,-0.6039562,0.16731769,3.062558174133301,0.14580479264259338,9.877324104309082,-282.3265075683594,-48.75797653198242, -138.41432189941406
108,101581831,0.74066263,0.26812223,-0.60234284,0.12927687,2.866136074066162,-8.724112510681152,7.1415910720825195,-288.91961669921875,23.184877395629883, -124.39224243164062
109,101598498,0.75755644,0.2549541,-0.59092003,0.10918049,5.195235252380371,-11.39728832244873,6.174920082092285,-171.85433959960938,100.75326538085938, -80.13807678222656
110,101615165,0.773086,0.24948859,-0.57319146,0.107448496,8.851517677307129,-9.887388229370117,3.571357250213623,-49.812400817871094,154.02362060546875, -26.845733642578125
111,101631832,0.78662664,0.24929656,-0.55292434,0.11551808,11.775788307189941,-2.4146130084991455,2.523632049560547,22.28108787536621,172.5101318359375, 0.6832339763641357
112,101648499,0.7991171,0.24695863,-0.533937,0.12383365,12.921775817871094,0.08155164867639542,2.703871250152588,12.41084098815918,163.79669189453125, 12.804443359375
113,101665166,0.81041205,0.24287377,-0.5175761,0.12790614,12.619656562805176,2.869121789932251,0.3917141556739807,-12.978108406066895,139.3754119873047, 1.1290792226791382
114,101681833,0.8218329,0.23288052,-0.50535893,0.122350104,10.966560363769531,2.1569151878356934,-2.775327205657959,-84.11581420898438,106.14317321777344, -24.771493911743164
115,101698500,0.8312222,0.2207167,-0.49785736,0.111767106,9.658222198486328,2.627345561981201,-3.594728708267212,-114.68046569824219,66.68889617919922, -36.48896408081055
116,101715167,0.8370257,0.21082556,-0.49464762,0.10131361,8.409088134765625,2.2723188400268555,-5.147336006164551,-99.24514770507812,28.835071563720703, -34.304412841796875
117,101731834,0.8380994,0.20900232,-0.49477974,0.095397726,8.117485046386719,1.1632710695266724,-6.438110828399658,-33.00876235961914,-4.951684474945068, -27.509756088256836
118,101748501,0.83416903,0.21854044,-0.49725816,0.09558652,8.68336296081543,1.765934944152832,-7.036839008331299,58.73435592651367,-33.51770782470703, -24.405853271484375
119,101765168,0.8266669,0.2344493,-0.5019203,0.09865027,8.771195411682129,3.9704785346984863,-5.300485134124756,108.86617279052734,-57.41438674926758, -24.142086029052734
120,101781835,0.817542,0.24878916,-0.509948,0.09839887,7.897995471954346,5.344973564147949,-5.5005035400390625,88.63993835449219,-85.8409423828125, -31.00247573852539
121,101798502,0.80924165,0.25240132,-0.5229958,0.08886514,7.784764289855957,3.975105047225952,-6.39844274520874,-9.248374938964844,-119.25440979003906, -37.36404037475586
122,101815169,0.7990783,0.25127187,-0.54092985,0.07570572,8.716955184936523,3.3137474060058594,-11.823458671569824,-48.62919616699219,-155.99551391601562, -30.726001739501953
123,101831836,0.7880691,0.25297102,-0.5573906,0.06533633,19.72568130493164,1.5020768642425537,11.077264785766602,-20.7623348236084,-146.8039093017578, -27.906635284423828
124,101848503,0.77409106,0.26068237,-0.5739818,0.058075834,20.988182067871094,-1.4561917781829834,-0.5731652975082397,29.079763412475586,-156.56686401367188, -32.85956954956055
125,101865170,0.76223415,0.2525582,-0.5945188,0.041965745,17.31785011291504,-2.952894687652588,3.2480573654174805,-95.49998474121094,-178.41505432128906, -11.737336158752441
126,101881837,0.7495188,0.24973264,-0.6123385,0.029951563,16.542861938476562,-8.159265518188477,1.4738022089004517,-48.61054229736328,-162.1143035888672, -16.878259658813477
127,101898504,0.73693085,0.25324836,-0.6262722,0.024112733,10.740093231201172,3.8573012351989746,-1.4346503019332886,10.731548309326172,-132.20919799804688, -19.302043914794922
128,101915171,0.7272121,0.25597417,-0.63660467,0.01935235,10.486995697021484,4.037567615509033,-1.5360544919967651,6.881003379821777,-99.46961975097656, -17.150150299072266
129,101931838,0.71910614,0.26064593,-0.6439152,0.01798556,9.991447448730469,5.342377185821533,-1.2779871225357056,28.961132049560547,-71.48143005371094, -14.204445838928223
130,101948505,0.7130668,0.26259056,-0.64985967,0.016260082,8.891873359680176,6.540594100952148,-0.41655728220939636,10.302379608154297,-55.8169059753418, -6.496978759765625
131,101965172,0.70842725,0.2606552,-0.6557594,0.013018902,8.553977012634277,6.796908378601074,-0.09324847161769867,-18.014986038208008,-51.639549255371094, 3.4024205207824707
132,101981839,0.7044932,0.25593424,-0.6619003,0.008670369,8.90654182434082,6.067498207092285,-0.6178902387619019,-37.84680938720703,-51.389503479003906, 11.213348388671875
133,101998506,0.700217,0.2514201,-0.66817695,0.0048789917,9.583381652832031,4.338283061981201,-0.6929072141647339,-33.693756103515625,-52.62696075439453, 13.456034660339355
134,102015173,0.6952383,0.24723935,-0.6749189,0.0011228216,10.122673034667969,2.3703858852386475,0.03413674980401993,-30.702486038208008,-58.03908920288086, 13.01823616027832
135,102031840,0.6893635,0.24514325,-0.68167293,-0.0021757465,10.574555397033691,0.8685570955276489,-0.98966383934021,-17.061363220214844,-61.54875564575195, 5.51259183883667
136,102048507,0.682116,0.24825089,-0.68780977,-0.0026775852,10.769669532775879,0.49798962473869324,-1.0472184419631958,23.01963233947754,-60.2668571472168, -6.858964443206787
137,102065174,0.6743666,0.25398362,-0.6933402,-0.0012362895,10.693684577941895,1.2146151065826416,-1.290141224861145,45.34758758544922,-56.45526123046875, -11.437478065490723
138,102081841,0.66687053,0.26081604,-0.69803756,0.001605781,9.769927978515625,1.7560523748397827,-1.6114386320114136,56.659542083740234,-48.95484924316406, -11.839402198791504
139,102098508,0.6601019,0.26669922,-0.702225,0.0041458406,8.83070182800293,4.183864116668701,-1.657680869102478,49.53328323364258,-43.67548751831055, -9.73929214477539
140,102115175,0.65397155,0.27065608,-0.7064259,0.0053824997,9.104659080505371,4.776870250701904,-1.7762435674667358,33.3282585144043,-43.00218200683594, -6.3137383460998535
141,102131842,0.64796245,0.2729373,-0.71106815,0.0056713354,9.382745742797852,4.607169151306152,-0.7121400833129883,20.96518898010254,-46.1120719909668, -1.5429741144180298
142,102148509,0.64146733,0.2738923,-0.7165784,0.004279042,9.019036293029785,3.9075241088867188,-1.0751368999481201,7.753414630889893,-55.5443000793457, -0.8262235522270203
143,102165176,0.63429016,0.27358904,-0.7230655,0.0013264989,9.301804542541504,2.4534690380096436,-0.33491870760917664,-4.196834087371826,-66.1799545288086, 0.40368157625198364
144,102181843,0.6257019,0.27418894,-0.73028487,-0.0012996591,9.765729904174805,1.9786663055419922,-0.7106034159660339,4.039531230926514,-75.90946960449219, -1.308694839477539
145,102198510,0.61553323,0.27637014,-0.7380577,-0.0030704604,9.846278190612793,2.4900617599487305,-0.23786798119544983,18.135469436645508,-84.72159576416016, -4.621716499328613
146,102215177,0.6039887,0.279724,-0.74627864,-0.004541453,10.280664443969727,2.822192668914795,-0.5672528743743896,27.27020835876465,-93.17657470703125, -8.538714408874512
147,102231844,0.59049886,0.28418228,-0.75533086,-0.0051989662,10.002874374389648,3.055262327194214,-0.36703774333000183,39.82066345214844,-105.1869125366211, -9.340780258178711
148,102248511,0.5744287,0.2899944,-0.76544523,-0.0053591514,9.848798751831055,3.7771735191345215,0.4384758174419403,53.01606750488281,-122.08513641357422, -12.404484748840332
149,102265178,0.5560615,0.2966859,-0.77636546,-0.005505408,10.417826652526855,2.916461229324341,0.2566881775856018,61.23301696777344,-137.568359375, -15.442719459533691
150,102281845,0.53497493,0.30526823,-0.7877772,-0.0045227753,11.18057632446289,3.096444606781006,1.1687324047088623,80.10334777832031,-151.89015197753906, -20.369977951049805
151,102298512,0.51070356,0.31593448,-0.79960203,-0.0019989922,13.552630424499512,4.653590679168701,4.853110313415527,102.8860855102539,-167.7663116455078, -25.270944595336914
152,102315179,0.48206878,0.32957432,-0.81178015,0.0019531067,17.355670928955078,4.575125694274902,6.5767951011657715,130.8594207763672,-190.56097412109375, -35.896610260009766
153,102331846,0.4495036,0.34793267,-0.8226528,0.0114848,24.072834014892578,3.3379645347595215,10.110374450683594,186.8188934326172,-196.55560302734375, -46.692237854003906
154,102348513,0.41505617,0.36650768,-0.83233315,0.024946354,29.299312591552734,4.735649585723877,11.874279022216797,214.5973663330078,-195.55735778808594, -38.61557388305664
155,102365180,0.38228488,0.37877962,-0.8421485,0.034211528,26.72535514831543,7.416613578796387,12.248188018798828,168.66998291015625,-197.58517456054688, -14.512237548828125
156,102381847,0.35284236,0.38540012,-0.85139096,0.04585316,12.268661499023438,-0.6113849878311157,2.1818785667419434,159.46142578125,-170.9608917236328, 22.362457275390625
157,102398514,0.32262546,0.39975947,-0.85476846,0.074000776,24.207609176635742,4.829297065734863,-3.5223469734191895,278.7662048339844,-120.62635803222656, 1.9751321077346802
158,102415181,0.30980536,0.4032619,-0.85687274,0.08467527,13.320586204528809,8.201017379760742,3.228623151779175,104.90766143798828,-59.01678466796875, 14.990449905395508
159,102431848,0.30624363,0.40475035,-0.8566974,0.09198672,8.831056594848633,2.6643686294555664,3.119126558303833,56.82970428466797,-8.471923828125, 8.369171142578125
160,102448515,0.3111762,0.40519175,-0.8535937,0.10181897,4.992273807525635,2.1973955631256104,4.1853132247924805,47.80869674682617,54.93192672729492, 6.484085559844971
161,102465182,0.32351214,0.40512583,-0.84737396,0.1147638,2.8558435440063477,3.67448091506958,4.799737453460693,46.645790100097656,113.76412200927734, 2.4377353191375732
162,102481849,0.3440893,0.40315714,-0.83857626,0.12592427,3.1913325786590576,3.6193161010742188,1.874793291091919,11.24648666381836,163.8210906982422, -3.8940389156341553
163,102498516,0.37039915,0.40039277,-0.826742,0.13779646,3.7816810607910156,3.4053561687469482,-2.1766250133514404,0.32504215836524963,206.60263061523438, -10.801620483398438
164,102515183,0.40327594,0.39565536,-0.8120554,0.14625873,4.55499267578125,4.378118515014648,-2.0472006797790527,-39.38175964355469,243.71612548828125, -22.19280433654785
165,102531850,0.4418818,0.38803425,-0.79466933,0.15056798,4.673303127288818,3.201300621032715,-1.7117860317230225,-83.34396362304688,274.80523681640625, -30.595067977905273
166,102548517,0.48447967,0.37830713,-0.77412367,0.15131387,6.48347806930542,2.730499029159546,-3.1778182983398438,-116.54936218261719,298.8987121582031, -42.48654556274414
167,102565184,0.5301839,0.36635977,-0.7499683,0.14910804,7.951696395874023,2.667226552963257,-3.744018793106079,-143.94998168945312,322.14501953125, -53.22785949707031
168,102581851,0.57736236,0.3514907,-0.72237253,0.14589532,9.388558387756348,-0.4332164525985718,-4.9831719398498535,-159.95669555664062,342.83477783203125, -52.16216278076172
169,102598518,0.61959493,0.34203222,-0.6898326,0.15247004,11.314830780029297,-0.4485155940055847,-6.013921737670898,-72.92842102050781,356.285888671875, -47.40427780151367
170,102615185,0.65897757,0.3346742,-0.6534788,0.16342394,13.297616004943848,0.006133291870355606,-6.48246955871582,-32.50920486450195,367.4092712402344, -44.81044387817383
171,102631852,0.69548357,0.32639056,-0.6155916,0.17555304,15.737014770507812,1.1015329360961914,-7.5250067710876465,-23.141658782958984,365.5404052734375, -35.68455123901367
172,102648519,0.7294958,0.31368625,-0.578795,0.18556225,18.137311935424805,1.6921348571777344,-9.216095924377441,-49.07292938232422,350.834228515625, -21.714855194091797
173,102665186,0.7602437,0.29674467,-0.5451945,0.19166428,17.619417190551758,4.42049503326416,-11.28041934967041,-83.11674499511719,319.4415283203125, -13.539420127868652
174,102681853,0.7870308,0.2787294,-0.51588887,0.19170652,16.575782775878906,5.145238399505615,-13.14484977722168,-109.21013641357422,272.0563659667969, -27.25614356994629
175,102698520,0.8081696,0.26520315,-0.49088156,0.18858619,14.412505149841309,3.998260021209717,-14.131826400756836,-91.24496459960938,217.7874755859375, -44.6302490234375
176,102715187,0.8236219,0.25514138,-0.47216138,0.18333977,12.121596336364746,3.4337003231048584,-15.018553733825684,-77.20404052734375,156.36399841308594, -49.32172393798828
177,102731854,0.8332323,0.24806154,-0.46086878,0.1782964,10.662215232849121,1.7797017097473145,-17.299728393554688,-59.063175201416016,93.01970672607422, -37.471920013427734
178,102748521,0.8354737,0.24915308,-0.4572736,0.17552115,8.597315788269043,1.6446003913879395,-17.44771957397461,-2.2250232696533203,20.593307495117188, -28.26267433166504
179,102765188,0.8300363,0.25862247,-0.46193495,0.17541596,8.380730628967285,1.5692920684814453,-16.25778579711914,57.17656707763672,-55.40532302856445, -15.891512870788574
180,102781855,0.8182488,0.27093637,-0.47621116,0.17402725,10.418023109436035,3.9835093021392822,-13.418268203735352,68.74266815185547,-135.14016723632812, -7.54592227935791
181,102798522,0.8066165,0.2727848,-0.4970957,0.16689654,14.125444412231445,2.0399250984191895,10.423730850219727,-17.43707275390625,-169.07571411132812, 6.604094505310059
182,102815189,0.80097246,0.26039296,-0.5183128,0.1482929,15.427301406860352,-1.4300923347473145,9.058348655700684,-147.125244140625,-155.89048767089844, -14.631163597106934
183,102831856,0.7894472,0.25794482,-0.53924674,0.13946609,19.145565032958984,-11.801609992980957,-4.673858165740967,-46.51210403442383,-168.0972137451172, 9.057516098022461
184,102848523,0.7734944,0.27291542,-0.5552811,0.13742897,15.420645713806152,3.6469473838806152,-3.225111246109009,85.86528015136719,-162.01284790039062, -23.953411102294922
185,102865190,0.76011735,0.28124395,-0.57124424,0.12962921,13.651296615600586,5.144623756408691,-1.9310468435287476,23.596235275268555,-155.97865295410156, -31.850582122802734
186,102881857,0.74723333,0.28983387,-0.584675,0.12567501,11.29582405090332,1.5287805795669556,-0.3071783185005188,41.21713638305664,-133.37757873535156, -18.04156494140625
187,102898524,0.73684895,0.29650804,-0.59518266,0.12204228,10.910741806030273,4.5341081619262695,-1.3117153644561768,30.152738571166992,-105.93193054199219, -16.76050567626953
188,102915191,0.7275766,0.3032968,-0.6032065,0.12159462,9.846700668334961,6.065944194793701,0.5824004411697388,43.49747085571289,-82.29548645019531, -7.0261125564575195
189,102931858,0.72101414,0.30380282,-0.6113659,0.118635386,9.808472633361816,7.248687744140625,0.7098792791366577,-4.151906967163086,-71.73799896240234, 4.650025367736816
190,102948525,0.71617675,0.29976395,-0.6198353,0.1141794,9.924957275390625,4.490728855133057,-0.2789742946624756,-36.84102249145508,-65.4710464477539, 15.835758209228516
191,102965192,0.7119405,0.2943808,-0.6280622,0.10963007,10.087610244750977,3.2205617427825928,-1.2410578727722168,-44.910057067871094,-60.8319206237793, 20.26897621154785
192,102981859,0.70849705,0.28757653,-0.6359405,0.10445745,10.094779968261719,2.681975841522217,-1.4471869468688965,-55.89519119262695,-55.824989318847656, 22.132776260375977
193,102998526,0.70550054,0.28104472,-0.64294934,0.09949411,10.093539237976074,1.3108346462249756,-1.187118411064148,-53.919559478759766,-49.34916687011719, 19.97836685180664
194,103015193,0.7019746,0.2779937,-0.6485397,0.09668223,9.90660572052002,1.6691524982452393,-1.2195523977279663,-25.525203704833984,-42.9871711730957, 12.623779296875
195,103031860,0.6984136,0.27506328,-0.654005,0.09400099,9.761181831359863,2.2735047340393066,-0.7211969494819641,-24.21401023864746,-42.33184051513672, 12.483757972717285
196,103048527,0.6948462,0.27228704,-0.65933394,0.0912552,9.9855375289917,2.127074956893921,-1.4988688230514526,-23.649944305419922,-41.92197036743164, 11.242822647094727
197,103065194,0.6910802,0.2706498,-0.66420305,0.0893949,9.78730297088623,2.5840771198272705,-0.7905357480049133,-13.5447359085083,-39.645145416259766, 9.575376510620117
198,103081861,0.68720984,0.2706228,-0.66829574,0.08880794,9.892731666564941,2.6054999828338623,-0.19400493800640106,0.605198860168457,-35.05868148803711, 6.9068217277526855
199,103098528,0.68311816,0.27226305,-0.67170525,0.089635916,9.463081359863281,2.0661795139312744,-0.31632572412490845,15.822718620300293,-31.280323028564453, 4.795800685882568
200,103115195,0.6783431,0.27506053,-0.6752057,0.091047555,9.066339492797852,2.404599905014038,-0.5594573020935059,25.194791793823242,-34.52777099609375, 2.751955270767212
201,103131862,0.6726438,0.27771795,-0.6796793,0.09197414,8.997957229614258,2.639362096786499,0.37263453006744385,23.42683219909668,-44.226478576660156, 3.5499324798583984
202,103148529,0.665872,0.2801199,-0.6853116,0.09217068,8.97293472290039,2.6970481872558594,0.07676789164543152,20.185344696044922,-55.96677017211914, 4.2692999839782715
203,103165196,0.6578116,0.28273764,-0.6920196,0.0919368,9.525359153747559,2.74686336517334,-0.23271358013153076,21.001310348510742,-68.1343765258789, 4.196043968200684
204,103181863,0.6484059,0.28571567,-0.69970345,0.09138651,9.756587982177734,2.795534133911133,0.5139681696891785,23.195255279541016,-80.044677734375, 3.8244986534118652
205,103198530,0.6374779,0.28894496,-0.7085092,0.090264276,10.148176193237305,2.7391815185546875,0.7818103432655334,23.92371368408203,-93.98120880126953, 3.2566025257110596
206,103215197,0.62456876,0.2927547,-0.7185522,0.08883354,11.120721817016602,2.525797128677368,1.584153175354004,28.235496520996094,-110.37442016601562, 2.7851436138153076
207,103231864,0.6089736,0.29782638,-0.7299447,0.08735873,11.173213958740234,2.2540647983551025,1.369489312171936,38.10732650756836,-130.6804656982422, 0.7229592800140381
208,103248531,0.5898435,0.30384043,-0.7433121,0.085163906,11.762078285217285,1.6962580680847168,1.0790307521820068,44.57807922363281,-159.07525634765625, -0.8592479825019836
209,103265198,0.566927,0.31178248,-0.7580011,0.08258283,12.823223114013672,1.2605468034744263,1.5573980808258057,57.62255859375,-186.03506469726562, -7.322856903076172
210,103281865,0.53938043,0.32214165,-0.7738249,0.08055106,15.805234909057617,1.5009032487869263,4.991275787353516,79.24421691894531,-215.09658813476562, -12.752500534057617
211,103298532,0.5081421,0.33371335,-0.79001635,0.07938135,21.328245162963867,5.007513523101807,8.00534725189209,96.3827896118164,-235.2667999267578, -13.186034202575684
212,103315199,0.47596332,0.34745613,-0.803861,0.0808757,24.987112045288086,4.129283428192139,8.955113410949707,122.00447082519531,-227.7253875732422, -20.51199722290039
213,103331866,0.4424952,0.362232,-0.8156181,0.08805313,25.389972686767578,4.6969757080078125,9.220330238342285,161.14781188964844,-215.48570251464844, -11.885884284973145
214,103348533,0.41240418,0.37181947,-0.826331,0.09407681,20.85972023010254,5.346117973327637,7.88319730758667,131.18785095214844,-193.48257446289062, 9.095434188842773
215,103365200,0.38771358,0.37665194,-0.8351593,0.1015896,14.996131896972656,4.327892780303955,5.628457069396973,113.6370620727539,-150.79318237304688, 32.090389251708984
216,103381867,0.3600645,0.3838784,-0.841335,0.123072,6.151271820068359,3.485717535018921,-1.7770297527313232,209.80126953125,-126.28651428222656, 50.873985290527344
217,103398534,0.3375825,0.39350444,-0.8433274,0.14139111,14.314535140991211,10.618825912475586,-7.842249870300293,187.3231658935547,-96.23421478271484, 13.841156959533691
218,103415201,0.3336763,0.39355928,-0.84546125,0.13771996,10.006933212280273,11.869439125061035,6.660726070404053,-12.720480918884277,-38.92058181762695, 0.7338273525238037
219,103431868,0.3420352,0.3850366,-0.8479321,0.12557852,5.334283351898193,-0.9068703651428223,5.558222770690918,-115.04570007324219,16.767105102539062, 20.516860961914062
220,103448535,0.35049805,0.38278082,-0.8448394,0.12991008,3.366102695465088,1.0725263357162476,2.320779800415039,0.18603459000587463,68.70491790771484, 7.828468322753906
221,103465202,0.36479598,0.38100165,-0.83872527,0.13528372,2.9654459953308105,5.603898048400879,1.835550308227539,-5.310364723205566,112.30438232421875, -5.609790325164795
222,103481869,0.38658983,0.37581915,-0.8311682,0.13589698,4.267261981964111,3.1889662742614746,1.083963394165039,-59.585975646972656,149.94805908203125, -8.652241706848145
223,103498536,0.41217393,0.3705017,-0.82083094,0.13812207,4.19581937789917,2.0324177742004395,0.09562233835458755,-57.94846725463867,183.37330627441406, -14.32890510559082
224,103515203,0.44129744,0.36472237,-0.8077503,0.14061888,4.8366522789001465,2.515148639678955,-0.18566787242889404,-64.16651153564453,212.3434295654297, -21.31476593017578
225,103531870,0.47473887,0.3566589,-0.7920337,0.14177467,5.679609298706055,1.9378408193588257,-0.44919657707214355,-86.85002136230469,243.2519989013672, -23.49482536315918
226,103548537,0.511088,0.34819198,-0.7724007,0.14473626,6.497502326965332,0.7795899510383606,-0.8908548951148987,-81.67520141601562,276.77044677734375, -27.853973388671875
227,103565204,0.5488343,0.34147322,-0.7477538,0.15179338,7.802665710449219,0.32775211334228516,-1.356223225593567,-52.16476821899414,309.95361328125, -36.16021728515625
228,103581871,0.58741945,0.33742517,-0.7175671,0.16180289,9.86752700805664,1.6353037357330322,-1.9440306425094604,-23.100128173828125,339.4029541015625, -52.66039276123047
229,103598538,0.62716925,0.33249938,-0.6834969,0.17010292,11.191306114196777,0.7367302775382996,-2.966050624847412,-33.501468658447266,357.92041015625, -65.54671478271484
230,103615205,0.6663784,0.3272128,-0.64599276,0.17766625,13.963152885437012,0.8143047094345093,-3.588078022003174,-33.254940032958984,369.01373291015625, -74.27140045166016
231,103631872,0.7047704,0.31842545,-0.6067876,0.18361071,17.988895416259766,0.5389208793640137,-5.054020404815674,-52.673851013183594,373.87744140625, -68.98867797851562
232,103648539,0.740362,0.30720347,-0.567123,0.18937227,20.133142471313477,2.281832695007324,-7.2293500900268555,-58.51573944091797,367.1837158203125, -57.21841049194336
233,103665206,0.7728102,0.2926695,-0.5294234,0.1918858,20.99858283996582,4.960334777832031,-9.83788013458252,-84.0126953125,342.4690246582031, -52.621212005615234
234,103681873,0.8005826,0.27603316,-0.496381,0.19099598,19.315584182739258,3.6584582328796387,-13.432348251342773,-104.34966278076172,296.73992919921875, -47.51338577270508
235,103698540,0.8208371,0.2637281,-0.4701958,0.1886528,15.387934684753418,1.0847052335739136,-16.495410919189453,-80.2655258178711,225.0152130126953, -47.432838439941406
236,103715207,0.8323641,0.25978887,-0.45200214,0.18807943,12.149819374084473,-3.020590305328369,-20.49589729309082,-21.895185470581055,144.2203369140625, -38.69882583618164
237,103731874,0.8337603,0.26620516,-0.4450405,0.18951921,7.255377769470215,-0.3884432315826416,-22.7347412109375,47.14487075805664,38.85069274902344, -26.261262893676758
238,103748541,0.82713896,0.2731004,-0.4539261,0.18763979,7.883476734161377,2.0326945781707764,-19.595006942749023,33.69771957397461,-83.04779052734375, -7.32946252822876
239,103765208,0.8144889,0.27740353,-0.47567004,0.18273853,13.166196823120117,-0.02783791534602642,-11.759692192077637,4.19993257522583,-177.1884002685547, 15.503886222839355
240,103781875,0.80320156,0.28095818,-0.49395463,0.17871438,15.239368438720703,7.268944263458252,25.118385314941406,4.595295429229736,-150.64544677734375, 14.533403396606445
241,103798542,0.7951076,0.27758595,-0.51144946,0.17079128,15.653029441833496,-6.314788818359375,1.8296897411346436,-52.028812408447266,-134.67982482910156, 11.12814998626709
242,103815209,0.7811242,0.2858375,-0.5284561,0.16993116,16.460159301757812,0.9912565350532532,-6.1737823486328125,48.18888473510742,-152.90676879882812, 14.76692008972168
243,103831876,0.7685442,0.29085496,-0.545821,0.16377586,15.545633316040039,5.2928853034973145,-3.009442090988159,8.370023727416992,-156.30271911621094, -2.8803069591522217
244,103848543,0.75718945,0.29329696,-0.56233436,0.15627278,12.762306213378906,2.3959951400756836,-1.3792487382888794,-11.804132461547852,-146.97767639160156, -3.3896782398223877
245,103865210,0.74728227,0.29460245,-0.57672334,0.14889261,10.270833969116211,1.7390857934951782,0.125363290309906,-17.881879806518555,-128.85353088378906, -4.182008743286133
246,103881877,0.7388643,0.2963912,-0.58808106,0.14280292,9.935623168945312,2.96293568611145,-0.7612459659576416,-10.19672966003418,-105.27948760986328, -7.124352931976318
247,103898544,0.73123056,0.30016688,-0.59640723,0.13964331,9.683369636535645,3.5042731761932373,1.4496299028396606,13.123842239379883,-82.7057113647461, -7.206017017364502
248,103915211,0.72591937,0.30168432,-0.6029182,0.13607828,10.038203239440918,3.497077703475952,0.044488243758678436,-2.937100410461426,-62.76729965209961, -5.942728519439697
249,103931878,0.72191405,0.3018168,-0.608424,0.13254063,11.229703903198242,2.526221990585327,-0.28399497270584106,-11.484448432922363,-51.0057373046875, -3.3539254665374756
250,103948545,0.7180314,0.303112,-0.61272734,0.13084099,11.29245662689209,2.1073107719421387,0.11593947559595108,2.8108510971069336,-41.79225540161133, -1.7014877796173096
251,103965212,0.7145368,0.30461866,-0.61623883,0.1299793,10.668895721435547,2.380946397781372,-0.19882117211818695,7.297749042510986,-34.715694427490234, -0.4585590064525604
252,103981879,0.71087164,0.30750877,-0.6189017,0.13061616,9.925433158874512,2.6541736125946045,-0.43923771381378174,21.567575454711914,-29.387073516845703, -0.5850352048873901
253,103998546,0.7073894,0.3109807,-0.6208855,0.13188091,9.77426528930664,2.3104844093322754,-0.6791518330574036,27.311521530151367,-24.501789093017578, -1.5920288562774658
254,104015213,0.7034722,0.31537512,-0.6226157,0.1342204,9.914382934570312,2.069502115249634,-0.3230654001235962,37.54929733276367,-23.678525924682617, -0.45515361428260803
255,104031880,0.6987209,0.3214909,-0.6239613,0.13822083,9.645757675170898,2.622889995574951,-0.601822018623352,55.152069091796875,-23.39548683166504, 0.13701045513153076
256,104048547,0.69339174,0.32757625,-0.62586266,0.1421182,8.953951835632324,3.2860748767852783,0.09199156612157822,55.32415771484375,-28.755821228027344, 1.5470858812332153
257,104065214,0.687747,0.3324738,-0.6289312,0.14460658,8.413044929504395,3.876641035079956,1.0481269359588623,43.17116928100586,-37.714202880859375, 2.8848369121551514
258,104081881,0.68194336,0.3351601,-0.6337857,0.14469577,8.861571311950684,3.8490383625030518,1.2345354557037354,20.94115447998047,-50.16325759887695, 5.35998010635376
259,104098548,0.67580163,0.33662453,-0.63989544,0.14321272,8.813714027404785,3.5004279613494873,1.0992368459701538,7.911282539367676,-59.958229064941406, 6.558709144592285
260,104115215,0.6692576,0.33764374,-0.64675057,0.1407295,9.346833229064941,2.846712112426758,0.10939481109380722,1.6407054662704468,-67.10256958007812, 6.006985187530518
261,104131882,0.66224617,0.33844873,-0.654187,0.13755727,9.57236385345459,2.5661818981170654,0.20383986830711365,-1.866317629814148,-73.26439666748047, 5.597294807434082
262,104148549,0.6547809,0.33827847,-0.662598,0.13339299,9.59672737121582,2.7766270637512207,-0.43195486068725586,-10.638912200927734,-81.15570831298828, 8.168661117553711
263,104165216,0.64684427,0.33766183,-0.67151487,0.1290149,9.788382530212402,3.2697715759277344,-0.4825837016105652,-12.966775894165039,-85.68079376220703, 10.853639602661133
264,104181883,0.6381284,0.33758903,-0.6804858,0.12555902,10.072224617004395,3.516458749771118,-0.23427200317382812,-4.528874397277832,-87.88045501708984, 13.272212982177734
265,104198550,0.62827915,0.3385047,-0.68959075,0.12306284,11.147130012512207,3.5980753898620605,-0.317123681306839,6.812119483947754,-92.42390441894531, 14.160540580749512
266,104215217,0.6168632,0.34059954,-0.6990512,0.12165353,11.813132286071777,2.2944345474243164,0.24200522899627686,20.425180435180664,-99.88107299804688, 15.424500465393066
267,104231884,0.60355043,0.34379762,-0.70912296,0.121139236,12.092140197753906,1.2601149082183838,-0.426591694355011,33.3676872253418,-110.45124053955078, 16.924022674560547
268,104248551,0.5876711,0.3481264,-0.72023785,0.121276595,12.109565734863281,1.6228177547454834,1.4542009830474854,46.41939926147461,-126.73701477050781, 18.704097747802734
269,104265218,0.5694507,0.35187635,-0.73330265,0.11906409,12.345377922058105,2.1203315258026123,1.999937891960144,36.43246841430664,-151.41555786132812, 18.6818790435791
270,104281885,0.54742503,0.3569603,-0.74784756,0.116744995,13.994073867797852,1.923477292060852,2.3927206993103027,49.13857650756836,-177.8252410888672, 18.22530174255371
271,104298552,0.52167654,0.36315817,-0.7634035,0.114825815,16.874624252319336,4.988899230957031,5.880289554595947,63.73531723022461,-200.78631591796875, 19.45973777770996
272,104315219,0.49350867,0.37107947,-0.77834666,0.11369323,20.366945266723633,6.139209270477295,8.638378143310547,80.61601257324219,-210.84628295898438, 13.630992889404297
273,104331886,0.46449527,0.3814026,-0.79071385,0.116395585,23.942129135131836,3.902745246887207,8.181621551513672,113.54116821289062,-198.9378204345703, 7.893828868865967
274,104348553,0.43224,0.39652455,-0.7990623,0.13204722,23.99796485900879,5.669533729553223,8.530089378356934,211.0689697265625,-173.86651611328125, 15.226646423339844
275,104365220,0.39753038,0.4121599,-0.80611926,0.14921796,17.070615768432617,8.805115699768066,7.181344509124756,228.88882446289062,-180.10507202148438, 15.682432174682617
276,104381887,0.3643163,0.42171428,-0.8130944,0.16825089,12.624077796936035,4.6155195236206055,4.9007086753845215,218.5192108154297,-160.2616424560547, 52.82821273803711
277,104398554,0.33230022,0.43201265,-0.81648034,0.19053006,4.809545993804932,7.9314470291137695,-4.237060546875,239.25521850585938,-136.15011596679688, 45.10094451904297
278,104415221,0.31393126,0.44167963,-0.8167256,0.1983074,16.484477996826172,13.759583473205566,-1.7191896438598633,120.01721954345703,-94.54857635498047, -11.6029634475708
279,104431888,0.31491774,0.43909156,-0.8205796,0.18621215,6.774571418762207,8.570234298706055,7.878854751586914,-81.56133270263672,-37.4133186340332, -1.0139203071594238
280,104448555,0.32419237,0.43359548,-0.8225887,0.17390327,3.7043659687042236,-0.3608620762825012,5.6094770431518555,-111.63214111328125,16.281307220458984, -1.2366492748260498
281,104465222,0.33460522,0.4320457,-0.8191543,0.17424734,3.2103326320648193,1.8188313245773315,2.867027521133423,-28.175260543823242,67.78178405761719, -12.977362632751465
282,104481889,0.35141006,0.42989326,-0.8129703,0.17544882,2.88027286529541,6.989259243011475,2.1013824939727783,-40.41890335083008,113.34529876708984, -23.42916488647461
283,104498556,0.37684005,0.42311105,-0.80601674,0.17118983,4.076613426208496,5.646081447601318,0.8281145095825195,-106.63228607177734,152.84042358398438, -23.38352394104004
284,104515223,0.40693197,0.41427514,-0.79676974,0.16715492,4.89601993560791,3.1813251972198486,-0.19971223175525665,-121.54026794433594,187.6647491455078, -23.557086944580078
285,104531890,0.4397232,0.40606898,-0.78352994,0.16683114,5.303741931915283,2.6611924171447754,-0.10501916706562042,-102.53807067871094,223.45643615722656, -31.09132957458496
286,104548557,0.47468638,0.39841992,-0.7661209,0.17027415,6.262578964233398,1.8715941905975342,-0.011361569166183472,-81.84516143798828,257.6322937011719, -36.81428527832031
287,104565224,0.51121175,0.39147234,-0.7443316,0.17715149,8.012484550476074,1.6193180084228516,-0.6858394145965576,-60.61735534667969,288.740478515625, -43.10764694213867
288,104581891,0.5496555,0.3839698,-0.71855175,0.184742,9.351530075073242,1.7624491453170776,-1.0769572257995605,-59.25567626953125,315.1834411621094, -50.806068420410156
289,104598558,0.589467,0.37637523,-0.6883555,0.19245061,11.38888931274414,1.6139241456985474,-1.9739720821380615,-57.04245376586914,339.07666015625, -63.276424407958984
290,104615225,0.6302879,0.36850476,-0.6535595,0.19950277,14.001326560974121,1.7618145942687988,-2.577929973602295,-57.81744384765625,361.2052307128906, -77.85469055175781
291,104631892,0.6712397,0.35803103,-0.61582315,0.20497102,16.230173110961914,0.5542716979980469,-3.1755688190460205,-72.59226989746094,374.1368103027344, -80.63839721679688
292,104648559,0.7098113,0.34656727,-0.5760126,0.21040145,18.448820114135742,0.9216840863227844,-4.062609672546387,-68.59626770019531,374.98883056640625, -78.39733123779297
293,104665226,0.7470247,0.33009133,-0.53632194,0.21296208,22.547727584838867,1.9813693761825562,-6.036490440368652,-101.45049285888672,369.5318298339844, -70.34886932373047
294,104681893,0.7802504,0.30964133,-0.49953344,0.21400519,23.08685302734375,2.704367160797119,-10.292888641357422,-122.77803039550781,342.4194030761719, -51.13920211791992
295,104698560,0.8074576,0.28916764,-0.46938944,0.20992371,17.736940383911133,6.310652732849121,-14.25482177734375,-137.54786682128906,275.45220947265625, -55.630584716796875
296,104715227,0.82565117,0.27687034,-0.44667548,0.20524174,14.148127555847168,-2.5660743713378906,-19.675491333007812,-86.99540710449219,192.41241455078125, -57.57558059692383
297,104731894,0.83343184,0.27635768,-0.43349162,0.20273826,9.104419708251953,-0.9161555767059326,-23.720703125,-7.149096965789795,94.24491119384766, -48.702239990234375
298,104748561,0.83202493,0.27878627,-0.43686923,0.1978837,6.877388954162598,2.0713560581207275,-24.087066650390625,-3.069204568862915,-36.17942428588867, -26.752321243286133
299,104765228,0.82351685,0.27950063,-0.4562337,0.18854797,10.210042953491211,1.1167595386505127,-18.453720092773438,-34.623085021972656,-154.8429412841797, -6.9525322914123535
300,104781895,0.8098145,0.28381336,-0.47999203,0.1823681,15.4354887008667,3.7840964794158936,8.971497535705566,-0.16142001748085022,-194.32081604003906, 14.775056838989258
301,104798562,0.8008365,0.27808154,-0.5023008,0.1703694,17.404687881469727,-2.6336750984191895,11.150039672851562,-82.65694427490234,-169.49798583984375, 6.773968696594238
302,104815229,0.785812,0.2833547,-0.5234862,0.1678454,18.669832229614258,-9.25369644165039,-6.725695610046387,23.615148544311523,-179.08453369140625, 25.767213821411133
303,104831896,0.76890516,0.29510206,-0.54294795,0.1640343,16.33748435974121,6.8220062255859375,-5.4033050537109375,59.57664108276367,-186.3954315185547, -5.9025397300720215
304,104848563,0.7552252,0.29847258,-0.5627491,0.1544753,13.289393424987793,4.4738006591796875,-2.6619460582733154,-13.145176887512207,-178.26522827148438, -7.91337251663208
305,104865230,0.7430961,0.29975393,-0.58039546,0.1452483,11.763689041137695,0.054817378520965576,-1.3671433925628662,-23.62329864501953,-158.1553497314453, -4.134582042694092
306,104881897,0.7316734,0.30395696,-0.59397036,0.13951209,8.921504974365234,4.206989288330078,-0.2672708034515381,7.843137741088867,-130.27182006835938, -7.0768818855285645
307,104898564,0.72251105,0.30706665,-0.6045296,0.13502583,9.353601455688477,4.6069746017456055,0.5152608156204224,5.630258083343506,-102.25215148925781, -4.7502946853637695
308,104915231,0.71493787,0.30937657,-0.6130015,0.13183023,10.213449478149414,4.308821678161621,0.18180976808071136,5.626878261566162,-81.86715698242188, -0.8549208641052246
309,104931898,0.7088025,0.30994344,-0.620457,0.12871444,11.194531440734863,3.0235657691955566,-0.40445220470428467,-4.713879585266113,-69.10848236083984, 3.4488017559051514
310,104948565,0.7034995,0.3104565,-0.62669027,0.1263518,11.265974044799805,1.5938560962677002,-0.4980584383010864,-2.4362447261810303,-57.989112854003906, 4.01380729675293
311,104965232,0.698844,0.31131136,-0.63180566,0.12459657,10.829851150512695,2.332120656967163,-0.8533042073249817,1.422041654586792,-48.833797454833984, 2.515482187271118
312,104981899,0.6957237,0.30941656,-0.6367824,0.12140085,9.992765426635742,3.0365631580352783,-1.331208348274231,-21.194204330444336,-42.25743865966797, 5.925577163696289
313,104998566,0.69352525,0.30521885,-0.64202,0.116938874,9.299955368041992,3.449936628341675,-1.492241621017456,-39.91749954223633,-40.26404571533203, 9.750504493713379
314,105015233,0.69184285,0.30056274,-0.6468422,0.11229735,9.775605201721191,2.828051805496216,-0.5794654488563538,-43.64106369018555,-36.0362434387207, 9.652521133422852
315,105031900,0.689632,0.29815304,-0.6507342,0.10980734,9.962040901184082,2.721923589706421,-0.5495725274085999,-21.559436798095703,-31.28097915649414, 8.390924453735352
316,105048567,0.6868262,0.2972081,-0.65426457,0.108973116,9.77706241607666,3.2064199447631836,-0.22867071628570557,-5.70117712020874,-29.970375061035156, 9.399850845336914
317,105065234,0.6833651,0.29761255,-0.6576533,0.10923018,9.395330429077148,2.8720285892486572,-0.35542282462120056,7.044626712799072,-31.060535430908203, 8.692490577697754
318,105081901,0.67882,0.30021125,-0.66088843,0.11092054,9.148787498474121,2.2137491703033447,-0.057479068636894226,26.177600860595703,-33.98550033569336, 6.008285999298096
319,105098568,0.6731993,0.30422664,-0.6644248,0.113087565,8.976675033569336,2.7462422847747803,0.2012411653995514,36.960853576660156,-40.40757369995117, 3.2329397201538086
320,105115235,0.6666736,0.30859077,-0.66865516,0.11497248,9.463651657104492,2.5176398754119873,0.6112485527992249,38.65082931518555,-48.6480712890625, 2.4913620948791504
321,105131902,0.6591758,0.31345862,-0.67350036,0.1167414,9.75624942779541,2.7140371799468994,-0.07252676784992218,42.0188102722168,-56.617862701416016, 1.7150242328643799
322,105148569,0.6508941,0.31851438,-0.6788813,0.1183457,9.50986099243164,2.576526165008545,-0.7629268169403076,43.3862190246582,-63.20940399169922, 1.8824379444122314
323,105165236,0.64236045,0.3231809,-0.6845853,0.11945843,9.192049980163574,2.600722074508667,-0.9165496826171875,39.63870620727539,-66.61292266845703, 2.412069320678711
324,105181903,0.6330951,0.32807633,-0.6906091,0.12089529,9.556503295898438,3.086122512817383,-0.3963547348976135,43.54484176635742,-70.95742797851562, 4.079530715942383
325,105198570,0.62221235,0.33454248,-0.6968203,0.12399451,10.15795612335205,4.438353061676025,-0.49036091566085815,61.77780532836914,-77.03662872314453, 5.629948139190674
326,105215237,0.6097853,0.33982134,-0.7049913,0.12518406,10.754326820373535,3.3149046897888184,0.7245231866836548,49.45560836791992,-96.2275619506836, 8.991358757019043
327,105231904,0.59518033,0.34522554,-0.71471,0.12557669,10.947874069213867,2.49354887008667,0.830233097076416,49.89558410644531,-115.29132843017578, 10.538097381591797
328,105248571,0.5776806,0.35076606,-0.72647816,0.1244107,11.497931480407715,2.213798761367798,1.4455698728561401,47.917266845703125,-141.7733154296875, 10.84897232055664
329,105265238,0.556976,0.35665137,-0.7401906,0.12122547,12.351889610290527,1.5366891622543335,1.3728464841842651,45.28902816772461,-170.73663330078125, 8.52872085571289
330,105281905,0.53233916,0.36349675,-0.75536036,0.1179661,15.597744941711426,1.170333981513977,3.2597179412841797,57.02350997924805,-197.3916473388672, 10.19672679901123
331,105298572,0.504814,0.37059268,-0.77115935,0.11461782,19.51198387145996,3.7658722400665283,6.150062084197998,64.2077865600586,-215.23883056640625, 12.459273338317871
332,105315239,0.47552925,0.37961778,-0.78546727,0.11315275,22.9240779876709,5.155036449432373,8.884550094604492,86.59487915039062,-216.29147338867188, 6.349252223968506
333,105331906,0.44590208,0.39080253,-0.7966043,0.11775613,26.109210968017578,4.022708415985107,8.498266220092773,129.86727905273438,-193.8387908935547, 6.521111488342285
334,105348573,0.41357756,0.40575436,-0.8038605,0.13463101,23.31298828125,6.931645393371582,8.711316108703613,219.10464477539062,-167.05259704589844, 15.28282642364502
335,105365240,0.38029015,0.41811585,-0.81129843,0.1495101,16.26835060119629,8.134795188903809,6.48740816116333,203.2990264892578,-176.29798889160156, 25.394468307495117
336,105381907,0.3490966,0.42499962,-0.8188767,0.16415799,9.79403018951416,4.759397506713867,2.175877571105957,181.59109497070312,-160.16390991210938, 53.6921272277832
337,105398574,0.32049477,0.43376,-0.8221119,0.18239424,7.154755115509033,5.911243438720703,-6.331574440002441,203.66395568847656,-126.82653045654297, 36.19541931152344
338,105415241,0.30702996,0.44154385,-0.8218047,0.1881723,15.301685333251953,15.095502853393555,4.004785060882568,90.41130065917969,-69.31838989257812, -15.222270011901855
339,105431908,0.31098455,0.43753394,-0.8247363,0.17794093,4.900471210479736,3.6959056854248047,7.984638214111328,-81.84519958496094,-11.218352317810059, 5.002018451690674
340,105448575,0.31762683,0.43664652,-0.8226716,0.17794597,3.742462158203125,0.010183395817875862,4.243423938751221,-19.075971603393555,41.60296630859375, -9.141037940979004
341,105465242,0.32898155,0.4375552,-0.81659347,0.18300816,2.6464619636535645,5.796189785003662,3.289832592010498,4.191091060638428,89.98957824707031, -26.07615089416504
342,105481909,0.34976858,0.43431485,-0.80982363,0.18225928,3.667593240737915,5.689940452575684,2.23820424079895,-65.28219604492188,132.25216674804688, -29.8431396484375
343,105498576,0.37704486,0.42792124,-0.801465,0.17992997,4.803040027618408,3.9522030353546143,0.5932978391647339,-99.0227279663086,171.4379425048828, -28.940631866455078
344,105515243,0.40883955,0.4198271,-0.79050285,0.17804797,5.622243404388428,3.394266366958618,-0.3795739412307739,-111.03428649902344,206.51319885253906, -31.653636932373047
345,105531910,0.4445743,0.41019952,-0.7763249,0.1772282,6.242809772491455,2.4381167888641357,-0.39965489506721497,-117.01895141601562,241.92893981933594, -34.43232727050781
346,105548577,0.48275843,0.39992884,-0.75805736,0.17986217,7.407391548156738,1.084604024887085,-0.15854963660240173,-102.48921966552734,278.04815673828125, -34.956966400146484
347,105565244,0.52178085,0.39070365,-0.73497397,0.18683949,8.899805068969727,0.9281842112541199,-0.6152440309524536,-72.75963592529297,309.06951904296875, -40.26512145996094
348,105581911,0.56133956,0.38218477,-0.7073146,0.19631404,10.4406156539917,1.3733433485031128,-1.5529286861419678,-53.18689727783203,334.0243225097656, -47.85307312011719
349,105598578,0.6016921,0.37297592,-0.6755868,0.20600481,12.283279418945312,1.738290548324585,-2.23203182220459,-51.432247161865234,355.1314697265625, -55.41111755371094
350,105615245,0.6428814,0.36247808,-0.63983196,0.21430898,15.163443565368652,2.198779582977295,-2.350174903869629,-59.694602966308594,374.0137023925781, -66.66535949707031
351,105631912,0.6843641,0.3492554,-0.6009234,0.22035828,18.371150970458984,1.6771817207336426,-3.1472549438476562,-77.80638885498047,387.7092590332031, -72.93854522705078
352,105648579,0.7222198,0.33724043,-0.5591368,0.22810858,20.632556915283203,1.182266116142273,-5.842642307281494,-52.102603912353516,388.589599609375, -71.36454010009766
353,105665246,0.7561382,0.32485652,-0.5170712,0.23528884,22.450620651245117,4.88400936126709,-8.46249008178711,-56.196102142333984,371.900634765625, -70.00656127929688
354,105681913,0.7868555,0.30820435,-0.47989753,0.23572664,20.423534393310547,5.152760028839111,-11.704180717468262,-93.67878723144531,329.4142150878906, -71.08943176269531
355,105698580,0.8107016,0.29323548,-0.45052293,0.2319596,16.899246215820312,3.1146724224090576,-15.098209381103516,-96.60111236572266,253.1184844970703, -71.74516296386719
356,105715247,0.82660645,0.28321743,-0.43034297,0.22652744,12.337240219116211,-0.6449769735336304,-21.446842193603516,-72.91007232666016,166.285400390625, -65.20393371582031
357,105731914,0.833134,0.2793868,-0.42363307,0.21992251,7.4330339431762695,-1.684092402458191,-25.902191162109375,-44.04719543457031,50.41516876220703, -49.429744720458984
358,105748581,0.82991827,0.2799266,-0.43414217,0.21070689,6.895827770233154,0.5982465744018555,-23.175691604614258,-34.059940338134766,-87.84393310546875, -29.383716583251953
359,105765248,0.81964254,0.27884963,-0.45967802,0.19780125,11.716042518615723,0.20274561643600464,-19.18488121032715,-62.59245681762695,-199.12208557128906, -6.481508731842041
360,105781915,0.80709517,0.2798742,-0.48430517,0.18898861,17.231765747070312,6.274130821228027,20.48656463623047,-32.31328201293945,-195.90074157714844, 11.25500202178955
361,105798582,0.7993329,0.27196035,-0.50583565,0.17673407,15.900250434875488,-7.808701992034912,7.657196044921875,-98.47640991210938,-158.01077270507812, 9.792825698852539
362,105815249,0.78323054,0.2833895,-0.5240304,0.17785573,17.466720581054688,-5.909872531890869,-9.202019691467285,74.07786560058594,-167.2422637939453, 19.76859474182129
363,105831916,0.7685672,0.29255784,-0.54221797,0.1723779,16.879840850830078,8.433557510375977,-4.12179708480835,35.25296401977539,-171.9569854736328, -9.570356369018555
364,105848583,0.75697696,0.2939967,-0.56056374,0.16223548,15.1213960647583,0.9796904921531677,-1.8526787757873535,-29.38579559326172,-161.4814453125, -8.649258613586426
365,105865250,0.7465313,0.29622588,-0.57549006,0.15411848,13.221628189086914,-2.3256876468658447,-0.8258914947509766,-15.977149963378906,-136.0388641357422, -9.359771728515625
366,105881917,0.7367423,0.3028323,-0.58559644,0.1502681,9.683589935302734,3.7313129901885986,-0.2536656856536865,27.12550163269043,-104.66439819335938, -15.360593795776367
367,105898584,0.72892255,0.3086382,-0.59289914,0.14793658,8.966612815856934,4.635651588439941,0.17443060874938965,27.99884796142578,-78.57574462890625, -12.285440444946289
368,105915251,0.72286725,0.31263417,-0.59863955,0.14612906,9.480710983276367,5.513113021850586,-0.08450892567634583,18.91718101501465,-60.647613525390625, -7.3520402908325195
369,105931918,0.718255,0.31464204,-0.6035426,0.14438318,10.865522384643555,3.4537405967712402,-0.12464329600334167,7.046387672424316,-48.455711364746094, -2.064836263656616
370,105948585,0.7138995,0.3172509,-0.60745585,0.14386383,10.993278503417969,2.10793137550354,-0.299223929643631,15.552972793579102,-40.4803466796875, -0.8859747648239136
371,105965252,0.70998347,0.3197173,-0.6108692,0.14332849,10.287030220031738,2.9643518924713135,-0.641811728477478,14.327046394348145,-36.121910095214844, -1.9050188064575195
372,105981919,0.7073757,0.3198272,-0.6142944,0.14132488,9.727570533752441,2.9930479526519775,-1.0907918214797974,-6.217390537261963,-31.618534088134766, -0.43179333209991455
373,105998586,0.7051426,0.31858295,-0.6180965,0.13869241,9.835062980651855,2.767658233642578,-1.1153086423873901,-16.643156051635742,-31.95956802368164, 2.70552659034729
374,106015253,0.70296663,0.3168928,-0.62200856,0.13609698,9.660304069519043,2.651790142059326,-0.39552605152130127,-18.86429214477539,-31.76360321044922, 4.975733280181885
375,106031920,0.7001577,0.31640488,-0.6256677,0.13493446,9.55834674835205,3.0007164478302,-0.4423103332519531,-5.301976203918457,-31.281890869140625, 6.806861877441406
376,106048587,0.6967474,0.3169404,-0.6292102,0.13485754,8.924643516540527,3.558577537536621,0.15074113011360168,5.730242729187012,-31.92160415649414, 7.943572521209717
377,106065254,0.6922081,0.320337,-0.63187826,0.13770416,9.053755760192871,3.5442914962768555,0.16668406128883362,35.3708381652832,-28.934734344482422, 8.727139472961426
378,106081921,0.68740237,0.32247657,-0.6356968,0.13919951,8.756596565246582,3.38419508934021,0.9721186757087708,23.03554344177246,-37.38787078857422, 10.555447578430176
379,106098588,0.68142575,0.32555535,-0.6402243,0.14066081,8.628507614135742,2.9939534664154053,0.9533149600028992,29.26542854309082,-46.873268127441406, 8.994274139404297
380,106115255,0.6742323,0.32870623,-0.6460958,0.14115025,8.724770545959473,3.2735342979431152,1.4422794580459595,26.76462173461914,-60.816673278808594, 8.316811561584473
381,106131922,0.6657462,0.33190387,-0.6532925,0.14082216,8.89913558959961,2.938483953475952,0.57064288854599,25.010438919067383,-74.64337921142578, 8.580936431884766
382,106148589,0.656186,0.33532634,-0.6613341,0.14004795,9.557228088378906,2.683849573135376,0.6680181622505188,25.699581146240234,-84.60526275634766, 8.503774642944336
383,106165256,0.6458087,0.3393081,-0.6696293,0.13927676,10.036727905273438,2.539769411087036,-0.15738430619239807,29.869937896728516,-90.04241180419922, 7.347934722900391
384,106181923,0.6345442,0.34348503,-0.67834336,0.13864368,10.918981552124023,3.141331434249878,0.524783194065094,33.056640625,-95.8824462890625, 8.888116836547852
385,106198590,0.6222456,0.34810162,-0.6874779,0.13787733,11.025120735168457,3.02432918548584,0.44552820920944214,36.425846099853516,-103.31535339355469, 8.236466407775879
386,106215257,0.6080581,0.3528627,-0.6979778,0.13631055,11.20580005645752,2.145951509475708,0.22424109280109406,36.49654769897461,-120.1875228881836, 9.190638542175293
387,106231924,0.59186167,0.35708994,-0.7102237,0.1333002,11.289873123168945,2.101198196411133,1.0394136905670166,30.5728702545166,-140.18240356445312, 11.830455780029297
388,106248591,0.5728231,0.36136413,-0.724378,0.12870982,11.58071517944336,3.06380558013916,1.672368049621582,28.329187393188477,-165.8096160888672, 12.446272850036621
389,106265258,0.55040896,0.36681262,-0.7397693,0.12345072,13.271092414855957,2.9746460914611816,1.7930835485458374,36.928062438964844,-190.2808074951172, 10.031067848205566
390,106281925,0.524452,0.373326,-0.756069,0.11805752,16.512182235717773,4.689043998718262,4.5049872398376465,48.4767951965332,-213.08010864257812, 9.399569511413574
391,106298592,0.49591446,0.38092265,-0.7720557,0.113563836,20.336729049682617,5.59088134765625,6.90811824798584,63.98868179321289,-224.09620666503906, 8.311164855957031
392,106315259,0.4663907,0.39016533,-0.7860516,0.1112376,24.01541519165039,4.946078777313232,8.69753360748291,85.33387756347656,-218.36245727539062, 2.516864538192749
393,106331926,0.43608126,0.40234476,-0.7962179,0.11827541,27.011024475097656,2.640780448913574,8.337913513183594,150.48095703125,-187.72369384765625, 7.001001358032227
394,106348593,0.4001832,0.42169207,-0.80099857,0.14293587,21.48649787902832,7.7621259689331055,8.781696319580078,288.4097595214844,-159.57286071777344, 10.257726669311523
395,106365260,0.36456856,0.43572724,-0.8065402,0.16347677,14.743632316589355,8.711153984069824,5.96505069732666,249.6102294921875,-167.07774353027344, 30.220701217651367
396,106381927,0.3323721,0.44344056,-0.8124012,0.18136695,7.232293128967285,5.322281837463379,-0.420075923204422,208.5399627685547,-149.90225219726562, 55.87417984008789
397,106398594,0.3055788,0.45267546,-0.81375366,0.19877553,9.684974670410156,8.23748779296875,-6.533156394958496,198.5059051513672,-112.78150177001953, 25.88005256652832
398,106415261,0.29994205,0.4550065,-0.8159534,0.19293557,12.35297679901123,14.318425178527832,6.665388584136963,-13.005736351013184,-59.080692291259766, -10.550278663635254
399,106431928,0.3098645,0.4474147,-0.82054746,0.17466018,3.5221283435821533,1.3246511220932007,7.868198394775391,-154.91098022460938,-2.6520869731903076, 6.3771233558654785
400,106448595,0.32113618,0.44370833,-0.8193174,0.16945218,3.187295436859131,0.7779420614242554,4.548296928405762,-70.07048797607422,52.819129943847656, -7.291379928588867
401,106465262,0.33803892,0.44027734,-0.81467116,0.16791922,2.031491279602051,6.111700057983398,3.3547494411468506,-61.97724533081055,102.94286346435547, -17.732505798339844
402,106481929,0.36348823,0.43258935,-0.80886394,0.16273293,3.9242727756500244,4.732745170593262,2.0953149795532227,-116.82279205322266,147.36611938476562, -15.740673065185547
403,106498596,0.39368227,0.4225905,-0.8006066,0.15956436,5.11067008972168,2.5066511631011963,0.5030235052108765,-122.72777557373047,188.45155334472656, -10.435953140258789
404,106515263,0.42719242,0.41178235,-0.789,0.15943992,5.758241176605225,2.025120496749878,-1.0405691862106323,-114.13563537597656,225.50172424316406, -11.115242958068848
405,106531930,0.46424276,0.4007249,-0.77305704,0.16211466,6.517221450805664,1.281740665435791,-0.8999044299125671,-104.98178100585938,265.66644287109375, -17.69532585144043
406,106548597,0.5031435,0.39094114,-0.75174147,0.16999047,7.794436931610107,-0.5280251502990723,-0.831295371055603,-72.40885162353516,305.59100341796875, -24.721010208129883
407,106565264,0.5423609,0.38375646,-0.72464615,0.18293017,9.358211517333984,0.19304396212100983,-0.8467419743537903,-31.37793731689453,337.8309631347656, -36.53996658325195
408,106581931,0.58249813,0.37681103,-0.69275355,0.19698201,11.461822509765625,0.9000895023345947,-1.012406826019287,-21.365135192871094,362.97955322265625, -47.382999420166016
409,106598598,0.62323433,0.36926013,-0.6563841,0.21068007,14.357880592346191,1.5038502216339111,-2.482191801071167,-21.0057373046875,383.71405029296875, -58.300411224365234
410,106615265,0.66485786,0.3587711,-0.6167703,0.22100194,17.972013473510742,2.7476863861083984,-3.103231906890869,-46.457298278808594,397.3782653808594, -69.015869140625
411,106631932,0.7059386,0.34316155,-0.5760764,0.22809428,21.341638565063477,0.11318149417638779,-5.092650890350342,-80.75376892089844,399.88885498046875, -63.90702819824219
412,106648599,0.74224055,0.3280256,-0.5345294,0.23612827,21.88008689880371,2.6106984615325928,-8.137962341308594,-62.12360382080078,386.7017822265625, -55.78800964355469
413,106665266,0.77520806,0.3093351,-0.49616978,0.23912296,21.691680908203125,6.303635597229004,-12.111590385437012,-96.52181243896484,352.7692565917969, -55.88215637207031
414,106681933,0.80206996,0.29116255,-0.4645708,0.23681696,18.694217681884766,4.566300392150879,-15.334908485412598,-110.09674835205078,284.0157775878906, -61.50138854980469
415,106698600,0.8200372,0.27979356,-0.4416306,0.2328457,13.078137397766113,1.0504179000854492,-20.211742401123047,-74.29033660888672,193.74624633789062, -60.63077163696289
416,106715267,0.828957,0.27437633,-0.43116632,0.22725232,7.70072603225708,-0.8549435138702393,-25.97547149658203,-48.34031677246094,83.66584777832031, -49.42900085449219
417,106731934,0.82709324,0.27689636,-0.4366133,0.2204861,6.222187042236328,1.6455157995224,-24.707006454467773,-11.231776237487793,-53.165443420410156, -32.856910705566406
418,106748601,0.8178288,0.27800676,-0.45828062,0.20939763,10.510542869567871,1.9556224346160889,-20.246511459350586,-42.85877227783203,-173.33871459960938, -11.12149429321289
419,106765268,0.80486876,0.27898192,-0.4841812,0.19981042,16.412492752075195,4.42917537689209,11.906264305114746,-38.02418899536133,-205.38819885253906, 11.151933670043945
420,106781935,0.7968573,0.27271113,-0.50611806,0.18571964,15.425909042358398,-3.582829475402832,13.719136238098145,-97.11543273925781,-165.77247619628906, -4.022396564483643
421,106798602,0.78203744,0.27909967,-0.52596015,0.18408473,17.662446975708008,-10.146764755249023,-5.820242881774902,31.115196228027344,-170.95956420898438, 24.82720947265625
422,106815269,0.76486266,0.29261646,-0.54442936,0.18154213,15.762497901916504,6.633466720581055,-5.845860481262207,72.38850402832031,-182.7232666015625, -5.739589214324951
423,106831936,0.7512285,0.2962065,-0.56448674,0.17109157,13.038949966430664,5.750618934631348,-3.2014355659484863,-18.592214584350586,-181.22425842285156, -11.343059539794922
424,106848603,0.7394224,0.2960391,-0.58320147,0.15966131,12.316567420959473,-0.03489883989095688,-1.3606233596801758,-43.9607048034668,-164.71705627441406, -6.6335625648498535
425,106865270,0.7279933,0.29890764,-0.59793884,0.15214892,9.807494163513184,2.0304598808288574,-0.22715090215206146,-9.219289779663086,-138.33522033691406, -7.422539234161377
426,106881937,0.71829796,0.3028219,-0.608993,0.14654182,9.842829704284668,3.721529245376587,-0.7234747409820557,4.1255316734313965,-109.98168182373047, -11.561532020568848
427,106898604,0.71007276,0.30665964,-0.6174579,0.14318712,10.261772155761719,3.531855583190918,0.1442461758852005,12.757702827453613,-86.29277038574219, -6.956955432891846
428,106915271,0.70391494,0.30763647,-0.6249231,0.13905047,11.664558410644531,3.2835569381713867,-0.5625055432319641,-7.8969621658325195,-71.51318359375, -2.7514562606811523
429,106931938,0.6990722,0.30728373,-0.6313329,0.13525435,11.517409324645996,2.329535484313965,-0.18946263194084167,-14.631340980529785,-58.796630859375, 1.1321536302566528
430,106948605,0.69498134,0.30669102,-0.63677686,0.13212469,10.888335227966309,2.1439132690429688,-1.4400748014450073,-13.587969779968262,-49.30473327636719, 2.6337077617645264
431,106965272,0.69227356,0.30437422,-0.64154834,0.12856795,9.953533172607422,3.4316012859344482,-1.7885063886642456,-25.96410369873047,-39.38547897338867, 5.466926097869873
432,106981939,0.6909043,0.30002838,-0.6458977,0.124301165,9.733173370361328,3.19282865524292,-1.6691656112670898,-41.18809509277344,-31.18297004699707, 8.992673873901367
433,106998606,0.6900305,0.2952448,-0.6498094,0.1201519,9.793569564819336,2.8850619792938232,-0.43512073159217834,-43.3786506652832,-26.30469512939453, 10.19080638885498
434,107015273,0.68880814,0.29210982,-0.6529907,0.11755317,9.947077751159668,2.77317214012146,-0.5557087659835815,-27.297758102416992,-22.646509170532227, 9.000414848327637
435,107031940,0.68677264,0.29110914,-0.6557369,0.116653904,9.6209135055542,2.8464646339416504,-0.36104872822761536,-7.561986923217773,-22.58213996887207, 7.256113052368164
436,107048607,0.6840203,0.29143253,-0.65844667,0.116754524,9.571372032165527,2.6302995681762695,-0.1898972988128662,4.6815314292907715,-24.736738204956055, 6.515495300292969
437,107065274,0.68047065,0.2930755,-0.6612698,0.11742588,9.34911823272705,2.4344899654388428,0.3989526331424713,14.987181663513184,-28.83244514465332, 4.092739582061768
438,107081941,0.67595094,0.29624593,-0.6642642,0.11866742,9.124394416809082,2.406608819961548,0.5050449967384338,26.56681251525879,-34.17125701904297, 0.9409334659576416
439,107098608,0.67012984,0.30050123,-0.66797495,0.120144285,9.17905044555664,2.59904408454895,0.6161223649978638,34.766929626464844,-43.89653015136719, -0.4023415446281433
440,107115275,0.663183,0.30540523,-0.6724329,0.12144957,9.302228927612305,2.7127492427825928,0.7226909399032593,38.68266677856445,-53.447593688964844, -1.7001200914382935
441,107131942,0.6549168,0.310899,-0.6777941,0.122560754,9.42976188659668,2.763683795928955,-0.02796255797147751,42.51974868774414,-64.61217498779297, -2.312619209289551
442,107148609,0.64558107,0.3168118,-0.68381476,0.12350259,9.69572639465332,2.63127064704895,-0.20623287558555603,45.36216735839844,-73.31932830810547, -2.716029167175293
443,107165276,0.6351397,0.3232968,-0.6903094,0.124698974,10.019948959350586,2.4114630222320557,-0.6656224727630615,51.12257385253906,-80.58837890625, -2.3076119422912598
444,107181943,0.62370104,0.32978636,-0.69738925,0.12604077,10.644183158874512,3.4076459407806396,0.5772408246994019,53.5522575378418,-87.59207153320312, 0.4564928710460663
445,107198610,0.6110961,0.33613318,-0.7052965,0.12701583,11.122956275939941,3.5464885234832764,0.3209119737148285,53.14635467529297,-97.49413299560547, 2.460623025894165
446,107215277,0.59623724,0.34351748,-0.7140942,0.12871088,11.363473892211914,2.0477755069732666,0.3716201186180115,65.44692993164062,-111.46625518798828, 4.489562511444092
447,107231944,0.57959545,0.34981698,-0.7246944,0.12851155,11.331680297851562,2.3830249309539795,0.9575438499450684,54.331424713134766,-131.1861572265625, 7.870837688446045
448,107248611,0.560385,0.356177,-0.73689157,0.12687683,11.529398918151855,2.6411824226379395,1.4273700714111328,52.22871398925781,-153.930908203125, 7.949804306030273
449,107265278,0.5374236,0.36382556,-0.7504353,0.12511498,12.907395362854004,2.3258280754089355,2.2389259338378906,64.57492065429688,-179.65768432617188, 7.50341796875
450,107281945,0.5112012,0.3723592,-0.7646879,0.123590425,15.79061222076416,4.5190205574035645,5.6051506996154785,76.65345764160156,-199.3922576904297, 8.381576538085938
451,107298612,0.4820948,0.38226312,-0.7786933,0.122868285,20.05278778076172,5.447659492492676,7.749491214752197,93.36652374267578,-212.99221801757812, 5.821281909942627
452,107315279,0.45223573,0.39428383,-0.7903111,0.124224424,22.9376163482666,4.763016700744629,8.506513595581055,115.60167694091797,-205.6931915283203, -4.252057075500488
453,107331946,0.42212224,0.4061708,-0.7998457,0.13070996,24.455337524414062,4.025674343109131,7.128588676452637,145.62216186523438,-186.87774658203125, 7.0026750564575195
454,107348613,0.39272335,0.41781864,-0.80696857,0.14141385,19.432666778564453,6.182931900024414,7.317136287689209,168.36990356445312,-164.25515747070312, 13.205795288085938
455,107365280,0.3621111,0.42851716,-0.8123467,0.15919092,12.460014343261719,3.7677998542785645,5.353389263153076,210.34349060058594,-145.2958984375, 33.82349395751953
456,107381947,0.3294539,0.43942216,-0.8150748,0.18444885,6.723181247711182,6.701220989227295,-3.0901942253112793,261.6393127441406,-128.4673309326172, 45.833595275878906
457,107398614,0.3103363,0.44881523,-0.8150161,0.19494927,16.543811798095703,12.457971572875977,-2.5598199367523193,138.15869140625,-88.89798736572266, -4.606843948364258
458,107415281,0.3113497,0.44748956,-0.81783396,0.18428788,8.555807113647461,10.738633155822754,8.99327278137207,-69.08560180664062,-33.28776931762695, -7.703256607055664
459,107431948,0.32260168,0.44187352,-0.8194464,0.17083232,4.732693672180176,-0.3985869288444519,6.387977600097656,-123.81250762939453,23.522380828857422, -6.210506916046143
460,107448615,0.3333496,0.44184712,-0.81446666,0.17404982,4.1729230880737305,1.805300235748291,3.299276113510132,-8.230709075927734,79.30809020996094, -20.193754196166992
461,107465282,0.3498308,0.44214508,-0.8062118,0.17930025,3.180232286453247,6.799327373504639,2.4096145629882812,-9.593547821044922,124.68214416503906, -34.14223861694336
462,107481949,0.3747136,0.4383054,-0.7969651,0.17979078,4.695868492126465,4.543125629425049,1.647408127784729,-70.17369842529297,164.26759338378906, -35.96781921386719
463,107498616,0.40398365,0.43283564,-0.78517556,0.18152152,5.388277530670166,1.853402018547058,0.9864830374717712,-77.63008117675781,200.59933471679688, -36.88754653930664
464,107515283,0.43579885,0.42757037,-0.76965195,0.18681267,5.842655181884766,1.4385749101638794,0.23148445785045624,-60.768856048583984,235.04803466796875, -42.37257385253906
465,107531950,0.47046864,0.42145285,-0.75052506,0.19429164,7.189884185791016,1.593842625617981,0.1359354704618454,-55.53273391723633,268.491943359375, -45.54129409790039
466,107548617,0.5078398,0.41373128,-0.72774684,0.20324828,8.84285831451416,0.7330651879310608,-0.35067668557167053,-56.082794189453125,300.6825866699219, -46.63831329345703
467,107565284,0.5470788,0.4042978,-0.7013219,0.21306258,10.227561950683594,1.0523386001586914,-0.72187340259552,-58.03017044067383,327.61309814453125, -48.04396438598633
468,107581951,0.5879897,0.39307642,-0.67093194,0.22273226,12.531235694885254,0.7943205237388611,-1.7272260189056396,-64.32794189453125,352.84149169921875, -53.425079345703125
469,107598618,0.6300736,0.38037252,-0.63608897,0.23176447,15.244693756103516,1.432413101196289,-2.3777546882629395,-69.71794891357422,376.8548583984375, -62.99287414550781
470,107615285,0.67284197,0.36404532,-0.59830123,0.23830779,18.11566925048828,0.45504695177078247,-3.251810073852539,-93.45547485351562,391.9508361816406, -66.73361206054688
471,107631952,0.7116548,0.34877715,-0.557467,0.24725038,20.643468856811523,-0.15952473878860474,-5.277788162231445,-63.996490478515625,394.0980529785156, -61.19719696044922
472,107648619,0.7465291,0.33321944,-0.5159062,0.2559297,22.99770736694336,5.52808952331543,-7.7722320556640625,-71.20118713378906,379.04718017578125, -61.0111083984375
473,107665286,0.77932674,0.3112723,-0.47995907,0.25573182,22.08098030090332,5.2581353187561035,-12.824166297912598,-125.35741424560547,337.4923095703125, -62.906219482421875
474,107681953,0.80378366,0.2952573,-0.45020664,0.25311905,17.527626037597656,1.3447610139846802,-17.694530487060547,-94.6395263671875,261.4692687988281, -67.51759338378906
475,107698620,0.8198125,0.28524217,-0.42957857,0.24901143,12.707389831542969,-0.2571165859699249,-22.228534698486328,-64.99085998535156,171.87001037597656, -61.24684524536133
476,107715287,0.8265429,0.28006732,-0.4235472,0.24289301,7.450169563293457,-1.4912070035934448,-28.02821159362793,-50.5341682434082,50.3585090637207, -42.429325103759766
477,107731954,0.82243127,0.28261024,-0.43429023,0.23479895,6.934581279754639,0.8323681950569153,-24.8393611907959,-19.712459564208984,-92.72233581542969, -25.816980361938477
478,107748621,0.81089044,0.28451687,-0.46016577,0.22305743,12.338126182556152,1.7106900215148926,-19.03971290588379,-44.34226608276367,-206.12127685546875, -3.17651104927063
479,107765288,0.79852504,0.28731912,-0.48322946,0.21516325,17.794008255004883,6.353219985961914,25.120248794555664,-21.351972579956055,-186.5096893310547, 11.184033393859863
480,107781955,0.79106426,0.28267848,-0.50288665,0.20350769,15.10608959197998,-8.59208869934082,5.955817222595215,-79.24964904785156,-148.26292419433594, 1.3350348472595215
481,107798622,0.7749155,0.29569164,-0.5195382,0.20531145,16.88245964050293,-5.264194965362549,-8.777742385864258,84.45425415039062,-160.54359436035156, 19.589439392089844
482,107815289,0.7602469,0.30708516,-0.53627,0.20034479,16.102596282958984,9.001611709594727,-4.101021766662598,48.445953369140625,-166.95315551757812, -12.820683479309082
483,107831956,0.7491385,0.30966988,-0.55395436,0.18981841,13.512391090393066,3.406770944595337,-1.6115736961364746,-26.980592727661133,-158.29981994628906, -12.19272232055664
484,107848623,0.73958516,0.31152648,-0.56865114,0.18055724,12.132078170776367,-1.8096396923065186,-1.5405889749526978,-25.337554931640625,-133.30548095703125, -11.26698112487793
485,107865290,0.72974074,0.31898868,-0.578377,0.17664877,10.487318992614746,2.6089015007019043,-0.4768543243408203,30.856449127197266,-104.64944458007812, -16.329805374145508
486,107881957,0.72155136,0.32615963,-0.58527434,0.17446354,9.764589309692383,4.717469215393066,0.6218803524971008,36.05952835083008,-79.75804901123047, -14.735099792480469
487,107898624,0.7149172,0.3314669,-0.59088725,0.17284553,9.570259094238281,5.009129047393799,1.052179217338562,27.166902542114258,-63.663230895996094, -9.125846862792969
488,107915291,0.70989597,0.33390048,-0.59629697,0.17025946,10.651755332946777,3.8981974124908447,0.220063716173172,5.691107273101807,-54.95698165893555, -4.541718482971191
489,107931958,0.7050862,0.3366758,-0.6007918,0.1689742,10.967215538024902,1.810994267463684,-0.4468989372253418,13.28979206085205,-47.07565689086914, -1.9209431409835815
490,107948625,0.70005673,0.34134975,-0.603919,0.1693602,10.405130386352539,2.4260618686676025,-1.5172165632247925,31.50934410095215,-39.71630859375, -4.593372821807861
491,107965292,0.6952149,0.34657574,-0.6060896,0.17093001,9.783267974853516,3.1365203857421875,-0.6332888603210449,39.73686218261719,-32.21284866333008, -3.667234420776367
492,107981959,0.69082105,0.35101986,-0.6080731,0.17262301,9.826237678527832,3.3372175693511963,-0.27420973777770996,35.69089889526367,-28.265140533447266, -0.7891714572906494
493,107998626,0.68617034,0.3554831,-0.61009043,0.1749048,9.584651947021484,3.0919580459594727,-0.1941405087709427,38.83549118041992,-28.136432647705078, 2.3195626735687256
494,108015293,0.6813709,0.35966396,-0.6123535,0.17719784,9.283007621765137,3.446406364440918,-0.5148180723190308,37.636314392089844,-29.58786392211914, 4.338935375213623
495,108031960,0.6762973,0.36349803,-0.61508507,0.17933658,8.939170837402344,3.503384590148926,0.24752332270145416,35.48691940307617,-32.926029205322266, 6.578888893127441
496,108048627,0.6710901,0.3669268,-0.6182985,0.18085894,8.99135684967041,3.331077814102173,0.039297446608543396,30.755733489990234,-36.815155029296875, 6.8106465339660645
497,108065294,0.6655137,0.37021205,-0.6220691,0.18183653,8.988181114196777,2.784400224685669,0.10882656276226044,28.03218650817871,-42.192962646484375, 6.784860610961914
498,108081961,0.6594864,0.37337777,-0.6264723,0.18220688,9.259570121765137,2.5515735149383545,0.3162482976913452,25.270536422729492,-48.449684143066406, 6.695289611816406
499,108098628,0.65313166,0.37609017,-0.63164735,0.18165126,9.39233684539795,2.622415542602539,0.3865094482898712,19.10443115234375,-55.21748733520508, 6.8420491218566895
500,108115295,0.64653444,0.37835568,-0.6374101,0.18041225,9.617269515991211,2.6090776920318604,-0.318525105714798,14.04699420928955,-60.16409683227539, 7.5404486656188965
501,108131962,0.63968897,0.38004723,-0.6437632,0.17869268,9.548349380493164,3.0993638038635254,-0.9127638339996338,9.30270004272461,-64.45367431640625, 9.767218589782715
502,108148629,0.6327269,0.38069203,-0.6509313,0.1761219,9.597586631774902,3.549123525619507,-0.8826915621757507,0.26903414726257324,-69.51364135742188, 12.941601753234863
503,108165296,0.62517333,0.38099915,-0.65868014,0.173605,10.500930786132812,3.538271903991699,-0.5824871063232422,-0.10033979266881943,-74.16687774658203, 16.944496154785156
504,108181963,0.6151127,0.38462296,-0.6655475,0.17535158,11.244839668273926,3.3702948093414307,0.3175649344921112,41.092647552490234,-74.56446075439453, 20.948278427124023
505,108198630,0.60472083,0.3857407,-0.6747781,0.17375627,11.143970489501953,2.8621129989624023,0.4850342273712158,13.28489875793457,-91.94193267822266, 24.93556022644043
506,108215297,0.5924437,0.3865878,-0.68588245,0.1706626,11.29884147644043,2.0703976154327393,1.403759241104126,7.969235897064209,-112.2013168334961, 27.19053077697754
507,108231964,0.57777756,0.38750932,-0.6988032,0.1663851,11.21120834350586,2.3326332569122314,1.0153230428695679,6.932085037231445,-134.1852569580078, 29.640613555908203
508,108248631,0.5604178,0.3892,-0.7130296,0.16138272,11.577803611755371,2.9897170066833496,1.637317419052124,12.2259521484375,-155.20729064941406, 29.62114143371582
509,108265298,0.5390261,0.3926308,-0.7284522,0.15700142,12.882734298706055,2.9346165657043457,2.756610870361328,31.470735549926758,-179.957275390625, 31.1660099029541
510,108281965,0.5142989,0.3968473,-0.7448683,0.15225069,15.848898887634277,5.391287326812744,5.229292869567871,40.50298309326172,-202.3288116455078, 32.14578628540039
511,108298632,0.48659763,0.40278143,-0.7608522,0.1486409,18.936567306518555,6.162559986114502,7.464705467224121,61.07426071166992,-214.92286682128906, 29.3421688079834
512,108315299,0.45760468,0.41123617,-0.7743434,0.14790277,21.524707794189453,5.9860124588012695,8.557445526123047,90.76009368896484,-208.23092651367188, 20.206327438354492
513,108331966,0.42899448,0.4191886,-0.7858439,0.15064612,23.366798400878906,3.3417465686798096,6.429285049438477,108.76229095458984,-189.8856964111328, 27.84250831604004
514,108348633,0.3987083,0.42955744,-0.79428124,0.16009332,20.136049270629883,6.062406063079834,6.663480281829834,160.17465209960938,-173.39990234375, 27.48287010192871
515,108365300,0.36895016,0.43571767,-0.8033636,0.16921315,15.014240264892578,3.646409034729004,7.146337509155273,144.6677703857422,-168.89987182617188, 50.966285705566406
516,108381967,0.33646172,0.44409186,-0.8092984,0.18604302,8.374119758605957,8.644289016723633,-0.9477578401565552,204.77891540527344,-155.71466064453125, 52.12135314941406
517,108398634,0.31366962,0.45251402,-0.8118987,0.19406956,14.39715576171875,11.822515487670898,-2.900697708129883,130.65219116210938,-121.0026626586914, 9.029275894165039
518,108415301,0.3090789,0.452719,-0.81471276,0.1891005,12.814868927001953,8.586777687072754,9.329785346984863,-16.33811378479004,-49.42506790161133, 3.354572057723999
519,108431968,0.3133657,0.4496876,-0.8155745,0.18553023,4.371824741363525,1.8611682653427124,8.58811092376709,-40.352108001708984,12.759343147277832, 6.891115665435791
520,108448635,0.3210378,0.44946736,-0.8115998,0.19031519,4.402232646942139,2.2807087898254395,4.9450249671936035,8.257537841796875,64.29535675048828, -10.137454986572266
521,108465302,0.3352032,0.44924757,-0.8045189,0.19637987,3.5822701454162598,6.1389031410217285,3.3608920574188232,-0.59128338098526,111.28309631347656, -25.37746810913086
522,108481969,0.3580057,0.44521254,-0.79661906,0.19752419,4.285867214202881,5.727807521820068,1.844139814376831,-62.10508728027344,150.8731231689453, -29.745450973510742
523,108498636,0.38702503,0.43835795,-0.78690165,0.19707829,5.260510444641113,3.5271482467651367,0.5469112396240234,-94.2721176147461,188.34210205078125, -32.180694580078125
524,108515303,0.42031062,0.42983127,-0.7743387,0.19744329,5.699025630950928,2.8102056980133057,0.4204205870628357,-103.33627319335938,223.69931030273438, -35.314640045166016
525,108531970,0.45743167,0.41934827,-0.75834024,0.19955926,6.712380886077881,2.112734317779541,0.7158678770065308,-106.35215759277344,261.8786315917969, -35.18583297729492
526,108548637,0.49645332,0.40846783,-0.7377219,0.20604502,8.433908462524414,0.8069393634796143,-0.05119591951370239,-83.99694061279297,299.4575500488281, -35.27293014526367
527,108565304,0.53628844,0.39821273,-0.71206135,0.21630964,10.079239845275879,1.5739790201187134,-1.2095953226089478,-57.87138748168945,330.53289794921875, -40.84711837768555
528,108581971,0.5778513,0.38771257,-0.6813073,0.2271289,12.458593368530273,1.4411900043487549,-2.2047934532165527,-53.275535583496094,359.69927978515625, -54.082420349121094
529,108598638,0.6209398,0.3775769,-0.6445518,0.23753408,15.343419075012207,1.4654954671859741,-3.0619475841522217,-48.5150032043457,389.099365234375, -75.79693603515625
530,108615305,0.66410464,0.36550224,-0.603947,0.24621432,17.52902603149414,-0.23760297894477844,-3.8352670669555664,-58.406471252441406,404.6605224609375, -84.67239379882812
531,108631972,0.7027126,0.35526133,-0.56014824,0.25733003,20.210073471069336,-0.5547278523445129,-6.0087738037109375,-23.21538734436035,403.42901611328125, -81.51116943359375
532,108648639,0.73909014,0.3405589,-0.5179789,0.26355904,23.015087127685547,4.002825736999512,-8.751893997192383,-44.04777526855469,386.8887634277344, -75.28845977783203
533,108665306,0.77184564,0.32099357,-0.48058593,0.26505604,21.99017333984375,3.8790626525878906,-12.990443229675293,-103.04747009277344,343.8688659667969, -69.12117767333984
534,108681973,0.796749,0.30520636,-0.4501592,0.26343325,18.414798736572266,2.119814395904541,-18.653108596801758,-88.74647521972656,267.50048828125, -68.51947784423828
535,108698640,0.81291544,0.29563028,-0.4291408,0.26001877,13.04516887664795,-0.9354050755500793,-23.90247344970703,-59.10672378540039,174.3466339111328, -62.0748176574707
536,108715307,0.819745,0.2915094,-0.42205384,0.2547763,7.805296897888184,-0.7962978482246399,-28.13124656677246,-40.08604431152344,55.982852935791016, -43.50178909301758
537,108731974,0.81623197,0.29398298,-0.43141812,0.24742249,8.573671340942383,-0.10701823979616165,-25.374984741210938,-17.29510498046875,-81.98712921142578, -23.537023544311523
538,108748641,0.8045276,0.2984155,-0.454763,0.23848334,12.679924964904785,1.1312980651855469,-12.100808143615723,-18.36769676208496,-190.80685424804688, 3.8872501850128174
539,108765308,0.79417527,0.299954,-0.47631794,0.22898659,16.92955207824707,6.628664970397949,22.970882415771484,-36.032249450683594,-172.78651428222656, 3.9192051887512207
540,108781975,0.78496236,0.29468343,-0.4992377,0.21853508,17.485143661499023,-10.449627876281738,1.0387277603149414,-80.72476196289062,-168.0749969482422, 22.094497680664062
541,108798642,0.76867247,0.30419332,-0.52023524,0.21439303,16.977386474609375,-1.1470260620117188,-6.391666889190674,37.94870376586914,-191.35708618164062, 11.858426094055176
542,108815309,0.75432307,0.3093475,-0.5417865,0.20437287,13.815585136413574,6.202394008636475,-3.377246618270874,-11.03167724609375,-193.0332489013672, -5.433515548706055
543,108831976,0.7431196,0.3090185,-0.5619439,0.19104992,12.12487506866455,1.619927167892456,-3.766146183013916,-56.55388259887695,-173.31166076660156, -9.444819450378418
544,108848643,0.7315441,0.31311527,-0.5773977,0.18279496,11.30446720123291,-0.5032361149787903,-2.4028265476226807,-7.405073642730713,-145.67996215820312, -10.152844429016113
545,108865310,0.72021896,0.32188123,-0.5876694,0.17978343,10.263535499572754,3.658114194869995,-0.07084748893976212,42.849388122558594,-113.16770935058594, -13.842992782592773
546,108881977,0.7111514,0.32904017,-0.5952361,0.17801729,10.61688232421875,3.987618923187256,0.39914339780807495,38.25468826293945,-85.93711853027344, -9.943841934204102
547,108898644,0.7040151,0.33347547,-0.6018076,0.17602433,10.242851257324219,4.098137855529785,-0.2012576162815094,20.871782302856445,-70.38389587402344, -4.496753215789795
548,108915311,0.6987733,0.33467948,-0.60819083,0.17265421,11.130367279052734,3.3992197513580322,-0.23749640583992004,-4.535684585571289,-60.90211486816406, -0.4807438254356384
549,108931978,0.6943747,0.33482513,-0.61402017,0.16945562,10.872482299804688,2.2220335006713867,-0.40918266773223877,-10.19288444519043,-53.10027313232422, 2.508117437362671
550,108948645,0.6899429,0.33588302,-0.61895,0.16751875,10.185335159301758,2.9405970573425293,-1.1660797595977783,0.6171491742134094,-47.13633346557617, 2.6426682472229004
551,108965312,0.6865873,0.33505735,-0.6238854,0.16462557,9.321093559265137,4.037797451019287,-1.752937912940979,-14.859872817993164,-42.637916564941406, 4.907121658325195
552,108981979,0.6841756,0.3319545,-0.6291538,0.1608591,9.736337661743164,2.711658477783203,-0.5663295388221741,-31.907297134399414,-39.60609436035156, 10.2896728515625
553,108998646,0.68176264,0.32955977,-0.6336962,0.15817486,10.149072647094727,2.222701072692871,-0.6385687589645386,-23.061260223388672,-34.53894805908203, 10.675857543945312
554,109015313,0.6788854,0.32889926,-0.6373408,0.15727924,9.750299453735352,2.644578456878662,-0.4475554823875427,-5.101555824279785,-30.21831703186035, 9.972232818603516
555,109031980,0.6758356,0.3287131,-0.6407522,0.15694226,9.299450874328613,3.3683576583862305,-0.21980641782283783,0.20782853662967682,-29.17190933227539, 10.16399097442627
556,109048647,0.67222196,0.32913536,-0.6442743,0.15715688,9.236468315124512,2.9260406494140625,-0.7860556244850159,6.665060520172119,-31.61189842224121, 10.924149513244629
557,109065314,0.6679563,0.33084625,-0.6475808,0.15815927,9.111346244812012,2.8841395378112793,0.06618453562259674,17.81676483154297,-33.14363479614258, 9.079870223999023
558,109081981,0.66249293,0.33488455,-0.65049493,0.16066071,9.37097454071045,2.638864278793335,0.4179505705833435,38.34170150756836,-35.839988708496094, 6.0158233642578125
559,109098648,0.65615875,0.33916998,-0.65421295,0.1625576,9.582657814025879,2.611417293548584,0.8113696575164795,37.924617767333984,-45.105133056640625, 4.967048645019531
560,109115315,0.6489487,0.34316903,-0.65902317,0.16367418,9.498730659484863,2.669457197189331,0.18960820138454437,33.94749069213867,-55.533912658691406, 6.259108066558838
561,109131982,0.6409456,0.3467382,-0.6649249,0.16381824,9.576132774353027,2.8215298652648926,0.07116355001926422,28.30649757385254,-65.85015869140625, 7.336667537689209
562,109148649,0.63193256,0.35048085,-0.6715779,0.16373064,9.99979305267334,2.6625328063964844,-0.5531796216964722,29.576919555664062,-74.57518768310547, 8.457141876220703
563,109165316,0.621913,0.35433787,-0.67888755,0.16364855,10.506855964660645,3.135514974594116,0.6760132908821106,31.814741134643555,-82.22683715820312, 10.66849136352539
564,109181983,0.610711,0.35835296,-0.68696266,0.1633945,10.754220962524414,3.5108752250671387,0.4377579689025879,33.70781707763672,-91.6870346069336, 12.40181827545166
565,109198650,0.59775263,0.36260375,-0.6962116,0.16278796,11.001033782958984,2.8566622734069824,0.8485414981842041,36.09374237060547,-106.10417938232422, 14.68503189086914
566,109215317,0.58239275,0.3668353,-0.70730793,0.16114028,10.947511672973633,1.9294596910476685,0.30044931173324585,34.99121856689453,-127.84324645996094, 17.792591094970703
567,109231984,0.5643048,0.371243,-0.7202833,0.15789592,11.001791000366211,2.3242201805114746,1.585418939590454,32.74263381958008,-152.93280029296875, 18.294654846191406
568,109248651,0.5423564,0.37747964,-0.7346129,0.15395686,12.682126998901367,2.705876111984253,1.7292507886886597,44.81886291503906,-181.17208862304688, 14.184505462646484
569,109265318,0.5162806,0.38531008,-0.7500097,0.14992099,15.969050407409668,4.5920281410217285,5.461967468261719,59.904624938964844,-208.06533813476562, 12.906363487243652
570,109281985,0.48671788,0.39559042,-0.76471716,0.14772283,20.10040283203125,6.131503582000732,7.614999771118164,88.1072006225586,-221.4813690185547, 8.578306198120117
571,109298652,0.45646763,0.40914086,-0.77580464,0.14956084,22.77619171142578,5.25946044921875,8.453360557556152,125.94587707519531,-205.6168975830078, -4.235992431640625
572,109315319,0.4245418,0.4254609,-0.78280884,0.16111417,24.2679500579834,3.2650437355041504,6.166625499725342,195.49034118652344,-177.60165405273438, 1.7491565942764282
573,109331986,0.38953328,0.44109076,-0.7885951,0.17838348,19.514272689819336,7.10059118270874,6.430787086486816,234.69345092773438,-173.48977661132812, 22.039077758789062
574,109348653,0.3591484,0.4494041,-0.7950056,0.19239245,13.760517120361328,5.9873199462890625,7.3470563888549805,182.7117156982422,-151.27113342285156, 49.31596755981445
575,109365320,0.32756317,0.45862523,-0.79734087,0.21589997,8.759554862976074,6.755749225616455,-0.6292432546615601,246.0869140625,-119.85098266601562, 56.935951232910156
576,109381987,0.30524197,0.46613187,-0.7979011,0.2300058,11.817649841308594,9.929117202758789,-5.811474323272705,164.1607666015625,-92.19131469726562, 25.937305450439453
577,109398654,0.3043598,0.46792853,-0.79998726,0.22006449,11.916011810302734,13.971617698669434,6.337789058685303,-50.728389739990234,-45.843780517578125, -22.097719192504883
578,109415321,0.31894296,0.45986876,-0.804625,0.19843104,4.473827838897705,3.176161289215088,9.332194328308105,-189.05645751953125,10.936112403869629, -7.488833904266357
579,109431988,0.334164,0.45511377,-0.8029799,0.19086486,4.135608673095703,-1.1902186870574951,3.864166021347046,-97.39620208740234,68.04737091064453, -15.709563255310059
580,109448655,0.3507523,0.45408309,-0.79584116,0.19343838,2.549760103225708,5.689111232757568,2.57275128364563,-29.983585357666016,115.00165557861328, -31.992931365966797
581,109465322,0.37598264,0.44958705,-0.7872906,0.1915258,4.090912342071533,5.3903303146362305,2.1391217708587646,-87.92933654785156,156.28857421875, -39.705970764160156
582,109481989,0.40655252,0.4423389,-0.77646405,0.1901448,5.407142639160156,1.882704734802246,1.0710861682891846,-105.63221740722656,196.3180389404297, -37.461517333984375
583,109498656,0.43900248,0.4355261,-0.76156366,0.19394544,5.433193683624268,0.6696129441261292,-0.11600501835346222,-77.15762329101562,232.91152954101562, -40.13855743408203
584,109515323,0.4729183,0.42956692,-0.74213535,0.20262195,6.594491958618164,1.0631768703460693,-0.12369492650032043,-47.446693420410156,267.7322692871094, -45.38130569458008
585,109531990,0.5093677,0.42230576,-0.71896815,0.21280856,8.269745826721191,0.9343895316123962,-0.07238331437110901,-46.291141510009766,299.1122131347656, -48.36336898803711
586,109548657,0.54779804,0.4137989,-0.69157714,0.22451948,10.310065269470215,0.504916250705719,-0.6121859550476074,-42.72775650024414,329.96807861328125, -51.99772644042969
587,109565324,0.58796453,0.40404356,-0.6597036,0.23630054,12.870233535766602,1.1019574403762817,-2.0237789154052734,-45.20450973510742,357.2646789550781, -61.20378112792969
588,109581991,0.62879884,0.39242828,-0.6241786,0.24700868,14.503955841064453,0.7520173192024231,-3.179309844970703,-53.555450439453125,375.1619567871094, -68.31883239746094
589,109598658,0.6681903,0.3800861,-0.58551896,0.25734052,17.53521728515625,1.2520294189453125,-3.758810520172119,-49.21736526489258,382.8209533691406, -72.8359375
590,109615325,0.70406634,0.36863434,-0.54422295,0.26873955,21.105485916137695,1.9718621969223022,-5.414740562438965,-27.142240524291992,382.0874938964844, -72.21177673339844
591,109631992,0.7363104,0.35658365,-0.5028009,0.2790816,22.658771514892578,4.26763391494751,-8.232367515563965,-30.682228088378906,366.2292175292969, -70.5120620727539
592,109648659,0.76504815,0.342507,-0.4652049,0.2845608,20.5778865814209,3.9961180686950684,-11.72643756866455,-50.674861907958984,328.3927917480469, -70.28154754638672
593,109665326,0.7871678,0.33223358,-0.43323627,0.28686976,16.75771713256836,2.8686563968658447,-13.728577613830566,-36.302913665771484,263.0408630371094, -72.94141387939453
594,109681993,0.80265105,0.32501513,-0.41037,0.28585503,13.978474617004395,0.8363121747970581,-17.104581832885742,-32.585933685302734,180.74810791015625, -66.20252227783203
595,109698660,0.81148994,0.32030562,-0.3992677,0.28191155,9.477993965148926,-2.2510735988616943,-21.777366638183594,-35.41488265991211,86.01860809326172, -50.1973876953125
596,109715327,0.811668,0.3219983,-0.40225926,0.27513608,7.972440719604492,-1.2650669813156128,-19.61625099182129,-15.845152854919434,-34.57377243041992, -35.88188171386719
597,109731994,0.80556613,0.3238662,-0.42015767,0.26389712,9.660598754882812,-0.40802738070487976,-17.57086181640625,-41.61705780029297,-144.95037841796875, -16.480854034423828
598,109748661,0.7963304,0.32192615,-0.44841993,0.24726713,14.623749732971191,2.39316725730896,-9.714011192321777,-90.22237396240234,-216.1608428955078, -6.633256435394287
599,109765328,0.78883517,0.3167062,-0.4727938,0.23216891,14.62492561340332,4.921558380126953,24.243701934814453,-100.76470947265625,-180.2656707763672, 0.29252177476882935
600,109781995,0.7822794,0.30800936,-0.4945612,0.22040579,15.33829402923584,-14.056464195251465,1.2798585891723633,-106.49557495117188,-150.62429809570312, 22.568082809448242
601,109798662,0.7667572,0.31997442,-0.5104692,0.22163239,16.835725784301758,-5.099828720092773,-7.013583660125732,76.68331146240234,-153.36083984375, 22.96988868713379
602,109815329,0.75247324,0.33125103,-0.5262622,0.21703663,14.395323753356934,9.305450439453125,-3.381279468536377,50.00899124145508,-159.97052001953125, -7.658610820770264
603,109831996,0.7418511,0.33375806,-0.54364145,0.20668012,14.23370361328125,2.5559489727020264,-1.4774595499038696,-26.959184646606445,-154.8541717529297, -7.461183547973633
604,109848663,0.73130846,0.33731773,-0.5583784,0.19904417,11.916833877563477,-0.16768085956573486,-0.7141143083572388,-7.873579025268555,-136.2813262939453, -3.7008044719696045
605,109865330,0.72167724,0.34267116,-0.56941956,0.1937007,9.828435897827148,4.296271324157715,0.025705724954605103,12.859062194824219,-111.32865905761719, -8.935873985290527
606,109881997,0.7138156,0.34668803,-0.5781674,0.18972959,9.221074104309082,4.79179573059082,0.020100459456443787,10.512507438659668,-88.01602172851562, -4.605599403381348
607,109898664,0.70793176,0.34810856,-0.5857367,0.18591857,9.689019203186035,5.310351848602295,0.3601242005825043,-4.772127628326416,-70.62726593017578, 1.1657377481460571
608,109915331,0.703793,0.34709257,-0.59257185,0.18182667,10.737698554992676,3.221078872680664,-0.2655441164970398,-20.984954833984375,-57.61505126953125, 5.685947895050049
609,109931998,0.7000696,0.34654152,-0.5981959,0.1788116,11.406388282775879,1.2119076251983643,-0.21160738170146942,-13.792764663696289,-48.08972930908203, 5.610978603363037
610,109948665,0.69668627,0.34657842,-0.60279197,0.17650385,10.86888599395752,2.513714075088501,-0.8394721150398254,-7.610846519470215,-40.808284759521484, 3.6971068382263184
611,109965332,0.69433296,0.3446594,-0.6075636,0.17314269,9.812711715698242,2.91971492767334,-1.0050772428512573,-24.008543014526367,-37.53131103515625, 5.925610542297363
612,109981999,0.6924899,0.34228548,-0.6119326,0.16981521,9.633270263671875,2.617492914199829,-0.5755789875984192,-26.76878547668457,-32.87040710449219, 6.439604759216309
613,109998666,0.69042295,0.3413753,-0.61525404,0.1680533,9.41537857055664,3.244777202606201,-0.3028107285499573,-11.445684432983398,-26.869403839111328, 5.540895462036133
614,110015333,0.6881504,0.34086147,-0.6182934,0.16725965,9.32889175415039,3.730679988861084,0.2519432008266449,-4.645296573638916,-24.61294174194336, 8.05320930480957
615,110032000,0.6852521,0.34061918,-0.6216895,0.1670635,9.348669052124023,3.4016857147216797,-0.23233312368392944,0.259579062461853,-27.910612106323242, 11.307598114013672
616,110048667,0.6815317,0.34157667,-0.62512684,0.1675003,8.89966869354248,3.355651617050171,0.260677307844162,10.50983715057373,-31.543607711791992, 10.218518257141113
617,110065334,0.676679,0.34399834,-0.6288091,0.16843395,8.879936218261719,2.9214959144592285,0.5853840708732605,21.906497955322266,-38.1151123046875, 8.14870548248291
618,110082001,0.67057437,0.34746987,-0.6331682,0.16938949,8.829424858093262,2.932274341583252,1.377659797668457,29.087087631225586,-47.88549041748047, 6.768917560577393
619,110098668,0.66343063,0.3513987,-0.63845676,0.16956377,8.974004745483398,3.062120199203491,0.7268378138542175,29.232444763183594,-59.15290832519531, 4.614243030548096
620,110115335,0.6551563,0.35575947,-0.6446221,0.1693156,9.885369300842285,2.6719021797180176,0.2443823665380478,31.057106018066406,-69.69410705566406, 4.235921382904053
621,110132002,0.64603317,0.3602799,-0.65139824,0.16887887,10.11900520324707,2.5586326122283936,0.11776074767112732,32.32135009765625,-76.89926147460938, 5.159235000610352
622,110148669,0.63626665,0.36508283,-0.6584046,0.16847193,10.421142578125,2.518040657043457,-0.2688881754875183,35.06211853027344,-81.10031127929688, 5.338313102722168
623,110165336,0.6258044,0.37034371,-0.6654259,0.16859172,10.2637300491333,2.9984030723571777,-0.3066486716270447,41.19260025024414,-83.5650634765625, 6.405299186706543
624,110182003,0.6141637,0.375966,-0.6729629,0.16903755,10.3927001953125,3.7887535095214844,0.2167331725358963,46.672054290771484,-90.80598449707031, 8.835254669189453
625,110198670,0.6008847,0.3815456,-0.68181163,0.16880006,10.656000137329102,3.076538324356079,0.08050057291984558,46.06059265136719,-105.70365905761719, 11.460592269897461
626,110215337,0.58586514,0.38672262,-0.69220454,0.16751339,11.101719856262207,2.6506590843200684,0.9495266079902649,42.28047561645508,-122.5903549194336, 15.08799934387207
627,110232004,0.5689276,0.39155146,-0.70424306,0.16447055,11.163856506347656,2.488966941833496,0.6499427556991577,35.77630615234375,-142.70033264160156, 16.247909545898438
628,110248671,0.5491785,0.39715222,-0.71767455,0.16005139,11.495203018188477,2.504699468612671,0.6960834264755249,38.13055419921875,-166.43930053710938, 14.055930137634277
629,110265338,0.52598685,0.40401226,-0.7321644,0.15507194,13.814223289489746,2.8867809772491455,3.0610671043395996,48.40597915649414,-190.43919372558594, 12.393391609191895
630,110282005,0.500034,0.41132772,-0.74730873,0.14934917,17.748149871826172,4.772615909576416,5.628067493438721,53.32654571533203,-209.4344940185547, 12.16871166229248
631,110298672,0.47172445,0.42093512,-0.76090443,0.14599371,21.03040885925293,5.524143695831299,7.694855213165283,81.71855926513672,-212.14158630371094, 6.57854700088501
632,110315339,0.44265923,0.43419847,-0.7701542,0.14962327,24.540746688842773,3.7226274013519287,7.137414455413818,136.79055786132812,-185.78866577148438, -1.6985689401626587
633,110332006,0.409474,0.4518208,-0.7747337,0.16726342,23.051084518432617,5.147374153137207,6.072742938995361,241.4674072265625,-156.43922424316406, 8.176776885986328
634,110348673,0.37369117,0.46809125,-0.77897924,0.18557191,16.569477081298828,8.989771842956543,5.282259464263916,249.7683563232422,-166.0604705810547, 19.307743072509766
635,110365340,0.34076706,0.47792447,-0.7840855,0.20168373,11.243717193603516,5.410478591918945,3.979412317276001,211.2933349609375,-152.05661010742188, 47.43558883666992
636,110382007,0.31043148,0.4857841,-0.7869534,0.21988784,6.4661383628845215,6.169118404388428,-3.580087184906006,212.6291961669922,-123.39771270751953, 52.159507751464844
637,110398674,0.29066297,0.49597454,-0.78465337,0.2320419,15.333208084106445,13.463191986083984,-0.918763279914856,157.45840454101562,-78.87882232666016, -6.47912073135376
638,110415341,0.29298067,0.49370104,-0.788542,0.22050701,7.680324554443359,8.01911735534668,8.345601081848145,-80.18915557861328,-33.16316604614258, -0.5584356784820557
639,110432008,0.3041721,0.4889844,-0.79048514,0.2085834,4.632660388946533,1.050044298171997,7.15987491607666,-114.27396392822266,21.03062629699707, -8.128425598144531
640,110448675,0.31808704,0.48672152,-0.78712815,0.20579614,3.6492347717285156,3.7548394203186035,4.834102153778076,-61.0557861328125,73.9781723022461, -24.123395919799805
641,110465342,0.33928984,0.4826784,-0.78139454,0.20328961,3.811450481414795,5.57380485534668,3.327895402908325,-84.4225082397461,122.00042724609375, -32.13083267211914
642,110482009,0.3675763,0.47531044,-0.7739145,0.20005994,5.393813610076904,3.940901041030884,2.047290563583374,-117.0754165649414,166.32505798339844, -31.622987747192383
643,110498676,0.39923093,0.46718603,-0.762918,0.20076919,5.922274112701416,2.406463623046875,0.34342822432518005,-104.178955078125,206.9925537109375, -33.75111389160156
644,110515343,0.43362018,0.45838642,-0.748293,0.20472765,6.567038536071777,2.0500054359436035,-0.2349284291267395,-92.77871704101562,242.64520263671875, -36.70728302001953
645,110532010,0.47043866,0.4484122,-0.7300694,0.211217,7.495058536529541,1.6391125917434692,0.07139270007610321,-85.88164520263672,275.4966735839844, -37.8558235168457
646,110548677,0.50875777,0.4372766,-0.7081013,0.22033504,9.022649765014648,1.2140907049179077,-0.28014594316482544,-75.6727294921875,304.92547607421875, -37.22264862060547
647,110565344,0.5480075,0.4251166,-0.682141,0.23161978,10.71373462677002,1.4828087091445923,-1.2664263248443604,-65.52333068847656,331.4873352050781, -38.041717529296875
648,110582011,0.5878784,0.41206324,-0.6519164,0.24414748,12.645029067993164,1.8026477098464966,-2.3321762084960938,-58.15898132324219,355.552978515625, -42.5926628112793
649,110598678,0.62819684,0.3982677,-0.61726075,0.25640008,14.738046646118164,2.724260091781616,-3.0043792724609375,-56.258670806884766,376.0117492675781, -53.66194152832031
650,110615345,0.6685816,0.3825505,-0.5794311,0.26629585,17.465255737304688,2.8003885746002197,-3.291698694229126,-69.34150695800781,387.0136413574219, -64.47334289550781
651,110632012,0.70615286,0.36731124,-0.53857356,0.27635008,20.765745162963867,2.669954299926758,-5.405181884765625,-53.62492370605469,389.3888244628906, -68.4563980102539
652,110648679,0.74053335,0.3518644,-0.49716243,0.28395694,22.62785530090332,5.801473140716553,-8.425897598266602,-53.97138977050781,374.8392333984375, -74.709716796875
653,110665346,0.77191114,0.33287415,-0.46062994,0.28490016,20.64105987548828,5.0868611335754395,-11.918343544006348,-97.99642944335938,330.6137390136719, -79.12042999267578
654,110682013,0.7960444,0.3166422,-0.4321888,0.28153902,16.39508628845215,2.521393060684204,-15.124953269958496,-96.40727233886719,249.81056213378906, -78.03823852539062
655,110698680,0.81304646,0.30293187,-0.4140543,0.2752215,13.099920272827148,-0.16881150007247925,-20.115686416625977,-95.9683609008789,161.31298828125, -65.56623077392578
656,110715347,0.8214546,0.29484534,-0.40814266,0.2677654,8.507522583007812,-3.099726438522339,-25.686368942260742,-73.14027404785156,56.02936935424805, -46.344818115234375
657,110732014,0.8191911,0.29641238,-0.4168478,0.25942963,7.289549827575684,0.013128310441970825,-22.97523307800293,-26.497013092041016,-75.4327621459961, -29.26941680908203
658,110748681,0.80971277,0.2986046,-0.44011387,0.24799313,11.757760047912598,1.6993672847747803,-18.93636131286621,-43.27924346923828,-185.06600952148438, -6.04408597946167
659,110765348,0.7967483,0.30162016,-0.46607316,0.23873296,16.252872467041016,3.158276319503784,10.759824752807617,-29.652000427246094,-207.0790252685547, 15.030867576599121
660,110782015,0.7899991,0.29687294,-0.48645294,0.226123,14.01859188079834,-1.7814561128616333,14.6001615524292,-86.58512878417969,-150.8983154296875, -0.22823350131511688
661,110798682,0.7761987,0.30389467,-0.50424206,0.22561863,18.46169090270996,-11.452342987060547,-8.180031776428223,36.35929870605469,-154.2224884033203, 31.7225399017334
662,110815349,0.76089245,0.31763303,-0.5200562,0.22292104,17.06047821044922,7.064610481262207,-4.913304328918457,70.76582336425781,-163.63406372070312, -5.455655574798584
663,110832016,0.74898463,0.32298282,-0.53763455,0.21366669,14.755763053894043,3.808284282684326,-1.723923683166504,-6.75665807723999,-161.99314880371094, -11.056495666503906
664,110848683,0.7389217,0.32556254,-0.55369544,0.20353171,12.95462703704834,-1.6724512577056885,-0.3371690809726715,-26.180063247680664,-145.17271423339844, -11.412361145019531
665,110865350,0.72854847,0.33246496,-0.5654078,0.19747983,9.904921531677246,2.3965961933135986,-0.5834734439849854,18.085540771484375,-121.15585327148438, -16.52120590209961
666,110882017,0.71964294,0.33863991,-0.5746619,0.19287533,8.67706298828125,6.388329982757568,0.17484420537948608,20.060274124145508,-98.83820343017578, -14.046133041381836
667,110898684,0.71188456,0.343654,-0.58227986,0.18992788,9.167235374450684,5.0173420906066895,0.5072441101074219,20.36433982849121,-80.84383392333984, -6.4968085289001465
668,110915351,0.70528865,0.34702814,-0.5890778,0.18742183,10.238958358764648,5.126194953918457,0.38198918104171753,12.444446563720703,-69.03146362304688, -1.1685997247695923
669,110932018,0.6997066,0.3485144,-0.5956661,0.18474412,11.43394660949707,2.016573667526245,0.04694170504808426,0.4649215340614319,-61.923397064208984, 3.892369508743286
670,110948685,0.6941197,0.35115162,-0.60110736,0.18319479,10.654768943786621,2.2189221382141113,-1.009097933769226,12.105843544006348,-55.216064453125, 1.841310977935791
671,110965352,0.68978983,0.35281587,-0.60574037,0.18107957,10.083194732666016,1.999523639678955,-1.4338561296463013,3.1128182411193848,-46.317535400390625, -0.3880225121974945
672,110982019,0.68674666,0.3534104,-0.6095978,0.1785239,10.053422927856445,2.1988344192504883,-1.4497061967849731,-5.962947845458984,-37.02965545654297, -1.5205310583114624
673,110998686,0.68375975,0.35457954,-0.6127395,0.17690746,9.782255172729492,2.9903695583343506,-0.9665097594261169,1.4464118480682373,-31.844078063964844, -1.3100942373275757
674,111015353,0.6807913,0.35537788,-0.6159447,0.17561871,9.40990924835205,3.466400146484375,-1.231041669845581,0.9593460559844971,-30.84029197692871, 1.9318509101867676
675,111032020,0.6777113,0.3562955,-0.61895955,0.17507166,9.11308479309082,3.469769239425659,-1.1850746870040894,5.176553249359131,-28.77002716064453, 4.5876007080078125
676,111048687,0.673479,0.35941276,-0.6212815,0.17679991,8.879676818847656,3.330839157104492,-0.7026568651199341,28.780521392822266,-27.536808013916016, 5.533585071563721
677,111065354,0.6683825,0.36322576,-0.62385726,0.17925955,8.913485527038574,4.355359077453613,1.400730848312378,36.96549987792969,-31.472333908081055, 7.634538173675537
678,111082021,0.66317356,0.3655976,-0.62779176,0.18004732,9.176706314086914,3.130790948867798,0.575519859790802,21.823219299316406,-40.67217254638672, 9.698881149291992
679,111098688,0.6569563,0.36862126,-0.6323149,0.18084507,9.176932334899902,3.126086950302124,0.20810972154140472,26.669498443603516,-48.54860305786133, 9.666128158569336
680,111115355,0.6497341,0.37217137,-0.63751453,0.18140988,9.288161277770996,3.0568723678588867,0.5796384811401367,29.764240264892578,-57.268577575683594, 9.296568870544434
681,111132022,0.6416498,0.37580964,-0.6435367,0.18142073,9.421662330627441,2.9886631965637207,0.1712554395198822,28.964176177978516,-66.30277252197266, 9.620931625366211
682,111148689,0.6324758,0.3799662,-0.65011716,0.18151584,9.893994331359863,2.9120609760284424,-0.053807035088539124,33.713741302490234,-74.08335876464844, 10.507917404174805
683,111165356,0.6222823,0.38426983,-0.65741926,0.18138742,10.28082275390625,3.2930073738098145,0.6149318218231201,35.18023681640625,-82.5899429321289, 12.034687995910645
684,111182023,0.6109034,0.38871476,-0.6656091,0.18072835,10.715201377868652,3.3690195083618164,0.809786319732666,35.432830810546875,-93.39875030517578, 12.957984924316406
685,111198690,0.5979822,0.3932739,-0.6750227,0.17915769,11.363327026367188,1.8834196329116821,0.0032282620668411255,34.37681198120117,-108.25785827636719, 13.801753044128418
686,111215357,0.58358735,0.3974457,-0.68587327,0.17618345,11.556024551391602,1.479848027229309,0.22346028685569763,28.513809204101562,-124.39490509033203, 15.50451946258545
687,111232024,0.56728953,0.4015619,-0.6981778,0.17169265,11.633476257324219,2.3309051990509033,0.3744431138038635,24.565025329589844,-143.3734893798828, 15.937300682067871
688,111248691,0.54806656,0.40667763,-0.71178156,0.166143,11.80661678314209,2.9033405780792236,1.5493104457855225,29.989486694335938,-166.67926025390625, 14.030189514160156
689,111265358,0.52498055,0.4131953,-0.7266267,0.16024598,13.42939281463623,3.215069055557251,2.814635753631592,42.98469161987305,-192.9762420654297, 13.748602867126465
690,111282025,0.4985244,0.42075095,-0.7421551,0.15377888,16.905832290649414,6.120291233062744,5.086735725402832,52.759910583496094,-215.23153686523438, 12.158467292785645
691,111298692,0.4700201,0.4295895,-0.75668466,0.14819764,20.44255828857422,6.305596351623535,8.143735885620117,68.78512573242188,-221.32252502441406, 7.952515602111816
692,111315359,0.44103232,0.43998772,-0.76862705,0.14530611,22.671592712402344,3.764181613922119,6.923770904541016,92.0133285522461,-209.497314453125, 1.406607985496521
693,111332026,0.4111252,0.45163473,-0.77739745,0.15051736,23.869108200073242,3.414335250854492,8.18979263305664,144.66470336914062,-181.86212158203125, 10.692998886108398
694,111348693,0.38009855,0.46497414,-0.78244776,0.16462038,18.832828521728516,6.587287902832031,7.001513957977295,204.3893585205078,-151.91612243652344, 16.424467086791992
695,111365360,0.3524854,0.4722658,-0.7884933,0.17606121,12.606485366821289,4.725782871246338,4.420631408691406,162.3353271484375,-138.15866088867188, 41.4371337890625
696,111382027,0.32376093,0.47789127,-0.79330677,0.19355486,5.975301742553711,5.870588302612305,-5.109737396240234,196.2991180419922,-119.74160766601562, 62.60000991821289
697,111398694,0.30593836,0.4841564,-0.7941429,0.20330125,14.601310729980469,13.341958045959473,-4.176479339599609,124.9887924194336,-77.6627197265625, 14.416278839111328
698,111415361,0.30996108,0.4805806,-0.797404,0.19264865,8.948925018310547,11.043274879455566,8.868268013000488,-82.94468688964844,-17.764419555664062, 2.92952036857605
699,111432028,0.32144758,0.47330308,-0.7991074,0.18461607,3.160768985748291,-0.4829828143119812,7.028309345245361,-98.86932373046875,39.767433166503906, 13.836432456970215
700,111448695,0.33040905,0.47207636,-0.7938707,0.19427603,4.16616153717041,1.8561235666275024,2.096745014190674,28.683155059814453,91.0146713256836, 0.2876206636428833
