PacketCounter,SampleTimeFine,Quat_W,Quat_X,Quat_Y,Quat_Z,Acc_X,Acc_Y,Acc_Z,Gyr_X,Gyr_Y,Gyr_Z 
1,3556455711,0.6989599,0.31584808,-0.3841661,0.5139178,0.056593090295791626,0.03178655728697777,0.002756582573056221,-0.09560027718544006,0.22601942718029022, 0.01549120619893074
2,3556472378,0.69923013,0.31533197,-0.38421986,0.513827,13.44006633758545,0.5386984348297119,7.827908992767334,2.7255303859710693,1.132023572921753, -1.1618047952651978
3,3556489045,0.69866115,0.3143708,-0.38527593,0.51439863,13.269372940063477,0.9665430188179016,7.758032321929932,2.0058393478393555,1.3628325462341309, -0.5990298390388489
4,3556505712,0.6990686,0.31554186,-0.3846217,0.5136172,13.262348175048828,0.4291265308856964,7.616052150726318,0.35986486077308655,0.6636314392089844, -1.2153609991073608
5,3556522379,0.69860613,0.31560367,-0.3851707,0.5137971,13.397804260253906,0.8263869285583496,7.819492340087891,2.705104351043701,1.7446151971817017, -0.40181198716163635
6,3556539046,0.69865924,0.3157316,-0.38520288,0.5136221,13.008378982543945,0.8471161127090454,7.520170211791992,-0.7896907925605774,1.8748178482055664, -0.894523561000824
7,3556555713,0.69871455,0.31619778,-0.38489026,0.51349425,13.457968711853027,0.4065352976322174,7.750302314758301,0.6815731525421143,2.2305779457092285, -0.3423137664794922
8,3556572380,0.69856,0.3160857,-0.38494006,0.5137363,13.216821670532227,1.0809561014175415,7.667294025421143,0.5498085021972656,2.814995765686035, -0.30799269676208496
9,3556589047,0.6987883,0.31622028,-0.38467354,0.5135428,13.350284576416016,0.5017973184585571,7.706542491912842,0.011519311927258968,2.975882053375244, -0.2903839945793152
10,3556605714,0.69889784,0.31609666,-0.38453212,0.51357555,13.349547386169434,0.8833669424057007,7.81804084777832,0.39167580008506775,3.3490333557128906, -0.07233026623725891
11,3556622381,0.69907695,0.31599793,-0.38434088,0.51353574,13.096193313598633,0.6271712183952332,7.592541694641113,-0.39539599418640137,2.8197338581085205, -0.056642480194568634
12,3556639048,0.69925916,0.31583858,-0.38418958,0.51349914,13.495509147644043,0.5873312950134277,7.976800918579102,0.5419198870658875,2.878028631210327, 0.18824690580368042
13,3556655715,0.69927084,0.31567907,-0.38407204,0.513669,13.1854248046875,0.8066259622573853,7.711550712585449,-0.3155996799468994,2.032937526702881, 0.09155899286270142
14,3556672382,0.6993073,0.3157192,-0.38381565,0.51378614,13.095584869384766,0.500140905380249,7.759302616119385,1.2821654081344604,1.9075124263763428, -0.3484607934951782
15,3556689049,0.6993246,0.3156648,-0.38354006,0.51400185,13.405024528503418,0.6279491782188416,7.71612024307251,1.7039554119110107,2.2079360485076904, -0.04414349049329758
16,3556705716,0.6993254,0.31556407,-0.38334677,0.5142067,13.136380195617676,0.783698558807373,7.6728835105896,0.4440538287162781,2.2004575729370117, -0.29833677411079407
17,3556722383,0.69937205,0.31545854,-0.3830862,0.51440215,13.31936264038086,0.4183865487575531,7.732024192810059,1.0268195867538452,2.684704065322876, 0.03325168788433075
18,3556739050,0.69953126,0.3151419,-0.3829874,0.5144534,13.136929512023926,0.8926271796226501,7.653711318969727,0.007510923780500889,2.786360740661621, -0.046525467187166214
19,3556755717,0.6996252,0.31493536,-0.3827733,0.5146116,13.202646255493164,0.5547075867652893,7.73228120803833,0.2553650140762329,2.998997211456299, 0.09632295370101929
20,3556772384,0.69965136,0.31471473,-0.38256666,0.5148646,13.331197738647461,0.8316106796264648,7.838821887969971,0.3122636675834656,2.9994969367980957, 0.5108773708343506
21,3556789051,0.6997946,0.31441602,-0.3824661,0.51492697,13.077486038208008,0.6115078926086426,7.638009071350098,-0.2528741657733917,2.675227403640747, 0.4886454939842224
22,3556805718,0.6998529,0.31424746,-0.38226384,0.5151011,13.316380500793457,0.5626282095909119,7.9120049476623535,1.1118793487548828,2.744637966156006, 0.6474827527999878
23,3556822385,0.69982994,0.314043,-0.3821613,0.51533246,13.221805572509766,0.5965965986251831,7.686189651489258,-0.4065631926059723,2.126603126525879, 0.6148776412010193
24,3556839052,0.699964,0.31377095,-0.38210195,0.5153605,13.108015060424805,0.5414933562278748,7.817995548248291,0.0655364990234375,2.3074545860290527, 0.40553227066993713
25,3556855719,0.70005554,0.31359115,-0.3819325,0.51547116,13.303698539733887,0.6023933291435242,7.728590965270996,1.324976921081543,2.48222279548645, 0.4690389633178711
26,3556872386,0.7000791,0.31337896,-0.38185996,0.51562196,13.061856269836426,0.6336314082145691,7.632991790771484,-0.48710235953330994,2.037304639816284, 0.2682226002216339
27,3556889053,0.7001223,0.31321347,-0.3817241,0.51576436,13.097196578979492,0.38528773188591003,7.636377811431885,0.42351242899894714,2.2719039916992188, 0.2642398178577423
28,3556905720,0.70023537,0.31302297,-0.3815603,0.51584756,13.163687705993652,0.7568386793136597,7.750376224517822,0.8767290711402893,2.6278693675994873, 0.0363636314868927
29,3556922387,0.70027053,0.31291565,-0.38134354,0.51602525,13.224417686462402,0.5400668382644653,7.754149913787842,0.8709535002708435,2.5287868976593018, -0.0059677595272660255
30,3556939054,0.70028406,0.31278473,-0.38116774,0.5162161,13.19115161895752,0.4437562823295593,7.744222164154053,0.38793638348579407,2.3838443756103516, 0.07365571707487106
31,3556955721,0.70042557,0.3126742,-0.38088915,0.51629686,13.293227195739746,0.8407823443412781,7.819543361663818,1.0661861896514893,2.7090744972229004, -0.49624601006507874
32,3556972388,0.70054054,0.31253245,-0.3806295,0.5164179,13.190215110778809,0.5129001140594482,7.714653491973877,0.504435658454895,2.470658779144287, -0.013280184008181095
33,3556989055,0.7006745,0.3123244,-0.38041088,0.5165233,13.207121849060059,0.523231029510498,7.774715900421143,-0.317302942276001,2.423428773880005, 0.0049112350679934025
34,3557005722,0.70079404,0.31216002,-0.3800646,0.5167157,13.191506385803223,0.753237783908844,7.737744331359863,0.8052441477775574,3.012610912322998, 0.23235201835632324
35,3557022389,0.70098984,0.31190866,-0.3798512,0.5167585,13.10958194732666,0.5616780519485474,7.671614646911621,-0.1482207030057907,2.575939655303955, 0.0699290782213211
36,3557039056,0.701056,0.31176916,-0.37945685,0.5170425,13.270362854003906,0.6309270858764648,7.825135707855225,1.3498467206954956,3.1954591274261475, 0.6541803479194641
37,3557055723,0.70123255,0.31149837,-0.37921527,0.5171435,13.277892112731934,0.6648373007774353,7.81959342956543,-0.3363972008228302,2.8293261528015137, 0.17561988532543182
38,3557072390,0.70139754,0.31129962,-0.37893948,0.5172417,13.396075248718262,0.4346707761287689,7.877056121826172,0.7702571749687195,2.734290361404419, 0.32272642850875854
39,3557089057,0.70155025,0.31112716,-0.37865397,0.51734734,13.085865020751953,0.5961402058601379,7.707584381103516,0.4754292964935303,2.6456446647644043, 0.0019401619210839272
40,3557105724,0.70172167,0.31100458,-0.37834933,0.5174113,13.139189720153809,0.6166017651557922,7.78103494644165,0.43206700682640076,2.509333372116089, -0.5599063634872437
41,3557122391,0.70189625,0.3108694,-0.3780535,0.51747227,13.20923900604248,0.5699893236160278,7.7917866706848145,0.6740174293518066,2.531629800796509, -0.3179432153701782
42,3557139058,0.7020253,0.31077453,-0.37771893,0.51759857,13.423110008239746,0.5638706684112549,7.879855155944824,0.9452686309814453,2.579486846923828, -0.23155160248279572
43,3557155725,0.7021525,0.31065798,-0.37739918,0.5177291,13.306814193725586,0.7394803166389465,7.836161136627197,0.6086281538009644,2.581228733062744, -0.23635397851467133
44,3557172392,0.7023528,0.31045008,-0.37720314,0.51772493,12.823445320129395,0.3441534638404846,7.470806121826172,-0.25699785351753235,2.239478349685669, -0.3211960792541504
45,3557189059,0.70248914,0.31032255,-0.37677202,0.5179304,13.504316329956055,0.6033886671066284,8.025138854980469,1.581411361694336,3.3684604167938232, 0.16268546879291534
46,3557205726,0.7027205,0.3099995,-0.37658027,0.51794946,13.33520793914795,0.8752856850624084,7.792425155639648,-0.8530309200286865,2.758788824081421, -0.02791784144937992
47,3557222393,0.7028506,0.3098198,-0.37633324,0.51805997,13.027361869812012,0.319457471370697,7.727615833282471,0.15504008531570435,2.4326364994049072, 0.08488690108060837
48,3557239060,0.7029611,0.30971935,-0.3759677,0.5182357,13.206294059753418,0.6078851819038391,7.849462509155273,1.1503751277923584,2.8090665340423584, -0.007773454766720533
49,3557255727,0.7031408,0.3095766,-0.3756851,0.5182819,13.164339065551758,0.6553191542625427,7.731228351593018,0.2784804701805115,2.4684689044952393, -0.5237668752670288
50,3557272394,0.70335186,0.30945662,-0.37534332,0.51831496,13.228862762451172,0.5436462163925171,7.86509370803833,1.0008739233016968,2.7555742263793945, -0.5691782832145691
51,3557289061,0.703526,0.3093412,-0.37503144,0.51837313,13.149049758911133,0.6458012461662292,7.719424724578857,0.7943330407142639,2.5387628078460693, -0.431535542011261
52,3557305728,0.7037127,0.30927235,-0.3747363,0.5183742,12.969216346740723,0.6364527344703674,7.73012113571167,0.7134609818458557,2.200521469116211, -0.8810769319534302
53,3557322395,0.7038958,0.3091936,-0.37435508,0.518448,13.144031524658203,0.7078093886375427,7.776895523071289,1.357774019241333,2.8084003925323486, -0.5541948080062866
54,3557339062,0.70408314,0.30902275,-0.37408528,0.51849025,13.150856018066406,0.7306526899337769,7.786623477935791,0.40268924832344055,2.5410165786743164, -0.2592645287513733
55,3557355729,0.7042274,0.30883878,-0.37382284,0.5185931,13.10616397857666,0.47961321473121643,7.711580753326416,0.14394977688789368,2.548598051071167, -0.023333169519901276
56,3557372396,0.70439947,0.3086853,-0.3735123,0.5186745,13.074645042419434,0.738717794418335,7.7578444480896,0.6265827417373657,2.716066837310791, -0.2352270483970642
57,3557389063,0.7045751,0.30850515,-0.37320468,0.5187649,13.101134300231934,0.6997362971305847,7.796572208404541,0.7697961330413818,2.8414793014526367, 0.04143494740128517
58,3557405730,0.70477235,0.30826536,-0.37296885,0.5188089,12.9650239944458,0.5352509021759033,7.690491676330566,-0.2512349784374237,2.646285057067871, -0.15078195929527283
59,3557422397,0.7049018,0.30810162,-0.3726485,0.5189607,13.16551685333252,0.5758548378944397,7.7961835861206055,0.6979396939277649,2.8327581882476807, 0.14749713242053986
60,3557439064,0.7051075,0.3079332,-0.3723368,0.51900464,13.121145248413086,0.857204020023346,7.814323902130127,0.3178728222846985,2.7822117805480957, -0.5478684902191162
61,3557455731,0.7052283,0.30783594,-0.37202612,0.51912093,12.993456840515137,0.38245296478271484,7.6955742835998535,0.7801948189735413,2.445058584213257, -0.22389338910579681
62,3557472398,0.705404,0.30777705,-0.37163714,0.519196,12.890761375427246,0.8211637139320374,7.645937919616699,1.1077685356140137,2.744893789291382, -0.8353965878486633
63,3557489065,0.7055799,0.3076738,-0.37129152,0.51926565,13.214426040649414,0.5569766759872437,7.824805736541748,1.0530214309692383,2.700033187866211, -0.44190874695777893
64,3557505732,0.7057625,0.3074809,-0.3710382,0.51931256,12.935291290283203,0.7118508815765381,7.683346271514893,0.04230577126145363,2.53133487701416, -0.26495057344436646
65,3557522399,0.7059241,0.30733958,-0.37073147,0.51939565,12.938949584960938,0.5741188526153564,7.705267906188965,0.23231357336044312,2.606123924255371, -0.5063630938529968
66,3557539066,0.70607233,0.307232,-0.37037942,0.5195091,13.012475967407227,0.7058689594268799,7.788200378417969,1.1063982248306274,2.7617342472076416, -0.2094990760087967
67,3557555733,0.70622456,0.307084,-0.37007046,0.51960963,13.089763641357422,0.6949701309204102,7.726579189300537,0.6673069000244141,2.6767001152038574, -0.12185242772102356
68,3557572400,0.70632815,0.3069153,-0.3697885,0.5197692,12.972198486328125,0.6061336398124695,7.65208101272583,0.4791560173034668,2.607571601867676, 0.2910435199737549
69,3557589067,0.7064837,0.30667758,-0.36954704,0.51986986,12.944491386413574,0.6703727841377258,7.731982707977295,-0.02926250547170639,2.6805672645568848, 0.22930407524108887
70,3557605734,0.70665294,0.30642855,-0.36928466,0.5199732,12.969654083251953,0.6568304896354675,7.681858062744141,0.13341014087200165,2.872854709625244, 0.28537026047706604
71,3557622401,0.70677537,0.3062174,-0.36895874,0.52016276,13.155988693237305,0.5933370590209961,7.868040084838867,0.4519041180610657,3.086195945739746, 0.37416955828666687
72,3557639068,0.70696014,0.30596015,-0.36871314,0.5202369,12.923370361328125,0.6119945049285889,7.635799407958984,-0.13130350410938263,2.7977328300476074, 0.10547949373722076
73,3557655735,0.7071278,0.30574253,-0.3684228,0.52034265,13.151041030883789,0.4720790982246399,7.756267547607422,0.021239332854747772,2.879488468170166, -0.08199906349182129
74,3557672402,0.70730746,0.3055449,-0.368079,0.52045816,12.993416786193848,0.8453670144081116,7.8269805908203125,0.30283814668655396,3.120260715484619, -0.24738027155399323
75,3557689069,0.7074826,0.30541486,-0.36771807,0.52055144,12.856781959533691,0.5216482877731323,7.679335594177246,0.8144007325172424,2.914078950881958, -0.4309464991092682
76,3557705736,0.7076656,0.30527616,-0.3673234,0.5206626,13.03869342803955,0.7355669736862183,7.788538455963135,1.0911716222763062,3.17814564704895, -0.311527281999588
77,3557722403,0.70781493,0.30509692,-0.36703384,0.5207687,12.98798942565918,0.6044194102287292,7.740330219268799,0.506100594997406,2.7132749557495117, 0.06330818682909012
78,3557739070,0.70797527,0.304884,-0.366763,0.52086633,12.959126472473145,0.6403055787086487,7.790547847747803,-0.02941618487238884,2.739130973815918, -0.06618321686983109
79,3557755737,0.70809144,0.30475512,-0.36643955,0.52101135,12.948031425476074,0.6962031126022339,7.702489376068115,0.7798618674278259,2.68282151222229, 0.00008324127702508122
80,3557772404,0.7082291,0.30459136,-0.36614943,0.521124,12.957256317138672,0.49235212802886963,7.775059700012207,0.363309770822525,2.634272813796997, -0.07637707889080048
81,3557789071,0.70837593,0.30443415,-0.36586776,0.52121407,12.913125991821289,0.6649792790412903,7.690499305725098,0.2878163158893585,2.5464978218078613, -0.22290730476379395
82,3557805738,0.70851517,0.30434388,-0.36556277,0.5212917,12.922703742980957,0.6638143658638,7.723482608795166,0.682584822177887,2.3777997493743896, -0.47211891412734985
83,3557822405,0.70866203,0.30429623,-0.36524916,0.5213396,12.794196128845215,0.640213668346405,7.5955424308776855,0.824402391910553,2.2254812717437744, -0.773260235786438
84,3557839072,0.70876884,0.30432388,-0.36488613,0.52143246,12.912432670593262,0.683219850063324,7.672588348388672,1.5767627954483032,2.1933372020721436, -0.694962203502655
85,3557855739,0.7089042,0.30428663,-0.36461103,0.52146274,13.042824745178223,0.6182324290275574,7.668842315673828,0.7237700819969177,1.9404245615005493, -0.7588146328926086
86,3557872406,0.70898545,0.30425587,-0.36430788,0.52158207,12.972468376159668,0.686564028263092,7.635364055633545,1.1925466060638428,2.1081621646881104, -0.20677131414413452
87,3557889073,0.70911616,0.3041165,-0.36405227,0.52166396,12.67480182647705,0.7105382680892944,7.498763561248779,0.29528239369392395,2.3158042430877686, -0.19536085426807404
88,3557905740,0.70923686,0.3039825,-0.36373094,0.52180207,13.027361869812012,0.7634220123291016,7.638429641723633,0.7181736826896667,2.711520195007324, -0.03512781858444214
89,3557922407,0.7093413,0.3037566,-0.36344662,0.5219901,12.996450424194336,0.7995901703834534,7.586797714233398,0.2894299030303955,2.9275763034820557, 0.5706573724746704
90,3557939074,0.7094849,0.303459,-0.36326858,0.52209187,12.66211223602295,0.4416714608669281,7.516612529754639,-0.7348796129226685,2.58943772315979, 0.4150730073451996
91,3557955741,0.7095974,0.3032771,-0.3629175,0.52228886,12.911314010620117,0.6813718676567078,7.696505069732666,0.7590131163597107,3.139559745788574, 0.3398357033729553
92,3557972408,0.70974773,0.3030384,-0.3626619,0.5224006,12.962265968322754,0.799652099609375,7.677474021911621,-0.15695461630821228,2.7923543453216553, 0.12623858451843262
93,3557989075,0.7098442,0.30286193,-0.36243078,0.5225322,12.664083480834961,0.37909889221191406,7.511590957641602,0.22080068290233612,2.355273723602295, 0.3157597780227661
94,3558005742,0.7099796,0.30276197,-0.36216053,0.5225935,12.750311851501465,0.7658987045288086,7.562302112579346,0.49052801728248596,2.221190929412842, -0.4362611174583435
95,3558022409,0.7100559,0.3026757,-0.36189058,0.52272683,12.738699913024902,0.6209567189216614,7.540072917938232,0.8462756276130676,2.17191219329834, 0.08805005997419357
96,3558039076,0.71017206,0.30257824,-0.3616282,0.52280706,12.712787628173828,0.6301444172859192,7.545225143432617,0.5512813925743103,2.1635754108428955, -0.2694584131240845
97,3558055743,0.71026564,0.30248493,-0.3613599,0.5229194,12.782770156860352,0.7660362124443054,7.469566345214844,0.7229120135307312,2.1883809566497803, -0.05213465169072151
98,3558072410,0.7103477,0.30238754,-0.36113217,0.52302176,12.771227836608887,0.5870344638824463,7.509382247924805,0.552062451839447,1.9574054479599, 0.03409689664840698
99,3558089077,0.7104635,0.30227315,-0.36087847,0.5231055,12.665878295898438,0.680239200592041,7.4430084228515625,0.4434262812137604,2.1915700435638428, -0.1931069791316986
100,3558105744,0.710574,0.30217692,-0.36056128,0.5232296,12.669670104980469,0.7558109760284424,7.512283802032471,0.8793160319328308,2.5092570781707764, -0.14761881530284882
101,3558122411,0.71068573,0.30204192,-0.36028352,0.52334696,12.867650032043457,0.7506888508796692,7.538922309875488,0.523209810256958,2.446108818054199, -0.009591955691576004
102,3558139078,0.71078897,0.30185875,-0.360087,0.52344775,12.658870697021484,0.6441746950149536,7.429387092590332,-0.028583774343132973,2.1694021224975586, 0.22840766608715057
103,3558155745,0.7109153,0.30171534,-0.3598155,0.5235456,12.66826057434082,0.6651891469955444,7.496247291564941,0.3799068033695221,2.446518659591675, -0.12459297478199005
104,3558172412,0.71104,0.30155033,-0.35956204,0.52364546,12.742348670959473,0.6057958006858826,7.449570655822754,0.21834184229373932,2.4378104209899902, -0.018415531143546104
105,3558189079,0.71114564,0.30143484,-0.35926515,0.52377236,12.579751968383789,0.8482683300971985,7.466899871826172,0.7235394716262817,2.4840922355651855, -0.03101697750389576
106,3558205746,0.71125776,0.30134028,-0.35898635,0.5238657,12.67872428894043,0.6820694208145142,7.417974948883057,0.6645278930664062,2.2684593200683594, -0.22901597619056702
107,3558222413,0.7113801,0.30124554,-0.35869482,0.5239537,12.62002182006836,0.7676933407783508,7.374024868011475,0.6742863059043884,2.3488574028015137, -0.3197873532772064
108,3558239080,0.71147907,0.3011599,-0.35838595,0.5240798,12.759381294250488,0.7722699642181396,7.433232307434082,0.9237667918205261,2.425797939300537, -0.10579324513673782
109,3558255747,0.711571,0.30110303,-0.35812384,0.52416724,12.569172859191895,0.8302640914916992,7.309040546417236,0.814144492149353,1.9994618892669678, -0.24401219189167023
110,3558272414,0.71167374,0.3010031,-0.35792315,0.5242221,12.476095199584961,0.6484102010726929,7.283680438995361,0.2820790112018585,1.818315863609314, -0.20515771210193634
111,3558289081,0.71172804,0.30094826,-0.35759205,0.52440554,12.782279014587402,0.8703225255012512,7.434231758117676,1.3868188858032227,2.4439570903778076, 0.21416696906089783
112,3558305748,0.7118598,0.30079177,-0.35742715,0.524429,12.493595123291016,0.9303743839263916,7.286688804626465,-0.26698678731918335,1.8606152534484863, -0.2540779709815979
113,3558322415,0.7118995,0.30073223,-0.35719335,0.5245686,12.532164573669434,0.4874718487262726,7.33029317855835,0.9295809864997864,1.8661221265792847, 0.2671724855899811
114,3558339082,0.7119657,0.30071944,-0.35691327,0.52467686,12.702912330627441,1.1096385717391968,7.460883140563965,1.1986167430877686,1.9281946420669556, -0.19474616646766663
115,3558355749,0.7120169,0.3006196,-0.3567721,0.52476054,12.763785362243652,0.5544146299362183,7.355374336242676,0.2383197844028473,1.4779744148254395, 0.24486380815505981
116,3558372416,0.71206045,0.30060852,-0.35652158,0.52487797,12.495707511901855,0.8437343835830688,7.252870559692383,1.1673948764801025,1.7504936456680298, -0.010680495761334896
117,3558389083,0.7121127,0.30058753,-0.3563062,0.52496535,12.646032333374023,0.7776854038238525,7.288214206695557,0.900254487991333,1.577659249305725, -0.09043844789266586
118,3558405750,0.7121604,0.30054012,-0.3560722,0.5250866,12.628427505493164,0.8547422885894775,7.298696994781494,0.9290173649787903,1.8284969329833984, 0.11671065539121628
119,3558422417,0.71223193,0.30041847,-0.3559171,0.5251643,12.51391887664795,0.7396867871284485,7.156206130981445,0.1245993822813034,1.6839903593063354, 0.16455520689487457
120,3558439084,0.71227604,0.30025363,-0.3557465,0.5253144,12.581159591674805,0.6984771490097046,7.208785533905029,0.20502325892448425,2.0045714378356934, 0.6919079422950745
121,3558455751,0.7123571,0.30009717,-0.35554972,0.525427,12.525131225585938,0.9308546185493469,7.16698694229126,0.17317387461662292,2.119547128677368, 0.29816383123397827
122,3558472418,0.7124507,0.29991773,-0.35535267,0.5255357,12.550268173217773,0.7063281536102295,7.164769649505615,0.022135775536298752,2.228055238723755, 0.2906337082386017
123,3558489085,0.7125,0.29979968,-0.35505387,0.5257383,12.644679069519043,0.9050614237785339,7.300868988037109,1.0113110542297363,2.589629650115967, 0.5492451190948486
124,3558505752,0.7126097,0.2996175,-0.35484898,0.52583176,12.466324806213379,0.7832977175712585,7.101301193237305,-0.033104415982961655,2.282763957977295, 0.14916197955608368
125,3558522419,0.7126869,0.29951176,-0.35457465,0.52597237,12.333769798278809,0.774056613445282,7.145552158355713,0.7768011689186096,2.3643789291381836, 0.1696777492761612
126,3558539086,0.712793,0.29932302,-0.3543599,0.5260808,12.546700477600098,0.7467069625854492,7.193248271942139,0.015668567270040512,2.3749568462371826, 0.2315964549779892
127,3558555753,0.7128572,0.2991798,-0.35416248,0.52620834,12.548194885253906,0.7668963074684143,7.17692756652832,0.30854979157447815,2.062930107116699, 0.40002554655075073
128,3558572420,0.7129202,0.29909283,-0.35401157,0.5262739,12.287925720214844,0.7756508588790894,7.058593273162842,0.2682226002216339,1.5018709897994995, 0.059555936604738235
129,3558589087,0.7129358,0.29904005,-0.3538825,0.5263696,12.430822372436523,0.621038019657135,7.154909610748291,0.52579665184021,1.218274474143982, 0.3387727737426758
130,3558605754,0.7129421,0.29906446,-0.35372743,0.52645123,12.498857498168945,1.032647728919983,7.226417064666748,0.9864794015884399,1.016292691230774, 0.06228368356823921
131,3558622421,0.71292734,0.29907006,-0.3536791,0.5265005,12.25463581085205,0.6127223372459412,6.9028167724609375,0.468142569065094,0.44457879662513733, 0.2477196305990219
132,3558639088,0.7128857,0.29922053,-0.35346666,0.5266142,12.4481782913208,0.9241032600402832,7.130090713500977,1.9865658283233643,0.7953832149505615, -0.03122188150882721
133,3558655755,0.71290296,0.2992233,-0.3533564,0.5266632,12.505406379699707,0.9113863706588745,7.008575439453125,0.6125981211662292,0.8426898121833801, 0.009739227592945099
134,3558672422,0.7129201,0.29927793,-0.3532253,0.5266968,12.20068073272705,0.8109961152076721,6.894667625427246,0.9027899503707886,0.7303140759468079, -0.23360061645507812
135,3558689089,0.71294785,0.29932752,-0.3530652,0.5267386,12.37423324584961,0.7952667474746704,6.924127578735352,0.9811264872550964,0.936291515827179, -0.2787429988384247
136,3558705756,0.7129393,0.29942378,-0.3528198,0.5268597,12.375700950622559,1.003779649734497,6.9897894859313965,1.7857751846313477,1.2664391994476318, -0.04838239401578903
137,3558722423,0.7130102,0.2993548,-0.35274962,0.52684987,12.132033348083496,0.7791027426719666,6.763628959655762,-0.14158698916435242,0.9337813258171082, -0.21270066499710083
138,3558739090,0.71298206,0.29940826,-0.35250193,0.5270233,12.332918167114258,0.7468538880348206,6.924997806549072,1.7515820264816284,1.5028188228607178, 0.3817380666732788
139,3558755757,0.7130446,0.2993116,-0.35241863,0.5270494,12.151970863342285,1.0311108827590942,6.885429382324219,-0.12369652837514877,1.1627331972122192, 0.03154844045639038
140,3558772424,0.7130191,0.29930487,-0.35238686,0.527109,12.294271469116211,0.626104474067688,6.8232316970825195,0.39209839701652527,0.4438232481479645, 0.4075556993484497
141,3558789091,0.7129747,0.29931042,-0.3523684,0.5271782,12.17912769317627,0.9563706517219543,6.974615573883057,0.4632248878479004,0.3144790828227997, 0.5136178731918335
142,3558805758,0.71286976,0.2994153,-0.35234615,0.5272755,12.395975112915039,0.8340948224067688,6.799945831298828,1.1577004194259644,-0.1121964380145073, 0.626569926738739
143,3558822425,0.71281415,0.29938498,-0.35245684,0.52729374,12.156590461730957,1.0113621950149536,6.75075626373291,-0.2831227779388428,-0.3089403808116913, 0.6588546633720398
144,3558839092,0.7128038,0.29929438,-0.35258764,0.52727187,12.101187705993652,0.9399721622467041,6.630433559417725,-0.8520833253860474,-0.15619905292987823, 0.4835742115974426
145,3558855759,0.71276414,0.2991197,-0.3527476,0.52731764,12.37119197845459,0.968052327632904,6.792388439178467,-1.1423008441925049,0.08227439224720001, 1.1895369291305542
146,3558872426,0.7128332,0.29871637,-0.35308617,0.52722657,12.093015670776367,1.3841445446014404,6.608885288238525,-3.46039080619812,0.026707639917731285, 1.0540841817855835
147,3558889093,0.7129375,0.29794475,-0.35372454,0.5270942,11.991067886352539,0.9910823106765747,6.632604122161865,-6.5338521003723145,-0.09950534999370575, 2.2412075996398926
148,3558905760,0.7129596,0.29686642,-0.35463655,0.5270599,12.29329776763916,0.668267011642456,7.1720662117004395,-8.63427448272705,-0.3227841258049011, 4.31926965713501
149,3558922427,0.712699,0.29632354,-0.35529634,0.5272731,12.280048370361328,0.46715572476387024,6.897754192352295,-3.91184139251709,-1.2094063758850098, 4.735206127166748
150,3558939094,0.7121602,0.2962581,-0.3557751,0.527715,11.942432403564453,0.4508986473083496,6.285059452056885,0.2753813564777374,-2.257042407989502, 5.369043350219727
151,3558955761,0.7116144,0.29620022,-0.35627383,0.5281472,12.10855770111084,0.8134976029396057,6.673890113830566,0.18525026738643646,-2.4121146202087402, 5.327089786529541
152,3558972428,0.71110183,0.29597387,-0.35700148,0.5284731,12.386466026306152,0.695158839225769,6.730845928192139,-1.8442808389663696,-3.0566325187683105, 5.533336162567139
153,3558989095,0.71055067,0.29594848,-0.3576529,0.528788,12.249443054199219,0.6159529685974121,6.481968402862549,-0.3797338902950287,-3.521477699279785, 5.0865092277526855
154,3559005762,0.71003574,0.2959055,-0.35834995,0.5290319,11.958621978759766,0.642144501209259,6.389387607574463,-1.0045685768127441,-3.7404661178588867, 4.649134159088135
155,3559022429,0.70951045,0.29595757,-0.35899553,0.5292698,12.415091514587402,0.46311020851135254,6.525759696960449,-0.33197903633117676,-3.8718721866607666, 4.329845905303955
156,3559039096,0.7091174,0.295972,-0.35970634,0.5293058,12.262752532958984,0.8848110437393188,6.553943634033203,-1.4989835023880005,-4.134787082672119, 3.1002578735351562
157,3559055763,0.7087266,0.29617223,-0.36026344,0.5293382,12.525787353515625,0.1460065394639969,6.711832523345947,-0.06798890978097916,-4.065004825592041, 2.2933549880981445
158,3559072430,0.7083807,0.29671896,-0.36044982,0.52936834,12.496965408325195,0.6351197957992554,6.3825883865356445,2.8791940212249756,-3.4123802185058594, 0.49889057874679565
159,3559089097,0.7083505,0.29697526,-0.3607539,0.52905774,12.29816722869873,0.6435226798057556,6.307595252990723,-0.46362823247909546,-2.83711838722229, -1.3555264472961426
160,3559105764,0.7084466,0.29716876,-0.36104816,0.5286194,12.406180381774902,0.25170499086380005,6.428789138793945,-1.3093340396881104,-2.5043458938598633, -2.3010706901550293
161,3559122431,0.7086702,0.29757044,-0.36120042,0.52798927,12.410500526428223,0.5300770401954651,6.718197822570801,-0.45979923009872437,-2.6383256912231445, -4.473181247711182
162,3559139098,0.7091026,0.29811785,-0.3611024,0.5271664,12.794005393981934,0.7517730593681335,6.978578090667725,0.22091594338417053,-1.8273893594741821, -7.066582679748535
163,3559155765,0.70979035,0.2985098,-0.3609792,0.52610236,12.867897033691406,0.3831009864807129,6.8316779136657715,-1.5779732465744019,-1.0020843744277954, -8.838292121887207
164,3559172432,0.71057284,0.29868788,-0.36058658,0.5252136,13.152591705322266,1.0081210136413574,6.598546981811523,-1.434810996055603,1.682569146156311, -8.372371673583984
165,3559189099,0.71179974,0.2980488,-0.3605635,0.5239297,12.682483673095703,1.9124356508255005,6.296281814575195,-8.65182113647461,3.129803419113159, -9.112555503845215
166,3559205766,0.7131498,0.2969141,-0.36101952,0.5224216,12.74122428894043,1.0325613021850586,6.468994140625,-13.568340301513672,2.4305386543273926, -8.383684158325195
167,3559222433,0.71437246,0.29501584,-0.36206588,0.52110076,12.95091438293457,0.7641075849533081,7.156683444976807,-18.79692840576172,2.347195625305176, -3.9648382663726807
168,3559239100,0.7153918,0.292475,-0.36376926,0.5199471,12.351872444152832,1.091214895248413,5.510690689086914,-23.62055206298828,1.2493963241577148, 0.4095926880836487
169,3559255767,0.71574223,0.2922159,-0.36492598,0.5187988,12.143417358398438,1.3428832292556763,4.473311424255371,-9.351278305053711,-5.872328758239746, -4.165216445922852
170,3559272434,0.71514446,0.2947812,-0.3662403,0.5172434,11.498764038085938,0.6663219928741455,2.472686290740967,5.1262431144714355,-19.872045516967773, -9.349637985229492
171,3559289101,0.7122804,0.30294028,-0.36570603,0.5168589,11.124649047851562,0.48986732959747314,-0.8541935086250305,46.920597076416016,-33.944828033447266, -13.238421440124512
172,3559305768,0.7079293,0.31408507,-0.36631396,0.5157527,10.753140449523926,0.28078025579452515,-2.4526607990264893,58.834415435791016,-55.282371520996094, -16.581212997436523
173,3559322435,0.7027263,0.324611,-0.3708174,0.5131258,12.508316993713379,-2.4506590366363525,-1.305854082107544,45.40118408203125,-76.88570404052734, -7.485459804534912
174,3559339102,0.6973315,0.33195335,-0.37922898,0.50962865,13.541773796081543,-3.321104049682617,3.8982787132263184,14.28317928314209,-86.85858917236328, 5.457146167755127
175,3559355769,0.69335717,0.33657035,-0.38704154,0.5061373,16.03097915649414,1.637537956237793,14.897994995117188,-0.48110470175743103,-70.77641296386719, 5.6452741622924805
176,3559372436,0.6927635,0.33780107,-0.39229646,0.50206846,14.858244895935059,5.216456413269043,17.86751365661621,-17.042516708374023,-39.32402038574219, -5.838336944580078
177,3559389103,0.6920065,0.3409635,-0.39331514,0.5001743,10.83719539642334,-0.7251324653625488,5.982002258300781,12.699896812438965,-21.459794998168945, -10.099906921386719
178,3559405770,0.6896943,0.34627408,-0.39249033,0.5003674,11.799613952636719,-1.7976114749908447,1.856235384941101,37.586700439453125,-19.489070892333984, -5.551396369934082
179,3559422437,0.687654,0.35045585,-0.39269656,0.5001021,13.051371574401855,2.4246981143951416,4.809048175811768,26.865558624267578,-20.76760482788086, -3.221437692642212
180,3559439104,0.687055,0.35114768,-0.39628038,0.49760723,12.626118659973145,1.1595611572265625,3.607447624206543,-10.346278190612793,-26.15884780883789, -0.944176435470581
181,3559455771,0.6864627,0.34949714,-0.40286797,0.49428558,12.186741828918457,-0.16199921071529388,1.3292790651321411,-37.61391067504883,-34.67266082763672, 6.87576150894165
182,3559472438,0.685923,0.3459867,-0.4126852,0.4893812,11.72254753112793,1.0581724643707275,0.08613923192024231,-61.87495803833008,-47.19355392456055, 12.126679420471191
183,3559489105,0.68535244,0.34319058,-0.4227792,0.4834978,13.157243728637695,3.4109153747558594,3.358311653137207,-62.15285873413086,-53.24974822998047, 6.263587474822998
184,3559505772,0.68391323,0.34421885,-0.42834172,0.47989538,14.27798080444336,3.3545241355895996,8.844902992248535,-20.412744522094727,-41.749755859375, -1.8475347757339478
185,3559522439,0.68243897,0.34782466,-0.4293857,0.4784591,12.591083526611328,2.536543846130371,9.669144630432129,13.063417434692383,-24.08721160888672, -9.781505584716797
186,3559539106,0.6813999,0.35138628,-0.42829093,0.47831866,11.753771781921387,0.6620370149612427,7.199451923370361,22.672000885009766,-9.648621559143066, -10.08916187286377
187,3559555773,0.6804968,0.3541443,-0.42754686,0.47823602,11.863161087036133,0.16579146683216095,2.5853583812713623,17.60553741455078,-8.178442001342773, -7.064915657043457
188,3559572440,0.6795375,0.3562136,-0.42780343,0.47783384,12.327826499938965,0.5935602784156799,2.3847970962524414,10.29723072052002,-11.507694244384766, -3.9364707469940186
189,3559589107,0.67903477,0.35701278,-0.42916265,0.47673166,12.88512134552002,1.4073987007141113,3.873887538909912,-2.4342968463897705,-12.82362174987793, -2.2826948165893555
190,3559605774,0.67826027,0.35822958,-0.4304795,0.4757332,12.871417045593262,1.1510233879089355,2.642704963684082,0.6252768635749817,-14.537943840026855, -2.2396399974823
191,3559622441,0.6767586,0.3609068,-0.43096116,0.47541216,12.532742500305176,1.098486065864563,3.107191801071167,13.961700439453125,-15.87518310546875, -3.083350896835327
192,3559639108,0.67487884,0.3644381,-0.4305576,0.47575596,12.49648380279541,1.3810392618179321,3.673877477645874,23.736845016479492,-14.006200790405273, -3.4847447872161865
193,3559655775,0.67317027,0.3676961,-0.43014,0.47604743,13.105706214904785,1.8139516115188599,2.861163854598999,21.929752349853516,-12.672758102416992, -3.5117270946502686
194,3559672442,0.67174643,0.3702966,-0.43015897,0.47602573,12.687189102172852,1.6790385246276855,2.1147913932800293,15.805817604064941,-12.471968650817871, -2.8356499671936035
195,3559689109,0.67070526,0.372388,-0.4302762,0.47575632,12.152990341186523,0.9477573037147522,2.448582887649536,11.420577049255371,-10.729179382324219, -3.471189022064209
196,3559705776,0.6697389,0.3745073,-0.42991626,0.4757795,12.306082725524902,0.37476080656051636,2.6397287845611572,13.78614330291748,-7.634947776794434, -3.680253744125366
197,3559722443,0.6687757,0.37665862,-0.4289213,0.47633398,12.387723922729492,0.7043827176094055,2.4391696453094482,17.579391479492188,-3.4275848865509033, -2.995011568069458
198,3559739110,0.6680056,0.37836552,-0.42773324,0.47712946,12.621889114379883,0.5486316084861755,2.1886255741119385,16.38154411315918,0.12418968975543976, -1.722301959991455
199,3559755777,0.6671131,0.38009936,-0.42577797,0.47874603,12.632336616516113,0.8675635457038879,2.5954480171203613,21.759183883666992,5.355899333953857, 0.3586103916168213
200,3559772444,0.66637564,0.38217735,-0.42265224,0.48088372,12.523892402648926,2.0587141513824463,2.899383068084717,28.312440872192383,11.41908073425293, -1.8378194570541382
201,3559789111,0.66607654,0.38443047,-0.41886955,0.4828081,13.593334197998047,2.2738094329833984,3.5561363697052,29.507503509521484,14.568607330322266, -6.485289096832275
202,3559805778,0.66567934,0.38765696,-0.41417664,0.48482078,14.280519485473633,1.1263492107391357,2.2630648612976074,37.49256896972656,15.457673072814941, -10.950944900512695
203,3559822445,0.6674078,0.38639122,-0.41210887,0.4852167,12.753311157226562,0.8625238537788391,2.984574556350708,-2.087796688079834,20.197355270385742, -5.660991668701172
204,3559839112,0.66948825,0.38267535,-0.41329747,0.48428345,11.383560180664062,-1.513674259185791,-0.9189960360527039,-28.890207290649414,10.901909828186035, 2.6470108032226562
205,3559855779,0.66888934,0.38164833,-0.4152927,0.4842144,10.79248046875,-2.0139920711517334,0.5635842680931091,-9.67858600616455,-7.020741939544678, 9.971192359924316
206,3559872446,0.6665462,0.38241753,-0.42020363,0.4825991,9.742362976074219,-0.06746483594179153,-6.175597667694092,-10.94088077545166,-35.406333923339844, 11.12720775604248
207,3559889113,0.6601414,0.38537446,-0.43078077,0.47971672,10.674431800842285,-5.687589168548584,-12.031652450561523,-12.710169792175293,-83.52339172363281, 27.36492919921875
208,3559905780,0.64905506,0.39285007,-0.44359124,0.47709888,10.486356735229492,-1.3768795728683472,-9.655080795288086,13.644352912902832,-121.43212890625, 36.40435028076172
209,3559922447,0.6371057,0.3998567,-0.46076748,0.47106743,10.074816703796387,-0.7833756804466248,-6.140202045440674,-10.860137939453125,-151.0119171142578, 37.19538116455078
210,3559939114,0.6240115,0.40776548,-0.4793574,0.46319917,10.455771446228027,-0.4683738946914673,-4.308389186859131,-14.165811538696289,-168.68841552734375, 33.879154205322266
211,3559955781,0.609579,0.41743582,-0.49751,0.45458204,10.043771743774414,0.433806449174881,-2.362687826156616,-3.937831163406372,-178.87168884277344, 27.897022247314453
212,3559972448,0.5941188,0.4275249,-0.5153282,0.4457379,9.377288818359375,-1.1612472534179688,-2.308987855911255,1.0276607275009155,-182.94615173339844, 27.78792381286621
213,3559989115,0.5773745,0.4410967,-0.52731365,0.440469,9.448004722595215,3.8126296997070312,3.5249593257904053,49.57210922241211,-163.8433380126953, 16.814252853393555
214,3560005782,0.56351274,0.451372,-0.5387317,0.43414864,9.726691246032715,-0.4920089542865753,4.423548698425293,25.639068603515625,-144.5097198486328, 14.238250732421875
215,3560022449,0.5522534,0.46041,-0.54645544,0.42944777,10.290019035339355,2.3534839153289795,7.1855926513671875,29.79701805114746,-112.02229309082031, 5.848367691040039
216,3560039116,0.54450715,0.46744066,-0.5502985,0.4268288,11.432028770446777,3.488086223602295,8.451316833496094,30.33794593811035,-71.82544708251953, -1.300819754600525
217,3560055783,0.54497814,0.46663004,-0.55305237,0.4235426,13.287286758422852,4.056825637817383,15.648872375488281,-24.745546340942383,-16.07002067565918, -1.6547906398773193
218,3560072450,0.5493041,0.46345085,-0.55301815,0.42148453,14.7080659866333,7.000174045562744,2.0552988052368164,-33.18058776855469,19.412860870361328, -8.119359970092773
219,3560089117,0.5510652,0.46651205,-0.54987913,0.41991287,23.803668975830078,11.56898307800293,-4.203099727630615,9.411687850952148,4.7795090675354, -32.30143737792969
220,3560105784,0.55278856,0.46863848,-0.547891,0.41787338,16.86805534362793,-0.19608566164970398,7.9373602867126465,0.8956526517868042,1.5678211450576782, -26.471389770507812
221,3560122451,0.55093503,0.46982315,-0.54704916,0.4200883,9.8546724319458,-3.3018133640289307,-1.923525094985962,21.585737228393555,-0.08354877680540085, 7.155963897705078
222,3560139118,0.54838914,0.47049546,-0.5466357,0.42319375,6.106564521789551,5.711559772491455,-5.047280311584473,23.988248825073242,0.10417354851961136, 15.71107292175293
223,3560155785,0.54785174,0.46868306,-0.5480606,0.4240571,6.366214752197266,5.781101226806641,-2.4968185424804688,-5.661859512329102,0.843330979347229, 16.830921173095703
224,3560172452,0.54525113,0.46838042,-0.54841536,0.4272725,9.992141723632812,-0.39550068974494934,-2.0006890296936035,18.651702880859375,0.34191134572029114, 22.697139739990234
225,3560189119,0.54087526,0.4691372,-0.5480518,0.4324393,12.680964469909668,-1.5485860109329224,-0.5385072827339172,37.805912017822266,-0.44008079171180725, 28.865039825439453
226,3560205786,0.53796095,0.4685275,-0.5485798,0.43605098,10.625795364379883,-0.05724813789129257,-0.40959250926971436,19.498376846313477,0.7973328828811646, 26.67610740661621
227,3560222453,0.5364589,0.46760333,-0.54954815,0.43767086,8.69558334350586,-1.1560362577438354,-2.435764789581299,4.952944278717041,-0.9826578497886658, 17.647432327270508
228,3560239120,0.53521645,0.46752182,-0.5498,0.43896115,8.297325134277344,-1.8729171752929688,-1.6685547828674316,8.135540962219238,-0.8964323401451111, 10.104391098022461
229,3560255787,0.5343398,0.46776804,-0.54975826,0.43981838,8.654500007629395,-1.5824302434921265,-0.88693767786026,7.414244651794434,-0.7823401689529419, 5.149569034576416
230,3560272454,0.53387874,0.46819547,-0.5495959,0.440126,9.279300689697266,-0.12785816192626953,-1.2855643033981323,5.030328750610352,-1.0763866901397705, 0.7379212379455566
231,3560289121,0.533604,0.46892053,-0.5492303,0.44014356,8.736675262451172,-0.0819658637046814,-0.8907959461212158,5.041367053985596,-1.4423407316207886, -2.685453176498413
232,3560305788,0.5328216,0.4705189,-0.5481196,0.44076985,9.610783576965332,0.24229387938976288,-0.8329391479492188,14.435283660888672,-1.3000887632369995, -4.628819465637207
233,3560322455,0.5316367,0.47220072,-0.54751456,0.44115388,8.775418281555176,0.2598983645439148,-1.475021243095398,13.596403121948242,-5.702057361602783, -2.97955322265625
234,3560339122,0.5301111,0.47401872,-0.5471757,0.4414606,8.581682205200195,0.8009172677993774,-0.4471840262413025,14.10176944732666,-8.596896171569824, -1.8803579807281494
235,3560355789,0.52831453,0.47584075,-0.5470724,0.44178164,8.679238319396973,0.776951014995575,-1.5316743850708008,14.337653160095215,-10.449070930480957, -0.23867224156856537
236,3560372456,0.52600855,0.47801653,-0.5472148,0.44200838,8.401336669921875,0.3429526090621948,-0.25068047642707825,16.187885284423828,-14.615448951721191, 0.45214810967445374
237,3560389123,0.5227638,0.48074958,-0.54735214,0.44272298,8.244826316833496,-0.19798479974269867,0.053583867847919464,23.139665603637695,-18.236618041992188, 2.9549779891967773
238,3560405790,0.51922303,0.48365164,-0.54730105,0.44379067,8.455885887145996,0.5488793253898621,-0.8275501132011414,26.628501892089844,-18.047901153564453, 3.848252058029175
239,3560422457,0.51495385,0.4878744,-0.5454164,0.44645554,8.941508293151855,0.8823143243789673,-2.232957601547241,45.37090301513672,-12.959819793701172, 0.7122498750686646
240,3560439124,0.5098064,0.49332708,-0.5419141,0.45061627,8.50123119354248,1.9535672664642334,-1.114043116569519,63.24549102783203,-9.236008644104004, -1.31891930103302
241,3560455791,0.5045703,0.4977385,-0.5395366,0.45449477,7.3262224197387695,1.7717734575271606,-1.4655301570892334,55.35970687866211,-11.230399131774902, 5.712585926055908
242,3560472458,0.4982098,0.5021319,-0.5368862,0.45978674,7.4548468589782715,1.3960648775100708,-2.471791982650757,65.24171447753906,-9.537643432617188, 13.307873725891113
243,3560489125,0.49220464,0.5048747,-0.5350552,0.46535182,8.036952018737793,1.916208028793335,-2.232192039489746,56.779727935791016,-4.813663005828857, 22.07145118713379
244,3560505792,0.48936108,0.5026568,-0.53645706,0.4691223,7.685172080993652,0.1847495585680008,-1.7418363094329834,12.074584007263184,5.5637664794921875, 35.405094146728516
245,3560522459,0.48822746,0.49812078,-0.53902966,0.47218305,7.383270263671875,-0.5068318247795105,-2.136317014694214,-8.026995658874512,12.98054313659668, 40.09443664550781
246,3560539126,0.48974288,0.4905844,-0.5440473,0.47274914,7.92282247543335,-0.5442528128623962,0.13706521689891815,-44.35131072998047,15.826638221740723, 42.592918395996094
247,3560555793,0.4915977,0.48302114,-0.55094707,0.47061658,4.526462554931641,-2.230546474456787,1.1008098125457764,-61.797393798828125,1.6962906122207642, 38.83625030517578
248,3560572460,0.49179813,0.47806832,-0.55580527,0.46975097,4.4081854820251465,-2.6917312145233154,-3.3798608779907227,-36.07338333129883,-1.9794552326202393, 31.72450065612793
249,3560589127,0.4920886,0.4741952,-0.55984104,0.4685787,7.117863655090332,-1.3966772556304932,-0.8368394374847412,-31.227802276611328,-3.245915174484253, 23.47508430480957
250,3560605794,0.49295214,0.47060028,-0.56373364,0.46662402,8.144048690795898,-0.7273693084716797,-2.0647246837615967,-34.70371627807617,-4.006283283233643, 17.408782958984375
251,3560622461,0.49450904,0.46634507,-0.5681371,0.46390027,7.742615222930908,0.15212635695934296,-1.9241764545440674,-43.80115509033203,-3.3799679279327393, 16.78521156311035
252,3560639128,0.49626076,0.461196,-0.5743048,0.4595624,4.6799468994140625,0.40893909335136414,0.4650097191333771,-59.39369201660156,-10.907361030578613, 19.85467529296875
253,3560655795,0.4966892,0.4573701,-0.57914644,0.4568393,4.518930912017822,-0.19887325167655945,-2.90297532081604,-40.11726760864258,-10.719660758972168, 20.147003173828125
254,3560672462,0.49645174,0.45490807,-0.58208954,0.4558137,6.850082874298096,-0.3529186248779297,-1.1599228382110596,-20.63595962524414,-5.748106479644775, 16.641157150268555
255,3560689129,0.4966977,0.45290074,-0.5843769,0.4546164,7.133481979370117,-1.2081810235977173,-2.094235420227051,-19.225872039794922,-3.5325863361358643, 10.675475120544434
256,3560705796,0.49743834,0.451973,-0.5854535,0.45334285,7.048768997192383,-1.936610221862793,-1.9685978889465332,-13.59857177734375,-0.9799551963806152, 0.7361159324645996
257,3560722463,0.498459,0.4523429,-0.58560026,0.4516602,4.440053462982178,-1.3668122291564941,-0.09390811622142792,-8.779168128967285,-1.9511001110076904, -9.703083992004395
258,3560739130,0.49916586,0.45461085,-0.58372885,0.4510245,4.431416034698486,-3.0245039463043213,-2.8495609760284424,9.17862606048584,1.0331859588623047, -19.099855422973633
259,3560755797,0.49969724,0.4584087,-0.5800688,0.45131433,5.346741676330566,-0.47152936458587646,-1.1482490301132202,24.23948097229004,4.703493595123291, -27.221332550048828
260,3560772464,0.5003018,0.46256956,-0.5756941,0.45199996,6.564052581787109,-0.5125911235809326,-1.4381701946258545,29.047409057617188,7.580990314483643, -29.794771194458008
261,3560789131,0.5009716,0.46672457,-0.5707613,0.45324087,7.379580020904541,-0.26204702258110046,-1.2998305559158325,32.74671173095703,11.560741424560547, -29.845054626464844
262,3560805798,0.50269544,0.4690903,-0.5673708,0.45314693,4.878418445587158,1.4648844003677368,0.46684592962265015,13.152632713317871,11.686927795410156, -25.752490997314453
263,3560822465,0.50519574,0.46952772,-0.56527317,0.4525345,4.431252956390381,0.9095300436019897,-0.8024942278862,-2.073608160018921,14.52609634399414, -18.19785499572754
264,3560839132,0.5081564,0.46920475,-0.56276363,0.45268223,6.834615707397461,1.3373616933822632,0.1391056478023529,-1.969135046005249,22.570680618286133, -15.31680679321289
265,3560855799,0.5123445,0.46714494,-0.5599585,0.4535697,8.225085258483887,0.6394054293632507,-0.30345430970191956,-8.22031021118164,36.098567962646484, -10.716588973999023
266,3560872466,0.517968,0.46442583,-0.55644006,0.4543044,7.137751579284668,0.46689993143081665,-2.5401675701141357,-13.521998405456543,45.67729187011719, -15.445220947265625
267,3560889133,0.5262093,0.45930427,-0.5535121,0.45361647,5.071920394897461,-1.3681519031524658,-3.709129810333252,-37.730045318603516,56.636878967285156, -17.580554962158203
268,3560905800,0.5374005,0.45219508,-0.5505386,0.45125127,8.13680648803711,-0.867816150188446,-1.5595111846923828,-60.481475830078125,69.08000183105469, -25.476282119750977
269,3560922467,0.54877675,0.4457403,-0.54789364,0.44718254,8.655631065368652,-1.4478325843811035,-1.9901100397109985,-66.11247253417969,61.287330627441406, -33.82143020629883
270,3560939134,0.55701345,0.44072682,-0.54702455,0.44301248,2.877531051635742,-2.0199790000915527,-1.501220941543579,-56.896080017089844,38.093536376953125, -24.585678100585938
271,3560955801,0.5613415,0.43626854,-0.54986763,0.4384188,2.9154655933380127,-1.742680549621582,2.619088888168335,-55.81980514526367,6.2596659660339355, -5.219465255737305
272,3560972468,0.5582269,0.4306396,-0.56143713,0.43326765,3.5144543647766113,-15.189812660217285,-11.310737609863281,-66.41079711914062,-53.84403991699219, 45.6001091003418
273,3560989135,0.54828036,0.42664927,-0.5792279,0.42644355,2.890500545501709,-3.9666295051574707,-10.53138542175293,-64.8078384399414,-113.36865234375, 70.95124053955078
274,3561005802,0.5389366,0.41916808,-0.6055577,0.40883452,1.173940658569336,-4.3264265060424805,-6.1869635581970215,-147.7230224609375,-164.05239868164062, 67.37181854248047
275,3561022469,0.5249011,0.42026377,-0.62543726,0.39583555,-3.5441040992736816,-1.3049986362457275,1.7763967514038086,-65.0720443725586,-170.1929931640625, 43.211090087890625
276,3561039136,0.5095055,0.43039998,-0.63104063,0.3961661,-8.963163375854492,1.7997219562530518,11.965238571166992,67.635986328125,-110.70511627197266, 14.82882022857666
277,3561055803,0.5001011,0.43996853,-0.62382656,0.40886086,-9.063075065612793,5.531344413757324,22.032323837280273,136.4399871826172,-2.277618169784546, 6.388183116912842
278,3561072470,0.49865308,0.4423171,-0.62033534,0.41338205,4.252564430236816,9.476630210876465,-15.798617362976074,41.96638870239258,13.518891334533691, -1.608129858970642
279,3561089137,0.4919289,0.4499902,-0.61473596,0.4214435,12.60241985321045,2.589876651763916,2.892199993133545,97.43663024902344,-5.348034858703613, -3.1198596954345703
280,3561105804,0.48619694,0.45217133,-0.61346525,0.427568,29.661367416381836,5.156940460205078,16.016948699951172,55.052894592285156,-6.155349254608154, 24.221145629882812
281,3561122471,0.48106453,0.45223406,-0.6181653,0.4265364,11.516274452209473,12.133267402648926,3.7822835445404053,-1.6882365942001343,-40.72563171386719, 26.421337127685547
282,3561139138,0.47610253,0.45134407,-0.6216874,0.42792493,-2.481003522872925,-2.7789506912231445,-10.815614700317383,8.383524894714355,-26.088279724121094, 34.97960662841797
283,3561155805,0.47470644,0.44972882,-0.61936796,0.43448982,-3.7378103733062744,-7.819026470184326,-9.953879356384277,34.296775817871094,27.092689514160156, 26.235515594482422
284,3561172472,0.47978726,0.44310582,-0.6193452,0.43574426,4.061098575592041,-5.5580220222473145,-0.4960367977619171,-31.521839141845703,46.29439163208008, 17.545673370361328
285,3561189139,0.4843313,0.4402196,-0.6163747,0.43784958,8.314826965332031,-0.8346699476242065,1.5691252946853638,-5.119311809539795,45.10869216918945, -3.197307586669922
286,3561205806,0.48763895,0.44012022,-0.6113683,0.4412839,5.9424943923950195,0.1465775966644287,0.3865092992782593,19.64510154724121,42.11333465576172, -13.01514720916748
287,3561222473,0.49149355,0.43932894,-0.6064336,0.44459268,2.292660713195801,0.6009997725486755,-1.6718549728393555,14.915857315063477,45.81706237792969, -11.928065299987793
288,3561239140,0.49714214,0.43674472,-0.6018351,0.44710028,2.584618330001831,-1.1370716094970703,-2.786142587661743,-0.9266008734703064,55.29551315307617, -11.583625793457031
289,3561255807,0.5041312,0.43315881,-0.5961051,0.4504265,3.719235420227051,-0.12448479235172272,-2.757446765899658,-1.5008031129837036,70.3863296508789, -12.206629753112793
290,3561272474,0.51169616,0.4287636,-0.5905872,0.45336056,4.3294878005981445,0.7418230175971985,-0.43634623289108276,-8.278738975524902,73.48296356201172, -11.385376930236816
291,3561289141,0.5188933,0.42405507,-0.5869963,0.45427155,3.664795398712158,-0.9362587332725525,1.9743554592132568,-22.527448654174805,60.220008850097656, -10.335928916931152
292,3561305808,0.5241947,0.42076957,-0.58662623,0.4517109,1.487290859222412,-0.045302681624889374,6.705340385437012,-36.005699157714844,26.37197494506836, -13.181625366210938
293,3561322475,0.526089,0.4205955,-0.5868774,0.4493383,0.6488829851150513,-3.3314027786254883,3.012024164199829,-16.139854431152344,0.8561762571334839, -12.668227195739746
294,3561339142,0.5261107,0.42319176,-0.58565706,0.4484666,0.5073428153991699,0.3418160676956177,-2.390754461288452,9.901595115661621,-5.782752990722656, -17.073421478271484
295,3561355809,0.52566665,0.42523098,-0.58536345,0.44744033,1.4427026510238647,1.3860605955123901,-0.9525191783905029,5.769220352172852,-9.59544849395752, -11.235712051391602
296,3561372476,0.5240226,0.42673633,-0.58780944,0.44472077,2.676152467727661,1.6206780672073364,2.492023229598999,-7.899170875549316,-27.581369400024414, -3.4197402000427246
297,3561389143,0.5189138,0.43036115,-0.59201956,0.44162273,3.14393949508667,0.4803868234157562,7.298585891723633,2.9618911743164062,-55.69707107543945, 2.5246517658233643
298,3561405810,0.51104015,0.4358967,-0.59642583,0.43944094,2.6129918098449707,-1.948775291442871,3.8001105785369873,21.066852569580078,-71.19489288330078, 7.030099868774414
299,3561422477,0.50334954,0.44189614,-0.5996185,0.43797806,2.0250773429870605,-0.5187695026397705,-4.270522117614746,28.756746292114258,-65.64013671875, 3.3638083934783936
300,3561439144,0.4979078,0.44547778,-0.60387313,0.43471247,3.866020917892456,-0.448097288608551,-0.405684232711792,2.945143222808838,-57.96205139160156, 3.524458169937134
301,3561455811,0.4929447,0.44738775,-0.6114809,0.42771608,5.3678131103515625,1.93800950050354,7.007563591003418,-29.75371742248535,-73.86103820800781, 6.521300792694092
302,3561472478,0.48534334,0.45163232,-0.61789346,0.4227034,1.1563464403152466,-4.227898120880127,-2.052719831466675,-1.8945273160934448,-82.06857299804688, 7.631454944610596
303,3561489145,0.4789725,0.45684585,-0.61886555,0.4229451,-1.6097453832626343,0.41909658908843994,-9.93487548828125,35.656394958496094,-45.02554702758789, 0.36061176657676697
304,3561505812,0.47748098,0.45688763,-0.62079966,0.42175034,1.5814281702041626,1.2155746221542358,-4.135363578796387,-5.571613788604736,-16.321800231933594, 6.484419345855713
305,3561522479,0.47801885,0.45459053,-0.62494826,0.41747478,4.884288787841797,1.2926290035247803,4.0354695320129395,-39.17926788330078,-17.628725051879883, 7.493166923522949
306,3561539146,0.47718382,0.45434418,-0.62820745,0.4137904,1.940021276473999,-1.1422786712646484,-0.796816885471344,-23.06867218017578,-24.90253448486328, 1.8628768920898438
307,3561555813,0.4774189,0.45527443,-0.62789446,0.41297096,0.7371501326560974,-0.899741530418396,-4.219902038574219,-0.01502185221761465,-2.9312589168548584, -8.075762748718262
308,3561572480,0.48083413,0.45344058,-0.6278606,0.41107386,2.3015458583831787,0.3014879822731018,-0.1475326418876648,-24.47695541381836,14.550676345825195, -7.878337383270264
309,3561589147,0.48662147,0.44902745,-0.62898624,0.40737006,4.74183988571167,-0.44231462478637695,0.6828879714012146,-51.47686004638672,22.5887393951416, -5.785153865814209
310,3561605814,0.4933322,0.44467753,-0.6278907,0.40575713,5.484750270843506,-0.5463418960571289,-1.7501970529556274,-38.858882904052734,40.21084213256836, -8.511451721191406
311,3561622481,0.50028116,0.4429308,-0.62134063,0.40922734,5.859146595001221,0.01540281716734171,-2.749849796295166,6.404755592346191,68.04791259765625, -19.857545852661133
312,3561639148,0.50970477,0.43971848,-0.6131807,0.41335,6.977655410766602,2.7733089923858643,-2.0067477226257324,1.1463122367858887,90.33634185791016, -23.203615188598633
313,3561655815,0.52128154,0.43482116,-0.60527986,0.41573158,8.742432594299316,2.641447067260742,0.6228165626525879,-19.34931182861328,98.0596694946289, -27.417261123657227
314,3561672482,0.5329905,0.4308265,-0.59637177,0.41791213,10.065744400024414,1.6298092603683472,4.551335334777832,-14.481609344482422,98.95735168457031, -35.181217193603516
315,3561689149,0.54704803,0.42353094,-0.589813,0.41651025,8.499529838562012,0.962959349155426,7.943225860595703,-54.99235916137695,98.62618255615234, -34.511878967285156
316,3561705816,0.56480604,0.4078183,-0.589293,0.4091607,2.208329916000366,-1.6772583723068237,7.172407627105713,-138.8646697998047,97.38446044921875, -15.755534172058105
317,3561722483,0.5719926,0.40272173,-0.589531,0.4038475,-5.000826358795166,-3.3727149963378906,0.46616244316101074,-61.862518310546875,27.203369140625, -19.09748077392578
318,3561739150,0.56860495,0.40883964,-0.5895417,0.40246636,-5.661309719085693,0.616184651851654,-1.8138647079467773,28.111661911010742,-34.97037124633789, -20.49496078491211
319,3561755817,0.560956,0.41492012,-0.5955144,0.3981613,-6.860891342163086,-1.0380847454071045,-4.978021621704102,11.59670352935791,-83.54259490966797, -3.207059144973755
320,3561772484,0.5486982,0.42414358,-0.6043805,0.39211866,-10.007416725158691,-0.45027223229408264,-9.519805908203125,21.840641021728516,-126.90596771240234, -1.9474341869354248
321,3561789151,0.53903943,0.4328543,-0.6148136,0.37957618,-14.612997055053711,6.05806303024292,-0.3153916299343109,-18.905364990234375,-139.2054901123047, -26.798053741455078
322,3561805818,0.53804636,0.4364056,-0.62613565,0.3577855,-16.974225997924805,6.83003568649292,12.801092147827148,-105.23985290527344,-119.87035369873047, -59.04485321044922
323,3561822485,0.5434375,0.43740058,-0.62999225,0.3412716,-16.797229766845703,-0.10673624277114868,17.028886795043945,-92.7488784790039,-43.01161193847656, -66.4208984375
324,3561839152,0.52033466,0.46175668,-0.62327284,0.35716093,-6.434532642364502,-25.522502899169922,-57.41521072387695,245.48326110839844,-84.7503433227539, -11.485946655273438
325,3561855819,0.4924483,0.49225503,-0.6130011,0.3733757,5.80432653427124,10.001413345336914,12.706329345703125,292.67474365234375,-104.6390609741211, -37.094329833984375
326,3561872486,0.48211437,0.49667224,-0.6219334,0.3661716,11.953227043151855,-1.5248725414276123,9.469712257385254,-3.0972564220428467,-108.51239776611328, 13.793999671936035
327,3561889153,0.47246185,0.4996695,-0.631087,0.35894245,18.964845657348633,-4.8225603103637695,0.9165409803390503,-10.784266471862793,-103.29332733154297, 18.785673141479492
328,3561905820,0.4617776,0.506114,-0.63441724,0.35794574,18.279916763305664,6.925565719604492,3.2787482738494873,45.35551834106445,-76.1690444946289, 6.476754188537598
329,3561922487,0.45222327,0.51145697,-0.6367645,0.35838112,12.480815887451172,5.262526988983154,5.19891357421875,46.632877349853516,-60.71394729614258, 9.852137565612793
330,3561939154,0.4469101,0.5127305,-0.6399817,0.3574948,-4.375131607055664,-1.8156627416610718,-9.718522071838379,11.16942310333252,-39.739017486572266, 16.33144187927246
331,3561955821,0.44970503,0.51053804,-0.6390646,0.3587658,-5.693286895751953,-2.6006696224212646,-10.182146072387695,-8.428045272827148,25.13880157470703, 3.650952100753784
332,3561972488,0.45761946,0.5079966,-0.6324247,0.364092,5.8042426109313965,-4.330251216888428,-4.259776592254639,4.435565948486328,80.7935791015625, -15.066632270812988
333,3561989155,0.46971697,0.5040622,-0.62293756,0.37045404,8.63004207611084,1.0764966011047363,-2.4190683364868164,-2.941878318786621,115.09984588623047, -26.281421661376953
334,3562005822,0.48627025,0.49609822,-0.61407113,0.37462595,8.287643432617188,4.630122184753418,0.288844496011734,-42.350364685058594,134.828125, -25.24965476989746
335,3562022489,0.5054205,0.485373,-0.60426414,0.37924677,6.30681037902832,2.3006370067596436,-0.5004932284355164,-56.106632232666016,157.4920654296875, -21.8519344329834
336,3562039156,0.52742785,0.47016802,-0.5956811,0.38200286,7.500232219696045,3.5460832118988037,-0.5907332897186279,-92.149658203125,170.53363037109375, -13.02351188659668
337,3562055823,0.55265677,0.4484088,-0.59085536,0.37998676,8.67929458618164,4.2599406242370605,5.074535846710205,-155.7644805908203,171.86436462402344, 0.2883576452732086
338,3562072490,0.5784281,0.4218237,-0.58988345,0.37352794,2.337898015975952,-0.14217856526374817,4.303952693939209,-203.91343688964844,158.14370727539062, 13.567302703857422
339,3562089157,0.5942907,0.40733534,-0.5861163,0.37062714,-7.18394136428833,-4.616845607757568,-4.037937641143799,-105.4201431274414,108.168212890625, -4.038051605224609
340,3562105824,0.59697294,0.40619606,-0.5858583,0.36796486,-10.31067943572998,-5.159851551055908,-13.842131614685059,-21.925588607788086,7.500615119934082, -13.568119049072266
341,3562122491,0.58961636,0.40873578,-0.59711885,0.35879916,-8.717194557189941,-6.9898362159729,-10.73697280883789,-34.127281188964844,-107.27594757080078, 2.368095874786377
342,3562139158,0.57530004,0.41942638,-0.6077159,0.35184228,-9.807294845581055,-4.242827892303467,-0.8995069265365601,29.18364715576172,-146.77072143554688, -6.997635841369629
343,3562155825,0.5583361,0.4361524,-0.6082281,0.35789767,-12.611612319946289,-1.703112006187439,9.706191062927246,139.46246337890625,-95.01876068115234, -3.5183727741241455
344,3562172492,0.5477856,0.44665918,-0.60494465,0.3666996,-14.26562213897705,2.4797072410583496,11.61357593536377,117.18226623535156,-30.36754035949707, 5.851927280426025
345,3562189159,0.5445405,0.4494298,-0.6033219,0.37079817,-11.61527156829834,1.912598729133606,7.387003421783447,41.864227294921875,-1.475915551185608, 7.098687171936035
346,3562205826,0.5448959,0.44447997,-0.61096674,0.36365625,-5.670644283294678,-6.419217109680176,-19.663509368896484,-68.4171142578125,-36.453216552734375, 16.574199676513672
347,3562222493,0.5338485,0.4502558,-0.61563605,0.36505884,9.141629219055176,0.8511490821838379,12.371835708618164,49.92580795288086,-73.32723999023438, 22.798992156982422
348,3562239160,0.5130368,0.4664649,-0.61660665,0.37282726,33.59392547607422,8.56820011138916,19.003665924072266,154.70106506347656,-107.9907455444336, 15.094667434692383
349,3562255827,0.49116036,0.47947866,-0.6267789,0.3687953,23.32063865661621,14.86910343170166,11.452582359313965,73.23747253417969,-175.32659912109375, 19.496315002441406
350,3562272494,0.47483015,0.4886501,-0.6356795,0.3628626,3.4736812114715576,-1.6307191848754883,-1.0860246419906616,37.04538345336914,-144.06304931640625, 11.768940925598145
351,3562289161,0.4665755,0.49408457,-0.6389622,0.36043733,-12.774916648864746,-7.9606475830078125,-17.434452056884766,27.05585479736328,-69.24413299560547, 0.47730836272239685
352,3562305828,0.4715158,0.490925,-0.6373609,0.36116022,-10.222946166992188,-8.612557411193848,-17.504182815551758,-19.44027328491211,37.02003479003906, -1.1822254657745361
353,3562322495,0.48453104,0.48491284,-0.63069713,0.36374524,8.24103832244873,-2.562614679336548,-3.7883615493774414,-35.25006866455078,102.77538299560547, -20.009719848632812
354,3562339162,0.49959671,0.47951657,-0.6216312,0.36611703,15.866480827331543,7.052530765533447,6.634492874145508,-34.95372009277344,117.4511947631836, -36.585906982421875
355,3562355829,0.5124105,0.47485504,-0.6125821,0.36971822,10.913976669311523,5.698770999908447,4.9356255531311035,-19.767934799194336,109.66223907470703, -29.593908309936523
356,3562372496,0.5255634,0.46646202,-0.608726,0.3683059,9.057497024536133,5.524133205413818,6.0493927001953125,-68.32726287841797,85.70762634277344, -15.311267852783203
357,3562389163,0.53735507,0.4566637,-0.6090859,0.36293563,4.477930068969727,3.4939050674438477,10.217469215393066,-96.27449035644531,55.430877685546875, -6.647221088409424
358,3562405830,0.54789305,0.4477525,-0.6092868,0.3579115,-0.44321754574775696,-1.367252230644226,3.8457651138305664,-87.20399475097656,49.351806640625, -6.402248859405518
359,3562422497,0.55122185,0.4471442,-0.60636467,0.3585225,-6.66858434677124,-5.460775375366211,-3.352869749069214,-2.4360830783843994,27.767091751098633, -11.891283988952637
360,3562439164,0.5476878,0.45475197,-0.60211974,0.3615118,-8.48517894744873,-6.043670177459717,-7.93408203125,62.975914001464844,-8.597811698913574, -24.416433334350586
361,3562455831,0.54098725,0.46241218,-0.60151273,0.3628917,-8.199911117553711,-10.117891311645508,-3.2397990226745605,57.36003875732422,-40.270938873291016, -11.588044166564941
362,3562472498,0.5344894,0.46796164,-0.60100985,0.36622435,-11.618790626525879,-3.6511714458465576,4.942424774169922,56.67692947387695,-28.200260162353516, 3.9950802326202393
363,3562489165,0.5359443,0.46536216,-0.6028904,0.36431447,-13.340333938598633,0.8382648229598999,10.208935737609863,-26.51692008972168,-0.5177236199378967, 5.992202281951904
364,3562505832,0.54234326,0.457378,-0.60687184,0.3582956,-11.763484954833984,1.4582046270370483,2.771550416946411,-84.46208953857422,12.374946594238281, 7.564962863922119
365,3562522499,0.54064023,0.45585564,-0.6079783,0.36092407,-12.105546951293945,-2.3440823554992676,-12.628697395324707,8.272428512573242,0.5714014172554016, 23.83222770690918
366,3562539166,0.53157115,0.46229145,-0.61312747,0.35748222,-1.2414541244506836,13.82682991027832,-20.60970115661621,25.507930755615234,-83.59073638916016, -1.0772349834442139
367,3562555833,0.52220076,0.46513066,-0.6216779,0.35281253,3.325514078140259,-1.1949166059494019,11.947542190551758,-0.24678607285022736,-91.77947235107422, 21.504653930664062
368,3562572500,0.50367856,0.4772242,-0.62420285,0.35907647,13.923548698425293,-3.197345733642578,3.1222493648529053,123.62661743164062,-97.12632751464844, 24.095535278320312
369,3562589167,0.4862551,0.48730665,-0.6295523,0.36021143,21.739234924316406,5.633583068847656,11.763884544372559,84.07058715820312,-114.23402404785156, 21.424213409423828
370,3562605834,0.47565457,0.49040318,-0.63960737,0.35236347,11.140941619873047,3.7011349201202393,3.9258885383605957,-12.660243034362793,-113.69268035888672, 20.63278579711914
371,3562622501,0.46676782,0.49657762,-0.6438052,0.34792772,1.4645527601242065,-2.64450740814209,-6.894529342651367,20.83945083618164,-83.11444091796875, -5.564093112945557
372,3562639168,0.46380633,0.50098866,-0.6419572,0.3489772,-3.957369327545166,-4.385221481323242,-11.7877197265625,33.68001937866211,-14.326848030090332, -15.045162200927734
373,3562655835,0.47057477,0.49935684,-0.63695073,0.35141996,2.8882594108581543,-3.030299663543701,-7.47924280166626,-5.403160572052002,58.36181640625, -18.27113914489746
374,3562672502,0.48457995,0.49347404,-0.6295522,0.35401958,11.083149909973145,1.0044941902160645,-2.8821237087249756,-37.55321502685547,108.78524017333984, -24.922283172607422
375,3562689169,0.502159,0.48387444,-0.6228192,0.3546804,16.198200225830078,5.916442394256592,3.6411755084991455,-72.0713882446289,124.4909896850586, -21.713579177856445
376,3562705836,0.5206833,0.47309908,-0.6164287,0.35366958,15.971702575683594,3.6608245372772217,8.97066593170166,-87.25336456298828,124.4385757446289, -23.48361587524414
377,3562722503,0.5421204,0.459587,-0.6094399,0.35138077,10.323951721191406,-0.04629874229431152,16.20746612548828,-110.47128295898438,141.08726501464844, -25.435514450073242
378,3562739170,0.55876076,0.44524607,-0.608582,0.34521058,-4.682761192321777,-7.22530460357666,7.485246658325195,-129.4478759765625,87.38786315917969, -5.5196533203125
379,3562755837,0.5578226,0.44823718,-0.6065881,0.34636456,-6.075113773345947,-10.020116806030273,-5.35009241104126,24.32135581970215,-0.6588627099990845, -11.848733901977539
380,3562772504,0.5437992,0.4614991,-0.60495925,0.35401314,-7.75325345993042,-9.458003997802734,-10.994246482849121,130.26025390625,-60.856632232666016, 2.2984395027160645
381,3562789171,0.5225098,0.48139924,-0.5941835,0.37707368,-14.213462829589844,0.22830042243003845,5.6913228034973145,264.5310363769531,-23.78131103515625, 20.802030563354492
382,3562805838,0.51716894,0.4856288,-0.58722585,0.3897015,-18.5452823638916,4.456546783447266,8.442394256591797,102.87189483642578,33.6676025390625, 18.711801528930664
383,3562822505,0.52630514,0.47484413,-0.58603096,0.39254758,-17.463232040405273,2.566180467605591,10.67055892944336,-53.78960418701172,79.07062530517578, 25.16576385498047
384,3562839172,0.5399897,0.45845285,-0.5893988,0.3883826,-13.664321899414062,-1.6888495683670044,-4.823275566101074,-129.4942626953125,72.94156646728516, 25.082544326782227
385,3562855839,0.5481292,0.44942236,-0.59066147,0.38560736,-11.620840072631836,1.845241904258728,-8.981670379638672,-73.43595123291016,43.242889404296875, 8.540871620178223
386,3562872506,0.5485147,0.44117683,-0.60374427,0.37414923,-9.041621208190918,-9.705370903015137,-35.971866607666016,-113.14290618896484,-61.377254486083984, 29.76875877380371
387,3562889173,0.52375656,0.46132335,-0.608111,0.37823406,1.2218300104141235,7.989208698272705,-5.005321025848389,157.1455535888672,-157.71360778808594, 8.53296184539795
388,3562905840,0.5056279,0.4745515,-0.6136544,0.37758452,0.9143937826156616,5.140661716461182,11.552127838134766,88.31238555908203,-131.14808654785156, 7.094274520874023
389,3562922507,0.4869257,0.48588353,-0.62134784,0.3751635,12.965978622436523,-0.2771592140197754,0.8141615390777588,70.54156494140625,-142.2797393798828, 17.575714111328125
390,3562939174,0.466261,0.5006741,-0.622063,0.38074106,24.988271713256836,0.35715150833129883,10.16204833984375,140.85638427734375,-109.6335678100586, 11.312887191772461
391,3562955841,0.4541522,0.5062412,-0.6288209,0.3768952,21.85525894165039,16.013378143310547,9.827112197875977,25.708045959472656,-101.18618774414062, 18.978914260864258
392,3562972508,0.4434534,0.51172125,-0.63505226,0.3717518,2.9855196475982666,1.654166340827942,-6.229639530181885,16.33633804321289,-98.1832046508789, 10.240312576293945
393,3562989175,0.43816614,0.5159395,-0.6345197,0.37309742,-6.000489711761475,-5.691502094268799,-12.27813720703125,39.0770149230957,-27.69447898864746, -2.071161985397339
394,3563005842,0.44338217,0.51344544,-0.6313585,0.3757297,-0.4111977815628052,-6.298354148864746,-9.129067420959473,-6.073359966278076,48.246402740478516, -5.352766513824463
395,3563022509,0.4568557,0.50653684,-0.6260535,0.3778365,7.069384574890137,-1.0012394189834595,-4.056550025939941,-45.453826904296875,100.43331909179688, -16.862335205078125
396,3563039176,0.47510087,0.49719742,-0.61957425,0.37842026,13.696221351623535,3.5132319927215576,0.5805844068527222,-73.22122192382812,125.71202087402344, -27.690826416015625
397,3563055843,0.5014894,0.4796174,-0.6134883,0.37697187,15.195569038391113,4.549800395965576,6.184019565582275,-137.6700439453125,173.48548889160156, -18.97563362121582
398,3563072510,0.52748877,0.45890966,-0.6114606,0.3705044,4.445655822753906,4.185014247894287,2.8468515872955322,-178.86830139160156,149.1131591796875, -8.596946716308594
399,3563089177,0.5449489,0.4449657,-0.60789275,0.36810726,-3.244473934173584,0.6809872388839722,-4.67963171005249,-106.34510040283203,114.2854232788086, -5.295983791351318
400,3563105844,0.5543246,0.4354575,-0.6090591,0.36352193,-6.489035129547119,1.8725184202194214,-13.592901229858398,-86.12493133544922,44.9847526550293, 2.910154104232788
401,3563122511,0.5531831,0.43109494,-0.6179287,0.35540092,-8.014542579650879,-3.7311513423919678,-14.540492057800293,-69.09884643554688,-51.45515060424805, 17.281723022460938
402,3563139178,0.5425428,0.4388693,-0.6253942,0.34917498,-13.37753677368164,-0.12244842201471329,-4.422766208648682,16.701101303100586,-110.087646484375, -8.121106147766113
403,3563155845,0.5272481,0.45462215,-0.6275716,0.34854275,-13.956050872802734,-0.031030889600515366,3.4873170852661133,97.26179504394531,-112.50381469726562, -26.361082077026367
404,3563172512,0.5152615,0.47056276,-0.62446886,0.35087758,-14.82214069366455,3.8245482444763184,10.542740821838379,113.05675506591797,-70.32241821289062, -40.868072509765625
405,3563189179,0.5125147,0.47738412,-0.62294376,0.34838817,-13.79864501953125,0.9376614093780518,11.016736030578613,26.340679168701172,-30.084518432617188, -35.89794158935547
406,3563205846,0.50997514,0.47912335,-0.6240468,0.3477529,-9.572482109069824,-11.859010696411133,-0.6168025732040405,9.411998748779297,-20.44184112548828, 0.558594822883606
407,3563222513,0.4977647,0.48846152,-0.6242423,0.35207596,-3.2919368743896484,-3.451507091522217,-13.188028335571289,91.347900390625,-60.51913833618164, 5.167408466339111
408,3563239180,0.48583892,0.49521786,-0.62691486,0.35453877,2.5646262168884277,-1.0674210786819458,8.175751686096191,67.54988098144531,-67.3988037109375, 17.411224365234375
409,3563255847,0.47576717,0.4967194,-0.63533,0.3511002,5.645404815673828,-2.0442230701446533,11.42634391784668,4.263101577758789,-86.1573486328125, 35.353755950927734
410,3563272514,0.45742962,0.50546867,-0.6390157,0.3562565,16.230493545532227,-0.2390977442264557,7.776293754577637,105.17522430419922,-95.32722473144531, 35.56386184692383
411,3563289181,0.43876684,0.5170236,-0.6388466,0.36338046,15.943440437316895,5.3013916015625,2.982309103012085,133.22605895996094,-85.03919219970703, 16.831764221191406
412,3563305848,0.42853805,0.52220523,-0.641872,0.36284596,14.52718448638916,5.694883823394775,2.8635640144348145,42.410057067871094,-69.15387725830078, 12.163496017456055
413,3563322515,0.42423493,0.52397704,-0.6437914,0.36194685,6.640847206115723,0.9856552481651306,-4.377231597900391,12.264854431152344,-32.75507354736328, 7.541033744812012
414,3563339182,0.42618322,0.52399075,-0.6421565,0.3625421,5.042791843414307,-0.8741884827613831,-5.651876926422119,0.07848379015922546,15.119915008544922, -8.657472610473633
415,3563355849,0.43440652,0.52144337,-0.63757557,0.3645345,7.2646965980529785,-2.112771987915039,-4.0558271408081055,-16.526288986206055,63.00154113769531, -19.541170120239258
416,3563372516,0.4493374,0.5153558,-0.63081676,0.3668442,10.417868614196777,0.3328009843826294,-1.0526459217071533,-44.30888748168945,108.98091125488281, -27.757543563842773
417,3563389183,0.4731612,0.5022677,-0.62439376,0.3660302,12.176576614379883,3.0556468963623047,4.823745250701904,-111.85122680664062,153.0591583251953, -28.29111099243164
418,3563405850,0.50345963,0.48073977,-0.6208802,0.36045215,4.523509502410889,3.611358165740967,4.637336254119873,-189.4584197998047,175.97061157226562, -13.760562896728516
419,3563422517,0.5266436,0.46436334,-0.61768216,0.35423446,-3.968033790588379,-0.22272589802742004,0.1698286235332489,-151.5970001220703,129.4618377685547, -19.247182846069336
420,3563439184,0.5373829,0.45804068,-0.61507523,0.35085726,-8.23478889465332,-3.572211742401123,-6.85050106048584,-64.81941223144531,59.098609924316406, -19.495969772338867
421,3563455851,0.53939474,0.4557654,-0.61972904,0.34244302,-8.152438163757324,-0.307028204202652,-10.808877944946289,-61.20555114746094,-29.976348876953125, -11.399378776550293
422,3563472518,0.5338225,0.45388222,-0.6352498,0.32478052,-6.447666645050049,-3.7532894611358643,-13.946739196777344,-101.00743103027344,-132.12208557128906, 4.542003631591797
423,3563489185,0.5184705,0.46257025,-0.64764416,0.31268927,-11.637613296508789,-1.7793796062469482,-0.08586850762367249,-0.392874538898468,-169.13404846191406, -9.179278373718262
424,3563505852,0.49648952,0.48191395,-0.6499554,0.31434903,-14.538094520568848,-2.373553991317749,12.129288673400879,141.59298706054688,-141.8180389404297, -25.45504379272461
425,3563522519,0.47669393,0.5031545,-0.6429602,0.3258846,-15.002415657043457,5.066722869873047,20.09839630126953,205.09335327148438,-71.89540100097656, -35.814910888671875
426,3563539186,0.46670943,0.5165481,-0.6329125,0.33879527,-15.098427772521973,-1.0749530792236328,14.705016136169434,158.3828582763672,3.4087276458740234, -28.983173370361328
427,3563555853,0.46292454,0.52168405,-0.62839043,0.3444887,-12.681390762329102,-2.3915865421295166,-22.673002243041992,65.59685516357422,6.018123626708984, -11.012338638305664
428,3563572520,0.4474809,0.5274965,-0.6381362,0.33806893,6.625260353088379,-11.988816261291504,-22.612945556640625,23.38102912902832,-134.0421905517578, 26.245285034179688
429,3563589187,0.43244392,0.5318303,-0.64553463,0.33679938,-2.173194169998169,-0.538818895816803,11.31923770904541,45.325035095214844,-102.37044525146484, 38.799224853515625
430,3563605854,0.41782942,0.53461516,-0.6549671,0.3326006,7.758326530456543,6.678872585296631,4.2134904861450195,21.47878646850586,-113.9910888671875, 43.428279876708984
431,3563622521,0.39665127,0.5473286,-0.6533702,0.34089088,14.971322059631348,10.68799114227295,1.5506845712661743,155.65110778808594,-88.90187072753906, 9.23784065246582
432,3563639188,0.38028485,0.5580509,-0.64963925,0.34918723,13.7897310256958,-1.309193730354309,1.8311060667037964,137.2122802734375,-57.01662826538086, -0.8377541303634644
433,3563655855,0.37341985,0.5610266,-0.6487289,0.35349357,18.42664337158203,-3.2689125537872314,4.576739311218262,55.89699172973633,-18.887737274169922, 11.317737579345703
434,3563672522,0.3768781,0.5576305,-0.650173,0.35254285,12.098701477050781,1.6165515184402466,-2.2814908027648926,-29.469158172607422,15.961971282958984, 10.169416427612305
435,3563689189,0.38566098,0.55449605,-0.64816517,0.35168415,11.127477645874023,2.2858550548553467,-3.517056465148926,-40.413597106933594,48.34635925292969, -16.858978271484375
436,3563705856,0.3984584,0.5514356,-0.64133817,0.35473242,10.915757179260254,-0.2718040943145752,-1.5529956817626953,-26.441112518310547,93.70358276367188, -34.85356140136719
437,3563722523,0.41728446,0.54460794,-0.63405067,0.35672933,10.97990894317627,0.3347015976905823,2.334836483001709,-63.132537841796875,126.68617248535156, -37.5888786315918
438,3563739190,0.44126552,0.5338003,-0.6278072,0.35524648,7.172561168670654,0.0706653892993927,5.550865650177002,-111.58252716064453,142.738525390625, -38.97377395629883
439,3563755857,0.46825805,0.51966125,-0.6206471,0.35423684,2.4923598766326904,-1.0572781562805176,7.91560173034668,-128.4550323486328,168.20928955078125, -33.91834259033203
440,3563772524,0.48964834,0.5049777,-0.617564,0.35193285,-5.137870788574219,-4.728107929229736,-1.7603214979171753,-125.62108612060547,127.6706771850586, -7.6245598793029785
441,3563789191,0.49729696,0.5013858,-0.6138222,0.3528886,-8.569558143615723,-0.3219493329524994,-4.543131351470947,-25.135517120361328,56.16492462158203, -12.92022705078125
442,3563805858,0.5018057,0.4983336,-0.61481905,0.34907356,-11.007863998413086,-3.6600182056427,-6.3195390701293945,-44.111358642578125,9.205342292785645, -7.555329322814941
443,3563822525,0.5024595,0.4985808,-0.61102235,0.35440594,-13.677278518676758,1.191032886505127,3.6035830974578857,30.627323150634766,33.17851638793945, 2.8140811920166016
444,3563839192,0.50887746,0.49455422,-0.606926,0.35791174,-16.94369888305664,1.7018991708755493,8.168259620666504,-10.838409423828125,62.6027946472168, -0.5481578707695007
445,3563855859,0.5173433,0.48774302,-0.6041768,0.35976836,-14.52646541595459,-1.606788158416748,7.544347763061523,-37.73346710205078,67.58382415771484, 4.919887542724609
446,3563872526,0.5251429,0.48226565,-0.6042132,0.3557687,-12.598331451416016,1.258109211921692,-1.8877688646316528,-61.961788177490234,31.87181854248047, -10.485292434692383
447,3563889193,0.52956116,0.47904882,-0.60914725,0.34498844,-11.531892776489258,-1.9562039375305176,-5.874492645263672,-82.74954986572266,-27.70699691772461, -19.80149269104004
448,3563905860,0.5223015,0.4845397,-0.6137757,0.34015012,-9.001755714416504,-6.5577392578125,-7.3283915519714355,13.00969123840332,-76.31541442871094, -7.971687316894531
449,3563922527,0.49284044,0.5074969,-0.6185022,0.3420677,-1.5021259784698486,2.0320403575897217,-26.895614624023438,177.98419189453125,-188.45298767089844, -5.31627893447876
450,3563939194,0.4679506,0.5217017,-0.6298682,0.3348366,4.440035343170166,14.278158187866211,10.5108642578125,77.748779296875,-202.04681396484375, 13.365621566772461
451,3563955861,0.44655827,0.5298782,-0.64213043,0.3278466,5.113672256469727,3.401911497116089,2.4134480953216553,44.864933013916016,-175.41265869140625, 35.771854400634766
452,3563972528,0.42752892,0.53793204,-0.64892685,0.32671392,12.601520538330078,-2.328298807144165,-1.7619129419326782,74.09512329101562,-126.71189880371094, 29.11979866027832
453,3563989195,0.41406393,0.540451,-0.6565387,0.3246857,13.759722709655762,-3.9116122722625732,2.7903945446014404,31.410961151123047,-95.26676940917969, 41.609130859375
454,3564005862,0.4062521,0.54042864,-0.6629413,0.32156688,16.389984130859375,1.0096293687820435,0.23846039175987244,0.9319548010826111,-64.93917846679688, 32.74564743041992
455,3564022529,0.4028322,0.5408927,-0.66570055,0.3193809,11.284651756286621,2.165027618408203,-3.4160914421081543,-1.7091039419174194,-32.57672119140625, 9.899892807006836
456,3564039196,0.40490428,0.5412894,-0.6639778,0.31967488,10.054567337036133,-1.2271606922149658,-4.68046236038208,-1.1121689081192017,14.292974472045898, -11.604116439819336
457,3564055863,0.41520756,0.53687763,-0.66138107,0.31928113,10.786395072937012,-0.3885725140571594,-0.826771080493927,-46.3612060546875,62.31528091430664, -12.95440673828125
458,3564072530,0.43289828,0.5278947,-0.65797997,0.31778717,10.199849128723145,0.9835249185562134,-0.3266555964946747,-89.92153930664062,104.07563018798828, -14.523750305175781
459,3564089197,0.45338693,0.5185936,-0.6514044,0.3180778,8.51059341430664,1.4983346462249756,2.54360294342041,-86.0062255859375,133.25709533691406, -25.41063117980957
460,3564105864,0.47579345,0.50880355,-0.6421737,0.3199258,4.163532733917236,1.4060055017471313,3.6069183349609375,-81.57349395751953,156.60581970214844, -32.01854705810547
461,3564122531,0.5017803,0.49561045,-0.63142365,0.3223214,-0.34621864557266235,0.16394257545471191,5.535597324371338,-99.46517181396484,186.68495178222656, -28.38572120666504
462,3564139198,0.5202125,0.48383784,-0.62429154,0.32486963,-8.102570533752441,-4.120616436004639,-6.473184585571289,-76.15394592285156,138.64706420898438, -4.972939968109131
463,3564155865,0.5254646,0.48282343,-0.6178512,0.3301947,-10.504125595092773,-0.7500427961349487,-12.446098327636719,16.52117156982422,65.09638977050781, -9.567138671875
464,3564172532,0.523379,0.48578364,-0.61447465,0.33542442,-9.097148895263672,-2.5545668601989746,-7.802825927734375,47.838069915771484,13.984790802001953, 0.045891955494880676
465,3564189199,0.5170472,0.492709,-0.6100218,0.34318152,-14.872257232666016,2.320427894592285,4.164468765258789,89.42314910888672,-0.48595061898231506, -1.4550856351852417
466,3564205866,0.5102439,0.5019954,-0.6028075,0.35252693,-16.09835433959961,-2.364633083343506,5.734831809997559,112.59571838378906,7.139455318450928, -13.856921195983887
467,3564222533,0.5065557,0.50870925,-0.59549844,0.36055252,-14.77163314819336,2.5218756198883057,9.305560111999512,87.5819091796875,22.005386352539062, -15.725189208984375
468,3564239200,0.50959647,0.50839275,-0.595119,0.35732606,-12.669652938842773,1.296499252319336,0.5824993252754211,-23.671707153320312,3.3217668533325195, -18.471172332763672
469,3564255867,0.51388204,0.5051199,-0.60016704,0.34724486,-12.023360252380371,-1.923900842666626,-2.5854763984680176,-79.77174377441406,-27.226064682006836, -14.422791481018066
470,3564272534,0.5064709,0.5078162,-0.6075755,0.34126586,-8.199419975280762,-9.570823669433594,-24.10020637512207,-6.7820048332214355,-83.6748275756836, 11.537424087524414
471,3564289201,0.48224917,0.5230992,-0.617081,0.3361756,2.1045877933502197,8.348343849182129,-3.643815279006958,94.45977783203125,-186.88894653320312, 8.58029556274414
472,3564305868,0.46201628,0.5320877,-0.6260662,0.3338637,4.13927698135376,4.528763771057129,8.515544891357422,72.23921966552734,-143.63475036621094, 33.606319427490234
473,3564322535,0.44141018,0.5411967,-0.6328641,0.33428493,12.219217300415039,0.4918021261692047,3.6074399948120117,90.8330307006836,-128.88812255859375, 34.71501922607422
474,3564339202,0.42561087,0.5464368,-0.63912123,0.33434469,17.200061798095703,-6.549912929534912,4.818032741546631,60.89857482910156,-99.03457641601562, 37.3712158203125
475,3564355869,0.41641578,0.5477311,-0.64514107,0.3322374,19.300674438476562,0.6467126607894897,3.503765106201172,15.549393653869629,-68.73709106445312, 32.102088928222656
476,3564372536,0.4112719,0.5484366,-0.649856,0.32826817,14.443312644958496,7.241844177246094,2.241976499557495,-6.651972770690918,-53.04163360595703, 15.217279434204102
477,3564389203,0.4103549,0.5501846,-0.6492422,0.32770473,7.21640157699585,1.8391679525375366,-8.040786743164062,7.655121803283691,-8.84296989440918, -9.267424583435059
478,3564405870,0.41754264,0.54821455,-0.64507365,0.33015,3.414076328277588,-2.222295045852661,-7.081118583679199,-12.053006172180176,57.27009582519531, -15.856348991394043
479,3564422537,0.43560138,0.5393973,-0.64023614,0.33075622,5.841500282287598,-0.3764704167842865,-3.6665420532226562,-79.35582733154297,116.19297790527344, -18.036270141601562
480,3564439204,0.46157902,0.52531326,-0.6343678,0.3294973,10.451249122619629,1.3046317100524902,0.7619832754135132,-130.38388061523438,159.2537384033203, -22.302003860473633
481,3564455871,0.49543744,0.503606,-0.62795115,0.32649684,8.953372955322266,0.8714250326156616,6.630855560302734,-189.4183807373047,206.2435302734375, -14.416584968566895
482,3564472538,0.5236277,0.48387638,-0.6222759,0.3231881,-1.5542062520980835,-1.2520363330841064,3.9030678272247314,-166.01759338378906,173.45257568359375, -8.73928165435791
483,3564489205,0.5395552,0.47327575,-0.61614025,0.32444078,-5.985565662384033,-3.9868173599243164,-4.699464797973633,-71.77528381347656,117.43883514404297, -5.714229583740234
484,3564505872,0.5460393,0.4686643,-0.61534154,0.32179192,-8.322405815124512,1.6571846008300781,-10.980037689208984,-47.27421951293945,31.791671752929688, -7.218920707702637
485,3564522539,0.54326445,0.4662321,-0.6234018,0.31442285,-9.25705623626709,-5.819303512573242,-11.732855796813965,-48.86931610107422,-60.2702522277832, 14.944283485412598
486,3564539206,0.53020924,0.47411886,-0.6299842,0.31178436,-12.688034057617188,-0.7517824769020081,-3.5322952270507812,46.06291580200195,-105.54808807373047, 5.758433818817139
487,3564555873,0.51255465,0.48808736,-0.63350385,0.3126204,-13.452739715576172,-0.8118302822113037,-0.036004066467285156,104.83036804199219,-115.84391784667969, -8.027009010314941
488,3564572540,0.49646038,0.5010855,-0.63556635,0.31384078,-13.845393180847168,4.430099010467529,6.145262718200684,100.9630355834961,-100.45079040527344, -10.67867660522461
489,3564589207,0.48842028,0.5073407,-0.6405132,0.306258,-13.101814270019531,5.20566463470459,9.567533493041992,5.517777919769287,-90.95561981201172, -18.555057525634766
490,3564605874,0.48546827,0.5097531,-0.64561826,0.2960566,-13.672335624694824,-1.9311201572418213,8.871575355529785,-36.96405029296875,-70.29135131835938, -20.422000885009766
491,3564622541,0.4776583,0.51668453,-0.64509445,0.2978808,-13.29427719116211,-7.553075790405273,-12.116283416748047,59.99455261230469,-40.238521575927734, -10.198515892028809
492,3564639208,0.4501417,0.537285,-0.64493257,0.3045641,4.239506721496582,-1.8093785047531128,-18.266815185546875,195.66603088378906,-139.10971069335938, -13.403665542602539
493,3564655875,0.43037128,0.5477389,-0.6471813,0.30970818,3.0101184844970703,3.955592632293701,9.733975410461426,123.69145202636719,-96.21466064453125, 19.408672332763672
494,3564672542,0.41602242,0.5517377,-0.6542688,0.30731612,8.913243293762207,1.5392807722091675,7.751158714294434,40.388545989990234,-101.39387512207031, 32.59192657470703
495,3564689209,0.4051679,0.5546319,-0.65917087,0.30613106,18.158655166625977,-2.9215447902679443,4.585501194000244,34.05870819091797,-72.8697280883789, 25.361553192138672
496,3564705876,0.3961907,0.55790025,-0.6606644,0.30871162,19.614023208618164,4.0774030685424805,4.1111602783203125,52.184547424316406,-41.68967819213867, 17.110458374023438
497,3564722543,0.39135593,0.56013644,-0.6612203,0.30963808,16.834157943725586,7.4647016525268555,2.0929315090179443,28.008464813232422,-24.87335968017578, 4.993035316467285
498,3564739210,0.39354885,0.5590469,-0.6607213,0.309893,8.373930931091309,2.110135793685913,-5.567788124084473,-8.745617866516113,14.11197566986084, -0.5465243458747864
499,3564755877,0.4033534,0.55468696,-0.65851474,0.30981758,5.340822219848633,-1.6089906692504883,-5.905964374542236,-44.708518981933594,59.05485534667969, -9.33073616027832
500,3564772544,0.4197326,0.5484553,-0.6534597,0.30985808,6.870230674743652,-3.154348134994507,-3.6766233444213867,-68.40546417236328,101.25839233398438, -25.465789794921875
501,3564789211,0.43869442,0.54133284,-0.6462742,0.31118447,10.629171371459961,-1.7927836179733276,1.1599631309509277,-70.41959381103516,125.78617095947266, -31.39612579345703
502,3564805878,0.46086714,0.5321565,-0.6378257,0.31239262,9.062434196472168,1.4676536321640015,5.289435386657715,-86.39031219482422,147.67373657226562, -34.27235794067383
503,3564822545,0.48820853,0.5181495,-0.6284162,0.3134753,4.27332878112793,0.7234829664230347,9.858122825622559,-119.0683822631836,183.08651733398438, -28.111501693725586
504,3564839212,0.513115,0.49996775,-0.62470627,0.31062442,-4.5450615882873535,-3.619110584259033,0.17340087890625,-153.65179443359375,148.12200927734375, 2.2470877170562744
505,3564855879,0.524814,0.4908927,-0.621726,0.31153107,-8.21371841430664,-2.8311767578125,-7.242311000823975,-61.53340148925781,82.3573226928711, 6.9985785484313965
506,3564872546,0.5302772,0.48312303,-0.62615085,0.30550545,-9.103729248046875,-0.7089624404907227,-12.800039291381836,-81.30670166015625,3.1154568195343018, 14.701948165893555
507,3564889213,0.52705604,0.48050034,-0.63333,0.30037403,-11.212827682495117,-0.7930041551589966,-5.64736270904541,-35.68513870239258,-51.669776916503906, 23.2142391204834
508,3564905880,0.5174054,0.48578238,-0.6390557,0.29650447,-13.792402267456055,0.8881381154060364,-3.2605037689208984,22.66506576538086,-86.28849792480469, 1.8725776672363281
509,3564922547,0.50245947,0.49783286,-0.6412521,0.2974772,-13.182799339294434,-0.13109472393989563,3.14835524559021,92.88043975830078,-94.41571807861328, -11.556056022644043
510,3564939214,0.4863837,0.51125,-0.6405951,0.30280742,-13.7498197555542,1.298012614250183,11.902587890625,126.52039337158203,-77.39777374267578, -9.945622444152832
511,3564955881,0.47226188,0.5227851,-0.6383765,0.31006452,-13.030966758728027,-0.7479468584060669,9.936753273010254,125.1244125366211,-53.08909606933594, -4.691105365753174
512,3564972548,0.46208736,0.5317057,-0.63452923,0.31802058,-13.567102432250977,-1.5429236888885498,7.2981367111206055,108.99851989746094,-22.52914810180664, -5.191191673278809
513,3564989215,0.45226786,0.5360158,-0.6395627,0.3148022,-9.142208099365234,-5.004050254821777,-35.80783462524414,24.887815475463867,-80.01214599609375, 11.106324195861816
514,3565005882,0.42906907,0.5471928,-0.6463738,0.3141348,8.716901779174805,0.21150091290473938,4.659151077270508,102.80459594726562,-148.7196044921875, 24.2296199798584
515,3565022549,0.41334113,0.54881984,-0.65682155,0.31069514,6.557871341705322,0.8343350291252136,8.702993392944336,26.364667892456055,-116.32086944580078, 56.026084899902344
516,3565039216,0.39534622,0.5554261,-0.6609582,0.3135884,15.58779525756836,9.598762512207031,4.7123494148254395,91.18832397460938,-95.71744537353516, 32.574913024902344
517,3565055883,0.381341,0.5621488,-0.6632977,0.3140126,17.57685089111328,3.4871203899383545,0.9141176342964172,68.9995346069336,-82.74836730957031, 10.102673530578613
518,3565072550,0.37328523,0.56614983,-0.6635709,0.31592184,14.433792114257812,-2.007202625274658,-0.5003018379211426,50.14360046386719,-38.86819839477539, 5.6494550704956055
519,3565089217,0.37279743,0.5656665,-0.66487277,0.31462345,12.458284378051758,0.34709829092025757,-0.3563338816165924,-7.707544326782227,-9.921252250671387, 5.388857364654541
520,3565105884,0.37840062,0.56454307,-0.66304576,0.31380668,9.731331825256348,1.2013739347457886,-3.6983494758605957,-24.05828857421875,29.034578323364258, -15.799067497253418
521,3565122551,0.3894533,0.5630419,-0.6572239,0.31522566,9.429410934448242,-0.946868896484375,-2.017225742340088,-27.371810913085938,73.7365951538086, -35.50831985473633
522,3565139218,0.40630448,0.5592644,-0.6489672,0.31777596,8.090322494506836,-0.7827586531639099,1.061225414276123,-45.53284454345703,115.71548461914062, -44.22336959838867
523,3565155885,0.42890653,0.55122703,-0.6411461,0.31799307,5.5175700187683105,-0.44862449169158936,3.4844980239868164,-90.904052734375,140.38931274414062, -42.67645263671875
524,3565172552,0.45430768,0.5399203,-0.6332488,0.31794155,1.7994987964630127,-3.2691962718963623,5.888595104217529,-112.15971374511719,158.95884704589844, -35.51636505126953
525,3565189219,0.4764453,0.52610445,-0.6287886,0.31755143,-5.299062728881836,-6.459610939025879,1.2571238279342651,-116.86322784423828,138.10015869140625, -5.870417594909668
526,3565205886,0.48454368,0.5206445,-0.6268529,0.31812286,-8.833517074584961,-1.7451597452163696,-4.799262046813965,-40.06357192993164,54.438995361328125, 0.7668630480766296
527,3565222553,0.4889943,0.51383203,-0.6336649,0.30875552,-9.774170875549316,-1.3294825553894043,-5.528045177459717,-93.51539611816406,-22.767845153808594, 12.755373001098633
528,3565239220,0.48705822,0.50992554,-0.6410543,0.30298457,-10.263153076171875,-0.30928003787994385,-0.8499965667724609,-46.77363967895508,-45.702754974365234, 27.778520584106445
529,3565255887,0.48229364,0.510263,-0.6436932,0.30444002,-14.714326858520508,2.702052116394043,7.690946578979492,19.083784103393555,-25.616268157958984, 22.541826248168945
530,3565272554,0.4793358,0.51237285,-0.64047384,0.3122575,-15.407448768615723,2.005593776702881,12.984416007995605,59.05520248413086,20.36298942565918, 11.584434509277344
531,3565289221,0.48232353,0.51270694,-0.63398993,0.3202382,-14.368654251098633,5.472841262817383,12.344073295593262,40.013427734375,61.49822998046875, -4.219106674194336
532,3565305888,0.4930296,0.50927395,-0.6296962,0.31787542,-11.286036491394043,6.100668907165527,4.087090015411377,-49.56468963623047,59.52644348144531, -31.198047637939453
533,3565322555,0.49863917,0.5041441,-0.63573074,0.30503142,-10.2493257522583,-5.682438850402832,-40.94830322265625,-105.41077423095703,-30.531068801879883, -11.91607666015625
534,3565339222,0.46785706,0.52575403,-0.6411003,0.30607653,8.55726432800293,0.7334555387496948,-15.531444549560547,174.413330078125,-193.97781372070312, -7.286116123199463
535,3565355889,0.44998613,0.53464246,-0.6482695,0.3023523,-3.4073421955108643,10.32791805267334,16.516508102416992,61.94196319580078,-132.94888305664062, 12.750688552856445
536,3565372556,0.4385261,0.5343285,-0.6624017,0.2888113,2.675081253051758,2.1747965812683105,-6.801475524902344,-48.222408294677734,-143.33596801757812, 35.925262451171875
537,3565389223,0.4202288,0.54269934,-0.6652008,0.29392713,2.1560564041137695,-8.64161491394043,-4.400750160217285,110.57625579833984,-88.86507415771484, 24.59124755859375
538,3565405890,0.40738344,0.5448551,-0.6695891,0.2980305,21.91453742980957,-11.280245780944824,9.108766555786133,64.37957000732422,-59.6566162109375, 44.748741149902344
539,3565422557,0.40443054,0.5423046,-0.67567503,0.2929249,26.99186134338379,11.197674751281738,10.391729354858398,-31.77813148498535,-44.3094482421875, 26.387033462524414
540,3565439224,0.4017456,0.5449876,-0.6768982,0.28878692,13.209334373474121,4.313175678253174,-3.6212892532348633,-3.828146457672119,-37.171566009521484, -13.661273956298828
541,3565455891,0.40232816,0.5485362,-0.67259693,0.2912965,8.516918182373047,-1.4543052911758423,-5.332789421081543,28.25762176513672,16.40190315246582, -26.426334381103516
542,3565472558,0.41339028,0.54391956,-0.67053753,0.28920496,8.049277305603027,2.28147554397583,0.15584632754325867,-59.63549041748047,57.702423095703125, -13.986408233642578
543,3565489225,0.43288735,0.5332668,-0.6695326,0.28277445,9.291505813598633,1.0265473127365112,2.0478692054748535,-130.4253692626953,89.2718276977539, -11.306253433227539
544,3565505892,0.4539389,0.5262231,-0.66030025,0.28466162,4.3989763259887695,-0.17028357088565826,2.8119986057281494,-71.08422088623047,144.2377166748047, -36.37510681152344
545,3565522559,0.47504297,0.5177701,-0.65123737,0.28659782,-3.7320826053619385,-4.420003414154053,0.9172176122665405,-75.7777328491211,146.78610229492188, -29.34766387939453
546,3565539226,0.4885261,0.5129712,-0.64285475,0.29144573,-6.865432262420654,-7.940248012542725,-6.264369964599609,-25.019149780273438,113.66629028320312, -18.87801170349121
547,3565555893,0.49337703,0.513744,-0.6351854,0.29864016,-8.016236305236816,-3.692784070968628,-9.531950950622559,33.036712646484375,70.52291107177734, -15.978862762451172
548,3565572560,0.49637792,0.5115689,-0.6339888,0.2999407,-8.756452560424805,-3.676414728164673,-7.134865760803223,-9.508779525756836,26.10370635986328, 3.5128872394561768
549,3565589227,0.49626812,0.5104022,-0.6349507,0.30007556,-12.553267478942871,2.424840211868286,2.312208652496338,-4.695271015167236,-0.6945014595985413, 9.09326171875
550,3565605894,0.49408653,0.51123154,-0.6365095,0.29895917,-14.133915901184082,-0.23318801820278168,2.362443447113037,2.6941139698028564,-20.22755241394043, 2.5945441722869873
551,3565622561,0.48820004,0.51666737,-0.63483536,0.30282006,-14.143804550170898,1.3129884004592896,7.145313739776611,59.786956787109375,-17.362228393554688, -4.3562421798706055
552,3565639228,0.4837375,0.52183986,-0.6319194,0.30717954,-12.14953327178955,4.465987205505371,7.318235874176025,58.62079620361328,-4.725589752197266, -8.826388359069824
553,3565655895,0.48188153,0.5232765,-0.6318165,0.30786324,-11.651972770690918,0.18714283406734467,-0.2984309494495392,14.955710411071777,-8.141016960144043, -0.08012940734624863
554,3565672562,0.47715345,0.52339494,-0.6368258,0.30468905,-8.042238235473633,0.5966345071792603,-18.709980010986328,-6.667881488800049,-48.513832092285156, 17.372060775756836
555,3565689229,0.45920402,0.53091043,-0.64559984,0.30077687,3.5991530418395996,1.5397791862487793,-3.9301435947418213,54.00514221191406,-136.3048553466797, 23.843170166015625
556,3565705896,0.44228277,0.53678876,-0.6531468,0.29940495,4.177241802215576,-2.283374309539795,10.84458065032959,58.91118240356445,-115.16123962402344, 32.53291320800781
557,3565722563,0.42472246,0.54486835,-0.6576801,0.3003106,14.578556060791016,4.815107345581055,4.740443706512451,84.42081451416016,-105.3680419921875, 19.689985275268555
558,3565739230,0.41174623,0.5511753,-0.6606952,0.30025446,15.555235862731934,0.483297199010849,0.9293967485427856,60.90491485595703,-80.48281860351562, 9.827239036560059
559,3565755897,0.40458435,0.553337,-0.66327,0.3003376,15.466694831848145,0.7616990208625793,1.8431388139724731,28.69906234741211,-43.9825553894043, 15.353790283203125
560,3565772564,0.4030249,0.55237967,-0.6661152,0.29788998,13.799562454223633,1.436113715171814,2.178645133972168,-13.378024101257324,-22.64251136779785, 11.992149353027344
561,3565789231,0.40538597,0.5515925,-0.6657147,0.29703882,11.503491401672363,2.7541568279266357,-0.6764470338821411,-13.815492630004883,9.772184371948242, -4.714381694793701
562,3565805898,0.41337752,0.5499737,-0.6615301,0.2983721,8.331094741821289,1.9738825559616089,-2.6572890281677246,-19.740032196044922,55.9415397644043, -20.625835418701172
563,3565822565,0.42786625,0.5455628,-0.65503985,0.30035728,5.132641792297363,0.04005928710103035,0.5437930226325989,-44.541099548339844,100.21685028076172, -28.097667694091797
564,3565839232,0.4515374,0.53425604,-0.64813507,0.30100766,3.27667498588562,-1.8281916379928589,4.173396110534668,-104.43351745605469,151.97830200195312, -21.520915985107422
565,3565855899,0.47021633,0.5240494,-0.64297825,0.30141047,-4.766596794128418,-5.607902526855469,-2.8242251873016357,-87.40177917480469,120.98334503173828, -10.517033576965332
566,3565872566,0.47771513,0.5203335,-0.63912386,0.3042402,-7.050239562988281,-2.9426348209381104,-6.360232830047607,-18.127817153930664,62.81108474731445, -3.6492249965667725
567,3565889233,0.4816538,0.51596355,-0.6414188,0.30062172,-7.938246250152588,0.4090409576892853,-7.418859958648682,-48.774356842041016,5.561724662780762, 7.436206340789795
568,3565905900,0.48338777,0.51097715,-0.6478389,0.2924782,-10.50536060333252,4.6159892082214355,-3.926405191421509,-71.50827026367188,-32.281497955322266, 14.394881248474121
569,3565922567,0.48400116,0.5083656,-0.6539219,0.2823006,-15.420515060424805,4.217240810394287,0.4554574489593506,-68.06940460205078,-47.842811584472656, -1.722700834274292
570,3565939234,0.47910115,0.5135354,-0.6538415,0.28148666,-16.598783493041992,0.8862015604972839,5.313313007354736,31.16229820251465,-34.337188720703125, -16.23609161376953
571,3565955901,0.47014612,0.52599335,-0.64627934,0.29088932,-15.152225494384766,2.9380710124969482,7.1275835037231445,129.90736389160156,-5.91021203994751, -33.85136795043945
572,3565972568,0.46450233,0.5372335,-0.63690954,0.29994053,-13.19232177734375,3.429628372192383,5.158172130584717,116.06371307373047,15.797501564025879, -42.62985610961914
573,3565989235,0.46014756,0.54596263,-0.63032174,0.30476803,-10.478755950927734,-5.325218677520752,-8.463605880737305,79.05619812011719,2.1515696048736572, -37.395790100097656
574,3566005902,0.43784744,0.5595182,-0.6341018,0.30519477,1.72100830078125,-15.881349563598633,-26.56954002380371,120.84782409667969,-134.69862365722656, 4.150421619415283
575,3566022569,0.42089602,0.5646549,-0.64367706,0.2994853,2.678776979446411,0.11145265400409698,14.128937721252441,35.853302001953125,-134.05548095703125, 33.016265869140625
576,3566039236,0.4085723,0.56390625,-0.65615153,0.29076412,3.820505142211914,5.433142185211182,9.395160675048828,-18.38477897644043,-122.0009765625, 52.0772705078125
577,3566055903,0.39485815,0.56499773,-0.6656951,0.28585848,14.703217506408691,6.173264503479004,1.6851279735565186,15.323317527770996,-109.26261901855469, 46.03864669799805
578,3566072570,0.37870297,0.5705047,-0.6689296,0.28920907,13.94442367553711,0.2795328199863434,0.40546247363090515,87.05168914794922,-80.20162200927734, 28.644079208374023
579,3566089237,0.36857697,0.57285106,-0.6710053,0.29282197,15.3410005569458,0.7328982949256897,1.5505014657974243,58.694740295410156,-42.375606536865234, 27.307315826416016
580,3566105904,0.36798108,0.5702808,-0.6740993,0.29147875,8.327258110046387,-0.6289217472076416,-2.593306541442871,-16.195764541625977,-10.900683403015137, 22.247303009033203
581,3566122571,0.3740428,0.5671978,-0.6734633,0.2912491,5.02798318862915,-1.0602991580963135,-5.965213298797607,-30.9708309173584,34.72541809082031, -0.5549674034118652
582,3566139238,0.38628858,0.56335425,-0.668263,0.29468286,6.373074531555176,-2.321838855743408,-4.994647026062012,-30.957944869995117,90.99172973632812, -17.833045959472656
583,3566155905,0.40778583,0.55506307,-0.6611208,0.2975486,12.181052207946777,0.26914870738983154,0.9296932220458984,-77.30960083007812,145.51577758789062, -25.24185562133789
584,3566172572,0.44274008,0.5364146,-0.65503025,0.29525608,8.36129093170166,1.8899760246276855,5.160433292388916,-183.33294677734375,205.08067321777344, -16.16961669921875
585,3566189239,0.47037858,0.5199363,-0.6523055,0.2879372,-0.5576218366622925,-1.684922695159912,-1.319909691810608,-179.16607666015625,138.68141174316406, -13.988508224487305
586,3566205906,0.48468482,0.5130779,-0.64652926,0.28953743,-5.585999488830566,-2.3402490615844727,-3.37709641456604,-54.33232498168945,101.64957427978516, -12.861092567443848
587,3566222573,0.4928128,0.50594264,-0.6480762,0.2848768,-6.365680694580078,1.027937650680542,-11.795352935791016,-75.89071655273438,28.428123474121094, 5.5951409339904785
588,3566239240,0.49494797,0.49735698,-0.6598206,0.26888555,-6.4730143547058105,1.968731164932251,-10.937042236328125,-130.46524047851562,-68.98945617675781, 20.929590225219727
589,3566255907,0.48704037,0.4974759,-0.67119455,0.254573,-10.774442672729492,-0.5229063034057617,-5.291778087615967,-58.22998046875,-123.2676773071289, 4.54109001159668
590,3566272574,0.46860418,0.5112478,-0.67322713,0.25651792,-14.263025283813477,0.0573996901512146,5.114020824432373,114.86274719238281,-108.60762786865234, -17.519569396972656
591,3566289241,0.45213938,0.52821946,-0.6684982,0.2639402,-15.00405216217041,9.111929893493652,9.231180191040039,155.53253173828125,-64.06310272216797, -41.89897537231445
592,3566305908,0.44597933,0.5393856,-0.6633185,0.26490456,-12.791175842285156,4.343077182769775,10.01678466796875,71.24320983886719,-28.27208709716797, -55.372222900390625
593,3566322575,0.44780207,0.5449439,-0.65820867,0.2631937,-10.119799613952637,0.5905970931053162,8.576355934143066,12.152331352233887,8.109235763549805, -52.146759033203125
594,3566339242,0.44005272,0.5491484,-0.65938634,0.2645745,-3.0379467010498047,-20.21182632446289,-21.872896194458008,46.48360824584961,-40.631072998046875, 4.409509658813477
595,3566355909,0.42108867,0.5605778,-0.6598965,0.270136,3.1219911575317383,-0.19606807827949524,9.309226989746094,130.66604614257812,-86.19137573242188, 1.671609878540039
596,3566372576,0.40940875,0.56557477,-0.6634266,0.2690259,3.3507237434387207,2.961636543273926,9.50007152557373,48.11774826049805,-75.96881103515625, 9.623257637023926
597,3566389243,0.39880183,0.56702393,-0.6713889,0.26206487,11.690816879272461,1.070536732673645,6.500734329223633,-0.8664331436157227,-100.06117248535156, 24.64537811279297
598,3566405910,0.3844941,0.57402265,-0.67297536,0.2641339,14.982075691223145,5.096098899841309,3.56787371635437,81.99103546142578,-74.82048797607422, 5.591322898864746
599,3566422577,0.37539962,0.57860446,-0.6723557,0.2687563,10.162320137023926,2.2360610961914062,-1.3099381923675537,70.9087905883789,-30.737375259399414, 5.440559387207031
600,3566439244,0.3743856,0.57954407,-0.6718826,0.2693289,5.403656959533691,-2.600510835647583,-4.3705034255981445,10.398049354553223,-3.268092393875122, -2.4982125759124756
601,3566455911,0.38030696,0.57765675,-0.6701991,0.26928163,4.974364757537842,-2.1518354415893555,-3.786144495010376,-25.167503356933594,34.68632888793945, -8.776941299438477
602,3566472578,0.38981703,0.575989,-0.665761,0.2702628,9.604896545410156,0.5613722801208496,-0.7282690405845642,-29.031234741210938,62.1331672668457, -24.750478744506836
603,3566489245,0.3992008,0.5757667,-0.6588832,0.2738696,11.928138732910156,2.1355276107788086,2.5269291400909424,-8.089827537536621,75.68131256103516, -33.767494201660156
604,3566505912,0.411861,0.5715943,-0.6549151,0.27338007,10.058865547180176,3.3819522857666016,4.62956428527832,-55.89685821533203,73.52387237548828, -21.754390716552734
605,3566522579,0.4260752,0.56568694,-0.65151227,0.2720114,6.871692180633545,2.610022783279419,5.170332431793213,-71.88423156738281,78.47941589355469, -17.099254608154297
606,3566539246,0.4436107,0.55707395,-0.64776367,0.2707038,1.4665464162826538,0.06217966228723526,7.948151111602783,-91.77566528320312,99.4706802368164, -12.33846664428711
607,3566555913,0.45991233,0.54594994,-0.64787537,0.26585165,-4.5598015785217285,-3.7379839420318604,-1.6424932479858398,-117.65065002441406,73.1152572631836, 5.068615436553955
608,3566572580,0.46833456,0.54036236,-0.6474768,0.26352492,-7.17540168762207,-3.4478020668029785,-6.560792922973633,-58.415775299072266,39.15252685546875, 0.7765841484069824
609,3566589247,0.47172582,0.537395,-0.648421,0.26121205,-9.25620174407959,-3.2824769020080566,-6.7716474533081055,-33.72114181518555,8.057333946228027, 3.2064225673675537
610,3566605914,0.4726723,0.53570825,-0.64971906,0.25973654,-11.916614532470703,0.18795402348041534,1.0914298295974731,-17.49518394470215,-2.855703830718994, 5.876705646514893
611,3566622581,0.47399294,0.534413,-0.65112454,0.25645745,-13.453042984008789,-0.3391631543636322,1.750061273574829,-25.86200523376465,-8.732007026672363, -1.940384864807129
612,3566639248,0.47299275,0.53592974,-0.64966166,0.25883782,-13.708932876586914,-2.8338377475738525,4.858453273773193,22.211854934692383,6.20140266418457, -2.47268009185791
613,3566655915,0.46986857,0.54023075,-0.64482206,0.26754236,-12.632813453674316,-1.699296236038208,7.980565547943115,73.34224700927734,26.098237991333008, -3.003434896469116
614,3566672582,0.46538654,0.54640764,-0.63837326,0.27809,-11.429409980773926,-2.7990782260894775,-0.6821897029876709,95.58941650390625,28.62386131286621, -8.818597793579102
615,3566689249,0.45629475,0.55326945,-0.64022857,0.27531,-7.315712928771973,0.4856063723564148,-36.48204040527344,40.69317626953125,-69.38544464111328, -14.472026824951172
616,3566705916,0.4414594,0.5595845,-0.6491178,0.26575366,1.6274616718292236,7.165350437164307,10.155339241027832,17.518434524536133,-140.39102172851562, 4.352218151092529
617,3566722583,0.42752573,0.56321174,-0.6565929,0.2624889,1.723510503768921,0.5737934708595276,4.726461410522461,36.64774703979492,-103.2877197265625, 28.523752212524414
618,3566739250,0.4084312,0.57245564,-0.661055,0.2616966,11.473413467407227,6.902581691741943,4.651020050048828,89.7829818725586,-118.4647445678711, 8.073247909545898
619,3566755917,0.39068368,0.5803414,-0.66440797,0.26293,14.653608322143555,-0.9538611769676208,2.276334047317505,91.95985412597656,-99.1244125366211, 13.255170822143555
620,3566772584,0.3795649,0.5838087,-0.6678238,0.26288652,15.425548553466797,-1.8988845348358154,4.3951520919799805,47.69942855834961,-66.4168701171875, 18.209775924682617
621,3566789251,0.3748265,0.58419937,-0.67184305,0.258541,12.153093338012695,2.545064687728882,1.3885746002197266,-6.766366004943848,-50.77051544189453, 11.898003578186035
622,3566805918,0.3747967,0.5848985,-0.6726551,0.25486556,8.851318359375,2.095534324645996,-4.145132541656494,-16.046293258666992,-18.84752082824707, -9.035696029663086
623,3566822585,0.3793614,0.58593065,-0.66863793,0.2563076,7.500707626342773,-0.5544884204864502,-3.596993923187256,-1.5222878456115723,34.80886459350586, -24.836423873901367
624,3566839252,0.391529,0.58369607,-0.6629044,0.25799564,8.363485336303711,-0.3517385721206665,-0.4583744704723358,-36.52235412597656,80.9698715209961, -29.534650802612305
625,3566855919,0.4112919,0.5778328,-0.65498686,0.26065442,7.149020671844482,0.6154547929763794,3.793241024017334,-68.4726333618164,131.6981964111328, -32.666316986083984
626,3566872586,0.43659475,0.5646764,-0.6516098,0.2567692,0.7245753407478333,-1.1552120447158813,3.0692200660705566,-148.6959228515625,130.69866943359375, -10.259101867675781
627,3566889253,0.45326415,0.5552663,-0.64868355,0.2558137,-2.840282917022705,-3.971156120300293,-1.9933221340179443,-91.58666229248047,95.3633041381836, -1.3203903436660767
628,3566905920,0.46155944,0.55042154,-0.6467887,0.2562488,-5.40855598449707,-0.4569595158100128,-6.783807754516602,-41.03341293334961,52.21933364868164, 1.216846227645874
629,3566922587,0.46660268,0.5454327,-0.6484159,0.2536575,-8.03316879272461,-0.8546557426452637,-2.79475736618042,-48.894535064697266,15.68218994140625, 11.32701301574707
630,3566939254,0.46728247,0.54476315,-0.6479085,0.25513706,-13.414023399353027,2.209892511367798,3.2503209114074707,3.1639316082000732,11.025394439697266, 4.758899211883545
631,3566955921,0.46546912,0.5482904,-0.64370805,0.26145062,-14.200647354125977,-1.403089165687561,3.290006160736084,54.002769470214844,22.635175704956055, -7.731225490570068
632,3566972588,0.46305013,0.5530236,-0.6375654,0.27066654,-12.543734550476074,-1.2336537837982178,8.548717498779297,76.47061157226562,35.06035232543945, -9.971417427062988
633,3566989255,0.46397257,0.55477214,-0.6335033,0.27501073,-10.215242385864258,0.6065751314163208,4.618936061859131,29.04846954345703,30.053054809570312, -10.670729637145996
634,3567005922,0.46893445,0.55166954,-0.6344237,0.27068043,-9.624467849731445,-1.8242779970169067,0.5078046321868896,-49.02796173095703,7.855297565460205, -5.787457466125488
635,3567022589,0.47237906,0.54623115,-0.6400766,0.2622817,-9.989334106445312,-5.217560291290283,-4.213811874389648,-77.38142395019531,-24.984657287597656, 12.050505638122559
636,3567039256,0.4618862,0.5475717,-0.6491237,0.25586107,-4.127506256103516,-5.7925190925598145,-28.77553939819336,-0.49444684386253357,-101.88224792480469, 26.439895629882812
637,3567055923,0.4432824,0.55722916,-0.65600705,0.25030246,6.343625545501709,13.753314971923828,9.762563705444336,63.94247055053711,-141.7396697998047, -1.9408140182495117
638,3567072590,0.4254128,0.56418025,-0.6629716,0.2473727,6.488661766052246,4.037457466125488,8.214035034179688,64.73960876464844,-124.34733581542969, 17.63543701171875
639,3567089257,0.40599158,0.576348,-0.6631358,0.2514851,16.20850944519043,5.467679500579834,-1.2442615032196045,129.77029418945312,-93.42294311523438, -9.234367370605469
640,3567105924,0.39444962,0.5833088,-0.66287446,0.2544757,14.542049407958984,-3.4243476390838623,-0.0038078203797340393,79.69181060791016,-51.98291015625, -3.8852503299713135
641,3567122591,0.39426056,0.5810237,-0.6660597,0.25166377,16.059017181396484,-1.960345983505249,3.0397231578826904,-23.40458869934082,-16.925090789794922, 16.326051712036133
642,3567139258,0.39731765,0.5769222,-0.6701411,0.2453784,18.49201202392578,0.5811920762062073,5.508906364440918,-58.74644470214844,-15.569979667663574, 13.07093334197998
643,3567155925,0.39915305,0.57593375,-0.67118436,0.2418448,18.26931381225586,3.087705373764038,9.509737968444824,-27.546131134033203,-7.6810150146484375, -3.8220534324645996
644,3567172592,0.40297955,0.576453,-0.66844386,0.24185227,9.981511116027832,3.02372145652771,8.190820693969727,-8.575711250305176,22.875118255615234, -19.362499237060547
645,3567189259,0.41642758,0.572586,-0.6630284,0.2431598,-1.8291208744049072,0.44517460465431213,0.7886058688163757,-48.36696243286133,86.62511444091797, -22.184314727783203
646,3567205926,0.4223453,0.5722373,-0.6576335,0.24836884,-11.395651817321777,-2.1505894660949707,-12.144929885864258,9.106708526611328,61.7955436706543, -14.366782188415527
647,3567222593,0.42661077,0.570839,-0.6541342,0.253485,-12.31425952911377,1.6801369190216064,-12.919807434082031,8.801097869873047,50.8259162902832, 0.40416568517684937
648,3567239260,0.43544355,0.56394386,-0.65120465,0.26132154,-12.325233459472656,-1.7060222625732422,2.4491426944732666,-14.077577590942383,90.54466247558594, 27.479860305786133
649,3567255927,0.44804788,0.5550058,-0.6472288,0.26891753,-13.404125213623047,3.249058485031128,4.059327125549316,-34.04589080810547,113.45413208007812, 25.08182144165039
650,3567272594,0.4614645,0.54598457,-0.6456362,0.2685243,-12.53468132019043,0.7309306859970093,-2.695244550704956,-77.36044311523438,79.48783111572266, 8.568634986877441
651,3567289261,0.47068048,0.540272,-0.6456656,0.26397413,-12.657907485961914,-0.23282663524150848,-2.112830400466919,-72.57071685791016,34.2388801574707, -5.401431083679199
652,3567305928,0.47202775,0.54024667,-0.64617443,0.2603495,-11.5969877243042,-1.5561339855194092,-3.923215866088867,-21.73012351989746,-8.896323204040527, -11.544696807861328
653,3567322595,0.46504775,0.54623926,-0.6462464,0.26022908,-10.634450912475586,-1.1827507019042969,-1.8010742664337158,45.044166564941406,-41.96220779418945, -13.620781898498535
654,3567339262,0.45314762,0.5542552,-0.6463243,0.26405233,-10.352864265441895,-2.6882224082946777,1.1935712099075317,87.47803497314453,-52.459537506103516, -1.1704919338226318
655,3567355929,0.43347725,0.5645999,-0.64983577,0.26653,-5.057567596435547,0.7857886552810669,-19.9912166595459,112.1255111694336,-106.94059753417969, 11.432465553283691
656,3567372596,0.41422448,0.5702229,-0.659718,0.26083744,6.331879138946533,2.397343397140503,6.180965900421143,48.176414489746094,-146.50271606445312, 32.15951156616211
657,3567389263,0.39488307,0.573142,-0.6700278,0.25814462,5.799603462219238,-2.6910111904144287,4.639843463897705,53.73802185058594,-131.8230743408203, 54.81809616088867
658,3567405930,0.3745565,0.57875746,-0.6761349,0.2599789,18.04732894897461,0.6493796110153198,6.507602691650391,93.293212890625,-112.14415740966797, 39.74186325073242
659,3567422597,0.35958865,0.5801934,-0.6831451,0.25958553,16.60579490661621,1.7707140445709229,3.2589433193206787,49.26449203491211,-91.47447967529297, 47.41875457763672
660,3567439264,0.3511218,0.5802722,-0.688308,0.25735173,10.724468231201172,1.8229674100875854,-2.1179802417755127,14.679744720458984,-61.69841766357422, 30.253175735473633
661,3567455931,0.3492681,0.58007234,-0.6895459,0.25701085,1.5252437591552734,-0.5209947228431702,-7.337817668914795,3.5427842140197754,-13.031587600708008, 8.801665306091309
662,3567472598,0.35477978,0.5786512,-0.68702966,0.25939268,-1.1015866994857788,-3.926316022872925,-7.7654709815979,-9.246264457702637,44.08965301513672, -6.879249095916748
663,3567489265,0.3688041,0.57435083,-0.6819092,0.26287785,3.7236249446868896,-2.41176438331604,-5.8323259353637695,-40.3449821472168,100.41018676757812, -16.229019165039062
664,3567505932,0.39030263,0.5671211,-0.6752425,0.26473603,10.888587951660156,1.735335350036621,-0.12311643362045288,-82.16105651855469,138.3307647705078, -26.306140899658203
665,3567522599,0.42505604,0.55160004,-0.66736233,0.263993,13.885427474975586,2.314643144607544,4.988302230834961,-165.97052001953125,207.90904235839844, -23.64180564880371
666,3567539266,0.4557273,0.53675205,-0.6611607,0.25899157,2.9757511615753174,1.552707314491272,2.129068374633789,-171.06260681152344,166.51202392578125, -25.3998966217041
667,3567555933,0.47433156,0.5290156,-0.65411,0.25940752,-5.139566898345947,-1.2456269264221191,-1.6231579780578613,-78.05770111083984,121.53548431396484, -22.39065933227539
668,3567572600,0.48218992,0.5273634,-0.6490256,0.26104912,-6.928893089294434,1.1885217428207397,-6.741729259490967,-17.13432502746582,60.53733444213867, -19.454204559326172
669,3567589267,0.48090857,0.52640027,-0.6536063,0.25382805,-4.761598587036133,-2.763835906982422,-16.069278717041016,-38.64002990722656,-45.358131408691406, -0.39574673771858215
670,3567605934,0.46629325,0.53401273,-0.66004616,0.24847592,-8.25853443145752,-0.3436717987060547,-6.960937023162842,43.03874206542969,-119.09593200683594, -2.794285535812378
671,3567622601,0.44471443,0.54816866,-0.66420954,0.24610211,-11.438131332397461,-1.7536581754684448,0.5843335390090942,106.95694732666016,-143.35150146484375, -19.378437042236328
672,3567639268,0.4231043,0.5644721,-0.6633256,0.24970654,-13.755738258361816,2.4379000663757324,12.696012496948242,149.46534729003906,-109.0308609008789, -29.892234802246094
673,3567655935,0.4121078,0.5762036,-0.65938467,0.25173154,-15.152183532714844,5.325246334075928,11.280014038085938,93.06132507324219,-50.15975570678711, -43.62086486816406
674,3567672602,0.41079912,0.5808649,-0.65573347,0.25269336,-11.44637393951416,-3.1566240787506104,11.750179290771484,29.393234252929688,0.8912954926490784, -30.016427993774414
675,3567689269,0.41002512,0.580164,-0.6573739,0.25129437,-4.773085594177246,-13.08336353302002,-17.544179916381836,-7.714641571044922,-11.894817352294922, 7.650488376617432
676,3567705936,0.39629576,0.5871785,-0.65885615,0.25313988,7.609586715698242,0.29507625102996826,-0.5541693568229675,80.46261596679688,-69.83807373046875, 3.3554556369781494
677,3567722603,0.38745624,0.5886452,-0.6645601,0.24846436,4.299320220947266,2.01893949508667,13.62646198272705,8.733604431152344,-76.01629638671875, 19.221479415893555
678,3567739270,0.37443766,0.592021,-0.67071354,0.24382614,11.358025550842285,4.697843074798584,7.134398460388184,30.22277069091797,-99.89244842529297, 19.590133666992188
679,3567755937,0.35723352,0.60181546,-0.668641,0.25124046,13.74341869354248,5.9030656814575195,-0.19521649181842804,133.25294494628906,-60.13920211791992, -5.374397277832031
680,3567772604,0.3488154,0.60758156,-0.66508687,0.25851914,7.549546241760254,1.839242696762085,-2.27767276763916,89.01231384277344,-9.974177360534668, -8.388001441955566
681,3567789271,0.3507729,0.60676754,-0.66509825,0.25775185,5.5884175300598145,-1.6858118772506714,-1.1070830821990967,-13.223552703857422,6.921100616455078, -1.1189044713974
682,3567805938,0.35907224,0.60309315,-0.66490173,0.25544402,4.727767467498779,0.07916097342967987,-3.596067428588867,-53.27122116088867,34.99542999267578, -3.929582118988037
683,3567822605,0.3712898,0.59940666,-0.66144335,0.25563294,8.496344566345215,1.8626694679260254,-2.411933422088623,-52.41448974609375,71.34745788574219, -18.137706756591797
684,3567839272,0.38541123,0.5953543,-0.65613914,0.2578625,10.944313049316406,1.5216381549835205,0.6048476696014404,-48.64718246459961,93.6812515258789, -22.21025848388672
685,3567855939,0.402699,0.5897207,-0.6504921,0.25869521,11.06126594543457,2.3188440799713135,5.55844783782959,-71.46582794189453,105.7535171508789, -25.806156158447266
686,3567872606,0.42824158,0.5765606,-0.64835435,0.25263333,5.129307270050049,0.432219535112381,5.833779335021973,-162.812255859375,118.06834411621094, -11.7067289352417
687,3567889273,0.4462921,0.5661192,-0.64714116,0.24807423,-2.5974292755126953,-4.568930149078369,-0.46463146805763245,-119.95991516113281,82.96142578125, -2.7898547649383545
688,3567905940,0.45406288,0.56139135,-0.6461715,0.24724288,-5.5074310302734375,-4.5725202560424805,-4.452032089233398,-46.2917366027832,41.34135818481445, 1.5882073640823364
689,3567922607,0.45807028,0.5553233,-0.65142024,0.2396651,-6.363007545471191,-3.468984365463257,-8.91689682006836,-76.55985260009766,-18.287935256958008, 16.78020477294922
690,3567939274,0.45554277,0.55273724,-0.6578322,0.23285021,-10.730635643005371,-0.47702518105506897,-3.2833499908447266,-39.23170852661133,-53.6507568359375, 18.747726440429688
691,3567955941,0.44688115,0.55619806,-0.6609794,0.23248097,-13.67158031463623,-1.8347506523132324,-0.21583232283592224,37.35546875,-56.07563018798828, 9.06606388092041
692,3567972608,0.4349073,0.5650234,-0.6585663,0.24061328,-13.943621635437012,2.0049848556518555,5.989930152893066,113.99797058105469,-29.878450393676758, -5.118334770202637
693,3567989275,0.4278765,0.57197446,-0.65462995,0.24744056,-12.735551834106445,3.127614736557007,9.076048851013184,85.82316589355469,-4.852635383605957, -14.493282318115234
694,3568005942,0.4261759,0.5743359,-0.6524517,0.25063783,-10.1503324508667,-3.6936421394348145,5.399961948394775,32.07956314086914,7.453445911407471, -6.5221710205078125
