PacketCounter,SampleTimeFine,Quat_W,Quat_X,Quat_Y,Quat_Z,Acc_X,Acc_Y,Acc_Z,Gyr_X,Gyr_Y,Gyr_Z 
1,1225363369,0.52744263,0.49978286,-0.29725963,0.6194015,-0.07158372551202774,-0.09461341053247452,-0.10510250180959702,-0.1822115033864975,0.5385876893997192, 0.04101317375898361
2,1225380036,0.5275996,0.50002694,-0.2970563,0.6191682,16.672809600830078,2.9968297481536865,5.81954288482666,1.535974383354187,2.5686399936676025, -1.8653342723846436
3,1225396703,0.5284214,0.5004162,-0.2955298,0.6188835,16.683496475219727,2.886991024017334,5.768904209136963,0.8117752075195312,2.603793144226074, -1.733160138130188
4,1225413370,0.5287346,0.5005995,-0.29490933,0.61876374,16.50003433227539,2.845167398452759,5.6548871994018555,0.46163690090179443,2.3797335624694824, -1.8173620700836182
5,1225430037,0.5288213,0.50074613,-0.29481927,0.6186138,16.81429672241211,2.928818941116333,5.774702548980713,1.1067311763763428,2.8412234783172607, -1.9315816164016724
6,1225446704,0.52875394,0.5009758,-0.2946614,0.61856055,16.772085189819336,3.127666711807251,5.88314962387085,1.1708781719207764,2.5383148193359375, -2.3096508979797363
7,1225463371,0.52895993,0.50115883,-0.29405513,0.61852485,16.404001235961914,2.820037364959717,5.633625507354736,1.2796168327331543,2.629777431488037, -1.7329552173614502
8,1225480038,0.52929455,0.50104165,-0.29392755,0.6183941,16.809701919555664,2.968003749847412,5.682937145233154,-0.14612045884132385,2.9489505290985107, -1.8364946842193604
9,1225496705,0.529405,0.50110644,-0.29381895,0.61829877,16.803791046142578,3.0234341621398926,5.968955993652344,-0.009387054480612278,2.6133344173431396, -1.7666103839874268
10,1225513372,0.5294792,0.5010618,-0.29350793,0.6184191,16.524723052978516,2.861985921859741,5.656097412109375,-0.22457213699817657,2.5302977561950684, -1.5695204734802246
11,1225530039,0.529731,0.50085557,-0.2934377,0.61840373,16.79996681213379,3.041147470474243,5.809096813201904,-1.3839566707611084,2.8454749584198, -1.7881635427474976
12,1225546706,0.5298693,0.5008443,-0.2931904,0.61841184,16.65822982788086,3.0983211994171143,5.81304931640625,0.8461347818374634,2.536393880844116, -1.7480539083480835
13,1225563373,0.53007984,0.50075674,-0.2929189,0.6184308,16.63691520690918,3.002774477005005,5.652767658233643,-0.1729753613471985,2.8004603385925293, -1.6133822202682495
14,1225580040,0.53017634,0.5007974,-0.29256204,0.61848414,16.79448890686035,3.0369460582733154,5.817677021026611,0.9574475884437561,2.8027660846710205, -1.6277894973754883
15,1225596707,0.5303075,0.50087464,-0.29225945,0.6184522,16.672983169555664,3.1370675563812256,5.891384601593018,1.4672811031341553,2.2990405559539795, -1.6994409561157227
16,1225613374,0.5304902,0.5008457,-0.2919569,0.6184619,16.481416702270508,2.970872640609741,5.517992973327637,0.03409690782427788,2.4811599254608154, -1.6276870965957642
17,1225630041,0.5306644,0.5008291,-0.29168186,0.61845547,16.70524024963379,3.104727029800415,5.751677989959717,0.4986087679862976,2.7784721851348877, -1.5178470611572266
18,1225646708,0.5308888,0.5007488,-0.29146874,0.6184285,16.729761123657227,2.93332576751709,5.7812957763671875,-0.4661127030849457,2.8045716285705566, -1.4881619215011597
19,1225663375,0.53105855,0.5007132,-0.29126444,0.61840767,16.456003189086914,3.154555320739746,5.7098307609558105,0.05668730288743973,2.4699668884277344, -1.523481845855713
20,1225680042,0.5312985,0.50062686,-0.29107508,0.6183609,16.764427185058594,3.0549261569976807,5.815924644470215,-0.4669708013534546,2.6283693313598633, -1.5368006229400635
21,1225696709,0.5314944,0.50060534,-0.2908674,0.6183074,16.736230850219727,3.2320778369903564,5.686939239501953,0.18112660944461823,2.289910078048706, -1.5818147659301758
22,1225713376,0.531684,0.5005896,-0.29062098,0.61827326,16.559946060180664,3.3186724185943604,5.72382926940918,-0.3716787099838257,2.429306745529175, -1.7343640327453613
23,1225730043,0.5319223,0.50055206,-0.29035088,0.61822546,16.59531593322754,2.935798406600952,5.655540466308594,0.18359822034835815,2.7764101028442383, -1.5119816064834595
24,1225746710,0.53214574,0.50050455,-0.29005882,0.6182088,16.770343780517578,3.162053108215332,5.857052326202393,-0.1661624014377594,2.919060468673706, -1.8128412961959839
25,1225763377,0.5322884,0.5005189,-0.28963795,0.6182717,16.70577049255371,3.1759939193725586,5.737868309020996,0.8983591198921204,3.1260108947753906, -1.808103084564209
26,1225780044,0.5324238,0.5005432,-0.2891783,0.6183508,16.470706939697266,3.29636287689209,5.6675896644592285,1.1346235275268555,3.277651309967041, -1.8704317808151245
27,1225796711,0.53257906,0.5005576,-0.28873187,0.61841387,16.636051177978516,3.249096155166626,5.802451133728027,1.2026381492614746,3.3145081996917725, -1.7223647832870483
28,1225813378,0.5327184,0.5005658,-0.28834695,0.6184669,16.610275268554688,3.2129266262054443,5.713630199432373,0.7185195088386536,2.9558401107788086, -1.5223294496536255
29,1225830045,0.532839,0.50062644,-0.28790113,0.61852145,16.673824310302734,3.2821743488311768,5.752906799316406,1.2396609783172607,2.935823440551758, -1.7546747922897339
30,1225846712,0.5329296,0.5007473,-0.28744397,0.6185583,16.55411720275879,3.175243377685547,5.765064239501953,1.680660605430603,2.6221835613250732, -1.7901484966278076
31,1225863379,0.5329836,0.50084555,-0.28692964,0.6186707,16.40149688720703,3.2343859672546387,5.546224117279053,2.376404285430908,2.67165470123291, -1.6120762825012207
32,1225880046,0.5330517,0.5007913,-0.2865,0.6188553,16.87291145324707,3.2808287143707275,5.851541042327881,1.3400243520736694,2.787346363067627, -1.0448188781738281
33,1225896713,0.5331768,0.5007379,-0.28612867,0.61896247,16.445236206054688,3.518195867538452,5.752647399902344,1.3385132551193237,2.343158721923828, -1.220752477645874
34,1225913380,0.53329635,0.5005093,-0.28590873,0.61914593,16.55849838256836,3.225593328475952,5.5982184410095215,0.19991350173950195,2.724339246749878, -0.05884517356753349
35,1225930047,0.53338486,0.5002006,-0.28579828,0.61937016,16.76616859436035,3.3152637481689453,5.817805767059326,-0.5796281695365906,2.6904921531677246, 0.6648864150047302
36,1225946714,0.53329897,0.50005996,-0.28556845,0.61966354,16.672367095947266,3.425335168838501,5.946000576019287,1.2555538415908813,2.2934956550598145, 0.9074515700340271
37,1225963381,0.53322834,0.49990892,-0.28543127,0.61990947,16.27547836303711,3.2666900157928467,5.649168491363525,1.0426098108291626,1.9296159744262695, 1.1418334245681763
38,1225980048,0.53317213,0.49969175,-0.28533593,0.6201767,16.73663330078125,3.2248382568359375,5.746285438537598,0.4655684232711792,2.1309573650360107, 1.3769066333770752
39,1225996715,0.53302497,0.49960312,-0.28514123,0.6204641,16.799320220947266,3.3365542888641357,5.8474555015563965,1.4048629999160767,1.779525637626648, 1.1292704343795776
40,1226013382,0.533012,0.49949375,-0.28499126,0.6206322,16.334869384765625,3.265655279159546,5.600247383117676,0.964913547039032,1.6589151620864868, 0.5063438415527344
41,1226030049,0.53309935,0.49930707,-0.2848465,0.62077385,16.658475875854492,3.0304605960845947,5.684210777282715,0.1751716285943985,2.06006121635437, 0.11939999461174011
42,1226046716,0.5332227,0.49915862,-0.28464186,0.620881,16.513809204101562,3.175060272216797,5.666285037994385,0.3804318606853485,2.0696535110473633, -0.4465958774089813
43,1226063383,0.53338474,0.49896172,-0.28433973,0.6210387,16.808595657348633,3.2460269927978516,5.609311580657959,0.42745673656463623,2.8531715869903564, -0.7241094708442688
44,1226080050,0.5335459,0.49883696,-0.28389856,0.62120235,16.483293533325195,3.121239185333252,5.677764415740967,1.334991693496704,3.08431339263916, -1.3029437065124512
45,1226096717,0.53368336,0.49871176,-0.28336984,0.621426,16.36408042907715,3.172590494155884,5.496483325958252,1.7708427906036377,3.5401806831359863, -1.3315017223358154
46,1226113384,0.533927,0.4984902,-0.2829013,0.6216078,16.725603103637695,3.4589297771453857,5.773673057556152,0.8658820986747742,3.827043056488037, -1.4881490468978882
47,1226130051,0.5340787,0.49834755,-0.28238288,0.62182754,16.471710205078125,3.276289224624634,5.70137357711792,1.9772042036056519,3.6672580242156982, -1.1930394172668457
48,1226146718,0.53422004,0.49816713,-0.2819232,0.6220593,16.57057762145996,3.4691874980926514,5.724828243255615,1.6110966205596924,3.6270596981048584, -0.8430676460266113
49,1226163385,0.5343733,0.49796832,-0.28152764,0.6222661,16.205535888671875,3.397444248199463,5.543169975280762,1.1674590110778809,3.4070847034454346, -0.7314218878746033
50,1226180052,0.53448474,0.49768972,-0.28122154,0.6225315,16.6057071685791,3.329092264175415,5.703468322753906,0.7822951078414917,3.5478906631469727, 0.13830217719078064
51,1226196719,0.53459954,0.49745947,-0.28095922,0.62273556,16.600303649902344,3.454150915145874,5.827723026275635,0.6786918044090271,2.9857044219970703, -0.03214394301176071
52,1226213386,0.5346141,0.49723497,-0.28072768,0.6230067,16.20218849182129,3.22420334815979,5.587535858154297,0.8445340394973755,2.843989610671997, 0.6642974019050598
53,1226230053,0.534783,0.49689296,-0.28065515,0.62316704,16.534732818603516,3.445110559463501,5.719908237457275,-0.7429220080375671,2.7369794845581055, 0.46716925501823425
54,1226246720,0.53493583,0.49654087,-0.28066564,0.6233119,16.51625633239746,3.328650951385498,5.745384216308594,-1.2235699892044067,2.369821548461914, 0.7410203218460083
55,1226263387,0.53499633,0.49624258,-0.2806364,0.6235106,16.32726287841797,3.309401512145996,5.750552177429199,-0.5702027678489685,2.2659621238708496, 1.043749451637268
56,1226280054,0.5351029,0.4958956,-0.28058708,0.6237176,16.189138412475586,3.173187494277954,5.378203392028809,-0.9815683364868164,2.6302385330200195, 0.8342633247375488
57,1226296721,0.5351365,0.49560016,-0.28046432,0.62397873,16.31566619873047,3.2689785957336426,5.76725435256958,0.2821687161922455,2.809617042541504, 1.1512333154678345
58,1226313388,0.53526944,0.4952066,-0.28047734,0.6241713,16.607994079589844,3.153972625732422,5.812532424926758,-1.1095422506332397,2.6917476654052734, 1.1342393159866333
59,1226330055,0.5352688,0.4949321,-0.28030434,0.6244671,16.273576736450195,3.1646909713745117,5.566984176635742,0.8004928827285767,2.9639205932617188, 1.2287756204605103
60,1226346722,0.5352599,0.49469677,-0.2800222,0.6247877,16.03951644897461,3.050851821899414,5.61011266708374,1.5444393157958984,3.2800068855285645, 0.9300034642219543
61,1226363389,0.53526604,0.4944619,-0.27968714,0.6251185,16.515884399414062,3.0555431842803955,5.7130584716796875,1.2626358270645142,3.4402916431427, 0.5335958003997803
62,1226380056,0.5352761,0.49426314,-0.2792903,0.6254443,16.16632843017578,3.187716007232666,5.729654788970947,1.621674656867981,3.4989962577819824, 0.21014583110809326
63,1226396723,0.5353842,0.4939923,-0.2789724,0.6257073,15.975898742675781,2.974724531173706,5.480987548828125,1.4812275171279907,3.6721508502960205, 0.3261713981628418
64,1226413390,0.53554994,0.49365637,-0.27872038,0.62594306,16.29834747314453,3.0650408267974854,5.698395252227783,-0.19723059237003326,3.547672748565674, -0.03218235820531845
65,1226430057,0.53568906,0.49339867,-0.278416,0.6261627,16.178361892700195,3.1618998050689697,5.672461986541748,1.196900725364685,3.4608073234558105, 0.020099565386772156
66,1226446724,0.53594214,0.49300277,-0.2782894,0.6263141,16.120576858520508,3.0152347087860107,5.671106815338135,-0.33217108249664307,3.4394075870513916, 0.25200971961021423
67,1226463391,0.5359273,0.49281642,-0.27790692,0.6266432,16.124242782592773,3.1260628700256348,5.707357406616211,1.730656623840332,3.359867811203003, 0.37023797631263733
68,1226480058,0.53588325,0.49262965,-0.27765653,0.62693876,15.983938217163086,3.0552573204040527,5.6182146072387695,1.1957098245620728,2.7053098678588867, 0.8215082287788391
69,1226496725,0.5358736,0.4923941,-0.27755997,0.62717456,16.1486759185791,3.1687138080596924,5.8322930335998535,0.1224479079246521,2.2128541469573975, 1.0672235488891602
70,1226513392,0.5358507,0.4921575,-0.27752614,0.6273949,15.846712112426758,3.0067694187164307,5.459792613983154,-0.13700233399868011,1.9079604148864746, 1.2827671766281128
71,1226530059,0.53588736,0.49178427,-0.27768004,0.6275882,16.304365158081055,3.063894033432007,5.852758407592773,-1.7041538953781128,1.830507755279541, 1.821223258972168
72,1226546726,0.53578365,0.4915756,-0.27769214,0.6278346,15.417927742004395,3.0215861797332764,5.3361592292785645,0.09161023050546646,1.5548510551452637, 1.8292527198791504
73,1226563393,0.53576857,0.49117833,-0.27775496,0.62813056,16.01190757751465,2.9832749366760254,5.6857171058654785,-1.0286444425582886,2.5211539268493652, 2.161372423171997
74,1226580060,0.5357144,0.49083653,-0.27776727,0.62843853,16.064624786376953,2.7951364517211914,5.727855205535889,-0.45086032152175903,2.4346470832824707, 2.0967514514923096
75,1226596727,0.53558505,0.49056262,-0.2776869,0.6287981,15.757477760314941,2.9719130992889404,5.4470367431640625,0.5531766414642334,2.5139825344085693, 2.165508985519409
76,1226613394,0.535525,0.4902355,-0.2776408,0.62912476,15.846908569335938,2.6834046840667725,5.5796122550964355,-0.08876080811023712,2.642430305480957, 1.9621822834014893
77,1226630061,0.5354236,0.49003056,-0.27740085,0.6294765,15.623871803283691,2.67075514793396,5.4748430252075195,1.3884578943252563,2.835127353668213, 1.34385347366333
78,1226646728,0.5353836,0.4897626,-0.27716145,0.6298244,15.951733589172363,2.788987874984741,5.586788654327393,0.940619945526123,3.211749315261841, 1.183735728263855
79,1226663395,0.53540856,0.48948997,-0.27693456,0.6301149,15.848376274108887,2.8328592777252197,5.703359603881836,0.5412667393684387,3.1186981201171875, 0.7404823303222656
80,1226680062,0.53544605,0.48922712,-0.2766733,0.63040173,15.441195487976074,2.680243730545044,5.37471866607666,0.6771421432495117,3.2146689891815186, 0.5385134220123291
81,1226696729,0.53551936,0.4889257,-0.27645963,0.6306669,15.716259956359863,2.9401259422302246,5.549313545227051,0.16646334528923035,3.205230712890625, 0.5359521508216858
82,1226713396,0.5356284,0.48862344,-0.27630582,0.63087606,15.661198616027832,2.725492000579834,5.591602802276611,-0.32400065660476685,2.870088577270508, 0.37940728664398193
83,1226730063,0.535573,0.48845935,-0.275931,0.6312141,15.741247177124023,2.8881564140319824,5.5491623878479,1.9408601522445679,3.206319570541382, 0.5607069134712219
84,1226746730,0.5355515,0.48825976,-0.27563098,0.6315177,15.3864164352417,2.7034332752227783,5.558598518371582,1.306087613105774,3.0370450019836426, 0.6064766049385071
85,1226763397,0.5354755,0.48807687,-0.275269,0.6318815,15.517683029174805,2.7108466625213623,5.4751386642456055,1.9334838390350342,3.291597366333008, 0.8239158391952515
86,1226780064,0.5354717,0.4878165,-0.27507195,0.6321716,15.802362442016602,2.9020960330963135,5.73556661605835,0.5506154894828796,2.9127211570739746, 0.937572181224823
87,1226796731,0.53538287,0.48767725,-0.2747512,0.63249344,15.205700874328613,2.7283520698547363,5.422277450561523,1.878620982170105,2.788973093032837, 0.781001627445221
88,1226813398,0.5352603,0.4875204,-0.27437782,0.63287985,15.549480438232422,2.6862246990203857,5.5628557205200195,2.277142286300659,3.214759111404419, 1.0217227935791016
89,1226830065,0.5352322,0.48730677,-0.27407914,0.6331977,15.529633522033691,2.752920389175415,5.541265487670898,1.2980068922042847,3.137434244155884, 0.7143703103065491
90,1226846732,0.535165,0.48706698,-0.2738017,0.6335589,15.385988235473633,2.680248737335205,5.489583492279053,1.3213016986846924,3.2477097511291504, 1.1633609533309937
91,1226863399,0.5352095,0.4868008,-0.27356213,0.6338295,15.293248176574707,2.711402416229248,5.520320892333984,0.5146423578262329,3.1314537525177, 0.5190734267234802
92,1226880066,0.5351731,0.48658246,-0.27323806,0.63416743,15.371868133544922,2.5936191082000732,5.41123628616333,1.4571512937545776,3.3054792881011963, 0.7473850250244141
93,1226896733,0.53527486,0.48627737,-0.2730286,0.63440573,15.403223991394043,2.7814202308654785,5.572464942932129,-0.011359231546521187,3.18821120262146, 0.3233667314052582
94,1226913400,0.53528637,0.48605934,-0.2727299,0.6346918,15.238595008850098,2.6151161193847656,5.480754375457764,1.0894041061401367,3.1252167224884033, 0.43287381529808044
95,1226930067,0.53531325,0.48582035,-0.2724184,0.6349855,15.182376861572266,2.5576605796813965,5.447367191314697,1.0314041376113892,3.3168509006500244, 0.3896779716014862
96,1226946734,0.53535205,0.4856058,-0.27205172,0.6352741,15.398118019104004,2.818533182144165,5.487646102905273,1.3137843608856201,3.4186744689941406, 0.08785796910524368
97,1226963401,0.5354162,0.48536694,-0.27178273,0.63551766,15.197318077087402,2.5395030975341797,5.648856163024902,0.6272230744361877,3.0629141330718994, 0.18525026738643646
98,1226980068,0.5354654,0.48512217,-0.27150932,0.63578,14.987263679504395,2.6418967247009277,5.243496417999268,0.7110021710395813,3.1377925872802734, 0.31342899799346924
99,1226996735,0.5355913,0.48476148,-0.27137583,0.63600606,15.12784194946289,2.6083157062530518,5.445716857910156,-0.6514204740524292,3.1545045375823975, 0.5285243391990662
100,1227013402,0.5356947,0.48444697,-0.27125663,0.6362092,15.211790084838867,2.606998920440674,5.692075729370117,-0.5120490193367004,2.782928705215454, 0.5030782222747803
101,1227030069,0.5357887,0.4841383,-0.27111742,0.6364244,14.916271209716797,2.7340378761291504,5.204771518707275,-0.3479997515678406,2.8529276847839355, 0.5108004808425903
102,1227046736,0.53586644,0.48382547,-0.27094355,0.6366709,15.044363975524902,2.5923402309417725,5.4838995933532715,-0.10120858252048492,3.0770010948181152, 0.5912244319915771
103,1227063403,0.53594863,0.48354614,-0.2707677,0.6368886,15.10086441040039,2.5793628692626953,5.592795372009277,-0.037407346069812775,2.851161003112793, 0.39556896686553955
104,1227080070,0.5359042,0.48337597,-0.27045682,0.6371872,14.890889167785645,2.670900583267212,5.415558338165283,1.5284315347671509,2.9041152000427246, 0.5946820378303528
105,1227096737,0.53592694,0.48313656,-0.27020696,0.6374557,15.099160194396973,2.607316493988037,5.382641792297363,0.7263442277908325,3.0096521377563477, 0.5222750306129456
106,1227113404,0.53588,0.4829816,-0.26992282,0.637733,14.961491584777832,2.5659451484680176,5.552430152893066,1.4344969987869263,2.6696181297302246, 0.5880995988845825
107,1227130071,0.5358815,0.48276493,-0.26971117,0.63798505,14.930971145629883,2.574556589126587,5.407205581665039,0.6818805932998657,2.6800296306610107, 0.6364691853523254
108,1227146738,0.5359657,0.48243383,-0.2696169,0.6382047,15.054424285888672,2.523358106613159,5.474671840667725,-0.5890921354293823,2.798449993133545, 0.7557986974716187
109,1227163405,0.5360403,0.48216116,-0.2694837,0.63840413,14.903481483459473,2.549882411956787,5.4598388671875,-0.2077830284833908,2.6035244464874268, 0.48400962352752686
110,1227180072,0.53613365,0.48185283,-0.2693668,0.6386079,14.775026321411133,2.5208334922790527,5.364688396453857,-0.4659590721130371,2.7519631385803223, 0.5368614196777344
111,1227196739,0.5361919,0.4816301,-0.26906544,0.63885427,15.128870964050293,2.526857376098633,5.522291660308838,0.8548814058303833,3.1350646018981934, 0.0773567482829094
112,1227213406,0.53623503,0.48144183,-0.26878706,0.63907707,14.866972923278809,2.3931097984313965,5.4343132972717285,0.8878579139709473,2.796734094619751, 0.06755990535020828
113,1227230073,0.536294,0.48123106,-0.2685251,0.6392964,14.883377075195312,2.6495485305786133,5.429795742034912,0.6752340793609619,2.8558480739593506, 0.07885510474443436
114,1227246740,0.5364368,0.48092327,-0.2683984,0.63946134,14.860712051391602,2.4955554008483887,5.389317512512207,-0.6567479372024536,2.7618236541748047, 0.1370343416929245
115,1227263407,0.5365295,0.48060694,-0.26821965,0.6396965,15.209637641906738,2.561570405960083,5.5176615715026855,-0.16387006640434265,3.1355643272399902, 0.45851215720176697
116,1227280074,0.536674,0.48028663,-0.2680981,0.6398667,14.9521484375,2.5296249389648438,5.610551357269287,-0.721625030040741,2.8276612758636475, 0.1858905851840973
117,1227296741,0.53673285,0.4800797,-0.2677954,0.6400994,14.923785209655762,2.5450921058654785,5.236612796783447,0.8918533325195312,3.047238826751709, -0.015021847561001778
118,1227313408,0.536813,0.47982726,-0.26747704,0.64035445,15.19278335571289,2.5090749263763428,5.581856727600098,0.7622659206390381,3.425832986831665, 0.004360561724752188
119,1227330075,0.53698856,0.47955582,-0.26724887,0.6405059,15.020355224609375,2.5122106075286865,5.477308750152588,-0.20979364216327667,3.014467477798462, -0.46748295426368713
120,1227346742,0.53710735,0.47932065,-0.26698056,0.64069414,14.949726104736328,2.724700689315796,5.431115627288818,0.3553442358970642,3.025071382522583, -0.28249529004096985
121,1227363409,0.5372817,0.47905964,-0.26673794,0.6408443,14.95610523223877,2.513855218887329,5.445999622344971,-0.10747090727090836,3.023611545562744, -0.5328851342201233
122,1227380076,0.53743386,0.4788327,-0.26643923,0.6410106,15.129128456115723,2.639552116394043,5.492855548858643,0.36752304434776306,3.093905210494995, -0.623566746711731
123,1227396743,0.5375258,0.47866273,-0.2660976,0.6412023,15.135257720947266,2.632876396179199,5.510886192321777,1.0116311311721802,2.9749085903167725, -0.5087578296661377
124,1227413410,0.5376042,0.47852364,-0.2657051,0.6414029,15.106258392333984,2.7191970348358154,5.3726606369018555,1.4108178615570068,3.0310003757476807, -0.6390752196311951
125,1227430077,0.53766036,0.47837248,-0.26536536,0.6416093,14.97006607055664,2.7247908115386963,5.401610851287842,1.2163022756576538,2.8693203926086426, -0.3216314911842346
126,1227446744,0.5377674,0.47811013,-0.26513234,0.64181143,15.119919776916504,2.67651104927063,5.407763957977295,0.1580495685338974,3.0441269874572754, -0.005724438466131687
127,1227463411,0.53790605,0.4778372,-0.26498806,0.64195806,15.137466430664062,2.7140040397644043,5.468475818634033,-0.47873979806900024,2.6394848823547363, -0.039366718381643295
128,1227480078,0.5379955,0.47764066,-0.2647331,0.64213455,14.914020538330078,2.7370643615722656,5.283263683319092,0.5078550577163696,2.7208051681518555, -0.21332819759845734
129,1227496745,0.53811145,0.4773831,-0.2645221,0.6423158,15.07837200164795,2.5756566524505615,5.388451099395752,0.00847140047699213,2.8947536945343018, -0.05550272390246391
130,1227513412,0.53820896,0.47716773,-0.26427805,0.6424945,15.158390045166016,2.690897226333618,5.410608291625977,0.36649855971336365,2.7913169860839844, -0.17056778073310852
131,1227530079,0.53825784,0.4769969,-0.26398584,0.64270073,15.049274444580078,2.7555012702941895,5.321425437927246,0.953451931476593,2.7779855728149414, -0.09284604340791702
132,1227546746,0.5383273,0.47680616,-0.26372725,0.64289,15.190542221069336,2.7197604179382324,5.466716289520264,0.6314363479614258,2.726811408996582, -0.09930044412612915
133,1227563413,0.538468,0.4766079,-0.26351404,0.6430065,14.85018539428711,2.764583110809326,5.240635395050049,0.03705517202615738,2.4863204956054688, -0.5210647583007812
134,1227580080,0.53851616,0.4764116,-0.26322973,0.6432284,15.009523391723633,2.647890329360962,5.3083343505859375,0.8518208265304565,2.9229278564453125, 0.04295890033245087
135,1227596747,0.538718,0.47608882,-0.26306525,0.64336556,15.517348289489746,2.764592409133911,5.495570659637451,-0.8037649393081665,3.0441014766693115, -0.33012211322784424
136,1227613414,0.53875834,0.47599986,-0.2627029,0.6435456,14.84968090057373,2.881904363632202,5.384911060333252,1.5426337718963623,2.5967628955841064, -0.5284668207168579
137,1227630081,0.5387837,0.4758736,-0.2623143,0.6437762,15.04589557647705,2.696969985961914,5.1246137619018555,1.659427523612976,2.9999959468841553, -0.29094740748405457
138,1227646748,0.5389108,0.4756177,-0.2620708,0.64395815,15.022378921508789,2.6988000869750977,5.433628082275391,0.11498182266950607,3.0693297386169434, -0.213673934340477
139,1227663415,0.5390134,0.47548708,-0.26170447,0.64411765,14.90079402923584,3.0558724403381348,5.281169891357422,1.1622209548950195,2.855950355529785, -0.8173779845237732
140,1227680082,0.5391668,0.47521877,-0.26153374,0.6442565,15.009087562561035,2.6539435386657715,5.33774471282959,-0.4206501841545105,2.770263433456421, -0.2262369990348816
141,1227696749,0.5392582,0.4750568,-0.26123628,0.6444201,14.946663856506348,2.870509624481201,5.202253341674805,0.7821542024612427,2.7440996170043945, -0.4677775204181671
142,1227713416,0.5393346,0.47485662,-0.26096854,0.64461225,15.054496765136719,2.851977586746216,5.320581436157227,0.6068480610847473,2.8775417804718018, -0.12847329676151276
143,1227730083,0.53942955,0.47464368,-0.26074842,0.64477855,15.223481178283691,2.800352096557617,5.401693344116211,0.23990775644779205,2.7126474380493164, -0.12767931818962097
144,1227746750,0.5393714,0.47451973,-0.26045683,0.64503646,15.001814842224121,2.7219479084014893,5.320158958435059,1.5501255989074707,2.6138978004455566, 0.4973410367965698
145,1227763417,0.5392638,0.47438312,-0.26011556,0.6453645,14.928388595581055,2.7483975887298584,5.134223461151123,2.0099246501922607,3.0016355514526367, 0.8353773951530457
146,1227780084,0.5392163,0.47415286,-0.2598195,0.64569247,15.003778457641602,2.7296833992004395,5.244872570037842,1.264402985572815,3.366513729095459, 0.8814674019813538
147,1227796751,0.5390506,0.47409588,-0.25927505,0.6460914,14.986603736877441,2.8892948627471924,5.309689998626709,3.521150588989258,3.546417474746704, 0.5488609671592712
148,1227813418,0.53896093,0.47398376,-0.2588354,0.6464246,14.940381050109863,2.9333033561706543,5.221010208129883,2.483490467071533,3.331552505493164, 0.4081575572490692
149,1227830085,0.5388329,0.47393525,-0.25834873,0.64676154,14.880993843078613,2.8405704498291016,5.241105556488037,3.05747127532959,3.175161838531494, 0.32820752263069153
150,1227846752,0.5387758,0.47382724,-0.25796118,0.6470428,14.79250431060791,2.962456464767456,5.13276481628418,2.0646462440490723,3.0250842571258545, 0.2351566106081009
151,1227863419,0.5388426,0.4735512,-0.2577731,0.6472645,14.926826477050781,2.8141772747039795,5.260965824127197,0.04315100237727165,3.0666024684906006, 0.41402295231819153
152,1227880086,0.53893167,0.47328022,-0.25760067,0.64745706,15.012487411499023,2.945791006088257,5.310756206512451,-0.1318797767162323,2.9334287643432617, 0.24905145168304443
153,1227896753,0.5390899,0.47294536,-0.25749516,0.647612,14.825654029846191,2.9843132495880127,5.101585388183594,-0.9595927000045776,2.9701192378997803, 0.1343834549188614
154,1227913420,0.53915626,0.47263354,-0.25733528,0.6478479,14.986611366271973,2.706921339035034,5.2540788650512695,-0.19122442603111267,3.1713004112243652, 0.6291375160217285
155,1227930087,0.5392204,0.4723364,-0.2571962,0.64806634,15.018484115600586,2.6822824478149414,5.277490139007568,-0.25188809633255005,2.96799373626709, 0.6123164892196655
156,1227946754,0.53921974,0.47209427,-0.2569435,0.6483434,14.848703384399414,2.748718738555908,5.075719356536865,0.7734586596488953,3.2193689346313477, 0.6492370963096619
157,1227963421,0.5393324,0.47175783,-0.25688156,0.6485192,14.803030967712402,2.7146706581115723,5.2531914710998535,-0.9729626178741455,2.8066205978393555, 0.5540091395378113
158,1227980088,0.53947204,0.47134858,-0.2569127,0.6486881,15.040977478027344,2.628787040710449,5.204865455627441,-1.7574793100357056,2.8108208179473877, 0.8369396924972534
159,1227996755,0.53962386,0.47096252,-0.2569328,0.6488344,14.928984642028809,2.8257408142089844,5.158647060394287,-1.69994056224823,2.699943780899048, 0.6196160912513733
160,1228013422,0.5396465,0.47070605,-0.25678432,0.64906037,14.815067291259766,2.698106288909912,5.087067604064941,0.0903296023607254,2.780226707458496, 0.7175846695899963
161,1228030089,0.5397553,0.4703919,-0.2566893,0.6492353,14.99427604675293,2.672578811645508,5.232686996459961,-0.730999231338501,2.830209732055664, 0.41832584142684937
162,1228046756,0.53975534,0.47016925,-0.25644162,0.6494944,15.077167510986328,2.758378744125366,5.293825626373291,0.790081262588501,3.072800397872925, 0.5586321353912354
163,1228063423,0.53974974,0.46998236,-0.25617307,0.6497402,14.849604606628418,2.8106508255004883,4.997337341308594,1.0105938911437988,2.9404854774475098, 0.40323999524116516
164,1228080090,0.53982985,0.4696539,-0.25608322,0.64994663,14.958436965942383,2.6939518451690674,5.08547830581665,-0.6614864468574524,2.9414587020874023, 0.7023835182189941
165,1228096757,0.5399347,0.46928304,-0.25603792,0.65014505,14.747733116149902,2.588460922241211,5.065556049346924,-1.112615704536438,2.990557909011841, 0.7789398431777954
166,1228113424,0.5400408,0.46885455,-0.2560084,0.6503777,14.971415519714355,2.6237494945526123,5.0896196365356445,-1.340824842453003,3.308706283569336, 1.0504984855651855
167,1228130091,0.5401142,0.4685172,-0.25591874,0.6505952,14.786486625671387,2.60903263092041,5.215310573577881,-0.655339241027832,3.0260825157165527, 0.7839854955673218
168,1228146758,0.5400689,0.4683243,-0.25562114,0.65088844,14.663869857788086,2.5266637802124023,4.943604469299316,1.3267698287963867,3.192321538925171, 0.6705084443092346
169,1228163425,0.5400671,0.46811697,-0.25533873,0.6511501,14.851377487182617,2.6144814491271973,5.057052135467529,1.0096207857131958,3.184215784072876, 0.4308760464191437
170,1228180092,0.540096,0.46794292,-0.25507712,0.6513538,14.789979934692383,2.662879228591919,5.198659896850586,0.8377209305763245,2.834704875946045, 0.08447708934545517
171,1228196759,0.540169,0.4677222,-0.25487527,0.6515306,14.75473690032959,2.7072653770446777,4.9386305809021,0.20714913308620453,2.818953037261963, 0.06077253073453903
172,1228213426,0.5402583,0.4674661,-0.25473568,0.65169495,14.889572143554688,2.6376419067382812,5.125555992126465,-0.2799980044364929,2.7457518577575684, 0.2037426233291626
173,1228230093,0.5402991,0.46726927,-0.25447997,0.65190226,14.815496444702148,2.7314860820770264,5.058683395385742,0.6903327703475952,2.9743709564208984, 0.10190653055906296
174,1228246760,0.5403692,0.46698475,-0.2543464,0.65210015,14.798469543457031,2.626215696334839,5.0105414390563965,-0.2953656315803528,2.944800615310669, 0.48190927505493164
175,1228263427,0.54045355,0.46668586,-0.25424582,0.6522833,14.666497230529785,2.6128294467926025,4.966667175292969,-0.5695367455482483,2.8758130073547363, 0.4932941496372223
176,1228280094,0.54051906,0.46637595,-0.25415543,0.65248597,14.605356216430664,2.5421035289764404,4.9322638511657715,-0.5633385181427002,2.9282679557800293, 0.7007315158843994
177,1228296761,0.54064095,0.46603325,-0.2541248,0.6526415,14.79322338104248,2.593507766723633,5.176766395568848,-1.2171666622161865,2.811986207962036, 0.518855631351471
178,1228313428,0.5407526,0.46576998,-0.25403947,0.65277016,14.776315689086914,2.6590912342071533,4.958546161651611,-0.6916709542274475,2.5640552043914795, 0.14966140687465668
179,1228330095,0.54077,0.4655525,-0.25391024,0.6529611,14.699969291687012,2.4909794330596924,5.031383991241455,0.08397764712572098,2.5704073905944824, 0.5832204222679138
180,1228346762,0.54081047,0.46535596,-0.25378463,0.6531164,14.676446914672852,2.594402313232422,4.943521976470947,0.008906817995011806,2.401324987411499, 0.31883329153060913
181,1228363429,0.5408307,0.46514186,-0.25362524,0.65331423,14.904165267944336,2.644716739654541,4.997819900512695,0.2323007881641388,2.716937780380249, 0.4891449511051178
182,1228380096,0.5408903,0.4649121,-0.2534897,0.65348107,14.721391677856445,2.533135414123535,5.00187349319458,-0.1141301840543747,2.675906181335449, 0.30046898126602173
183,1228396763,0.5408745,0.4647289,-0.25326547,0.6537114,14.59969711303711,2.5710251331329346,4.782896041870117,0.8098416924476624,2.8708317279815674, 0.5093021392822266
184,1228413430,0.54093176,0.46439707,-0.25320542,0.6539232,14.800384521484375,2.3741331100463867,4.994289398193359,-0.7473145127296448,3.0008926391601562, 0.8953239321708679
185,1228430097,0.5410021,0.46411508,-0.2531239,0.65409654,14.742616653442383,2.599836826324463,4.997668743133545,-0.5721876621246338,2.7570343017578125, 0.5345050692558289
186,1228446764,0.5410483,0.46382347,-0.25306147,0.65428954,14.923433303833008,2.531566619873047,4.986565589904785,-0.5828169584274292,2.750412940979004, 0.7943714261054993
187,1228463431,0.541109,0.46352002,-0.25307336,0.6544495,14.580952644348145,2.4391186237335205,4.858023643493652,-1.0651040077209473,2.4495153427124023, 0.8625907301902771
188,1228480098,0.5411578,0.46322176,-0.25301778,0.6546421,14.975188255310059,2.514641284942627,5.014523983001709,-0.6466310620307922,2.7617340087890625, 0.811980128288269
189,1228496765,0.5411828,0.4629628,-0.25297678,0.6548202,14.778977394104004,2.506126880645752,4.900634288787842,-0.5155196189880371,2.4469029903411865, 0.8422672748565674
190,1228513432,0.54122865,0.46269363,-0.25289965,0.6550023,14.799324035644531,2.579127073287964,4.895465850830078,-0.45088598132133484,2.680208683013916, 0.6658596992492676
191,1228530099,0.54127645,0.4624353,-0.25280243,0.65518266,15.05827808380127,2.457624912261963,5.067192077636719,-0.3309032618999481,2.709010601043701, 0.5682113170623779
192,1228546766,0.5413,0.46224445,-0.25265518,0.6553546,14.747541427612305,2.544888973236084,4.88250207901001,0.20871147513389587,2.527646780014038, 0.36768949031829834
193,1228563433,0.54130584,0.46201098,-0.25253135,0.6555623,15.005692481994629,2.5594005584716797,4.945544242858887,0.061912305653095245,2.721215009689331, 0.7290847301483154
194,1228580100,0.54131776,0.4617747,-0.25245818,0.655747,15.045979499816895,2.4392032623291016,5.01006555557251,-0.2377626746892929,2.490713357925415, 0.7808095216751099
195,1228596767,0.54120684,0.46168816,-0.2521777,0.6560075,14.802925109863281,2.5517935752868652,4.848359107971191,1.7764261960983276,2.6226699352264404, 0.6957881450653076
196,1228613434,0.5412279,0.46144983,-0.25216192,0.6561637,14.827438354492188,2.4714150428771973,4.897430896759033,-0.584315299987793,2.229041337966919, 0.8154636025428772
197,1228630101,0.5412597,0.46121016,-0.2521473,0.6563116,14.924485206604004,2.5246129035949707,4.94677734375,-0.6434678435325623,2.23214054107666, 0.7410586476325989
198,1228646768,0.5412428,0.4609971,-0.25212863,0.6564825,14.994519233703613,2.5887610912323,4.917710781097412,-0.3327345848083496,2.12522029876709, 0.9873247742652893
199,1228663435,0.5411685,0.46083403,-0.25207767,0.65667784,14.936119079589844,2.5183868408203125,4.930333137512207,0.2204677313566208,2.009373903274536, 1.1474297046661377
200,1228680102,0.54109305,0.4606412,-0.25204775,0.65688646,14.689939498901367,2.490360975265503,4.764114856719971,0.04021834582090378,2.116819381713867, 1.3192781209945679
201,1228696769,0.5410202,0.46044746,-0.25201657,0.6570944,14.824507713317871,2.5982279777526855,4.8412604331970215,0.031279511749744415,2.140024423599243, 1.3022202253341675
202,1228713436,0.5410536,0.46016306,-0.25218797,0.6572003,14.964550018310547,2.2642927169799805,4.940703392028809,-1.7372710704803467,1.669506311416626, 1.242068886756897
203,1228730103,0.5409667,0.46003675,-0.25222453,0.65734625,14.6170015335083,2.357866048812866,4.704738140106201,-0.08869677782058716,1.3875614404678345, 1.2275846004486084
204,1228746770,0.54097986,0.45981884,-0.2523522,0.65743864,14.677216529846191,2.3562300205230713,4.708456039428711,-1.2519359588623047,1.4805997610092163, 1.0202370882034302
205,1228763437,0.5409721,0.45970345,-0.25240776,0.65750474,14.84284496307373,2.2343499660491943,5.0471625328063965,-0.5247530341148376,1.1809823513031006, 0.6089996099472046
206,1228780104,0.54092693,0.4597102,-0.2523943,0.65754217,14.695891380310059,2.457948684692383,4.782665729522705,0.3107268810272217,0.7401366233825684, 0.23481082916259766
207,1228796771,0.54096556,0.4596731,-0.25250983,0.657492,14.423503875732422,2.368887424468994,4.787515163421631,-0.8550543189048767,0.3419743776321411, 0.013760422356426716
208,1228813438,0.5409724,0.4596672,-0.25257498,0.65746546,14.709859848022461,2.4018101692199707,4.71814489364624,-0.3714737892150879,0.4197729229927063, 0.031202668324112892
209,1228830105,0.54096913,0.4596472,-0.25264508,0.6574552,14.437235832214355,2.495856285095215,4.67283296585083,-0.38826289772987366,0.5161919593811035, 0.17587600648403168
210,1228846772,0.54084826,0.45972872,-0.2525577,0.65753126,14.31595230102539,2.3692586421966553,4.606406211853027,1.2194653749465942,0.7270228862762451, 0.3559333086013794
211,1228863439,0.54067034,0.45983276,-0.25241792,0.6576585,14.374231338500977,2.3798158168792725,4.6184492111206055,1.8069182634353638,0.894939661026001, 0.5983062386512756
212,1228880106,0.54049087,0.45989174,-0.2523679,0.65778404,14.231461524963379,2.275958776473999,4.538926124572754,1.2344233989715576,0.7642253637313843, 0.9606492519378662
213,1228896773,0.54038286,0.45985228,-0.25250518,0.6578476,14.15300178527832,2.347654342651367,4.532724380493164,-0.3118346333503723,0.44583389163017273, 1.168278455734253
214,1228913440,0.54033595,0.45976812,-0.25279766,0.65783256,14.04515552520752,2.252436637878418,4.478002071380615,-1.509663462638855,-0.06920550018548965, 1.1695460081100464
215,1228930107,0.5402719,0.45976508,-0.25302872,0.6577986,14.000249862670898,2.2185115814208984,4.550948619842529,-0.9091228246688843,-0.2982470989227295, 0.8412683606147766
216,1228946774,0.540187,0.45986816,-0.25319725,0.65773135,13.866661071777344,2.202775478363037,4.427210330963135,-0.22353482246398926,-0.6896987557411194, 0.42866051197052
217,1228963441,0.54013366,0.45998833,-0.25344297,0.6575965,14.058311462402344,2.2854409217834473,4.584742069244385,-0.7259023785591125,-1.214490294456482, 0.24908992648124695
218,1228980108,0.540065,0.46013436,-0.2537029,0.6574506,13.864852905273438,2.27217960357666,4.299971103668213,-0.665392279624939,-1.4484877586364746, 0.277763307094574
219,1228996775,0.53992707,0.46035156,-0.25387084,0.65734696,13.555455207824707,2.3361411094665527,4.306155204772949,0.3059372901916504,-1.4141154289245605, 0.3334709107875824
220,1229013442,0.5398483,0.46050292,-0.25409505,0.6572188,13.719286918640137,2.1048543453216553,4.338284015655518,-0.42282724380493164,-1.3001006841659546, 0.27253833413124084
221,1229030109,0.53978103,0.46063134,-0.2543232,0.65709585,13.53890609741211,2.3174874782562256,4.213468074798584,-0.5529909729957581,-1.174342155456543, 0.28987810015678406
222,1229046776,0.5397054,0.460733,-0.254531,0.65700626,13.542082786560059,2.335787773132324,4.246199607849121,-0.47580716013908386,-0.8842272758483887, 0.43727925419807434
223,1229063443,0.53962916,0.46082845,-0.25484243,0.6568813,13.445587158203125,2.2822320461273193,4.243942737579346,-1.0298610925674438,-1.3516591787338257, 0.6506842374801636
224,1229080110,0.5395038,0.4609683,-0.2551655,0.65676075,13.313375473022461,2.3468527793884277,4.196828365325928,-0.7502855658531189,-1.6638649702072144, 0.8527427911758423
225,1229096777,0.53933054,0.4611849,-0.25545472,0.6566385,13.215842247009277,2.2702412605285645,4.012592315673828,-0.1686084121465683,-1.9726773500442505, 0.8229040503501892
226,1229113444,0.5391304,0.46149027,-0.2556171,0.65652496,13.18586540222168,2.0995543003082275,4.162969589233398,0.8296914100646973,-1.9171619415283203, 0.41901737451553345
227,1229130111,0.53884953,0.46195275,-0.2555582,0.6564533,13.168397903442383,2.258334159851074,4.046559810638428,2.741102933883667,-1.811355710029602, -0.04165905341506004
228,1229146778,0.5387161,0.46230587,-0.25577748,0.6562287,13.025073051452637,2.2443554401397705,4.085575580596924,0.3467510938644409,-2.5675575733184814, -0.19304288923740387
229,1229163445,0.53854287,0.46268708,-0.25601196,0.65601087,13.022562980651855,2.200032949447632,4.002580165863037,0.5071890950202942,-2.796753168106079, 0.0061022257432341576
230,1229180112,0.5382927,0.4631377,-0.2561268,0.6558533,12.570191383361816,2.3844542503356934,3.7948827743530273,1.657020092010498,-2.6033132076263428, 0.07516687363386154
231,1229196779,0.5380768,0.4634442,-0.2563921,0.6557103,12.895967483520508,2.18284010887146,4.0022382736206055,0.35912203788757324,-2.395402193069458, 0.7147928476333618
232,1229213446,0.53776795,0.46380824,-0.2566824,0.6555928,12.61270809173584,2.3051247596740723,3.773594856262207,0.8017222881317139,-2.8241841793060303, 1.2071714401245117
233,1229230113,0.53752,0.4640373,-0.25716436,0.6554451,12.312748908996582,2.229752779006958,3.7280752658843994,-0.8149192929267883,-2.9043264389038086, 1.6722978353500366
234,1229246780,0.537292,0.46415246,-0.2577731,0.6553114,12.540040016174316,2.139371395111084,3.8188469409942627,-1.8664745092391968,-2.775264263153076, 2.2350480556488037
235,1229263447,0.53701603,0.46433532,-0.25835487,0.65517884,12.081786155700684,2.098034620285034,3.6462366580963135,-1.3513391017913818,-3.055877208709717, 2.2431800365448
236,1229280114,0.5367833,0.46452785,-0.258964,0.65499276,12.247472763061523,2.088900566101074,3.6811769008636475,-1.641786813735962,-3.2817423343658447, 1.9394896030426025
237,1229296781,0.5365264,0.46478766,-0.25954056,0.6547905,12.155411720275879,2.03761625289917,3.6451900005340576,-1.2015429735183716,-3.5498688220977783, 1.763850450515747
238,1229313448,0.53625125,0.46510696,-0.26013654,0.65455276,11.784640312194824,1.941159963607788,3.6244874000549316,-1.0729159116744995,-4.025586128234863, 1.6731046438217163
239,1229330115,0.5361849,0.46528515,-0.26107648,0.6541061,11.762167930603027,2.2718427181243896,3.566767692565918,-4.186498165130615,-4.948553085327148, 1.3127341270446777
240,1229346782,0.5362872,0.46528584,-0.26236758,0.6535047,11.643149375915527,2.0217673778533936,3.5813472270965576,-7.2435173988342285,-5.629839897155762, 1.433203935623169
241,1229363449,0.53642344,0.4652915,-0.263753,0.6528309,11.44883918762207,1.9121317863464355,3.4177825450897217,-7.889559268951416,-6.167168617248535, 1.3093281984329224
242,1229380116,0.5364388,0.46540412,-0.26505834,0.6522091,11.46860122680664,1.7855582237243652,3.4434988498687744,-6.639184474945068,-6.4006781578063965, 1.603054404258728
243,1229396783,0.5363352,0.4656781,-0.26625618,0.65161055,11.246895790100098,1.7665907144546509,3.352847099304199,-5.15905237197876,-6.877140045166016, 1.572998046875
244,1229413450,0.536157,0.466009,-0.2675339,0.6509969,11.003615379333496,1.7282980680465698,3.304779291152954,-5.092933177947998,-7.615798473358154, 2.0022668838500977
245,1229430117,0.53609306,0.46615112,-0.2693415,0.65020204,11.113083839416504,1.780643343925476,3.404730796813965,-8.852227210998535,-9.102066040039062, 2.87139630317688
246,1229446784,0.5360339,0.46626648,-0.271399,0.6493118,10.743998527526855,1.7886546850204468,3.100691080093384,-10.255780220031738,-10.20969009399414, 3.352391004562378
247,1229463451,0.5358815,0.46651477,-0.2734296,0.6484067,10.817967414855957,1.7104692459106445,3.236656904220581,-9.375189781188965,-10.932660102844238, 3.3832156658172607
248,1229480118,0.5355459,0.46693525,-0.27531484,0.64758307,10.837738037109375,1.6784418821334839,3.2816989421844482,-7.349350929260254,-11.257095336914062, 3.7123520374298096
249,1229496785,0.5354354,0.46713707,-0.27794904,0.6464025,10.285104751586914,1.7579114437103271,2.8829386234283447,-12.885892868041992,-13.771415710449219, 4.216041564941406
250,1229513452,0.5352936,0.46736294,-0.2806193,0.6452019,10.723861694335938,1.7876770496368408,3.040858030319214,-12.896151542663574,-14.141120910644531, 4.3582940101623535
251,1229530119,0.5351185,0.46761352,-0.28335506,0.64396894,10.286343574523926,1.3606503009796143,2.9124388694763184,-13.051774978637695,-14.664956092834473, 4.555243968963623
252,1229546786,0.5349075,0.46792838,-0.28598613,0.6427511,10.324581146240234,1.4148480892181396,2.724811315536499,-12.203339576721191,-14.592547416687012, 4.306096076965332
253,1229563453,0.534778,0.4681818,-0.2887912,0.6414187,10.274924278259277,1.2944347858428955,2.8776774406433105,-13.683183670043945,-15.170668601989746, 4.205925464630127
254,1229580120,0.5346347,0.46849665,-0.291597,0.6400375,9.938222885131836,1.1846941709518433,2.807830810546875,-13.510193824768066,-15.635001182556152, 3.9655113220214844
255,1229596787,0.5346774,0.46860793,-0.29465318,0.63851887,9.941300392150879,1.1294783353805542,2.637882709503174,-16.231359481811523,-15.736573219299316, 3.8539435863494873
256,1229613454,0.53460187,0.46883607,-0.29758847,0.6370517,9.853569984436035,1.1573113203048706,2.524061679840088,-14.782997131347656,-15.881743431091309, 3.9331376552581787
257,1229630121,0.53457344,0.46902052,-0.3003774,0.6356291,9.859543800354004,1.1084036827087402,2.436629056930542,-14.360845565795898,-14.913002967834473, 3.5076961517333984
258,1229646788,0.53438693,0.46943232,-0.30271372,0.6343727,9.600321769714355,0.9019799828529358,2.574674367904663,-10.69249439239502,-14.033265113830566, 2.878633737564087
259,1229663455,0.53406024,0.46998358,-0.30478248,0.6332479,9.369545936584473,0.9709771871566772,2.248359203338623,-8.282936096191406,-13.52957534790039, 2.8139095306396484
260,1229680122,0.53396493,0.4703167,-0.30705178,0.63198346,9.509349822998047,1.0210142135620117,2.0120527744293213,-10.995901107788086,-13.282489776611328, 2.3962562084198
261,1229696789,0.5337345,0.47066918,-0.30914095,0.6308962,9.400505065917969,0.8324279189109802,2.1674911975860596,-9.33171272277832,-12.409427642822266, 3.008822202682495
262,1229713456,0.53330445,0.47113305,-0.31096566,0.6300163,9.070439338684082,1.1415770053863525,1.9985114336013794,-6.686033248901367,-11.672150611877441, 3.5385444164276123
263,1229730123,0.53277045,0.4715049,-0.3129327,0.62921524,8.92732048034668,1.080702543258667,2.0881235599517822,-7.136151313781738,-11.758798599243164, 4.939316749572754
264,1229746790,0.5322401,0.4716133,-0.31514928,0.62847626,8.907587051391602,1.5303223133087158,2.055406332015991,-9.058784484863281,-11.323819160461426, 6.5304694175720215
265,1229763457,0.53536326,0.4696604,-0.3204193,0.6246096,8.62287425994873,1.8189579248428345,2.2170350551605225,-12.219654083251953,-11.83153247833252, 8.553506851196289
266,1229780124,0.53761977,0.46780038,-0.32553735,0.6214124,8.51874828338623,1.7076534032821655,2.104227304458618,-14.530619621276855,-12.382096290588379, 10.845632553100586
267,1229796791,0.53919035,0.46588594,-0.33064386,0.6187881,8.431243896484375,1.5202325582504272,1.905916452407837,-18.60025405883789,-12.697551727294922, 12.905801773071289
268,1229813458,0.5402702,0.46393624,-0.33570725,0.6165808,8.298171997070312,0.998584508895874,1.913317322731018,-19.85491943359375,-12.658447265625, 14.886624336242676
269,1229830125,0.5407675,0.46205154,-0.3404615,0.61495113,8.306021690368652,0.884601891040802,1.72899329662323,-19.434127807617188,-11.78028678894043, 16.59653091430664
270,1229846792,0.5410151,0.46007377,-0.34513494,0.6136097,8.013298988342285,0.9914554357528687,1.6961703300476074,-20.08460235595703,-11.01413345336914, 17.80918312072754
271,1229863459,0.5412526,0.4577745,-0.3498859,0.612428,7.9823527336120605,1.0073766708374023,1.7405781745910645,-22.97301483154297,-9.674256324768066, 18.733644485473633
272,1229880126,0.5415608,0.4551412,-0.3547338,0.6113283,7.78675651550293,1.0035454034805298,1.4704933166503906,-26.005651473999023,-8.359915733337402, 19.308774948120117
273,1229896793,0.54166025,0.45252943,-0.35910413,0.6106271,7.893575191497803,0.5717670321464539,1.4087703227996826,-22.907175064086914,-6.030529499053955, 19.87466812133789
274,1229913460,0.5415445,0.4499505,-0.36309573,0.610275,7.568525791168213,0.5211188793182373,1.4850473403930664,-20.8381290435791,-4.304661750793457, 20.358306884765625
275,1229930127,0.54166776,0.44708985,-0.36724618,0.6097844,7.261869430541992,0.8941410779953003,1.5558866262435913,-23.88731575012207,-3.60654878616333, 19.920286178588867
276,1229946794,0.54190224,0.44388226,-0.37172124,0.60920763,7.2858686447143555,0.5393390655517578,1.6461280584335327,-27.525842666625977,-3.412522554397583, 20.8457088470459
277,1229963461,0.542341,0.44008484,-0.37694696,0.60836077,7.032861232757568,0.5481022596359253,1.700255274772644,-33.98495101928711,-4.107059001922607, 22.83203125
278,1229980128,0.54333436,0.4349439,-0.38423103,0.60661185,6.605515480041504,-0.34927207231521606,1.8750879764556885,-51.96320343017578,-7.532952308654785, 26.718807220458984
279,1229996795,0.54329747,0.43102634,-0.39004883,0.60572785,7.200521945953369,-0.43090134859085083,1.1249645948410034,-36.38312911987305,-7.368110179901123, 26.419355392456055
280,1230013462,0.5423013,0.42816317,-0.39442202,0.6058194,6.935861110687256,-0.8201776742935181,1.1626770496368408,-21.30365562438965,-6.077816486358643, 26.788532257080078
281,1230030129,0.54091954,0.42593944,-0.39801303,0.6062734,6.565108299255371,-0.45963016152381897,1.3893018960952759,-12.876079559326172,-5.897277355194092, 25.863672256469727
282,1230046796,0.5390089,0.42459175,-0.4006868,0.6071585,6.66184663772583,-0.8689990639686584,1.337114691734314,-3.2317538261413574,-6.373708724975586, 24.484176635742188
283,1230063463,0.53681153,0.42392236,-0.40349463,0.6077133,6.533527374267578,-0.7386621236801147,1.4978841543197632,-1.2522590160369873,-11.523295402526855, 22.94253158569336
284,1230080130,0.5347112,0.42350045,-0.40738612,0.6072627,6.469198226928711,-0.4525472819805145,1.5635839700698853,-7.793483257293701,-19.302059173583984, 21.268295288085938
285,1230096797,0.532468,0.42378688,-0.41121855,0.6064502,6.828954219818115,-0.1699407398700714,1.8873454332351685,-5.842569828033447,-23.526853561401367, 18.225574493408203
286,1230113464,0.5306803,0.42379504,-0.41365516,0.6063544,8.251194953918457,0.10081931203603745,2.6547634601593018,-0.4552920460700989,-13.934534072875977, 15.58647346496582
287,1230130131,0.52990335,0.42292538,-0.41314024,0.6079899,8.962888717651367,0.6819769740104675,3.9663829803466797,10.795464515686035,8.307841300964355, 11.606542587280273
288,1230146798,0.52895886,0.42322737,-0.4116355,0.6096208,8.148240089416504,0.6166110038757324,3.593266725540161,19.563159942626953,6.4396772384643555, 6.0694451332092285
289,1230163465,0.525263,0.42967737,-0.40606374,0.6120364,8.143902778625488,3.04241943359375,2.4492392539978027,69.06481170654297,-10.096393585205078, -8.808884620666504
290,1230180132,0.5193424,0.43946472,-0.39818633,0.61530644,7.72487735748291,1.7694485187530518,0.3978777527809143,99.82972717285156,-19.52871322631836, -12.406173706054688
291,1230196799,0.5079111,0.45614243,-0.38463816,0.62130034,6.3414788246154785,2.6584198474884033,-4.157248497009277,172.433837890625,-35.198753356933594, -15.380849838256836
292,1230213466,0.4971172,0.47346798,-0.37514552,0.6228712,8.268684387207031,4.861645221710205,-8.887296676635742,143.64181518554688,-64.09024047851562, -22.548852920532227
293,1230230133,0.49136382,0.48922887,-0.37357372,0.61616516,7.804904937744141,6.697970867156982,-5.598155975341797,66.54041290283203,-98.0032958984375, -42.59366226196289
294,1230246800,0.49097532,0.5022372,-0.37869352,0.60273737,6.1552534103393555,4.900355339050293,-2.579714059829712,-6.629904270172119,-117.4928207397461, -58.42587661743164
295,1230263467,0.4959817,0.5107026,-0.38742146,0.5857386,3.6177735328674316,1.1011989116668701,1.2176730632781982,-68.3927230834961,-108.46753692626953, -68.81664276123047
296,1230280134,0.50416434,0.5156371,-0.39372835,0.5700131,1.7439700365066528,-1.7854211330413818,4.794122219085693,-78.44670104980469,-73.14584350585938, -76.3272476196289
297,1230296801,0.5128162,0.51837367,-0.39416376,0.55941343,0.44274115562438965,-2.598195791244507,6.6930084228515625,-50.81927490234375,-24.957643508911133, -75.3390121459961
298,1230313468,0.5226423,0.518101,-0.39040735,0.5531714,-0.09310504049062729,-2.587751865386963,6.555365085601807,-37.6519775390625,19.82297706604004, -71.38860321044922
299,1230330135,0.53348374,0.5150195,-0.38431567,0.5499561,0.8353092074394226,-1.579788088798523,4.632992267608643,-34.32130813598633,52.13294219970703, -65.26571655273438
300,1230346802,0.54298335,0.5108947,-0.3770298,0.54954946,2.2858517169952393,-2.8777143955230713,1.1247848272323608,-21.43320083618164,66.67423248291016, -51.44015121459961
301,1230363469,0.5475985,0.509557,-0.36905393,0.55162203,1.5510765314102173,-3.172290086746216,-1.6341803073883057,15.18582820892334,54.73153305053711, -33.51131057739258
302,1230380136,0.54994595,0.50995,-0.36595184,0.5509899,-1.4437006711959839,-1.269241213798523,-2.3247761726379395,4.315206527709961,14.654118537902832, -22.5487060546875
303,1230396803,0.551549,0.51205087,-0.36860117,0.54564726,-4.057184219360352,-0.5523862242698669,-3.776859760284424,-20.259754180908203,-31.885168075561523, -21.714962005615234
304,1230413470,0.5538795,0.5143698,-0.3749554,0.53670305,-3.87504506111145,-1.8392387628555298,-1.3787922859191895,-45.039703369140625,-57.49138259887695, -25.606950759887695
305,1230430137,0.557063,0.5152553,-0.37793675,0.5304308,-0.851931631565094,-3.4142982959747314,-1.2231121063232422,-34.173583984375,-27.700366973876953, -26.8547306060791
306,1230446804,0.56022227,0.52064365,-0.38707417,0.51502895,4.035796165466309,-3.8800559043884277,-1.3023449182510376,-63.00276565551758,-100.08284759521484, -51.74946594238281
307,1230463471,0.5653303,0.5248872,-0.39849716,0.49607968,8.766379356384277,-3.828533887863159,7.271254062652588,-91.91839599609375,-112.27995300292969, -61.25320053100586
308,1230480138,0.5697847,0.52839303,-0.41397998,0.47409573,10.139708518981934,-4.555075168609619,1.6399850845336914,-114.52735900878906,-138.5323944091797, -54.35090637207031
309,1230496805,0.57061344,0.5338896,-0.42394596,0.45785573,14.140769958496094,-0.5645931959152222,3.273676633834839,-59.20232009887695,-112.86121368408203, -45.98340606689453
310,1230513472,0.569923,0.5391376,-0.4309509,0.44586998,9.518157005310059,4.257865905761719,1.7140651941299438,-32.866764068603516,-89.34952545166016, -34.78033447265625
311,1230530139,0.5672589,0.5455447,-0.43416327,0.43829298,7.318691253662109,4.840366363525391,0.24151843786239624,3.66965913772583,-67.59342193603516, -28.839736938476562
312,1230546806,0.5637603,0.5523568,-0.43421224,0.43420744,6.382307052612305,3.143542766571045,-0.38057741522789,28.317811965942383,-45.87468338012695, -25.63727569580078
313,1230563473,0.56092614,0.55737156,-0.43315652,0.43252078,5.468899250030518,0.4371420443058014,-3.3438193798065186,29.274799346923828,-25.11882781982422, -17.07499122619629
314,1230580140,0.56051046,0.55888426,-0.43250006,0.43176398,3.1966359615325928,-1.2061712741851807,-3.007901191711426,8.046963691711426,-5.344092845916748, -8.751762390136719
315,1230596807,0.5624702,0.5570564,-0.4321705,0.43190768,5.035218715667725,-0.6517375111579895,-2.8543617725372314,-12.274837493896484,13.955602645874023, -1.2173858880996704
316,1230613474,0.56530464,0.5538805,-0.42976305,0.4346848,6.43696928024292,0.6026276350021362,-2.1741199493408203,-6.863844394683838,38.79277038574219, 2.3467445373535156
317,1230630141,0.5676979,0.5507773,-0.42306566,0.44201705,9.112107276916504,1.3972411155700684,-0.34421801567077637,21.371379852294922,71.37458801269531, 4.7831950187683105
318,1230646808,0.5686226,0.5477363,-0.4121168,0.45476735,12.223692893981934,0.3908896744251251,0.9811936616897583,55.876564025878906,104.03250122070312, 14.078060150146484
319,1230663475,0.5685909,0.543394,-0.3989942,0.47141382,12.444772720336914,-0.9954036474227905,2.248440742492676,72.27799987792969,128.52098083496094, 27.688556671142578
320,1230680142,0.5677453,0.5378704,-0.38403898,0.49079004,10.133352279663086,-2.0196454524993896,3.687130928039551,84.2107162475586,147.3933563232422, 37.22220230102539
321,1230696809,0.5685791,0.52910846,-0.35901618,0.5175613,4.463830947875977,-0.42046064138412476,6.46357536315918,118.99893188476562,229.2788848876953, 31.568588256835938
322,1230713476,0.5611859,0.5321425,-0.35067004,0.52813375,-9.60064697265625,-1.330958604812622,-7.254655838012695,95.80619049072266,42.52265548706055, 29.035978317260742
323,1230730143,0.5592314,0.53152394,-0.3503011,0.53106666,-2.265146493911743,8.278947830200195,-10.698199272155762,14.363982200622559,10.3916597366333, 17.866741180419922
324,1230746810,0.55901456,0.531506,-0.35648537,0.52718335,-1.0606253147125244,6.621842384338379,-7.974180698394775,-30.22420883178711,-37.25926971435547, 8.228615760803223
325,1230763477,0.54892576,0.542407,-0.36226952,0.52272016,2.0470046997070312,0.2653636932373047,-12.232542037963867,47.69430160522461,-101.27440643310547, 13.878767013549805
326,1230780144,0.53289926,0.5613123,-0.3695136,0.5142049,-3.791412353515625,5.267210483551025,-4.03969669342041,84.58055877685547,-164.91116333007812, 5.405338287353516
327,1230796811,0.52492756,0.573097,-0.38507214,0.49772546,-9.569578170776367,0.12126784771680832,7.637876033782959,-22.31525230407715,-180.335205078125, -1.7792651653289795
328,1230813478,0.5221167,0.5779946,-0.39740956,0.48516202,-15.549091339111328,-7.523234844207764,14.649092674255371,-46.028167724609375,-116.46550750732422, 0.3737035393714905
329,1230830145,0.5206643,0.579221,-0.40167096,0.481739,-13.264418601989746,-6.259832859039307,13.55959415435791,-12.509269714355469,-35.9435920715332, 6.4124226570129395
330,1230846812,0.5199532,0.58076686,-0.3986215,0.48317653,-7.467705726623535,2.6320133209228516,-16.288591384887695,23.476720809936523,9.89364242553711, -8.789623260498047
331,1230863479,0.5256812,0.57793325,-0.40502843,0.47497857,26.193567276000977,1.763845682144165,-8.37673568725586,-75.90233612060547,-29.389842987060547, -14.653916358947754
332,1230880146,0.5249702,0.58207595,-0.4078373,0.46825507,-3.606757640838623,5.432337760925293,19.267133712768555,-9.333883285522461,-50.84047317504883, -22.21101188659668
333,1230896813,0.5257912,0.58508736,-0.41089895,0.46084562,14.20948314666748,0.26315173506736755,2.9909586906433105,-22.0714168548584,-47.537147521972656, -25.11097526550293
334,1230913480,0.52265555,0.5918376,-0.41271558,0.4541204,6.435557842254639,3.4693119525909424,3.9435808658599854,13.27988052368164,-63.46584701538086, -25.824228286743164
335,1230930147,0.5213546,0.5959053,-0.41493076,0.44823983,9.445184707641602,0.59674471616745,-0.28688308596611023,-2.624545097351074,-48.069725036621094, -19.188983917236328
336,1230946814,0.5205919,0.59803665,-0.41742423,0.44395176,7.319179534912109,-1.3186639547348022,-0.375842422246933,-8.088786125183105,-35.028839111328125, -8.561700820922852
337,1230963481,0.519336,0.5991021,-0.41832078,0.4431417,7.063310146331787,-0.5957145094871521,-0.5036233067512512,4.972689628601074,-13.158967971801758, 1.7420936822891235
338,1230980148,0.52072316,0.5967309,-0.4196213,0.44348374,7.994037628173828,-0.2144327610731125,-0.8186814188957214,-16.110103607177734,8.236600875854492, 9.255219459533691
339,1230996815,0.5243384,0.5914825,-0.42111063,0.44484138,6.825606822967529,-0.4153779149055481,-0.6924785375595093,-33.205848693847656,26.9613037109375, 15.091259002685547
340,1231013482,0.5292685,0.58436006,-0.42092046,0.44858047,6.631153106689453,-0.9675411581993103,-0.32479676604270935,-33.28046417236328,52.27191162109375, 18.183216094970703
341,1231030149,0.5329675,0.57734185,-0.41768566,0.4562465,5.099739074707031,-0.9119897484779358,-0.056859832257032394,-7.19498348236084,75.26270294189453, 23.655702590942383
342,1231046816,0.5352839,0.5706099,-0.41110414,0.46783432,4.222866535186768,0.5654434561729431,3.726391553878784,21.118038177490234,98.23396301269531, 28.207340240478516
343,1231063483,0.53576726,0.566057,-0.40493587,0.4780794,-0.16794487833976746,2.3447940349578857,-0.8334252238273621,31.248310089111328,79.10509490966797, 24.655202865600586
344,1231080150,0.53863883,0.5593201,-0.40187728,0.48530823,-0.9064541459083557,5.013553619384766,-5.060396671295166,-4.7257232666015625,69.79388427734375, 24.017303466796875
345,1231096817,0.54286104,0.5524182,-0.4019185,0.48846486,-1.321411371231079,2.959779977798462,-8.031533241271973,-32.192474365234375,47.16246032714844, 17.043062210083008
346,1231113484,0.54318017,0.551473,-0.40088338,0.490026,-3.449267625808716,4.749575614929199,-5.202468395233154,3.9903147220611572,14.650675773620605, 3.7845165729522705
347,1231130151,0.5426996,0.5544035,-0.40142155,0.48680082,-3.6857571601867676,4.4830193519592285,-4.953467845916748,2.9413907527923584,-24.457054138183594, -15.899950981140137
348,1231146818,0.543922,0.55781925,-0.40593877,0.47770303,-6.2102203369140625,2.9340715408325195,-0.09079418331384659,-31.31918716430664,-58.465389251708984, -29.49420928955078
349,1231163485,0.5454278,0.5608649,-0.41268066,0.4665123,-7.960322380065918,-1.667184591293335,4.515911102294922,-46.9376106262207,-72.86522674560547, -28.54151725769043
350,1231180152,0.54357314,0.56539,-0.41626254,0.4599869,-8.062962532043457,-4.656635284423828,6.734567165374756,-5.0005202293396,-57.52720642089844, -16.673654556274414
351,1231196819,0.5393031,0.5712089,-0.41433862,0.45956078,-7.6657514572143555,-4.47224235534668,7.169997215270996,44.16926574707031,-24.523277282714844, -11.476966857910156
352,1231213486,0.5359642,0.57552636,-0.4101893,0.4617971,-6.972836494445801,-3.2431437969207764,6.229801654815674,49.631500244140625,1.3147307634353638, -9.123042106628418
353,1231230153,0.5323976,0.57965106,-0.4052873,0.46508014,-5.192203044891357,-2.5856118202209473,1.8628889322280884,55.2177619934082,7.990835666656494, -7.039651870727539
354,1231246820,0.52912587,0.58453614,-0.40364265,0.46412936,1.7654683589935303,4.110204219818115,-24.976518630981445,34.625938415527344,-22.452495574951172, -12.668763160705566
355,1231263487,0.5321735,0.58256763,-0.41376376,0.45409924,10.17260456085205,-4.16173791885376,6.559645652770996,-78.67304229736328,-61.42044448852539, 0.5576528310775757
356,1231280154,0.53563434,0.5824219,-0.4221036,0.44239035,-6.441747188568115,2.0391809940338135,6.997657299041748,-72.79871368408203,-66.40805053710938, -19.437231063842773
357,1231296821,0.5366957,0.58548534,-0.42869675,0.43056214,14.587103843688965,2.420377731323242,2.9157538414001465,-46.34492874145508,-77.43037414550781, -28.758371353149414
358,1231313488,0.5383278,0.5868558,-0.4338212,0.4214295,9.350951194763184,0.4706462323665619,2.1511991024017334,-42.563175201416016,-54.58501434326172, -21.48162841796875
359,1231330155,0.53927773,0.5873363,-0.4368928,0.41634145,11.216124534606934,1.8747177124023438,0.7487367391586304,-25.07059669494629,-30.204425811767578, -10.240875244140625
360,1231346822,0.53965193,0.5872735,-0.43449873,0.4184456,8.539081573486328,-0.5689876675605774,0.7039474248886108,12.499359130859375,18.892120361328125, -2.406919240951538
361,1231363489,0.53990096,0.5867044,-0.42808524,0.42547414,9.214618682861328,-0.40989455580711365,0.043139852583408356,37.40890884399414,54.744041442871094, 1.4148099422454834
362,1231380156,0.5413643,0.58387315,-0.41728628,0.43805176,9.321154594421387,-1.646695852279663,0.15962925553321838,53.28159713745117,103.59828186035156, 7.345414161682129
363,1231396823,0.5403526,0.58207387,-0.40385547,0.45399323,7.3584513664245605,-2.413088798522949,0.5748015642166138,84.65192413330078,116.68777465820312, 13.68006706237793
364,1231413490,0.5377602,0.58074546,-0.39252016,0.46848333,3.105494737625122,-2.5899624824523926,2.6468286514282227,82.1743392944336,97.21956634521484, 20.189807891845703
365,1231430157,0.5331938,0.58151287,-0.38238618,0.48096582,-0.4737069606781006,0.12446077167987823,-0.3240303099155426,88.55020141601562,72.60442352294922, 18.19951057434082
366,1231446824,0.5327158,0.57863975,-0.37540647,0.4903671,-2.9816956520080566,3.5397799015045166,-6.469427585601807,40.319664001464844,71.53518676757812, 15.61837387084961
367,1231463491,0.533601,0.57394356,-0.37058726,0.49852178,0.10434800386428833,2.0881917476654053,-6.242725849151611,17.64630126953125,68.55815124511719, 19.925617218017578
368,1231480158,0.5248142,0.57683486,-0.36232892,0.5104404,-3.729257345199585,-1.724158763885498,-8.230768203735352,104.97248840332031,45.58921432495117, 34.064945220947266
369,1231496825,0.51476663,0.58364993,-0.35511607,0.5179392,-4.479043960571289,3.3385066986083984,-7.336665153503418,109.39676666259766,7.621766567230225, 16.890085220336914
370,1231513492,0.5066356,0.592131,-0.3536084,0.5173611,-5.287796974182129,3.805088758468628,-6.818499565124512,67.49392700195312,-46.03254318237305, 0.44348788261413574
371,1231530159,0.50018805,0.60159236,-0.35846338,0.5093161,-4.794634819030762,3.1246373653411865,-6.047774791717529,23.20771026611328,-97.815673828125, -7.878236770629883
372,1231546826,0.49549025,0.61132985,-0.3681832,0.4951833,-3.8647611141204834,1.9604171514511108,-3.092003107070923,-15.165566444396973,-136.24295043945312, -15.367793083190918
373,1231563493,0.48975402,0.62214667,-0.37941694,0.4786622,-3.929610013961792,1.289226770401001,1.077972650527954,-18.333166122436523,-157.70355224609375, -16.24740219116211
374,1231580160,0.48320577,0.6323364,-0.39027146,0.4629809,-5.824915885925293,-1.4799089431762695,6.378634929656982,-13.502463340759277,-152.970703125, -10.668797492980957
375,1231596827,0.4772468,0.6404785,-0.39790243,0.4513276,-8.241792678833008,-3.6641592979431152,12.336823463439941,-1.7289023399353027,-116.87287139892578, -7.6953229904174805
376,1231613494,0.47060797,0.64820206,-0.39668652,0.44833267,-10.706242561340332,-4.568195819854736,14.677456855773926,51.12895584106445,-50.648616790771484, -15.051409721374512
377,1231630161,0.46742767,0.65148664,-0.38789427,0.4545489,-9.9666748046875,-3.02852201461792,8.276079177856445,69.9284439086914,37.6322135925293, -17.628097534179688
378,1231646828,0.47085476,0.651232,-0.3841541,0.45455307,9.844146728515625,10.565384864807129,-27.20088005065918,-3.351576566696167,22.067489624023438, -26.18922233581543
379,1231663495,0.4753215,0.6505975,-0.38974777,0.4459697,8.406672477722168,1.1307530403137207,10.955085754394531,-61.285518646240234,-41.87430191040039, -14.222533226013184
380,1231680162,0.4798827,0.6499414,-0.39514968,0.437202,-1.1298962831497192,3.1670405864715576,5.635457992553711,-61.57981872558594,-42.14706802368164, -15.972495079040527
381,1231696829,0.4820922,0.6502385,-0.39499348,0.43446216,20.524682998657227,-0.8691766262054443,4.182881832122803,-14.78713607788086,-6.293539047241211, -16.36054039001465
382,1231713496,0.48227564,0.65035516,-0.394531,0.43450394,10.689977645874023,-1.3382933139801025,2.2977302074432373,2.184654712677002,1.9803807735443115, -2.195380210876465
383,1231730163,0.48263153,0.64934385,-0.39509478,0.43510887,14.680826187133789,-3.0062568187713623,2.40350079536438,-3.849410057067871,4.835838794708252, 6.660782337188721
384,1231746830,0.48444968,0.64661604,-0.39628267,0.43606904,13.991684913635254,-3.4323880672454834,2.7040798664093018,-16.961030960083008,13.343993186950684, 10.693611145019531
385,1231763497,0.48852605,0.6401669,-0.3935974,0.44340718,13.576671600341797,-1.8291223049163818,5.0214104652404785,-10.387871742248535,71.79876708984375, 17.872465133666992
386,1231780164,0.49409404,0.6309752,-0.39112392,0.4525083,5.782245635986328,-0.7419263124465942,4.8206963539123535,-21.994903564453125,91.0772476196289, 27.451444625854492
387,1231796831,0.49718815,0.6232387,-0.3815531,0.467755,1.9686622619628906,0.749218761920929,5.356616973876953,32.33385467529297,130.54888916015625, 21.28891944885254
388,1231813498,0.49756014,0.61961144,-0.3782875,0.47477812,-6.470648765563965,0.15823273360729218,-3.1707959175109863,16.231225967407227,53.27085876464844, 18.218730926513672
389,1231830165,0.50085783,0.6145043,-0.3809577,0.4758123,-4.308597564697266,3.8325066566467285,-4.596098899841309,-36.29246520996094,20.055252075195312, 17.397235870361328
390,1231846832,0.50590295,0.6084573,-0.38591558,0.474248,-5.990843296051025,1.1715832948684692,-4.303616523742676,-61.25996017456055,9.045248031616211, 15.017549514770508
391,1231863499,0.50509655,0.6054812,-0.38574013,0.47903526,-6.020914554595947,-3.702744483947754,0.6177181601524353,7.4414963722229,28.109546661376953, 26.6573486328125
392,1231880166,0.503216,0.6049769,-0.38060552,0.4857119,-7.968165874481201,0.9756575226783752,1.6055428981781006,41.83963394165039,42.22364044189453, 9.505677223205566
393,1231896833,0.5046459,0.6038342,-0.3756656,0.4894818,-11.13300895690918,1.447779655456543,3.469703197479248,17.602663040161133,40.2392463684082, -9.018922805786133
394,1231913500,0.50697184,0.60351056,-0.37142304,0.49071348,-8.390727996826172,4.012228965759277,-0.4359063506126404,7.830533027648926,26.769189834594727, -19.92604637145996
395,1231930167,0.50918233,0.60195637,-0.37339133,0.48883635,-6.005223751068115,-3.4791393280029297,-3.452977180480957,-24.899581909179688,-3.8731608390808105, -1.2793444395065308
396,1231946834,0.5039657,0.6059856,-0.37408116,0.48873654,-4.342958450317383,-1.648672342300415,-3.9813356399536133,34.21746063232422,-29.733074188232422, 10.211175918579102
397,1231963501,0.4948633,0.61441123,-0.3743294,0.48732635,-4.474215984344482,0.3208087086677551,-2.884214401245117,63.7218132019043,-58.28001022338867, 5.561093330383301
398,1231980168,0.4882347,0.62258023,-0.37798023,0.48078263,-3.4601621627807617,1.5234943628311157,1.4522687196731567,27.75937271118164,-84.20611572265625, -5.121196269989014
399,1231996835,0.48829037,0.6264658,-0.3849927,0.46999353,-5.311882972717285,-0.1357806921005249,-1.6391592025756836,-37.36885452270508,-82.16143798828125, -15.88564395904541
400,1232013502,0.49471685,0.6259226,-0.39703682,0.4536938,5.898087501525879,0.933113157749176,-12.047525405883789,-110.5417709350586,-91.54927062988281, -21.55868148803711
401,1232030169,0.49701858,0.6287261,-0.4081908,0.43709996,1.4970804452896118,-0.4364822506904602,7.353776931762695,-79.51488494873047,-111.1360855102539, -22.683753967285156
402,1232046836,0.49916407,0.6327055,-0.41859367,0.41868654,4.0253005027771,3.8637917041778564,2.2545671463012695,-77.60678100585938,-120.6484375, -35.01771926879883
403,1232063503,0.49994525,0.63670623,-0.42499772,0.40501472,12.786234855651855,1.3803812265396118,2.231787919998169,-46.40416717529297,-90.36705780029297, -32.20772171020508
404,1232080170,0.4980614,0.6402928,-0.428963,0.3974303,8.859875679016113,1.5947580337524414,1.2295143604278564,-11.549140930175781,-62.089256286621094, -13.415295600891113
405,1232096837,0.4970513,0.64153653,-0.43124786,0.39420354,8.606876373291016,0.39862826466560364,0.1559886634349823,-5.956660270690918,-28.243587493896484, -1.4114302396774292
406,1232113504,0.49465922,0.6433364,-0.43056193,0.39502802,8.271133422851562,0.14042514562606812,0.5202711820602417,22.106611251831055,-5.863282680511475, 1.3550231456756592
407,1232130171,0.49228996,0.64445823,-0.426859,0.4001446,9.32999324798584,-0.0748811662197113,1.0487358570098877,40.605159759521484,25.245038986206055, 4.485300540924072
408,1232146838,0.49064288,0.64437336,-0.4199888,0.4094656,8.37199878692627,-1.0781269073486328,2.6204769611358643,54.385074615478516,59.968624114990234, 6.161284923553467
409,1232163505,0.49117982,0.6401725,-0.41438597,0.42095828,8.134086608886719,-1.713530421257019,4.6602888107299805,33.54815673828125,83.10639953613281, 24.751373291015625
410,1232180172,0.49461475,0.631743,-0.40568322,0.43781072,4.428545951843262,-0.4871733486652374,5.442690372467041,30.793378829956055,137.5140380859375, 32.77334976196289
411,1232196839,0.49524635,0.62685895,-0.39709276,0.4517704,-3.823913812637329,0.6932490468025208,-2.5393707752227783,46.66128158569336,105.92146301269531, 21.95360565185547
412,1232213506,0.4965426,0.6229605,-0.3952261,0.45734248,-3.460782289505005,2.4248456954956055,-4.469409465789795,3.3345394134521484,45.75528335571289, 17.69291114807129
413,1232230173,0.5029451,0.6154048,-0.39885557,0.45742482,-5.58913516998291,-0.25144022703170776,-4.126499176025391,-63.26939010620117,29.034202575683594, 16.47922134399414
414,1232246840,0.5009036,0.6122342,-0.39732772,0.4651835,-4.293564319610596,-4.985917091369629,0.5691269040107727,24.850360870361328,42.56580352783203, 35.7747802734375
415,1232263507,0.49773723,0.61206007,-0.3910706,0.47402948,-6.421690464019775,2.9418928623199463,1.781569480895996,58.00299072265625,50.783973693847656, 14.921969413757324
416,1232280174,0.50659573,0.6057876,-0.38929513,0.47416392,-9.23883056640625,5.175103187561035,4.238736152648926,-51.500892639160156,50.96865463256836, -18.681501388549805
417,1232296841,0.51930594,0.5973169,-0.38985497,0.47068816,-11.705718994140625,1.2165364027023315,3.9529430866241455,-92.47024536132812,45.17115783691406, -27.990999221801758
418,1232313508,0.52793586,0.5920227,-0.38948166,0.4680781,-7.560760498046875,0.7678384780883789,-1.5185906887054443,-59.0179443359375,30.74599838256836, -23.936567306518555
419,1232330175,0.53129184,0.5902081,-0.38868508,0.46723387,-5.742547035217285,-1.8204309940338135,-3.913381814956665,-18.853487014770508,14.220595359802246, -11.53048038482666
420,1232346842,0.52744764,0.59419435,-0.3859574,0.46879533,-5.538116455078125,-0.2096049189567566,-5.893020153045654,44.15289306640625,-6.693836688995361, -2.970799684524536
421,1232363509,0.5188386,0.6032223,-0.38253754,0.4696749,-5.332212924957275,0.738516092300415,-5.999410152435303,82.2762680053711,-35.65998458862305, -6.263199806213379
422,1232380176,0.510979,0.61301833,-0.38292173,0.4652742,-4.342922210693359,0.9313891530036926,-4.271549701690674,55.6877326965332,-71.43736267089844, -13.71253490447998
423,1232396843,0.5087527,0.61891073,-0.3889526,0.4547926,-3.8123393058776855,-0.3774940073490143,1.3301944732666016,-15.873605728149414,-89.45066833496094, -18.97389793395996
424,1232413510,0.5112677,0.61897683,-0.3958616,0.44583252,-3.127596139907837,-1.2463266849517822,-6.613330841064453,-55.08696365356445,-55.19490432739258, -9.157865524291992
425,1232430177,0.51731837,0.6176985,-0.40723103,0.43010846,6.853507995605469,-1.4509843587875366,-5.220640182495117,-106.99333190917969,-85.72447967529297, -21.15359115600586
426,1232446844,0.5194262,0.62131894,-0.41272697,0.4169123,3.9240505695343018,3.1523125171661377,9.062312126159668,-48.40036392211914,-79.50103759765625, -39.272987365722656
427,1232463511,0.5210172,0.6249448,-0.41835302,0.4036904,12.803730010986328,2.2276394367218018,2.3272483348846436,-46.52779769897461,-81.87406158447266, -37.300758361816406
428,1232480178,0.52148056,0.6266615,-0.4208696,0.39777184,15.27795124053955,1.3880060911178589,4.3358659744262695,-18.843612670898438,-37.4225959777832, -15.950933456420898
429,1232496845,0.5186855,0.6290304,-0.42226353,0.3962066,13.990756034851074,0.07775487750768661,1.9725321531295776,13.256499290466309,-26.04694938659668, 1.7217482328414917
430,1232513512,0.51239705,0.6335877,-0.42124274,0.39820912,14.299864768981934,-0.753986656665802,2.504786252975464,53.13334655761719,-18.21857261657715, 7.024816989898682
431,1232530179,0.50957763,0.63316286,-0.41762355,0.4062341,14.285721778869629,-2.5255696773529053,3.303135871887207,45.05527114868164,40.73143768310547, 21.700414657592773
432,1232546846,0.5103787,0.6276797,-0.41217408,0.41909954,9.004695892333984,-3.0289111137390137,4.090078830718994,30.61908531188965,92.59539794921875, 34.913944244384766
433,1232563513,0.5121479,0.62082607,-0.40420175,0.4346271,3.4607815742492676,-2.2291083335876465,5.06234884262085,36.48847579956055,119.4974365234375, 34.323028564453125
434,1232580180,0.50944793,0.61857426,-0.38885894,0.45455188,-3.15175724029541,0.710086464881897,4.4223408699035645,106.07022857666016,137.91677856445312, 18.8692684173584
435,1232596847,0.50548196,0.6178627,-0.38352114,0.46437624,-5.859564781188965,3.787977933883667,-9.246685981750488,58.591835021972656,51.6091194152832, 25.98179054260254
436,1232613514,0.50903386,0.6111285,-0.3870183,0.46650136,-3.901214599609375,0.861710786819458,-7.747895240783691,-42.88584899902344,27.584260940551758, 28.816205978393555
437,1232630181,0.50249565,0.6107813,-0.38500804,0.4756187,-4.4633893966674805,-2.757448673248291,-2.7169950008392334,58.06014633178711,29.175371170043945, 45.58457565307617
438,1232646848,0.4962269,0.6119548,-0.38270232,0.48250318,-7.077652931213379,1.3603795766830444,-0.6494969129562378,57.21540069580078,16.662256240844727, 31.689157485961914
439,1232663515,0.4980796,0.6099795,-0.38349205,0.48246816,-8.574553489685059,4.836459159851074,3.4913957118988037,-16.193225860595703,8.842519760131836, 2.551316261291504
440,1232680182,0.509969,0.6014211,-0.38808677,0.47708803,-12.506133079528809,3.190018892288208,6.359894752502441,-107.54851531982422,21.60569953918457, -15.530058860778809
441,1232696849,0.52440834,0.5906458,-0.39213142,0.47155753,-12.7665376663208,-2.455373525619507,5.224247932434082,-124.44525909423828,36.80800247192383, -20.61919593811035
442,1232713516,0.53225106,0.58524764,-0.38913095,0.4719864,-8.234710693359375,-0.7091141939163208,-0.5281795859336853,-39.326908111572266,51.051124572753906, -20.855039596557617
443,1232730183,0.5380858,0.58050215,-0.38574928,0.47400263,-7.435522556304932,-1.6045787334442139,-2.229372978210449,-23.3906192779541,51.38389205932617, -11.783873558044434
444,1232746850,0.53817767,0.58030266,-0.38089705,0.47804928,-6.436059951782227,0.09572352468967438,-4.87742805480957,26.504154205322266,34.971038818359375, -3.483017683029175
445,1232763517,0.53410673,0.5843506,-0.37606224,0.48149952,-5.290302753448486,0.14402680099010468,-6.0662031173706055,57.16227340698242,7.833664417266846, -3.015315532684326
446,1232780184,0.5289762,0.5909816,-0.37435207,0.48040152,-3.728219985961914,1.3492213487625122,-7.521668910980225,48.75096893310547,-33.00659942626953, -10.300749778747559
447,1232796851,0.5280993,0.59498316,-0.379344,0.47244504,0.9339603185653687,2.388518810272217,-12.873799324035645,-17.945228576660156,-65.38223266601562, -15.238597869873047
448,1232813518,0.5329937,0.59361845,-0.3905641,0.45934168,4.26542854309082,-1.3822818994522095,2.944561243057251,-94.79320526123047,-76.18606567382812, -13.140456199645996
449,1232830185,0.53129935,0.5991745,-0.4027071,0.44332603,2.2460367679595947,-1.8458659648895264,10.450753211975098,-53.22540283203125,-131.12838745117188, -17.90616226196289
450,1232846852,0.5282951,0.60770106,-0.41113546,0.4272838,11.585444450378418,3.4008142948150635,0.6005059480667114,-25.621706008911133,-130.6942138671875, -37.629329681396484
451,1232863519,0.52717066,0.6131515,-0.41742396,0.4146007,15.340644836425781,-1.3052531480789185,2.334930181503296,-28.84648895263672,-94.57489013671875, -31.20884895324707
452,1232880186,0.52592736,0.6164173,-0.42107168,0.4075892,12.370671272277832,1.8789812326431274,2.236557960510254,-12.41641902923584,-55.31808853149414, -15.367691993713379
453,1232896853,0.52669,0.61583465,-0.42270547,0.40579012,10.776801109313965,-0.8365703821182251,0.2119583636522293,-14.06927490234375,-9.457843780517578, 0.39756712317466736
454,1232913520,0.5277693,0.6128676,-0.423389,0.4081607,11.030632972717285,0.2501627206802368,-0.27724796533584595,-9.263919830322266,19.17688751220703, 17.39101219177246
455,1232930187,0.52986133,0.6077012,-0.42236155,0.4141944,10.480245590209961,0.4306107759475708,1.2414369583129883,-6.0404534339904785,49.92339324951172, 26.942607879638672
456,1232946854,0.5346996,0.5989453,-0.41634187,0.42663842,9.083203315734863,-0.6674556136131287,2.492851495742798,2.261960744857788,113.03548431396484, 31.967912673950195
457,1232963521,0.53707004,0.59180474,-0.40482455,0.44434214,3.4863667488098145,-0.9578876495361328,5.384235382080078,49.58397674560547,143.02342224121094, 31.2001953125
458,1232980188,0.53335714,0.59088033,-0.39432833,0.45923418,-3.714035987854004,-1.2261881828308105,0.14728529751300812,86.39485168457031,91.72443389892578, 26.22905731201172
459,1232996855,0.5269232,0.59223455,-0.3821769,0.4749224,-2.7431952953338623,3.727595329284668,-9.983152389526367,113.18986511230469,86.47105407714844, 24.873905181884766
460,1233013522,0.5296547,0.5860055,-0.37757957,0.48321563,1.3345305919647217,4.867877006530762,-6.556972503662109,4.195257663726807,78.16483306884766, 18.992961883544922
461,1233030189,0.5247451,0.58666646,-0.37175658,0.4922014,-6.9377760887146,-1.2667195796966553,-6.415125846862793,65.8707046508789,42.903724670410156, 24.21898078918457
462,1233046856,0.5220458,0.5883577,-0.36904898,0.49508214,-5.208418846130371,5.037662982940674,-4.79179048538208,34.478759765625,9.393762588500977, 4.661244869232178
463,1233063523,0.5237834,0.5885369,-0.37237117,0.49052525,-9.352046012878418,3.114919424057007,-0.5093860626220703,-28.35720443725586,-25.799081802368164, -8.721607208251953
464,1233080190,0.5294108,0.5860661,-0.38005447,0.48146588,-11.123550415039062,0.6790026426315308,2.1305551528930664,-79.90107727050781,-40.84564971923828, -13.464984893798828
465,1233096857,0.53326815,0.585612,-0.3857632,0.47314948,-9.96540355682373,-0.8432749509811401,2.1617331504821777,-56.940277099609375,-42.06510543823242, -18.033857345581055
466,1233113524,0.5354421,0.58676517,-0.38785884,0.4675189,-8.568331718444824,-2.24721622467041,2.3635103702545166,-25.37517738342285,-27.78586196899414, -21.48595428466797
467,1233130191,0.53586674,0.58893585,-0.38706797,0.46495152,-8.387406349182129,-2.3647894859313965,1.6843700408935547,2.8991007804870605,-12.820307731628418, -18.962221145629883
468,1233146858,0.53395885,0.5927084,-0.38392872,0.46495572,-7.088809967041016,-2.618619680404663,-0.4206814467906952,32.612640380859375,-5.1369194984436035, -15.823996543884277
469,1233163525,0.52814764,0.59950095,-0.37945884,0.4665511,-5.741025924682617,-2.3336665630340576,-2.429415702819824,68.06361389160156,-13.705604553222656, -10.934006690979004
470,1233180192,0.518695,0.6095269,-0.37560764,0.46728104,-4.644463062286377,-0.6517432928085327,-2.7696781158447266,90.56248474121094,-39.3084716796875, -8.318102836608887
471,1233196859,0.5116651,0.6179543,-0.37618226,0.46348512,-3.4681620597839355,-0.13917158544063568,-0.5310664176940918,48.78197479248047,-62.575645446777344, -9.562320709228516
472,1233213526,0.5205566,0.61168176,-0.38542238,0.45422018,0.9245705604553223,1.8685369491577148,-6.320615291595459,-112.3414306640625,-28.264225006103516, -4.6868977546691895
473,1233230193,0.5249521,0.61009854,-0.3965202,0.44156203,3.587989330291748,-5.0530009269714355,-1.7968597412109375,-91.48886108398438,-75.57107543945312, -7.360162258148193
474,1233246860,0.5253641,0.61284184,-0.4030404,0.43124938,5.208582878112793,-0.7760131359100342,10.330251693725586,-38.857086181640625,-73.1683578491211, -17.983116149902344
475,1233263527,0.5253028,0.6161858,-0.4075234,0.42225227,14.571057319641113,5.192383766174316,5.513861179351807,-24.909534454345703,-63.70277786254883, -22.155912399291992
476,1233280194,0.53013885,0.61432034,-0.41201872,0.41449228,12.375282287597656,-0.1792551726102829,2.483645439147949,-60.98337173461914,-29.873117446899414, -17.249526977539062
477,1233296861,0.5317612,0.6139341,-0.41167867,0.4133225,9.380220413208008,0.29269424080848694,-0.3606880307197571,-9.533039093017578,2.1655611991882324, -8.815011978149414
478,1233313528,0.5349501,0.61065394,-0.40794048,0.4177498,8.943170547485352,-1.921728491783142,-1.5853151082992554,-1.2200849056243896,50.86888122558594, 0.9628093242645264
479,1233330195,0.53778636,0.60603076,-0.40073308,0.42769825,10.299431800842285,-2.54145884513855,-1.4791197776794434,20.77263832092285,89.71870422363281, 11.3467378616333
480,1233346862,0.5385869,0.6014684,-0.38992667,0.44285116,10.462296485900879,-3.1237125396728516,-0.5138739347457886,54.41933822631836,118.9606704711914, 21.255456924438477
481,1233363529,0.5358256,0.5991103,-0.3776444,0.4597203,8.382720947265625,-3.3882362842559814,1.8119122982025146,86.44255065917969,115.26627349853516, 26.27716636657715
482,1233380196,0.5310015,0.5974185,-0.3636545,0.47841832,6.323884963989258,-2.217843770980835,6.650694370269775,107.599365234375,121.56420135498047, 30.630903244018555
483,1233396863,0.5203892,0.6038381,-0.34919965,0.49257928,-2.9649317264556885,-0.9245944023132324,3.248565435409546,151.261474609375,63.2462272644043, 10.8460054397583
484,1233413530,0.5132061,0.6069939,-0.33834848,0.50368494,-3.7876060009002686,3.8764419555664062,-5.277632713317871,105.8249282836914,56.8427848815918, 11.155253410339355
485,1233430197,0.51681,0.6005342,-0.3381476,0.5078605,-1.6122373342514038,3.742213010787964,-8.794833183288574,-26.20672035217285,48.90956497192383, 16.34595489501953
486,1233446864,0.5152616,0.59958375,-0.33778659,0.5107887,-4.282186031341553,1.429428219795227,-6.344709396362305,12.197118759155273,13.401086807250977, 16.579668045043945
487,1233463531,0.5088014,0.6036312,-0.33855945,0.51198447,-4.260290622711182,1.3626376390457153,-7.246992588043213,42.07417678833008,-26.523466110229492, 20.852161407470703
488,1233480198,0.50171715,0.60926974,-0.34285074,0.50943494,-6.822447776794434,1.1752983331680298,-5.389986515045166,29.05245590209961,-61.215858459472656, 20.93012809753418
489,1233496865,0.4962855,0.6145837,-0.35076725,0.5029412,-7.603528022766113,0.8048160672187805,-3.284726619720459,-1.0405436754226685,-85.06539916992188, 17.584579467773438
490,1233513532,0.4926134,0.6189301,-0.36154038,0.49350396,-7.84054708480835,-0.19391903281211853,-0.7859481573104858,-28.786191940307617,-99.58307647705078, 15.953751564025879
491,1233530199,0.48963913,0.62307906,-0.37354162,0.48217493,-7.377809524536133,-0.7406047582626343,1.9225401878356934,-41.300174713134766,-109.38597869873047, 12.95893383026123
492,1233546866,0.48610407,0.62845254,-0.384813,0.46975458,-6.5823516845703125,-0.37752896547317505,2.0237128734588623,-35.14031982421875,-117.17877960205078, 4.910553932189941
493,1233563533,0.48320264,0.6342791,-0.39486945,0.45638072,-5.682188987731934,0.30520862340927124,3.0560319423675537,-34.94599533081055,-117.09465789794922, -6.730527400970459
494,1233580200,0.4810545,0.63988787,-0.4041491,0.44248563,-5.908843517303467,-0.30593129992485046,4.5283966064453125,-37.90752410888672,-114.15382385253906, -13.572319030761719
495,1233596867,0.48108137,0.64306724,-0.41348368,0.4290182,-5.99382209777832,-1.9874931573867798,5.52134370803833,-54.45655059814453,-99.14889526367188, -11.75174331665039
496,1233613534,0.484609,0.6420856,-0.42136773,0.4187238,-6.213205337524414,-1.6650584936141968,1.5861186981201172,-70.35978698730469,-58.24140548706055, -6.189272880554199
497,1233630201,0.49897668,0.6338046,-0.4324504,0.40286547,0.6059120297431946,4.920361042022705,-10.928511619567871,-167.87228393554688,-41.06476593017578, -20.677278518676758
498,1233646868,0.5015686,0.63536566,-0.43829012,0.3906935,11.69504165649414,0.6331952810287476,8.832348823547363,-57.36656188964844,-68.9688949584961, -27.381690979003906
499,1233663535,0.5012622,0.6404763,-0.4383851,0.38255024,1.706579566001892,4.958136081695557,3.5748724937438965,-4.804745674133301,-50.17572784423828, -41.59873580932617
500,1233680202,0.5032216,0.64243346,-0.43955114,0.37528947,17.19114112854004,2.4669604301452637,4.323341369628906,-25.765785217285156,-34.97745895385742, -30.179386138916016
501,1233696869,0.50308484,0.6445044,-0.4385943,0.37303445,10.8447904586792,3.717890501022339,3.993727922439575,4.553849220275879,-12.384644508361816, -17.28605079650879
502,1233713536,0.5027076,0.64464796,-0.43782312,0.37419894,16.568254470825195,-2.2726693153381348,2.092733860015869,8.836609840393066,6.168404579162598, 1.782586932182312
503,1233730203,0.5059455,0.6397178,-0.43396842,0.38269037,15.22861099243164,-2.64567232131958,2.163116216659546,5.2903523445129395,73.09011840820312, 19.175275802612305
504,1233746870,0.5087622,0.6342797,-0.4275321,0.39505267,9.584915161132812,-4.1042656898498535,1.528159499168396,23.743934631347656,99.04686737060547, 23.69151496887207
505,1233763537,0.51026,0.6282194,-0.42215377,0.40836456,5.45122766494751,-3.1672980785369873,3.38030743598938,27.25251579284668,97.23369598388672, 36.84960174560547
506,1233780204,0.51380473,0.61904675,-0.41480556,0.42511457,1.2310607433319092,-0.10032269358634949,5.750174045562744,23.03304100036621,133.58267211914062, 43.58041000366211
507,1233796871,0.50967,0.61852443,-0.4054943,0.43958893,-7.2473626136779785,0.6068792939186096,-0.042995698750019073,85.5653076171875,83.48965454101562, 24.994487762451172
508,1233813538,0.50728524,0.6171991,-0.399884,0.4492436,-3.6588895320892334,7.019275188446045,-11.672030448913574,50.66203308105469,57.38700485229492, 20.919179916381836
509,1233830205,0.5110976,0.6095836,-0.40102616,0.45427442,-1.9815784692764282,-3.2935190200805664,-1.6378482580184937,-31.265625,51.09165573120117, 31.85833168029785
510,1233846872,0.5001903,0.6131822,-0.3958315,0.4659771,-6.599390506744385,-1.0801143646240234,-4.7911505699157715,108.00900268554688,25.794017791748047, 43.73264694213867
511,1233863539,0.49496806,0.61522645,-0.39411286,0.4702958,-6.806632041931152,3.5782413482666016,-1.951334834098816,47.412723541259766,3.3455164432525635, 19.04486083984375
512,1233880206,0.49414065,0.6160211,-0.3962263,0.46834588,-9.213726997375488,3.492386817932129,-1.1423043012619019,-4.8439717292785645,-20.17205810546875, 3.2618017196655273
513,1233896873,0.49631542,0.6156424,-0.40075308,0.4626582,-10.569937705993652,1.984304666519165,-0.22172290086746216,-39.52952194213867,-32.17910385131836, -5.518115043640137
514,1233913540,0.4980672,0.61707485,-0.4045058,0.45554683,-9.06438159942627,2.0960068702697754,0.06265821307897568,-33.0367431640625,-42.452232360839844, -17.17222785949707
515,1233930207,0.4992545,0.62003237,-0.40767974,0.4473279,-7.393248558044434,0.1388619840145111,-0.2407851666212082,-26.697097778320312,-51.48900604248047, -25.779035568237305
516,1233946874,0.49780604,0.62530077,-0.40942368,0.4399551,-6.397768020629883,-0.765619695186615,-0.16132435202598572,-0.7623217105865479,-57.43187713623047, -27.29916000366211
517,1233963541,0.49345192,0.63268447,-0.41010115,0.43362752,-5.730770587921143,-0.8488515019416809,0.7902058959007263,25.139163970947266,-63.82929992675781, -25.464176177978516
518,1233980208,0.48661938,0.64176035,-0.4103229,0.42776233,-4.880380153656006,-0.39856112003326416,1.6287587881088257,44.33281707763672,-72.2957534790039, -23.257591247558594
519,1233996875,0.47893897,0.65104324,-0.41143832,0.42128235,-4.629823207855225,-0.9047362804412842,2.9717490673065186,44.42015075683594,-81.01463317871094, -19.452110290527344
520,1234013542,0.47582906,0.6560533,-0.41494304,0.41352537,-3.6700029373168945,-1.8844754695892334,-2.7095093727111816,-0.6165598630905151,-69.3482666015625, -14.122171401977539
521,1234030209,0.4815946,0.656585,-0.4235448,0.3969541,5.366706848144531,5.965707302093506,-14.310324668884277,-94.96451568603516,-87.62239074707031, -32.47361755371094
522,1234046876,0.48290515,0.6610289,-0.43321782,0.37704867,11.675596237182617,-1.8482083082199097,12.400786399841309,-74.61673736572266,-129.4932098388672, -37.79792404174805
523,1234063543,0.48076162,0.6678791,-0.43988386,0.35959435,3.740598678588867,0.549136221408844,-1.093612790107727,-35.70104217529297,-125.3653335571289, -41.73312759399414
524,1234080210,0.4792083,0.6721243,-0.4437571,0.34883824,19.311620712280273,-2.439849853515625,1.7387712001800537,-19.85270118713379,-77.1372299194336, -26.036823272705078
525,1234096877,0.4749928,0.6762974,-0.44691813,0.34244424,11.316567420959473,-0.508255124092102,1.5595223903656006,7.259184837341309,-62.79469680786133, -8.636828422546387
526,1234113544,0.47097164,0.6787056,-0.44903713,0.3404559,16.28329849243164,-0.4842328727245331,3.115386486053467,16.602554321289062,-34.288658142089844, 5.735462665557861
527,1234130211,0.47102737,0.67703664,-0.4478808,0.34519204,13.016240119934082,-1.877610683441162,1.7247884273529053,12.84175968170166,29.59600830078125, 15.093152046203613
528,1234146878,0.47206637,0.6735998,-0.4436828,0.35575595,8.585281372070312,-1.729486107826233,3.176403522491455,27.721881866455078,73.64872741699219, 22.750133514404297
529,1234163545,0.47293738,0.66921103,-0.4384897,0.3690713,4.635228157043457,-1.1405463218688965,4.3476409912109375,36.26699447631836,91.29572296142578, 30.28368377685547
530,1234180212,0.47281757,0.6648004,-0.42481598,0.39244783,2.938966989517212,1.8703566789627075,6.483415603637695,92.65717315673828,162.1106414794922, 26.53803825378418
531,1234196879,0.471146,0.66202015,-0.41654626,0.40772548,-5.631357192993164,1.0696988105773926,-7.964098930358887,66.86540222167969,98.39434051513672, 24.426734924316406
532,1234213546,0.47203562,0.6586819,-0.41743666,0.41117787,-5.078401565551758,6.811182975769043,-2.7198073863983154,-6.228263854980469,24.12029457092285, 22.345928192138672
533,1234230213,0.4751675,0.65411144,-0.42191595,0.41029394,-5.6971235275268555,0.2674199938774109,-4.58823823928833,-43.00676727294922,2.903434991836548, 21.974206924438477
534,1234246880,0.4705824,0.65393007,-0.42221022,0.41553152,-4.674023151397705,-3.346597194671631,3.5188918113708496,35.54680633544922,9.549460411071777, 32.24958038330078
535,1234263547,0.47432595,0.6503167,-0.4217867,0.41737154,-10.715682983398438,2.367053270339966,9.910210609436035,-20.808753967285156,30.529020309448242, 4.1438798904418945
536,1234280214,0.4912781,0.63892084,-0.42000172,0.41716245,-13.576813697814941,1.2925230264663696,12.714007377624512,-107.2376480102539,86.2417984008789, -23.814889907836914
537,1234296881,0.5155973,0.62003505,-0.41766676,0.4186532,-13.06261157989502,-1.063795804977417,12.353067398071289,-158.36473083496094,138.0554656982422, -19.880584716796875
538,1234313548,0.5307109,0.6033144,-0.4131616,0.42855015,-5.51176118850708,-8.271453857421875,1.5695583820343018,-80.99054718017578,148.6263427734375, 20.988948822021484
539,1234330215,0.53114724,0.597511,-0.40126044,0.44704956,-3.4702916145324707,-1.1509066820144653,-3.839862108230591,65.96977233886719,137.45741271972656, 33.74659729003906
540,1234346882,0.52663594,0.59819794,-0.38768664,0.4631555,-4.516048431396484,3.340294361114502,-6.924199104309082,108.48779296875,100.30772399902344, 15.47409725189209
541,1234363549,0.5259438,0.5993097,-0.3808902,0.4681173,-6.199975490570068,5.350078105926514,-9.14047622680664,42.937644958496094,39.021724700927734, -10.136438369750977
542,1234380216,0.53148496,0.59837866,-0.38385436,0.46056795,-4.974490642547607,3.842228412628174,-10.368152618408203,-54.42117691040039,-24.60731315612793, -29.67087745666504
543,1234396883,0.5354252,0.59968466,-0.39141968,0.44776,-1.5375113487243652,-2.056004524230957,-15.497766494750977,-68.20767211914062,-74.02749633789062, -30.65719223022461
544,1234413550,0.52753973,0.61024517,-0.39267448,0.44171214,6.525645732879639,2.6765172481536865,-17.18670082092285,52.141868591308594,-82.74150085449219, -20.347843170166016
545,1234430217,0.52341276,0.6194285,-0.40072337,0.426343,0.41973912715911865,1.53003990650177,15.597758293151855,-14.543692588806152,-131.64788818359375, -33.33767318725586
546,1234446884,0.519481,0.6311428,-0.40793183,0.40668216,4.688658714294434,5.6144280433654785,3.8520865440368652,-15.4815034866333,-154.30455017089844, -59.889747619628906
547,1234463551,0.5156821,0.6400174,-0.41631022,0.38876155,20.28647232055664,-3.545358180999756,0.12928447127342224,-24.535213470458984,-142.76470947265625, -40.90581130981445
548,1234480218,0.5090076,0.6475001,-0.42041808,0.38066193,11.497934341430664,0.34751638770103455,2.2645134925842285,22.761075973510742,-88.99873352050781, -13.5378999710083
549,1234496885,0.50650406,0.6504133,-0.42521587,0.3736412,13.264663696289062,-4.7138352394104,0.5621528625488281,-10.446749687194824,-62.719749450683594, -4.519527912139893
550,1234513552,0.50363106,0.65139234,-0.42787263,0.3727856,11.192790985107422,-1.1371791362762451,0.12573349475860596,8.013602256774902,-23.888303756713867, 13.697833061218262
551,1234530219,0.50870657,0.643582,-0.43163413,0.37511605,8.503589630126953,-1.2783476114273071,-0.5311128497123718,-51.46577453613281,32.405670166015625, 35.016380310058594
552,1234546886,0.5125125,0.6355881,-0.43147406,0.38365215,5.234808921813965,-1.533382773399353,0.7763778567314148,-17.953107833862305,70.26852416992188, 43.073036193847656
553,1234563553,0.513919,0.630107,-0.42392683,0.39892223,4.192016124725342,0.1634133756160736,4.265024185180664,40.869319915771484,111.9438705444336, 33.321144104003906
554,1234580220,0.51428556,0.62459505,-0.4069219,0.4240353,0.8339169025421143,1.4896037578582764,3.8281078338623047,99.95893859863281,184.9354248046875, 30.073339462280273
555,1234596887,0.5108495,0.6220912,-0.39985797,0.43834803,-4.963932514190674,2.1384170055389404,-7.675671577453613,67.74554443359375,83.861328125, 37.31797409057617
556,1234613554,0.5130765,0.6166671,-0.39878336,0.44434917,-4.6029815673828125,3.571039915084839,-7.042464256286621,-7.713151931762695,51.91288375854492, 24.83045768737793
557,1234630221,0.5121308,0.6142404,-0.3978895,0.44957212,-3.333099842071533,-1.4034985303878784,-8.051946640014648,13.552009582519531,30.359577178955078, 24.481002807617188
558,1234646888,0.50793064,0.6161655,-0.3950824,0.45415455,-6.864157676696777,1.96371591091156,-3.7224512100219727,46.72378158569336,12.297782897949219, 12.293659210205078
559,1234663555,0.5116646,0.61458427,-0.39754927,0.44993344,-8.288819313049316,3.454723358154297,-1.3628636598587036,-39.5576286315918,-10.792325019836426, -11.241625785827637
560,1234680222,0.51896095,0.61112714,-0.4019974,0.44226864,-11.104025840759277,2.3763427734375,1.4235435724258423,-76.7864761352539,-16.729772567749023, -20.706798553466797
561,1234696889,0.52921873,0.6046685,-0.40818018,0.43323493,-11.424365043640137,-0.6675490736961365,1.357057809829712,-109.01305389404297,-11.402425765991211, -18.853254318237305
562,1234713556,0.5347544,0.600522,-0.41100574,0.4295175,-9.162569046020508,-4.382038593292236,1.414849877357483,-56.04772186279297,2.7391233444213867, -5.821051120758057
563,1234730223,0.53441715,0.6000534,-0.40960836,0.43192023,-8.251280784606934,-4.378589630126953,1.5734440088272095,11.502609252929688,16.04337501525879, 6.134922027587891
564,1234746890,0.52740663,0.60435015,-0.4037868,0.4399539,-7.189117908477783,-3.404285430908203,0.2430790662765503,85.55876159667969,22.55259895324707, 14.9006929397583
565,1234763557,0.5171992,0.6114337,-0.3961308,0.44914848,-5.9614410400390625,-0.3495215177536011,-1.1036938428878784,117.72795867919922,16.732460021972656, 13.372288703918457
566,1234780224,0.50800836,0.61893153,-0.3899661,0.45472845,-5.1278557777404785,1.4234641790390015,-1.8890094757080078,100.46163940429688,-2.229729175567627, 2.547292947769165
567,1234796891,0.5070273,0.62133825,-0.3912785,0.45140138,-2.378336191177368,4.187254428863525,-8.634037971496582,0.45907697081565857,-28.25567054748535, -8.690337181091309
568,1234813558,0.51717603,0.61571205,-0.3984542,0.44120508,3.445059299468994,2.188044548034668,-6.248120307922363,-111.8476333618164,-22.918933868408203, -20.38212013244629
569,1234830225,0.51388156,0.62250423,-0.40351787,0.43079874,5.942286491394043,-0.8299336433410645,11.510292053222656,-4.983719825744629,-90.64225006103516, -23.277233123779297
570,1234846892,0.5123189,0.6281815,-0.41192058,0.41621977,6.349046230316162,3.385117769241333,11.927766799926758,-37.688385009765625,-112.58849334716797, -25.856342315673828
571,1234863559,0.5107739,0.6344559,-0.42008114,0.40013465,17.719017028808594,4.48602819442749,2.778420925140381,-39.12456130981445,-120.30420684814453, -33.928977966308594
572,1234880226,0.5108654,0.63664144,-0.42390004,0.39244527,13.569133758544922,-3.9285483360290527,0.3293752670288086,-24.37213706970215,-52.615604400634766, -16.131864547729492
573,1234896893,0.5105407,0.63767964,-0.4247414,0.39026618,7.3816657066345215,0.07777183502912521,-1.5656120777130127,-2.4591803550720215,-16.215429306030273, -5.602245807647705
574,1234913560,0.5091045,0.6388012,-0.4215047,0.39380175,7.466338157653809,-2.9643442630767822,-3.727694511413574,30.333539962768555,19.70637321472168, -0.7547584176063538
575,1234930227,0.5089001,0.6373917,-0.41605267,0.40206102,9.433266639709473,-1.935173749923706,-2.109933376312256,35.73476791381836,58.72005081176758, 9.89540958404541
576,1234946894,0.51361644,0.62873113,-0.40897673,0.41669348,12.584695816040039,-0.7406718730926514,3.209106683731079,11.522819519042969,126.48506164550781, 32.081607818603516
577,1234963561,0.5205504,0.61503845,-0.39970613,0.4370243,8.08907413482666,-0.05855023115873337,5.8638811111450195,6.535618782043457,179.3907470703125, 50.39591979980469
578,1234980228,0.5175421,0.61272734,-0.38832325,0.4537849,-2.1967620849609375,-0.047777093946933746,2.0663609504699707,85.91753387451172,110.1241226196289, 27.23078727722168
579,1234996895,0.50904447,0.61644495,-0.3760339,0.4684741,-2.9633209705352783,3.3274245262145996,-10.78432559967041,127.80490112304688,71.10562133789062, 17.130874633789062
580,1235013562,0.51167774,0.6122834,-0.37474686,0.47208044,-1.2190537452697754,5.867827415466309,-9.469289779663086,-11.15001106262207,40.128684997558594, 9.632774353027344
581,1235030229,0.50721586,0.6143772,-0.37516972,0.47383612,-5.4419450759887695,-2.2882790565490723,-10.597651481628418,30.302400588989258,-11.965826034545898, 17.418495178222656
582,1235046896,0.4979566,0.6217086,-0.3756719,0.47369656,-5.090357303619385,1.78643000125885,-7.430073261260986,63.614837646484375,-49.35688781738281, 13.243377685546875
583,1235063563,0.4899725,0.6295763,-0.38001803,0.46813154,-6.742478847503662,2.053879499435425,-4.965968608856201,33.40314483642578,-83.94438934326172, 5.6491522789001465
584,1235080230,0.48604456,0.63549227,-0.3886714,0.4569958,-8.115133285522461,1.9083788394927979,-2.025796413421631,-19.193384170532227,-105.54984283447266, -2.314150094985962
585,1235096897,0.48551807,0.63953364,-0.39967114,0.44219017,-8.758089065551758,0.9698056578636169,0.8494788408279419,-57.520904541015625,-114.39727783203125, -9.876996040344238
586,1235113564,0.48699325,0.642062,-0.41131455,0.42592797,-8.372314453125,-1.0723905563354492,3.399019956588745,-77.32734680175781,-112.8835220336914, -13.730704307556152
587,1235130231,0.48749933,0.6448469,-0.4213452,0.41107792,-7.782352447509766,-2.7922544479370117,4.2421441078186035,-63.4430046081543,-104.84017944335938, -13.967827796936035
588,1235146898,0.4843414,0.64980394,-0.42728525,0.40074375,-6.824889659881592,-2.896522045135498,4.027701377868652,-15.237520217895508,-87.97054290771484, -12.925256729125977
589,1235163565,0.47927687,0.65553874,-0.43083557,0.39362854,-6.23283576965332,-2.389387369155884,4.282764911651611,11.941461563110352,-73.47001647949219, -9.949822425842285
590,1235180232,0.47391394,0.66105753,-0.4336581,0.38774922,-5.156437397003174,-1.189754605293274,4.562926292419434,18.233272552490234,-65.89732360839844, -7.736047267913818
591,1235196899,0.46938133,0.66596824,-0.4366068,0.38149983,-4.794232368469238,-0.13953258097171783,5.9903154373168945,11.0693941116333,-63.999637603759766, -8.769895553588867
592,1235213566,0.47008935,0.6667465,-0.4420149,0.37294513,-4.440930366516113,-1.1639779806137085,6.66774320602417,-39.59218978881836,-56.06805419921875, -6.26159143447876
593,1235230233,0.4797311,0.6609875,-0.44823796,0.36336818,-2.633971691131592,5.249487400054932,-13.976066589355469,-106.83229064941406,-19.641292572021484, -8.878935813903809
594,1235246900,0.48894504,0.65636027,-0.4574415,0.34766528,17.646963119506836,-2.52486252784729,-1.0843424797058105,-127.57547760009766,-61.05366897583008, -17.789730072021484
595,1235263567,0.49087057,0.65795505,-0.45535246,0.34466732,-3.763366460800171,0.7633266448974609,5.7345404624938965,-6.794210910797119,-3.679685115814209, -28.44209098815918
596,1235280234,0.4926682,0.6588422,-0.45554352,0.34012538,18.837228775024414,0.8157210946083069,2.2898788452148438,-18.799753189086914,-17.223312377929688, -20.769224166870117
597,1235296901,0.49294293,0.65997654,-0.45030716,0.34447345,9.738991737365723,3.407116174697876,5.203945159912109,29.520456314086914,35.85344314575195, -12.636460304260254
598,1235313568,0.49444088,0.659072,-0.44676068,0.34865063,14.845991134643555,-1.2058513164520264,1.0432164669036865,12.590982437133789,37.73838424682617, -2.140669584274292
599,1235330235,0.4981393,0.6546595,-0.44174215,0.3579697,15.057395935058594,-1.1433100700378418,2.369035482406616,10.04283618927002,81.074951171875, 13.982419967651367
600,1235346902,0.50240016,0.6481543,-0.43494394,0.37190583,11.460212707519531,-2.8576819896698,1.1832554340362549,18.786758422851562,114.64606475830078, 26.58102798461914
601,1235363569,0.5065238,0.63940966,-0.43053767,0.38629833,6.578618049621582,-2.540709972381592,3.324699640274048,6.937471389770508,113.6435775756836, 45.68635559082031
602,1235380236,0.50195587,0.639492,-0.41985533,0.4034997,-1.425376296043396,0.18593928217887878,4.472899913787842,100.91387176513672,98.55924224853516, 24.7344913482666
603,1235396903,0.49380836,0.6430637,-0.40788627,0.41982308,-3.922658920288086,0.5145182013511658,-3.8820157051086426,129.76132202148438,79.01435089111328, 15.98232650756836
604,1235413570,0.49067315,0.6426497,-0.4002336,0.43134004,-2.3879525661468506,6.951844215393066,-10.117875099182129,68.08074188232422,68.82730102539062, 15.553305625915527
605,1235430237,0.49113554,0.63868874,-0.39930913,0.4375097,-3.640530824661255,-3.727012872695923,-4.159450054168701,5.447839260101318,43.25783157348633, 26.572797775268555
606,1235446904,0.4795317,0.6435519,-0.39452115,0.4474856,-4.624636650085449,0.29161521792411804,-5.758270740509033,110.27202606201172,13.510477066040039, 34.468257904052734
607,1235463571,0.46914905,0.64906603,-0.39269498,0.4521096,-7.485053539276123,0.37030869722366333,-4.211754322052002,83.32892608642578,-18.422340393066406, 24.462026596069336
608,1235480238,0.4634838,0.6532718,-0.3950827,0.4498092,-8.348533630371094,2.4721004962921143,-2.468585729598999,26.217300415039062,-45.94615936279297, 9.874185562133789
609,1235496905,0.4634818,0.65487164,-0.402104,0.44118062,-9.049386024475098,1.4628291130065918,-0.8691198825836182,-39.075862884521484,-65.58048248291016, 0.22102291882038116
610,1235513572,0.46442994,0.65645814,-0.41036454,0.43008006,-8.379647254943848,-0.13241860270500183,0.6199885606765747,-54.00764083862305,-77.92817687988281, -4.811383247375488
611,1235530239,0.46341357,0.65967244,-0.4169981,0.4197534,-6.958041191101074,-1.0283337831497192,1.1683979034423828,-32.94968795776367,-79.57659149169922, -8.410113334655762
612,1235546906,0.45924863,0.6650213,-0.42149597,0.41131333,-6.614434242248535,-1.384544849395752,1.7936004400253296,-0.2910308539867401,-79.4005355834961, -9.101229667663574
613,1235563573,0.4524755,0.67188466,-0.4243105,0.40471926,-5.822087287902832,-1.009515404701233,3.2468717098236084,26.535884857177734,-77.49908447265625, -7.979238033294678
614,1235580240,0.44494724,0.6790665,-0.42660457,0.39862174,-5.681035995483398,-0.14930695295333862,5.504090309143066,33.930992126464844,-76.72964477539062, -7.659976005554199
615,1235596907,0.44068286,0.6841006,-0.42887232,0.3922673,-4.903569221496582,0.5849116444587708,8.701018333435059,11.475061416625977,-62.50719451904297, -11.183039665222168
616,1235613574,0.44641903,0.68377393,-0.4324253,0.38232416,-3.2959182262420654,9.346463203430176,-14.806798934936523,-65.79659271240234,-39.54936218261719, -27.132205963134766
617,1235630241,0.45724395,0.682185,-0.44691023,0.35471553,10.664684295654297,-2.835671901702881,0.09782850742340088,-174.95298767089844,-137.291015625, -39.300960540771484
618,1235646908,0.45676544,0.68705076,-0.45279512,0.33808807,0.554207444190979,2.6433603763580322,7.36835241317749,-46.878971099853516,-109.33104705810547, -37.57655715942383
619,1235663575,0.45506424,0.69231826,-0.45886493,0.3210218,13.826460838317871,2.359705686569214,1.9560352563858032,-41.55350875854492,-116.95670318603516, -36.44224548339844
620,1235680242,0.4534712,0.6952153,-0.46030998,0.3148881,11.1830415725708,2.0568459033966064,3.041865825653076,-4.728028297424316,-45.08148956298828, -17.111663818359375
621,1235696909,0.45359805,0.6952238,-0.4622816,0.31178316,13.124917984008789,-2.3050894737243652,-0.25344353914260864,-13.457823753356934,-20.761375427246094, 0.18773508071899414
622,1235713576,0.45379272,0.6938657,-0.46170455,0.31535918,13.888236045837402,-1.0388070344924927,1.9755693674087524,8.649449348449707,22.136220932006836, 12.820384979248047
623,1235730243,0.45593444,0.6900831,-0.45978773,0.32327142,13.50883960723877,-0.7981828451156616,3.471036911010742,8.486907958984375,58.2403678894043, 23.255435943603516
624,1235746910,0.45734528,0.6855707,-0.4557704,0.33630586,9.430778503417969,-1.1063745021820068,4.489508628845215,30.561853408813477,88.20955657958984, 33.1282958984375
625,1235763577,0.4576079,0.6818297,-0.44884825,0.35247502,3.5839767456054688,-0.41129064559936523,5.207882404327393,54.97523880004883,106.53736114501953, 29.434253692626953
626,1235780244,0.45686972,0.6783851,-0.43310535,0.37879243,0.6982528567314148,1.021249532699585,5.2433342933654785,113.3447265625,177.92294311523438, 21.539670944213867
627,1235796911,0.4543686,0.6762158,-0.42937285,0.3897698,-8.058812141418457,0.59489506483078,-7.372267723083496,48.626869201660156,59.927642822265625, 30.24750328063965
628,1235813578,0.45767346,0.6718137,-0.43205276,0.39055315,-5.527233123779297,3.885366916656494,-5.172310829162598,-32.706661224365234,15.967686653137207, 19.3503360748291
629,1235830245,0.4605343,0.6677871,-0.43608332,0.38961515,-4.948062419891357,-0.7197535634040833,-4.105478286743164,-38.2685432434082,1.6785969734191895, 20.405738830566406
630,1235846912,0.4616825,0.66508245,-0.43737987,0.39142507,-7.794198036193848,-1.4291890859603882,4.037221908569336,-10.706222534179688,14.475556373596191, 17.194080352783203
631,1235863579,0.4719546,0.65875244,-0.43828416,0.38885888,-10.088926315307617,2.4483249187469482,6.252177715301514,-76.03472900390625,32.874900817871094, -12.127452850341797
632,1235880246,0.48913884,0.6481954,-0.4388839,0.3846646,-11.900679588317871,0.5544500350952148,7.829875469207764,-125.1318130493164,58.53343200683594, -24.40006446838379
633,1235896913,0.50184655,0.6395272,-0.43673274,0.38525265,-10.540428161621094,-1.3539390563964844,4.763391971588135,-77.09008026123047,70.4644775390625, -14.343392372131348
634,1235913580,0.5075728,0.6343799,-0.4330739,0.39035752,-5.248410224914551,-3.4527454376220703,-2.0670478343963623,-16.68280601501465,65.19427490234375, 2.5715885162353516
635,1235930247,0.5032474,0.6360102,-0.4268714,0.40001756,-6.003042221069336,-0.7637839317321777,-3.761518955230713,71.16629028320312,45.95888900756836, 14.120322227478027
636,1235946914,0.49691868,0.64011467,-0.42148396,0.407034,-6.185977935791016,1.7488796710968018,-4.523736000061035,78.43655395507812,19.086458206176758, 6.828177452087402
637,1235963581,0.49189442,0.64484257,-0.41889274,0.40834644,-5.40279483795166,2.473834991455078,-4.895308971405029,50.41606140136719,-13.32746696472168, -5.701903343200684
638,1235980248,0.48812738,0.6501498,-0.41995516,0.40332934,-3.9024031162261963,1.98146653175354,-5.779249668121338,18.265810012817383,-51.546451568603516, -15.997194290161133
639,1235996915,0.48397264,0.65740895,-0.4204839,0.3959512,-0.06621529161930084,5.539510726928711,-17.493553161621094,21.169219970703125,-66.62548065185547, -30.79140853881836
640,1236013582,0.4887377,0.65886956,-0.4282488,0.37898487,7.052476406097412,-0.8796414732933044,-0.9108371138572693,-85.99105072021484,-91.9406967163086, -37.360774993896484
641,1236030249,0.49192387,0.6615143,-0.4325066,0.36516836,2.0302000045776367,-0.10850057005882263,4.821344375610352,-56.42214584350586,-73.66957092285156, -42.14960861206055
642,1236046916,0.4903912,0.66612244,-0.43569764,0.35491583,18.628036499023438,-1.5572679042816162,4.501033306121826,-14.984152793884277,-72.996826171875, -28.983627319335938
643,1236063583,0.48550233,0.67141354,-0.43778378,0.34905165,16.75558853149414,-0.13480783998966217,6.777885437011719,18.61277961730957,-61.185089111328125, -13.373308181762695
644,1236080250,0.47960523,0.6760296,-0.44290647,0.3417555,19.07839012145996,0.11197023093700409,7.767775058746338,9.509295463562012,-79.69072723388672, 0.11303781718015671
645,1236096917,0.47619945,0.6761029,-0.45149228,0.33507293,20.225820541381836,1.2369656562805176,12.889801025390625,-23.225601196289062,-70.39177703857422, 25.992042541503906
646,1236113584,0.47218555,0.6766795,-0.454481,0.33554837,10.866271018981934,0.9404606819152832,14.298916816711426,16.49240493774414,-22.39720344543457, 23.057058334350586
647,1236130251,0.4625371,0.6814729,-0.45418546,0.3396612,-5.146336555480957,-1.7261183261871338,-0.6321364641189575,75.45216369628906,-22.64097023010254, 19.3525390625
648,1236146918,0.46334398,0.6785537,-0.45852453,0.33857465,-7.2114458084106445,2.0761208534240723,-10.616722106933594,-25.17220115661621,-10.939478874206543, 24.228376388549805
649,1236163585,0.47489834,0.66766983,-0.46494207,0.33543622,-10.681410789489746,-2.8956527709960938,1.3309309482574463,-112.11038970947266,25.747417449951172, 27.600744247436523
650,1236180252,0.47626293,0.6604419,-0.45788792,0.35683188,-11.970256805419922,-10.23968505859375,7.531672477722168,56.07081985473633,141.48768615722656, 57.71446228027344
651,1236196919,0.4785482,0.6532903,-0.4438324,0.38368762,-4.434142112731934,-0.8955086469650269,3.2816367149353027,86.51337432861328,191.87261962890625, 41.17060852050781
652,1236213586,0.48008698,0.64929116,-0.4281668,0.40572262,-3.707664728164673,8.202413558959961,-2.968337297439575,89.78193664550781,164.88623046875, 10.493006706237793
653,1236230253,0.48839527,0.644151,-0.4195928,0.41289413,-4.071106910705566,8.793464660644531,-8.192229270935059,-7.793341636657715,98.37581634521484, -22.129899978637695
654,1236246920,0.50025487,0.6377034,-0.42017823,0.4080805,-4.825582504272461,4.026001930236816,-10.920863151550293,-88.57754516601562,28.799219131469727, -27.83228874206543
655,1236263587,0.5035211,0.637479,-0.4226313,0.40183324,-4.042783737182617,-1.7786526679992676,-12.307233810424805,-38.97441101074219,-25.810504913330078, -18.295108795166016
656,1236280254,0.49361178,0.64645267,-0.42242697,0.40000245,-4.500502586364746,-2.4128708839416504,-9.268940925598145,70.700927734375,-60.52276611328125, -5.0067315101623535
657,1236296921,0.47765398,0.65941346,-0.42200354,0.39866486,-4.724118232727051,-0.6971385478973389,-5.298961639404297,113.09272003173828,-85.78976440429688, 0.6972720623016357
658,1236313588,0.46289933,0.67159486,-0.4242445,0.393321,-5.44742488861084,0.34501489996910095,-0.8682608604431152,86.11629486083984,-106.87720489501953, -1.418294906616211
659,1236330255,0.45571208,0.6791897,-0.429924,0.38235238,-5.515134334564209,0.01749839261174202,3.0280849933624268,10.867260932922363,-109.2572021484375, -10.485186576843262
660,1236346922,0.45402455,0.68376243,-0.43564224,0.36952224,-5.476284027099609,-1.4144505262374878,5.796138763427734,-29.86038589477539,-93.93756866455078, -21.619522094726562
661,1236363589,0.45480224,0.6859008,-0.43915784,0.36032686,-7.023995876312256,-6.30808162689209,1.4240334033966064,-32.52328109741211,-56.550411224365234, -19.60025978088379
662,1236380256,0.4540844,0.68880403,-0.44263867,0.3513226,5.346575736999512,4.3541669845581055,-18.700681686401367,-22.427204132080078,-61.92855453491211, -17.901355743408203
663,1236396923,0.4547785,0.69094276,-0.44954085,0.33717614,13.735855102539062,-2.8795597553253174,10.833015441894531,-55.534854888916016,-90.33696746826172, -18.763288497924805
664,1236413590,0.45172006,0.69564223,-0.45394668,0.32552046,-1.3850642442703247,4.535587310791016,3.195558786392212,-16.100387573242188,-88.74742126464844, -22.289012908935547
665,1236430257,0.4537551,0.69619846,-0.4597616,0.3131029,17.5214900970459,-0.5768148303031921,2.106356620788574,-58.80915832519531,-71.70360565185547, -16.238792419433594
666,1236446924,0.451319,0.69795555,-0.4617816,0.30972105,6.364549160003662,3.203514814376831,1.2895227670669556,3.123103618621826,-33.624114990234375, -0.6149378418922424
667,1236463591,0.45116022,0.69763905,-0.46255413,0.30951265,9.881110191345215,-1.794850468635559,-1.1945006847381592,-1.468299388885498,-3.0053048133850098, 4.99603271484375
668,1236480258,0.451265,0.6965022,-0.45863092,0.31765115,9.840340614318848,-0.6384863257408142,0.7862456440925598,31.25613784790039,54.094642639160156, 10.2412748336792
669,1236496925,0.45278165,0.69343317,-0.45185685,0.33160937,8.06414794921875,-2.2285797595977783,-0.10073000192642212,43.1006965637207,99.34130859375, 17.53211784362793
670,1236513592,0.45668522,0.68680423,-0.44418746,0.34990865,5.325300216674805,-0.8911710977554321,1.7466635704040527,36.17571258544922,138.2793426513672, 32.255035400390625
671,1236530259,0.45813918,0.68145406,-0.42892647,0.37649834,2.751096725463867,1.1092960834503174,4.704126358032227,95.3832778930664,190.62425231933594, 24.371625900268555
672,1236546926,0.4564302,0.67903095,-0.41859066,0.39417043,-5.226033687591553,-0.209228053689003,-1.4917798042297363,80.41659545898438,116.24028778076172, 18.952672958374023
673,1236563593,0.45595476,0.67692196,-0.41275615,0.40436912,-3.474123954772949,4.658641815185547,-6.744086265563965,41.90623092651367,70.0328369140625, 12.339604377746582
674,1236580260,0.45909888,0.6725632,-0.41289702,0.40792546,-2.4785664081573486,-0.39945483207702637,-8.120115280151367,-17.51828384399414,37.167659759521484, 15.830083847045898
675,1236596927,0.45758978,0.67127293,-0.41404745,0.41057202,-5.334328651428223,-0.7074725031852722,-4.168779373168945,8.200339317321777,8.248082160949707, 21.979732513427734
676,1236613594,0.455949,0.671078,-0.41585818,0.4108854,-6.262378692626953,0.9233319163322449,-1.8440592288970947,3.707179069519043,-7.887207984924316, 14.967634201049805
677,1236630261,0.45820698,0.6697766,-0.41871557,0.4075821,-7.9404425621032715,1.5788073539733887,0.10528502613306046,-31.0715389251709,-13.48160457611084, 0.6941133141517639
678,1236646928,0.46523324,0.6662026,-0.4223686,0.40166786,-8.608518600463867,0.696344256401062,1.4056079387664795,-69.94892883300781,-7.870141983032227, -10.568360328674316
679,1236663595,0.47375998,0.6615904,-0.42569682,0.39576763,-9.20114803314209,-2.253354787826538,1.9489023685455322,-79.21053314208984,0.4618522822856903, -13.04288387298584
680,1236680262,0.47651562,0.6603096,-0.42608854,0.39417368,-8.213772773742676,-3.6001064777374268,0.623279869556427,-21.514963150024414,3.6576855182647705, -6.4102044105529785
681,1236696929,0.473512,0.66278136,-0.42403674,0.39585382,-6.1274261474609375,-1.8335978984832764,-1.8747609853744507,33.1312255859375,-0.4765005111694336, -2.2032129764556885
682,1236713596,0.46799913,0.66720843,-0.42181405,0.39734477,-5.194223403930664,-0.7382347583770752,-2.4061927795410156,50.82167053222656,-13.31799030303955, -2.480140209197998
683,1236730263,0.4619209,0.6725998,-0.42109942,0.39612392,-4.505008220672607,0.5410069227218628,-3.935314178466797,44.510501861572266,-34.77845764160156, -5.527718544006348
684,1236746930,0.46067807,0.67453337,-0.42336035,0.39185032,-0.929232656955719,1.8337223529815674,-5.475418567657471,-5.806821346282959,-34.78536605834961, -4.573218822479248
685,1236763597,0.4673388,0.67271376,-0.42696416,0.38308254,-2.828634262084961,1.8770097494125366,3.534074306488037,-71.0862045288086,-26.615720748901367, -22.884647369384766
686,1236780264,0.46296114,0.68063134,-0.42973378,0.37112936,1.8045802116394043,3.462873935699463,8.618903160095215,4.133284091949463,-96.84539794921875, -36.409202575683594
687,1236796931,0.4598961,0.6881218,-0.43578693,0.35365817,8.920022010803223,6.026480197906494,8.068708419799805,-27.959115982055664,-128.4768829345703, -40.62247848510742
688,1236813598,0.45794654,0.69350344,-0.4400498,0.34013852,15.402338027954102,1.9326027631759644,3.5121500492095947,-23.59172248840332,-96.01535034179688, -32.924198150634766
689,1236830265,0.45402727,0.69794804,-0.44086277,0.33521304,10.254988670349121,-0.5200778245925903,0.7410755157470703,16.998207092285156,-48.22230911254883, -15.007466316223145
690,1236846932,0.45141834,0.70056224,-0.43967435,0.33484432,8.20626163482666,-3.3248934745788574,-1.8906772136688232,23.447317123413086,-12.046875953674316, -8.004950523376465
691,1236863599,0.45141834,0.70049125,-0.4375385,0.33777773,9.588024139404297,-3.5300326347351074,-2.7000732421875,14.6937894821167,20.84790802001953, -0.40834417939186096
692,1236880266,0.4552956,0.6965581,-0.43450907,0.34455,11.421751022338867,-2.8693838119506836,-0.47866061329841614,-2.3628177642822266,62.73293685913086, 9.599909782409668
693,1236896933,0.4611063,0.68951267,-0.42959088,0.35693875,10.815945625305176,-1.9913513660430908,1.5768142938613892,-0.09942001104354858,108.59844207763672, 22.64588165283203
694,1236913600,0.4654912,0.6814726,-0.42358136,0.37348634,7.415277481079102,-0.9363343119621277,2.9578053951263428,18.509262084960938,129.86122131347656, 36.93425750732422
695,1236930267,0.4690662,0.67198795,-0.4134986,0.39677212,7.05955171585083,2.1935207843780518,10.71001148223877,47.8187370300293,175.6862030029297, 45.63124084472656
696,1236946934,0.470246,0.66483283,-0.40607095,0.4146958,-9.226057052612305,0.6812940835952759,-0.5838192105293274,44.013427734375,128.78732299804688, 40.55568313598633
