PacketCounter,SampleTimeFine,Quat_W,Quat_X,Quat_Y,Quat_Z,Acc_X,Acc_Y,Acc_Z,Gyr_X,Gyr_Y,Gyr_Z 
1,1221538862,0.66486746,0.3080994,-0.5497582,0.4009888,-0.08817228674888611,-0.04141196981072426,-0.006541110575199127,-0.11634169518947601,0.8123079538345337, -0.07683558017015457
2,1221555529,0.6655883,0.30842626,-0.5486525,0.40105617,17.54747772216797,-0.5862060785293579,3.696423292160034,1.1094590425491333,3.752382516860962, 0.4697433412075043
3,1221572196,0.66595584,0.30799264,-0.54840547,0.40111703,17.128864288330078,-0.5252256393432617,3.5112619400024414,0.17556867003440857,3.3941502571105957, 0.5788918733596802
4,1221588863,0.665957,0.3079023,-0.5485079,0.4010447,17.726593017578125,-0.5151589512825012,3.7230474948883057,0.8305110931396484,3.9307363033294678, 0.2801453471183777
5,1221605530,0.6660503,0.30777732,-0.5485608,0.40091285,17.54569435119629,-0.5325415730476379,3.77172589302063,-0.9767787456512451,3.4298031330108643, 0.2745233476161957
6,1221622197,0.6661889,0.30762985,-0.5483556,0.40107659,16.893009185791016,-0.4449143707752228,3.4569928646087646,0.5014133453369141,3.345242500305176, 0.8334563970565796
7,1221638864,0.6663796,0.3075571,-0.5481697,0.40106967,18.012643814086914,-0.47988513112068176,3.686729669570923,-0.43172770738601685,4.3142991065979, 0.3679713010787964
8,1221655531,0.6663357,0.30782396,-0.5480139,0.40115085,17.292497634887695,-0.4861312210559845,3.80061411857605,1.7688452005386353,3.1581804752349854, 0.42843005061149597
9,1221672198,0.6664793,0.30793363,-0.5475841,0.40141514,17.48838996887207,-0.3619416058063507,3.595566987991333,1.762851595878601,4.0842461585998535, 0.49031031131744385
10,1221688865,0.6668074,0.3077049,-0.54746747,0.4012045,17.531892776489258,-0.5071461200714111,3.6561124324798584,-1.284387469291687,3.7867422103881836, 0.7111302614212036
11,1221705532,0.6669283,0.30778182,-0.54719764,0.40131238,17.293407440185547,-0.3830464780330658,3.7219786643981934,1.3694407939910889,3.615431785583496, 0.603019118309021
12,1221722199,0.66713625,0.30772144,-0.5469368,0.4013691,17.396825790405273,-0.3826429843902588,3.672805070877075,-0.417794406414032,3.719252347946167, 0.6749266982078552
13,1221738866,0.66741705,0.30752277,-0.546719,0.40135103,17.854705810546875,-0.5772637128829956,3.7229323387145996,-0.8383804559707642,3.9635331630706787, 0.9736476540565491
14,1221755533,0.6675601,0.30750492,-0.5465337,0.40137926,17.245832443237305,-0.19193458557128906,3.8097012042999268,1.0965372323989868,3.0133275985717773, 0.5484383702278137
15,1221772200,0.6679059,0.30735442,-0.54621977,0.40134662,17.33124351501465,-0.581490159034729,3.422260046005249,-0.7524369955062866,4.150710582733154, 0.3353022336959839
16,1221788867,0.66800714,0.30749846,-0.5458902,0.40151635,17.53683090209961,-0.13442614674568176,3.8386731147766113,2.049623966217041,3.5198826789855957, 0.2834877371788025
17,1221805534,0.66824156,0.3074346,-0.5456315,0.4015264,17.333251953125,-0.5698794722557068,3.581477403640747,0.2331331968307495,3.6067869663238525, 0.6960955858230591
18,1221822201,0.6683754,0.3074016,-0.54538345,0.40166616,17.449878692626953,-0.1321469396352768,3.7629811763763428,1.1856952905654907,3.5179243087768555, 1.0508700609207153
19,1221838868,0.6686783,0.30710924,-0.54527,0.40153965,17.34409523010254,-0.37382572889328003,3.681302785873413,-1.6213481426239014,3.549184560775757, 1.0141925811767578
20,1221855535,0.66886187,0.3070441,-0.5450231,0.40161884,17.704559326171875,-0.3092162311077118,3.8255865573883057,0.7086713910102844,3.511904716491699, 1.032326340675354
21,1221872202,0.66904527,0.30697381,-0.54487294,0.40157074,17.106813430786133,-0.1265745908021927,3.689676523208618,-0.30493199825286865,2.7300384044647217, 0.6260704398155212
22,1221888869,0.66924924,0.30700687,-0.54452574,0.40167654,17.709470748901367,-0.4549405872821808,3.712296724319458,1.3023098707199097,3.6878769397735596, 0.6749011278152466
23,1221905536,0.6693892,0.30697194,-0.5443722,0.4016779,17.38639259338379,-0.2543872594833374,3.762655019760132,-0.10899484902620316,2.602064847946167, 0.7581807374954224
24,1221922203,0.6695746,0.30696753,-0.54412514,0.40170744,17.389413833618164,-0.2948356568813324,3.697636365890503,0.26480332016944885,3.1178019046783447, 0.4572315514087677
25,1221938870,0.66985714,0.30679974,-0.54392695,0.40163288,17.275854110717773,-0.0323035903275013,3.6015443801879883,-0.8244088292121887,3.4867403507232666, 0.4765051007270813
26,1221955537,0.6699812,0.30692253,-0.5436144,0.40175512,17.528718948364258,-0.34499919414520264,3.763101577758789,1.3249515295028687,3.111091375350952, 0.5361058115959167
27,1221972204,0.6700081,0.30713406,-0.54331654,0.40195152,17.394405364990234,-0.097906194627285,3.7356905937194824,2.6905436515808105,2.5568583011627197, 0.8566103577613831
28,1221988871,0.6700946,0.307242,-0.543065,0.40206477,17.58797836303711,-0.1189287081360817,3.6843085289001465,1.2038546800613403,2.6675820350646973, 0.7689381241798401
29,1222005538,0.6701591,0.30724213,-0.5429405,0.40212533,17.21074676513672,-0.19144165515899658,3.6648881435394287,0.8287436962127686,2.2128922939300537, 1.4407206773757935
30,1222022205,0.6703384,0.30698246,-0.54278713,0.40223193,17.221092224121094,0.10333695262670517,3.4565682411193848,-0.6155756115913391,3.105942964553833, 1.595703125
31,1222038872,0.67055833,0.306638,-0.542548,0.40245056,17.925905227661133,-0.20336779952049255,3.7596993446350098,-0.422481507062912,3.6563479900360107, 1.5967918634414673
32,1222055539,0.67065793,0.30637753,-0.5422965,0.4028219,17.01278305053711,0.00434252992272377,3.64190411567688,1.1348797082901,3.145118474960327, 2.1180617809295654
33,1222072206,0.670835,0.30605057,-0.541894,0.4033167,17.52562713623047,-0.22053174674510956,3.564028739929199,1.7360352277755737,4.502642631530762, 2.3851892948150635
34,1222088873,0.6709132,0.30583513,-0.54142755,0.403976,17.63479232788086,-0.24903461337089539,3.6892685890197754,2.987997055053711,4.459203243255615, 2.776372194290161
35,1222105540,0.6710239,0.30555472,-0.54094887,0.40464547,17.472064971923828,-0.08346773684024811,3.880314350128174,2.671027421951294,4.829537868499756, 2.9340951442718506
36,1222122207,0.6713827,0.30479282,-0.5406753,0.40498987,17.085052490234375,-0.023339442908763885,3.5373499393463135,-1.778200387954712,5.4516448974609375, 2.9837841987609863
37,1222138874,0.67167187,0.3041265,-0.5403304,0.40547138,17.71352195739746,-0.3352394998073578,3.807086229324341,-0.7859642505645752,5.554210662841797, 3.2351083755493164
38,1222155541,0.6719097,0.30350193,-0.540101,0.40585086,17.38356590270996,-0.20555882155895233,3.9398953914642334,-1.0985031127929688,4.49609899520874, 3.009716510772705
39,1222172208,0.67211336,0.302931,-0.53985506,0.40626732,17.05803871154785,-0.34849563241004944,3.571357488632202,-0.4478508532047272,4.364936351776123, 3.0785763263702393
40,1222188875,0.6721983,0.3025824,-0.5395777,0.4067545,17.51510238647461,-0.23061341047286987,3.9068384170532227,1.2021772861480713,3.5988988876342773, 2.850700616836548
41,1222205542,0.6723171,0.302141,-0.53944844,0.4070578,16.923860549926758,-0.35272902250289917,3.6628756523132324,-0.5424642562866211,2.920661449432373, 2.52377986907959
42,1222222209,0.6723736,0.30200192,-0.5391538,0.40745783,17.903804779052734,-0.33298400044441223,3.9567151069641113,1.8102095127105713,2.8099117279052734, 1.6806604862213135
43,1222238876,0.67247045,0.30173868,-0.53910524,0.40755743,16.782968521118164,-0.17815624177455902,3.7192800045013428,-0.5152762532234192,1.5415067672729492, 1.1838637590408325
44,1222255543,0.67258203,0.30162483,-0.538817,0.40783852,17.447595596313477,-0.3187289535999298,3.5878586769104004,1.1785619258880615,2.673088788986206, 0.8577373623847961
45,1222272210,0.67271477,0.30145955,-0.5386267,0.40799302,17.398744583129883,-0.010895522311329842,3.7709548473358154,0.5274487733840942,2.1725525856018066, 0.6984007358551025
46,1222288877,0.6727979,0.3013836,-0.53829944,0.408344,17.356494903564453,-0.22771014273166656,3.6695809364318848,2.0527491569519043,2.783146619796753, 1.1124300956726074
47,1222305544,0.67287195,0.3012323,-0.5380273,0.40869185,17.351354598999023,0.123632051050663,3.747704029083252,1.6866666078567505,2.6971004009246826, 1.5491647720336914
48,1222322211,0.67307717,0.30082166,-0.53779715,0.40895945,17.000808715820312,0.05568309500813484,3.4741439819335938,-0.26136481761932373,3.5531415939331055, 1.8473738431930542
49,1222338878,0.67317194,0.30059382,-0.5373855,0.40951177,17.629690170288086,-0.05904867872595787,3.7561697959899902,2.281841993331909,4.066957473754883, 2.404526948928833
50,1222355545,0.6733155,0.3001491,-0.53718865,0.40986013,17.334529876708984,-0.051517825573682785,3.8257858753204346,-0.04500151053071022,3.43880558013916, 2.6034090518951416
51,1222372212,0.6733622,0.29974768,-0.53695935,0.41037747,16.94843864440918,-0.14066725969314575,3.580399990081787,0.9468055367469788,3.461358070373535, 3.4019880294799805
52,1222388879,0.67352134,0.2991986,-0.5367298,0.41081685,17.544633865356445,0.08854139596223831,3.684079647064209,-0.15161438286304474,4.131027698516846, 3.294900894165039
53,1222405546,0.67365223,0.29857326,-0.5366191,0.41120142,17.247121810913086,-0.33108463883399963,3.7386953830718994,-0.7972723245620728,3.5746562480926514, 3.700427532196045
54,1222422213,0.6736456,0.29820555,-0.53640836,0.41175377,16.968299865722656,-0.009175469167530537,3.805655002593994,1.1375174522399902,3.1655948162078857, 3.592520236968994
55,1222438880,0.673899,0.2974243,-0.53629917,0.41204643,17.058223724365234,-0.37111902236938477,3.418030023574829,-2.4794249534606934,4.287265300750732, 3.4111316204071045
56,1222455547,0.67389303,0.29717758,-0.53595823,0.4126772,17.126615524291992,-0.21627694368362427,3.7940943241119385,2.311847448348999,3.5938403606414795, 3.233635663986206
57,1222472214,0.6739557,0.29676738,-0.5357701,0.41311434,17.234045028686523,-0.3262738585472107,3.8393874168395996,0.3413468599319458,3.2033612728118896, 3.0770907402038574
58,1222488881,0.6740654,0.2962607,-0.53563726,0.41347128,17.0118408203125,-0.2381429672241211,3.718334913253784,-0.5068113207817078,3.2243762016296387, 3.0779614448547363
59,1222505548,0.67417103,0.29576164,-0.53550076,0.41383272,16.76293182373047,-0.15461738407611847,3.5406088829040527,-0.26730695366859436,3.207024097442627, 3.1218488216400146
60,1222522215,0.6742327,0.29528603,-0.5353618,0.41425177,17.445119857788086,-0.4790430963039398,3.8240325450897217,0.0365685373544693,3.1139862537384033, 3.3940227031707764
61,1222538882,0.67424357,0.29479778,-0.53532577,0.414628,16.796981811523438,-0.21759876608848572,3.7429251670837402,-0.2991691529750824,2.3925528526306152, 3.6088225841522217
62,1222555549,0.6743451,0.2942304,-0.5352551,0.41495734,16.841594696044922,-0.28915268182754517,3.527338743209839,-0.7219964861869812,3.0026473999023438, 3.4086854457855225
63,1222572216,0.67436504,0.29385135,-0.53513324,0.4153499,17.05198860168457,-0.46000784635543823,3.6706502437591553,0.31561896204948425,2.5508909225463867, 3.035534381866455
64,1222588883,0.6743069,0.29379007,-0.53485143,0.41585043,16.907041549682617,-0.2552355229854584,3.724731206893921,2.767202615737915,2.317443609237671, 2.2546796798706055
65,1222605550,0.6743513,0.2934876,-0.53472453,0.41615507,16.951868057250977,-0.5393760204315186,3.6584858894348145,0.6090636253356934,2.2515676021575928, 2.344836473464966
66,1222622217,0.67434007,0.29324213,-0.5346095,0.41649434,16.768041610717773,-0.2719745934009552,3.563082456588745,0.8574684262275696,1.911546230316162, 2.4162187576293945
67,1222638884,0.6743384,0.2929296,-0.53449225,0.41686708,16.98082160949707,-0.35948219895362854,3.5762879848480225,0.5960139632225037,2.2211782932281494, 2.7723124027252197
68,1222655551,0.6743157,0.29262418,-0.5344122,0.41722086,16.769420623779297,-0.21889296174049377,3.722973585128784,0.672122061252594,1.9051686525344849, 2.842836618423462
69,1222672218,0.674397,0.29200888,-0.53439695,0.41753992,16.83890151977539,-0.3692035377025604,3.4762794971466064,-1.4670957326889038,2.815687894821167, 3.6063778400421143
70,1222688885,0.6743313,0.29153082,-0.5343659,0.4180193,17.0694522857666,-0.3529371917247772,3.7494847774505615,0.1969296634197235,2.274158000946045, 4.263278961181641
71,1222705552,0.6743582,0.29082555,-0.53440726,0.41841438,16.094684600830078,-0.16582775115966797,3.364319086074829,-1.5455857515335083,2.7619521617889404, 4.592184543609619
72,1222722219,0.6744147,0.2901057,-0.53432965,0.41892192,17.0737361907959,-0.422413170337677,3.574092388153076,-0.8902206420898438,3.6888623237609863, 4.856020927429199
73,1222738886,0.67429894,0.2896175,-0.5342653,0.41952777,16.5040340423584,-0.5428006052970886,3.6682772636413574,0.6857864260673523,2.537264585494995, 4.937392234802246
74,1222755553,0.6742321,0.28921136,-0.53403574,0.42020676,16.635730743408203,-0.34065622091293335,3.4783315658569336,1.9031965732574463,3.3793718814849854, 4.556993007659912
75,1222772220,0.674171,0.28878406,-0.53389823,0.42077312,16.585023880004883,-0.6301562190055847,3.677699327468872,1.1513487100601196,2.811244010925293, 4.292682647705078
76,1222788887,0.6741196,0.28854597,-0.53360903,0.42138535,16.204242706298828,-0.4229126274585724,3.4346723556518555,2.366863250732422,3.110822916030884, 3.4089293479919434
77,1222805554,0.674262,0.2879321,-0.53347784,0.42174342,16.986194610595703,-0.8588955998420715,3.5608091354370117,-0.9801084399223328,3.6645822525024414, 3.41213059425354
78,1222822221,0.67423445,0.28766483,-0.5333083,0.42218387,16.25026512145996,-0.4940154254436493,3.6650331020355225,1.4492244720458984,2.3759047985076904, 2.956583261489868
79,1222838888,0.67440325,0.28714842,-0.5331285,0.422493,16.206802368164062,-0.6773314476013184,3.3158657550811768,-0.695141613483429,3.616891622543335, 2.630699872970581
80,1222855555,0.6745022,0.28682622,-0.53288263,0.42286357,16.64954376220703,-0.5247878432273865,3.6463730335235596,0.7280218005180359,3.2321503162384033, 2.2659878730773926
81,1222872222,0.67449445,0.28670502,-0.53260374,0.4233091,16.218198776245117,-0.5795044302940369,3.4938387870788574,2.2619411945343018,2.5574989318847656, 2.1317644119262695
82,1222888889,0.6745464,0.28653508,-0.53227353,0.4237566,16.71201515197754,-0.5080704689025879,3.5441393852233887,2.1217880249023438,3.159601926803589, 2.059664487838745
83,1222905556,0.67455053,0.28630227,-0.53204185,0.4241982,16.021787643432617,-0.36013415455818176,3.469978094100952,1.5059565305709839,2.7119944095611572, 2.5670268535614014
84,1222922223,0.67461175,0.2860672,-0.5316681,0.42472774,16.409887313842773,-0.4844365119934082,3.4278717041015625,2.291536331176758,3.7475028038024902, 2.5930874347686768
85,1222938890,0.67461234,0.28581992,-0.5313963,0.42523336,16.569786071777344,-0.40967613458633423,3.7449963092803955,1.8639838695526123,3.055076837539673, 2.8761978149414062
86,1222955557,0.6746818,0.28526884,-0.53127646,0.42564246,15.846356391906738,-0.6092658638954163,3.2620463371276855,-0.4700186848640442,3.30012583732605, 3.642017364501953
87,1222972224,0.674671,0.2849203,-0.5309919,0.4262477,16.405973434448242,-0.5245332717895508,3.5532588958740234,1.850882649421692,3.5666005611419678, 3.731187582015991
88,1222988891,0.67471445,0.2844643,-0.53081477,0.4267039,16.176963806152344,-0.6106062531471252,3.504768133163452,0.6000479459762573,3.274986982345581, 3.5515143871307373
89,1223005558,0.6746701,0.28432268,-0.53044075,0.4273331,16.211971282958984,-0.49210840463638306,3.583695411682129,3.241767406463623,3.3028924465179443, 3.0201919078826904
90,1223022225,0.6748321,0.28374535,-0.5303479,0.4275761,15.922098159790039,-0.6160080432891846,3.433333396911621,-1.3186954259872437,3.2680716514587402, 2.793775796890259
91,1223038892,0.6748762,0.28343216,-0.5300778,0.42804882,16.180496215820312,-0.647930383682251,3.503361940383911,1.5857913494110107,3.3228704929351807, 2.923248291015625
92,1223055559,0.67497116,0.28302893,-0.5298943,0.4283932,16.165449142456055,-0.692770779132843,3.450385093688965,0.07929052412509918,3.14300537109375, 2.589719772338867
93,1223072226,0.67499197,0.28284088,-0.52960205,0.4288458,15.853866577148438,-0.554328203201294,3.46958589553833,2.052006244659424,2.942829132080078, 2.3488447666168213
94,1223088893,0.67504865,0.2826362,-0.5293059,0.4292572,15.83023452758789,-0.5466777086257935,3.2916531562805176,1.7935996055603027,3.0560495853424072, 2.1134636402130127
95,1223105560,0.67513627,0.28244346,-0.5289635,0.4296678,16.405162811279297,-0.5464847087860107,3.5873501300811768,1.8583868741989136,3.3533101081848145, 1.865417718887329
96,1223122227,0.67508733,0.28232324,-0.5287417,0.43009663,15.606228828430176,-0.6512109041213989,3.5110092163085938,2.1403188705444336,2.1203792095184326, 2.3160600662231445
97,1223138894,0.67519045,0.28201157,-0.52845067,0.43049654,15.810518264770508,-0.44326215982437134,3.2289037704467773,1.1232258081436157,3.4964346885681152, 2.3144850730895996
98,1223155561,0.67528,0.28160876,-0.52823526,0.4308841,16.164186477661133,-0.5883753299713135,3.457669973373413,0.535888135433197,3.3375847339630127, 2.8036112785339355
99,1223172228,0.6751952,0.28141582,-0.52800524,0.43142483,15.646679878234863,-0.5149282813072205,3.5545241832733154,2.324397563934326,2.4620916843414307, 3.2016327381134033
100,1223188895,0.6753219,0.28090036,-0.5278237,0.43178424,15.77896499633789,-0.5481780171394348,3.252448320388794,-0.15849140286445618,3.586668014526367, 3.073312997817993
101,1223205562,0.67534626,0.28058496,-0.52756685,0.43226472,15.925129890441895,-0.5475172400474548,3.4901416301727295,1.5772366523742676,3.215284585952759, 3.0521059036254883
102,1223222229,0.6753652,0.2802424,-0.5273419,0.43273178,15.74258804321289,-0.7275028824806213,3.446197986602783,1.2189404964447021,3.1138453483581543, 3.135948896408081
103,1223238896,0.67545146,0.27979177,-0.5271652,0.43310374,15.581055641174316,-0.4419515132904053,3.368197441101074,0.17158587276935577,3.266688585281372, 3.0026214122772217
104,1223255563,0.675604,0.27926528,-0.52699655,0.43341103,16.081172943115234,-0.6718684434890747,3.4137368202209473,-0.3911699950695038,3.5546650886535645, 2.8589730262756348
105,1223272230,0.6756408,0.27890554,-0.5268177,0.43380216,15.583516120910645,-0.626463770866394,3.5132808685302734,0.8558675646781921,2.8610215187072754, 2.9422779083251953
106,1223288897,0.67572856,0.27853695,-0.5265705,0.43420255,15.683639526367188,-0.6533088088035583,3.289341926574707,0.8888566493988037,3.414832592010498, 2.714606523513794
107,1223305564,0.6758289,0.27812734,-0.52637345,0.4345476,15.84266471862793,-0.6500254273414612,3.450911521911621,0.38287782669067383,3.243176221847534, 2.6860485076904297
108,1223322231,0.6759199,0.27774754,-0.52617186,0.43489325,15.500595092773438,-0.6194080114364624,3.3994016647338867,0.4800395667552948,3.154017925262451, 2.5773866176605225
109,1223338898,0.67606735,0.27721697,-0.52601445,0.43519297,15.587038040161133,-0.6917895674705505,3.3513360023498535,-0.5795769691467285,3.5143251419067383, 2.843618154525757
110,1223355565,0.67618173,0.2767814,-0.5258154,0.43553233,15.928821563720703,-0.5888099074363708,3.59429931640625,0.13992859423160553,3.3895785808563232, 2.6880338191986084
111,1223372232,0.6763053,0.27628788,-0.5256457,0.435859,15.567041397094727,-0.7930575609207153,3.2971794605255127,-0.2880532145500183,3.4393563270568848, 2.8685390949249268
112,1223388899,0.6763979,0.27593857,-0.52541035,0.43621975,15.524923324584961,-0.5698596835136414,3.39080548286438,0.6454207897186279,3.2853217124938965, 2.4332895278930664
113,1223405566,0.67655325,0.2754957,-0.52517754,0.43653893,15.64441204071045,-0.7280949950218201,3.2989907264709473,0.06503704190254211,3.6899380683898926, 2.446211338043213
114,1223422233,0.6766301,0.27525058,-0.52485913,0.43695748,16.150550842285156,-0.6119948625564575,3.587926149368286,1.6859495639801025,3.414077043533325, 2.247072696685791
115,1223438900,0.6767365,0.27482826,-0.5247348,0.43720797,15.389238357543945,-0.6486151218414307,3.4300239086151123,-0.42446649074554443,2.8424015045166016, 2.374316692352295
116,1223455567,0.6769272,0.2744204,-0.5244338,0.43753,15.900456428527832,-0.6528598666191101,3.3161158561706543,0.24980704486370087,4.066598892211914, 2.062469244003296
117,1223472234,0.67704403,0.27419302,-0.5241251,0.43786147,15.87177848815918,-0.42993295192718506,3.615830659866333,1.3861788511276245,3.3073108196258545, 1.7041476964950562
118,1223488901,0.67720556,0.27381128,-0.52385336,0.43817553,15.772640228271484,-0.8385403156280518,3.362954616546631,0.6386206150054932,3.7011311054229736, 2.2078208923339844
119,1223505568,0.6773854,0.27340677,-0.52361006,0.43844092,15.738753318786621,-0.41252654790878296,3.431098222732544,0.2618578374385834,3.6164426803588867, 2.071061849594116
120,1223522235,0.6775677,0.2730209,-0.5233659,0.43869105,15.631431579589844,-0.5418798327445984,3.365610361099243,0.18868237733840942,3.561453104019165, 1.8939504623413086
121,1223538902,0.6777025,0.272776,-0.523005,0.43906567,15.976860046386719,-0.5989149212837219,3.5002808570861816,1.8420977592468262,3.7287421226501465, 1.9336243867874146
122,1223555569,0.6778149,0.27248797,-0.52274066,0.43938556,15.908171653747559,-0.5105040073394775,3.519660234451294,1.0837823152542114,3.24102520942688, 2.041044235229492
123,1223572236,0.67797905,0.272125,-0.52251387,0.43962684,15.80533504486084,-0.5084583163261414,3.380948066711426,0.41741660237312317,3.303276300430298, 1.9271061420440674
124,1223588903,0.67810947,0.27188465,-0.5221845,0.43996552,15.708443641662598,-0.4740299880504608,3.3467655181884766,1.5430177450180054,3.49469256401062, 1.7878624200820923
125,1223605570,0.6782575,0.27163294,-0.5218178,0.44032797,15.911702156066895,-0.5141801238059998,3.4022433757781982,1.6308186054229736,3.8148903846740723, 1.808506727218628
126,1223622237,0.67838436,0.27132204,-0.5215255,0.44067043,15.848033905029297,-0.5282458662986755,3.3990354537963867,1.0537384748458862,3.5411157608032227, 2.115717649459839
127,1223638904,0.6785716,0.27096003,-0.5212066,0.44098192,15.690227508544922,-0.33337244391441345,3.264158010482788,0.6817525029182434,3.9783504009246826, 1.927528738975525
128,1223655571,0.6787079,0.27064833,-0.520882,0.44134703,15.87125301361084,-0.5446420907974243,3.405062675476074,1.3423811197280884,3.7547519207000732, 2.1947977542877197
129,1223672238,0.67881763,0.27037913,-0.5205587,0.44172463,15.810102462768555,-0.553619384765625,3.418438196182251,1.6500147581100464,3.5474162101745605, 2.1935291290283203
130,1223688905,0.6789676,0.27002499,-0.52028394,0.4420342,15.951956748962402,-0.4402902126312256,3.3611326217651367,0.7489858269691467,3.6041738986968994, 2.1347479820251465
131,1223705572,0.6790669,0.2697378,-0.5200469,0.442336,15.685482025146484,-0.2970936596393585,3.4804275035858154,0.9736733436584473,3.039273738861084, 2.071215867996216
132,1223722239,0.6792906,0.26923156,-0.5198293,0.4425568,15.64284896850586,-0.49297139048576355,3.2138307094573975,-0.4739118218421936,3.88700270652771, 2.20508074760437
133,1223738906,0.6793892,0.26898295,-0.51950765,0.44293392,15.718456268310547,-0.3659187853336334,3.404858350753784,1.608599066734314,3.473421335220337, 2.1112101078033447
134,1223755573,0.6795128,0.26872304,-0.51919764,0.44326547,16.38349723815918,-0.4519684314727783,3.5953359603881836,1.4253145456314087,3.4444661140441895, 1.9376070499420166
135,1223772240,0.6796112,0.26839703,-0.5190431,0.44349343,15.319354057312012,-0.2715155780315399,3.2892630100250244,0.25325196981430054,2.654020071029663, 2.031080484390259
136,1223788907,0.67975765,0.26814792,-0.5186512,0.4438773,15.935654640197754,-0.40055006742477417,3.2201740741729736,1.842302680015564,3.9856374263763428, 1.9244681596755981
137,1223805574,0.6798386,0.2679208,-0.5183941,0.444191,15.634502410888672,-0.26206475496292114,3.5485293865203857,1.4290415048599243,2.9313931465148926, 1.9824423789978027
138,1223822241,0.6800293,0.2675514,-0.51812845,0.44443133,15.729083061218262,-0.3064458668231964,3.227198362350464,0.30844733119010925,3.6664514541625977, 1.7965835332870483
139,1223838908,0.6800947,0.2673044,-0.517874,0.44477662,15.711745262145996,-0.31470972299575806,3.4586668014526367,1.3319567441940308,3.016119956970215, 2.209691047668457
140,1223855575,0.6802479,0.26695573,-0.51760983,0.44505927,15.674695014953613,-0.281417578458786,3.2841081619262695,0.6352909207344055,3.5519113540649414, 2.0584475994110107
141,1223872242,0.68034923,0.26672634,-0.5172916,0.44541147,15.980496406555176,-0.20172825455665588,3.506686210632324,1.6850275993347168,3.394022226333618, 2.019324541091919
142,1223888909,0.6804631,0.26636094,-0.517126,0.44564846,15.864251136779785,-0.3906281590461731,3.3761448860168457,0.061604950577020645,2.9518063068389893, 2.1765735149383545
143,1223905576,0.6805849,0.2659861,-0.51690453,0.44594327,15.736577033996582,-0.1386282742023468,3.3431286811828613,0.4063838720321655,3.3807482719421387, 2.3709418773651123
144,1223922243,0.68072134,0.26553798,-0.51671606,0.44622037,15.604970932006836,-0.2507401406764984,3.2122740745544434,-0.021860439330339432,3.4597699642181396, 2.6238865852355957
145,1223938910,0.6808415,0.26520464,-0.516431,0.44656512,15.635641098022461,-0.16608989238739014,3.320706367492676,0.9102689027786255,3.6670405864715576, 2.335513114929199
146,1223955577,0.6809163,0.26490566,-0.51611555,0.4469932,15.852778434753418,-0.4587312936782837,3.3688151836395264,1.5851762294769287,3.6953296661376953, 2.7172961235046387
147,1223972244,0.68098927,0.26454252,-0.51590747,0.447337,15.668684005737305,-0.18880212306976318,3.3590056896209717,0.6374552845954895,3.243983030319214, 2.745738983154297
148,1223988911,0.68108886,0.26411593,-0.5157532,0.4476155,15.537367820739746,-0.2937261164188385,3.302767515182495,-0.06432628631591797,3.1638402938842773, 2.710559844970703
149,1224005578,0.6812094,0.263641,-0.5155777,0.44791418,15.678292274475098,-0.34226518869400024,3.1904611587524414,-0.2183866947889328,3.5374021530151367, 2.8692054748535156
150,1224022245,0.68132097,0.26312461,-0.51544833,0.44819695,15.801840782165527,-0.2925010919570923,3.3353798389434814,-0.6245657205581665,3.40462589263916, 3.043410062789917
151,1224038912,0.6814148,0.26263568,-0.515337,0.44846874,15.461979866027832,-0.26709142327308655,3.269024610519409,-0.3965614438056946,3.123680353164673, 3.064373731613159
152,1224055579,0.681598,0.26209906,-0.51512957,0.44874254,15.710182189941406,-0.3495689630508423,3.102043390274048,-0.5355871915817261,4.05221700668335, 2.76790714263916
153,1224072246,0.6816299,0.26186544,-0.51482105,0.44918424,15.760149002075195,-0.3534448742866516,3.343039035797119,2.1203792095184326,3.3494558334350586, 2.79355788230896
154,1224088913,0.6816156,0.26167485,-0.5145335,0.4496462,15.565645217895508,-0.3689444363117218,3.29584002494812,2.171041488647461,3.0394275188446045, 2.796081066131592
155,1224105580,0.68170595,0.26126593,-0.51431984,0.44999164,15.709329605102539,-0.24181365966796875,3.1815268993377686,0.5511277318000793,3.4788386821746826, 2.947464942932129
156,1224122247,0.6818133,0.2607664,-0.51416945,0.45029053,15.540543556213379,-0.2904747724533081,3.2064292430877686,-0.49109795689582825,3.488917350769043, 2.998459815979004
157,1224138914,0.68183935,0.26043904,-0.51389885,0.45074922,15.627127647399902,-0.3688610792160034,3.248800039291382,1.364241123199463,3.5269389152526855, 3.1585001945495605
158,1224155581,0.68191373,0.25991955,-0.5137827,0.45106858,15.782227516174316,-0.4637964963912964,3.201245069503784,-0.3469368517398834,3.2673163414001465, 3.4398562908172607
159,1224172248,0.6819254,0.25953507,-0.5136025,0.4514775,15.47212028503418,-0.2249225676059723,3.1856191158294678,0.8224302530288696,3.111232280731201, 3.41565203666687
160,1224188915,0.6820066,0.25909367,-0.5133967,0.4518425,15.829323768615723,-0.5327706336975098,3.141132116317749,0.45003437995910645,3.55676531791687, 3.2047698497772217
161,1224205582,0.68200034,0.25876462,-0.51321524,0.4522465,15.60879898071289,-0.44724950194358826,3.3340017795562744,1.121701717376709,2.8779006004333496, 3.2676618099212646
162,1224222249,0.682136,0.25834942,-0.5129835,0.45254216,15.526597023010254,-0.1567835956811905,3.032475709915161,0.2701691687107086,3.6852128505706787, 2.5523886680603027
163,1224238916,0.6822583,0.25790718,-0.51279104,0.45282778,15.8091459274292,-0.412955641746521,3.236765146255493,-0.028442906215786934,3.537094831466675, 2.70076322555542
164,1224255583,0.6822976,0.25751668,-0.5126062,0.45320007,15.249019622802734,-0.38428759574890137,3.0546295642852783,0.6634650230407715,3.2023749351501465, 3.212825298309326
165,1224272250,0.68233913,0.25719324,-0.5123221,0.45364198,16.04881477355957,-0.40337836742401123,3.2381961345672607,1.4022248983383179,3.6291847229003906, 3.054269552230835
166,1224288917,0.68232226,0.2567847,-0.51226723,0.45396072,15.058330535888672,-0.37745290994644165,3.0831985473632812,-0.021873245015740395,2.400479793548584, 3.3814589977264404
167,1224305584,0.6823675,0.25641176,-0.5120058,0.4543983,15.492727279663086,-0.3597991168498993,3.0100159645080566,1.0838334560394287,3.6972765922546387, 3.251270055770874
168,1224322251,0.68245304,0.25597078,-0.5118447,0.45469996,15.861140251159668,-0.39194634556770325,3.2843291759490967,0.07330994307994843,3.308347225189209, 3.0108556747436523
169,1224338918,0.6824839,0.25560415,-0.5117328,0.4549857,15.191296577453613,-0.3917689919471741,3.116940975189209,0.08411851525306702,2.692580461502075, 2.8092846870422363
170,1224355585,0.68260765,0.25513178,-0.5115787,0.45523864,15.685029983520508,-0.42244815826416016,3.011366844177246,-0.3493572175502777,3.44307017326355, 2.7923924922943115
171,1224372252,0.6826435,0.25478932,-0.5114128,0.45556277,15.47110652923584,-0.4658263623714447,3.106322765350342,0.7207605242729187,2.915550708770752, 2.9433536529541016
172,1224388919,0.68267584,0.25454322,-0.51115763,0.45593822,15.52197551727295,-0.31867551803588867,3.116231918334961,1.4888726472854614,3.163098096847534, 2.6169583797454834
173,1224405586,0.6826916,0.25424117,-0.5109647,0.456299,15.467103958129883,-0.41645145416259766,3.040487051010132,1.0954232215881348,2.9492576122283936, 2.9690945148468018
174,1224422253,0.6827511,0.25385976,-0.5107897,0.4566179,15.403547286987305,-0.27949202060699463,3.0288333892822266,0.3661271333694458,3.230369806289673, 2.906266689300537
175,1224438920,0.6828163,0.25341734,-0.51063555,0.45693895,15.4371337890625,-0.32441648840904236,3.0518157482147217,-0.009681601077318192,3.3667194843292236, 3.1480636596679688
176,1224455587,0.6828374,0.2530397,-0.51049644,0.45727178,15.388084411621094,-0.4049564301967621,3.1060004234313965,0.2883285582065582,2.9949123859405518, 3.103407859802246
177,1224472254,0.6829113,0.2525811,-0.51035994,0.4575674,15.655390739440918,-0.5401104688644409,2.995659351348877,-0.2191038578748703,3.339083194732666, 3.126331090927124
178,1224488921,0.6828825,0.25226483,-0.51022196,0.45793852,15.280444145202637,-0.40841397643089294,3.039639711380005,0.9482783079147339,2.6710779666900635, 3.342181921005249
179,1224505588,0.68292856,0.2518954,-0.5100348,0.45828182,15.323162078857422,-0.457823246717453,2.9020442962646484,0.6310137510299683,3.295848846435547, 3.0905120372772217
180,1224522255,0.6829772,0.25154498,-0.50984806,0.45860925,15.70429515838623,-0.3192797601222992,3.113877773284912,0.5737820863723755,3.256584405899048, 2.893242597579956
181,1224538922,0.6830526,0.2510844,-0.50977075,0.45883518,15.151053428649902,-0.5153490900993347,2.919407606124878,-0.6316987872123718,2.9954371452331543, 2.9555835723876953
182,1224555589,0.6831403,0.25074324,-0.50952095,0.4591686,15.514164924621582,-0.35652685165405273,2.8986618518829346,0.8574044108390808,3.6518523693084717, 2.724058151245117
183,1224572256,0.6831704,0.2504028,-0.50934917,0.4594998,15.46740436553955,-0.46126747131347656,3.0567047595977783,0.7241671085357666,3.0750033855438232, 3.0435125827789307
184,1224588923,0.68322796,0.24999133,-0.509207,0.4597958,15.447964668273926,-0.5110894441604614,2.884554862976074,0.0806351825594902,3.2102506160736084, 3.060762405395508
185,1224605590,0.683257,0.24974477,-0.50895816,0.46016222,15.709282875061035,-0.5215078592300415,3.0541064739227295,1.6048088073730469,3.1739583015441895, 2.800525188446045
186,1224622257,0.68329585,0.24941534,-0.50878906,0.46047002,15.056509971618652,-0.38346338272094727,2.7665367126464844,0.6595333218574524,3.023867130279541, 2.865081310272217
187,1224638924,0.68338114,0.24908759,-0.50851524,0.46082327,15.826473236083984,-0.5948189496994019,3.019179344177246,1.0610382556915283,3.7589778900146484, 2.7359936237335205
188,1224655591,0.68341887,0.24874654,-0.5083553,0.46112755,15.343327522277832,-0.4506326913833618,2.9747135639190674,0.6265954971313477,2.9921715259552, 2.954136848449707
189,1224672258,0.68352234,0.24836497,-0.50814086,0.4614165,15.618780136108398,-0.4359946846961975,2.8626770973205566,0.32190680503845215,3.6251511573791504, 2.638153076171875
190,1224688925,0.6835409,0.24814491,-0.5079147,0.4617563,15.694488525390625,-0.5119739174842834,3.0939865112304688,1.4350475072860718,2.9668021202087402, 2.5628767013549805
191,1224705592,0.68360037,0.24783967,-0.50770634,0.46206114,15.305574417114258,-0.5057917237281799,2.7957327365875244,0.7680543661117554,3.2479653358459473, 2.586351156234741
192,1224722259,0.6836539,0.24766417,-0.5074062,0.46240577,15.98527717590332,-0.4387523829936981,3.0801444053649902,1.9472376108169556,3.2731430530548096, 2.283583641052246
193,1224738926,0.68368036,0.24738213,-0.5072442,0.46269506,15.529464721679688,-0.5445287227630615,2.9792487621307373,0.6871823668479919,2.847395896911621, 2.5938045978546143
194,1224755593,0.6837325,0.24714336,-0.5069913,0.46302256,15.594942092895508,-0.3466538190841675,2.9075417518615723,1.3654643297195435,3.2629172801971436, 2.4636216163635254
195,1224772260,0.6837796,0.24686804,-0.5068131,0.4632951,15.524765968322754,-0.46146130561828613,2.8435919284820557,0.8428308367729187,2.8995823860168457, 2.54032564163208
196,1224788927,0.6838211,0.24663703,-0.5065697,0.4636229,15.558618545532227,-0.40496504306793213,2.918203115463257,1.4531043767929077,3.1534676551818848, 2.555014133453369
197,1224805594,0.683877,0.24630877,-0.5064035,0.4638965,15.869755744934082,-0.5695225596427917,2.890590190887451,0.4769020676612854,3.0935466289520264, 2.686586380004883
198,1224822261,0.6838298,0.24619797,-0.5061972,0.46424982,15.430126190185547,-0.3747381269931793,2.9265453815460205,2.0666186809539795,2.385227918624878, 2.561392068862915
199,1224838928,0.68390435,0.24588154,-0.50601286,0.4645087,15.298937797546387,-0.4039042294025421,2.6650564670562744,0.43420568108558655,3.238783359527588, 2.44323992729187
200,1224855595,0.683987,0.24567303,-0.50573206,0.46480307,15.840478897094727,-0.3788030445575714,2.943829298019409,1.4328832626342773,3.421440839767456, 2.1158201694488525
201,1224872262,0.68399465,0.24552806,-0.5055302,0.46508786,15.311434745788574,-0.4215864837169647,2.9326839447021484,1.4992457628250122,2.6163432598114014, 2.175459384918213
202,1224888929,0.68401927,0.24538448,-0.505295,0.46538287,15.314840316772461,-0.45278215408325195,2.721276044845581,1.5932573080062866,2.868577718734741, 2.096137046813965
203,1224905596,0.6840517,0.24514598,-0.5052153,0.46554744,15.462661743164062,-0.398299902677536,2.8333239555358887,0.2872016429901123,2.218950033187866, 2.148963451385498
204,1224922263,0.68397975,0.24509132,-0.50514424,0.46575895,15.320350646972656,-0.4750496745109558,2.892848491668701,1.3921334743499756,1.3548541069030762, 2.0308115482330322
205,1224938930,0.6839414,0.24520254,-0.5049652,0.46595064,15.357816696166992,-0.4045114517211914,2.819331169128418,2.4845921993255615,1.3873440027236938, 1.1626821756362915
206,1224955597,0.6838467,0.2458748,-0.5043169,0.46643755,14.967534065246582,-0.44308510422706604,2.665506362915039,7.711517810821533,2.1315085887908936, -0.02507483772933483
207,1224972264,0.68379086,0.24610071,-0.5040719,0.46666482,15.436283111572266,-0.6269243359565735,2.9822380542755127,3.3289787769317627,1.3930939435958862, 0.8463909029960632
208,1224988931,0.68361366,0.24655423,-0.5036927,0.46709436,14.930893898010254,-0.3570050597190857,2.7168493270874023,5.839465618133545,1.1826409101486206, 1.2717089653015137
209,1225005598,0.6835735,0.2465954,-0.50355643,0.46727812,14.994023323059082,-0.38942983746528625,2.655068874359131,2.0323486328125,1.4429364204406738, 1.5249738693237305
210,1225022265,0.683484,0.24669383,-0.5034274,0.4674961,15.078161239624023,-0.36631691455841064,2.719902753829956,2.43339204788208,1.1511564254760742, 1.6253243684768677
211,1225038932,0.6833701,0.2467452,-0.5033848,0.46768147,14.794189453125,-0.43479686975479126,2.6257119178771973,1.8411496877670288,0.775981605052948, 1.847553014755249
212,1225055599,0.6832854,0.24679059,-0.5033607,0.46780726,14.757430076599121,-0.2567029595375061,2.6398885250091553,1.3253355026245117,0.7989048957824707, 1.3633575439453125
213,1225072266,0.6832647,0.24679746,-0.50338966,0.46780273,14.596776008605957,-0.31678852438926697,2.547644853591919,0.525348424911499,0.6181176900863647, 0.8805069923400879
214,1225088933,0.68318504,0.24713585,-0.5033031,0.4678334,14.613110542297363,-0.20072245597839355,2.5606541633605957,2.7723376750946045,-0.09881378710269928, -0.01385646965354681
215,1225105600,0.68313015,0.24759792,-0.5032398,0.46773767,14.388242721557617,-0.28544777631759644,2.39664888381958,2.8111026287078857,-0.7431780695915222, -1.0588802099227905
216,1225122267,0.6830365,0.24840236,-0.5029979,0.46770793,14.73032283782959,-0.31134703755378723,2.5289106369018555,5.147339344024658,-0.9536633491516113, -2.2515227794647217
217,1225138934,0.6829078,0.24945676,-0.5025626,0.4678026,14.177786827087402,-0.24867644906044006,2.5112111568450928,7.355769634246826,-0.7162848711013794, -2.8265793323516846
218,1225155601,0.6828445,0.25001776,-0.50254697,0.46761224,14.363916397094727,-0.40121206641197205,2.8348050117492676,2.935887575149536,-1.5460083484649658, -1.6056475639343262
219,1225172268,0.6826008,0.25030842,-0.5025763,0.46778086,14.353765487670898,-0.3648309111595154,2.5493407249450684,3.021638870239258,-0.8750194311141968, 1.6174226999282837
220,1225188935,0.6824445,0.2502453,-0.5028964,0.4676986,14.006296157836914,-0.09680783748626709,2.2549543380737305,-0.6798635125160217,-1.1841135025024414, 1.7903598546981812
221,1225205602,0.68234766,0.25012752,-0.50327325,0.46749747,14.13174057006836,-0.08574070781469345,2.386212110519409,-1.5907663106918335,-1.2921991348266602, 1.376701831817627
222,1225222269,0.68222433,0.2500498,-0.503679,0.46728218,13.935166358947754,-0.1089668869972229,2.381030559539795,-1.4565685987472534,-1.6937165260314941, 1.3596309423446655
223,1225238936,0.68205565,0.25017163,-0.5039021,0.46722266,13.921858787536621,-0.2946200370788574,2.3932013511657715,0.4032271206378937,-1.2120953798294067, 0.9457168579101562
224,1225255603,0.68180335,0.25057948,-0.50389826,0.4673764,13.929073333740234,-0.10225795209407806,2.270548105239868,3.534111261367798,-1.0836735963821411, 1.0204678773880005
225,1225272270,0.6816282,0.25082093,-0.50397813,0.46741644,13.55689525604248,0.013693824410438538,2.273970603942871,2.035242795944214,-0.9053705930709839, 1.0498325824737549
226,1225288937,0.681465,0.25098,-0.5040604,0.46748012,13.8666410446167,-0.16649456322193146,2.375684976577759,1.6191517114639282,-0.519335925579071, 1.3340567350387573
227,1225305604,0.6812546,0.25113758,-0.5040926,0.46766737,13.681110382080078,-0.17049627006053925,2.378089666366577,2.315087080001831,-0.24294927716255188, 2.0245110988616943
228,1225322271,0.6810462,0.25093448,-0.5042604,0.46789905,13.426965713500977,-0.3550439178943634,2.356440782546997,0.4517632722854614,0.30743566155433655, 3.838082790374756
229,1225338938,0.6808106,0.25059396,-0.5046411,0.46801397,13.104020118713379,0.031957242637872696,1.9297245740890503,-1.3143284320831299,-0.49271148443222046, 4.137392044067383
230,1225355605,0.68052095,0.25056878,-0.5048861,0.46818462,13.440224647521973,-0.15467220544815063,2.2197625637054443,0.6565239429473877,-0.8173909187316895, 3.0051958560943604
231,1225372272,0.68024796,0.25059336,-0.5051716,0.46826002,12.965328216552734,-0.13216373324394226,2.185760736465454,0.62929767370224,-1.3985559940338135, 2.6648671627044678
232,1225388939,0.68002844,0.2504754,-0.5056214,0.46815673,12.740049362182617,-0.23842689394950867,2.0743613243103027,-1.2702745199203491,-1.8287593126296997, 2.45375394821167
233,1225405606,0.6796641,0.25053123,-0.5059631,0.46828663,13.263121604919434,-0.2818388044834137,2.4210433959960938,0.8974114060401917,-1.9446829557418823, 3.1656341552734375
234,1225422273,0.67935544,0.24988994,-0.5069031,0.4680604,12.449597358703613,-0.2756469249725342,1.9989936351776123,-5.6809234619140625,-2.8732714653015137, 4.717597007751465
235,1225438940,0.6788726,0.24983428,-0.50760984,0.46802485,12.805548667907715,-0.26526468992233276,1.995360255241394,-1.351275086402893,-3.8638298511505127, 3.5953893661499023
236,1225455607,0.67837745,0.25020716,-0.5082252,0.46787557,12.565756797790527,-0.08111201226711273,2.0430617332458496,0.7219772338867188,-5.137012004852295, 1.6341480016708374
237,1225472274,0.67757297,0.25121123,-0.5088096,0.46786824,12.054227828979492,-0.583595871925354,2.140390157699585,4.880571365356445,-7.903990745544434, 1.14378023147583
238,1225488941,0.6764192,0.25341344,-0.50892687,0.4682226,12.256257057189941,-0.23661834001541138,1.561110496520996,13.761762619018555,-10.125247955322266, -1.1374739408493042
239,1225505608,0.6752416,0.255761,-0.509102,0.4684555,12.13818073272705,0.0470951646566391,1.591355562210083,13.708847999572754,-11.033783912658691, -2.2106215953826904
240,1225522275,0.674303,0.25755438,-0.5096007,0.46828228,11.883821487426758,-0.1168987974524498,1.5080922842025757,8.24494457244873,-10.608914375305176, -2.35361647605896
241,1225538942,0.67330784,0.25960106,-0.5099425,0.4682121,12.009180068969727,-0.21023575961589813,1.6707266569137573,10.553601264953613,-10.806736946105957, -2.6692299842834473
242,1225555609,0.6723412,0.26155522,-0.51057225,0.46782708,11.465531349182129,-0.09665548801422119,1.4787136316299438,8.16562271118164,-12.378153800964355, -3.246732473373413
243,1225572276,0.6712486,0.26373354,-0.511081,0.46761754,11.546255111694336,-0.20068567991256714,1.3728201389312744,10.448141098022461,-12.674586296081543, -3.026463747024536
244,1225588943,0.6700384,0.2660955,-0.5115568,0.46749473,11.621737480163574,0.061903536319732666,1.541488528251648,11.983600616455078,-13.406547546386719, -2.893495559692383
245,1225605610,0.66892457,0.26793584,-0.51236486,0.46715382,11.12712287902832,-0.12646986544132233,1.4929943084716797,7.621008396148682,-13.356919288635254, -1.7132350206375122
246,1225622277,0.66758245,0.2703234,-0.51283985,0.46717697,11.445418357849121,0.08710012584924698,1.4432058334350586,12.960959434509277,-13.753129005432129, -1.805787444114685
247,1225638944,0.6661852,0.27284357,-0.51335984,0.46713534,11.240106582641602,0.009612326510250568,1.3235137462615967,13.282411575317383,-14.693449974060059, -2.3357789516448975
248,1225655611,0.66467875,0.27553388,-0.5137505,0.46727255,10.839764595031738,-0.01215722132474184,1.1939352750778198,15.374231338500977,-14.734046936035156, -1.9543030261993408
249,1225672278,0.6630938,0.27817845,-0.5140783,0.46759692,11.295746803283691,-0.16662442684173584,1.1141308546066284,16.237253189086914,-14.25691032409668, -0.7557167410850525
250,1225688945,0.66140413,0.28084186,-0.51444966,0.46798933,10.570892333984375,0.1591949313879013,1.2503423690795898,16.58095359802246,-14.724407196044922, -0.15521322190761566
251,1225705612,0.6598222,0.28325385,-0.5148168,0.46836486,10.681035995483398,0.16978979110717773,1.0396226644515991,14.7280855178833,-13.297107696533203, -0.18199127912521362
252,1225722279,0.65839916,0.2854736,-0.51530993,0.46847758,10.708510398864746,0.1737547665834427,1.2419215440750122,12.81109619140625,-13.53192138671875, -0.34333860874176025
253,1225738946,0.6567945,0.28814468,-0.51563954,0.46873182,10.17536449432373,-0.3444059193134308,0.6727850437164307,16.09255599975586,-14.532556533813477, -1.194091558456421
254,1225755613,0.65407467,0.29173952,-0.51573277,0.47020656,10.402592658996582,-2.089456558227539,0.30243349075317383,27.1138916015625,-17.724681854248047, 3.687467575073242
255,1225772280,0.64960736,0.2983814,-0.5140557,0.4740524,9.782740592956543,0.09825295209884644,1.1513619422912598,59.17039489746094,-21.399938583374023, 6.272195816040039
256,1225788947,0.646626,0.30319312,-0.5132626,0.47593114,10.179280281066895,2.4518883228302,1.8195252418518066,37.39409255981445,-17.80097007751465, 0.20805959403514862
257,1225805614,0.6453869,0.30553082,-0.51390046,0.47542948,9.784523963928223,1.0363224744796753,1.4538390636444092,9.653496742248535,-14.901103019714355, -4.308535575866699
258,1225822281,0.64399606,0.30782494,-0.5144172,0.4752768,9.537233352661133,-1.1790772676467896,0.4829946756362915,11.399322509765625,-14.041319847106934, -2.342975378036499
259,1225838948,0.64151,0.31186295,-0.5139599,0.4764995,9.743949890136719,-0.8450756669044495,0.11852489411830902,29.497087478637695,-16.382022857666016, -0.9413985013961792
260,1225855615,0.6389487,0.3162777,-0.5133288,0.47771004,9.54040241241455,0.32669663429260254,0.5267074704170227,31.855358123779297,-17.1225643157959, -2.480140209197998
261,1225872282,0.6365474,0.32041296,-0.5126145,0.47892556,9.405098915100098,-0.20750053226947784,0.12520495057106018,30.569124221801758,-15.25683307647705, -2.1756672859191895
262,1225888949,0.63381344,0.32496798,-0.51143706,0.48073766,9.38169002532959,0.038548532873392105,0.1488872468471527,36.76935577392578,-14.454618453979492, -0.9812408089637756
263,1225905616,0.63119173,0.3292816,-0.5103991,0.48235205,9.154659271240234,0.24364885687828064,0.06882141530513763,34.31231689453125,-14.297001838684082, -1.0591927766799927
264,1225922283,0.62876177,0.33329335,-0.50950146,0.4837176,9.154866218566895,-0.2978859543800354,-0.007272101007401943,31.229413986206055,-13.781070709228516, -1.398049235343933
265,1225938950,0.6258644,0.3376778,-0.5083412,0.48565114,8.817071914672852,-0.830514132976532,-0.09381870925426483,36.7781982421875,-14.205316543579102, 0.6900418996810913
266,1225955617,0.6223225,0.34299105,-0.50630563,0.48859653,9.0354642868042,-0.23923859000205994,-0.3490753471851349,48.738372802734375,-13.426804542541504, 1.8861488103866577
267,1225972284,0.6191905,0.34774038,-0.5045356,0.49104372,8.565812110900879,0.5494435429573059,0.2242112010717392,42.73531723022461,-12.392701148986816, 0.9528311491012573
268,1225988951,0.6166028,0.35167903,-0.5030106,0.4930553,8.398258209228516,0.5060756802558899,0.2713550627231598,35.64134979248047,-9.847796440124512, 0.666784942150116
269,1226005618,0.6142195,0.35504675,-0.50168025,0.4949681,8.395121574401855,0.38785475492477417,0.03388240188360214,31.721830368041992,-8.267605781555176, 2.007537841796875
270,1226022285,0.6117266,0.3583089,-0.5002863,0.49711096,8.167261123657227,0.49638327956199646,-0.057600077241659164,32.55231475830078,-7.44708776473999, 3.565525770187378
271,1226038952,0.6092274,0.36123753,-0.49899077,0.49935713,8.12197494506836,0.2384496033191681,-0.3274858891963959,31.18181610107422,-6.477680683135986, 5.418367385864258
272,1226055619,0.60647446,0.36421677,-0.49753094,0.501994,7.982595443725586,0.288556843996048,-0.15340150892734528,33.93030548095703,-5.845099449157715, 7.343735694885254
273,1226072286,0.6036263,0.3670713,-0.4959878,0.5048665,7.803981781005859,0.15653814375400543,-0.23620210587978363,34.7425651550293,-4.790134429931641, 8.871927261352539
274,1226088953,0.60064733,0.369897,-0.4943111,0.5079919,7.408501148223877,-0.03455936536192894,0.03256084397435188,36.281646728515625,-3.929058313369751, 10.134028434753418
275,1226105620,0.5976225,0.37262625,-0.4925946,0.51122165,7.5756449699401855,0.20847176015377045,0.2976815700531006,36.49553680419922,-3.314018487930298, 10.94180679321289
276,1226122287,0.5947915,0.37482318,-0.4913292,0.5141268,7.275773525238037,0.3567870855331421,0.2816278338432312,31.128942489624023,-3.473236083984375, 11.885727882385254
277,1226138954,0.5920303,0.37670144,-0.490372,0.5168476,6.887394905090332,0.12946976721286774,0.551125705242157,27.933490753173828,-3.848039388656616, 12.76043701171875
278,1226155621,0.5892264,0.3784862,-0.48951334,0.5195546,7.057860851287842,0.10578429698944092,0.7487000823020935,27.26775550842285,-4.108315944671631, 13.42485523223877
279,1226172288,0.586675,0.379864,-0.4890155,0.5219002,6.622235298156738,0.4977608919143677,1.0430079698562622,22.4582462310791,-4.222736835479736, 13.367918968200684
280,1226188955,0.58395344,0.3816581,-0.48819447,0.524406,6.4229044914245605,0.38088932633399963,0.6642072796821594,26.277555465698242,-4.5921406745910645, 12.393019676208496
281,1226205622,0.5808069,0.38466823,-0.4861256,0.5276134,6.566718101501465,0.1206708550453186,1.1174958944320679,39.127342224121094,-3.5642318725585938, 9.392088890075684
282,1226222289,0.5771354,0.38745588,-0.48451826,0.53106976,6.716641426086426,-1.2953133583068848,0.23110410571098328,38.78447723388672,-5.7207465171813965, 14.252920150756836
283,1226238956,0.57268065,0.38987198,-0.48370358,0.5348531,6.168076038360596,-1.0874561071395874,0.050835125148296356,37.60468292236328,-9.240395545959473, 21.71500587463379
284,1226255623,0.5673386,0.392033,-0.48347673,0.53915435,5.937421798706055,-2.4202630519866943,1.3554776906967163,38.55218505859375,-12.171479225158691, 29.40483283996582
285,1226272290,0.56068087,0.39488238,-0.48315132,0.54430676,5.857917785644531,-1.4114360809326172,0.26823723316192627,47.99848937988281,-16.45305061340332, 34.97124481201172
286,1226288957,0.55318534,0.39843827,-0.48261073,0.54983634,5.6538567543029785,-1.1778937578201294,0.025296535342931747,55.06991195678711,-20.026371002197266, 36.58679962158203
287,1226305624,0.54513806,0.40286168,-0.48181897,0.5553176,5.67789888381958,-0.45443615317344666,-0.2179519385099411,60.683021545410156,-24.308534622192383, 34.88825225830078
288,1226322291,0.53682107,0.408466,-0.48071578,0.56025976,5.536938667297363,0.5269688367843628,-1.505664587020874,65.2669906616211,-30.023534774780273, 29.113107681274414
289,1226338958,0.53089464,0.41219217,-0.48197278,0.56209505,6.076051712036133,1.4563266038894653,-0.24843350052833557,32.26332092285156,-32.26881790161133, 21.29929542541504
290,1226355625,0.52580607,0.41496834,-0.4842642,0.56286544,5.787600040435791,0.7689957618713379,-0.6687941551208496,18.88758659362793,-32.60029983520508, 20.317424774169922
291,1226372292,0.5211643,0.41731095,-0.48678282,0.5632778,6.21989107131958,-0.03896777331829071,-1.2330137491226196,13.973400115966797,-31.252573013305664, 19.427167892456055
292,1226388959,0.5180191,0.41863382,-0.4885484,0.5636688,7.440418720245361,0.3504977524280548,-1.7610372304916382,8.87646198272705,-19.611948013305664, 14.824358940124512
293,1226405626,0.5186824,0.41651717,-0.4900183,0.56335086,7.521082401275635,-0.07521064579486847,-2.015639543533325,-15.5674409866333,5.591840744018555, 8.282278060913086
294,1226422293,0.522564,0.41120327,-0.48989108,0.56377804,7.6896796226501465,-2.367540121078491,-1.2238155603408813,-27.48486328125,36.722991943359375, 4.705183982849121
295,1226438960,0.52841467,0.40463537,-0.4884242,0.5643494,7.602508544921875,-3.5546507835388184,-0.4066578447818756,-31.86545181274414,53.48740768432617, -2.015913486480713
296,1226455627,0.5367688,0.39829788,-0.486979,0.5622184,9.05000114440918,-3.5857131481170654,2.1001503467559814,-47.137821197509766,53.429351806640625, -22.33991241455078
297,1226472294,0.54675055,0.39247438,-0.48243505,0.5606107,11.71832275390625,-6.719822406768799,5.822229385375977,-35.96516799926758,69.7151870727539, -36.9798583984375
298,1226488961,0.55451787,0.3866815,-0.47671333,0.56190014,9.71671199798584,-4.584933280944824,7.255074501037598,-15.704115867614746,74.34846496582031, -21.01106834411621
299,1226505628,0.56204164,0.37850073,-0.4812655,0.55608445,3.9804041385650635,-1.4870983362197876,6.470978260040283,-87.1338119506836,24.51511573791504, -12.125433921813965
300,1226522295,0.5684074,0.3699984,-0.4935207,0.5444737,-0.4564545154571533,-1.8136131763458252,1.8440301418304443,-134.0126190185547,-23.147764205932617, -8.99614143371582
301,1226538962,0.570048,0.36433718,-0.50762475,0.5334989,-2.5105366706848145,-4.403463363647461,-4.064554214477539,-115.64935302734375,-55.50077438354492, 6.1971540451049805
302,1226555629,0.5688389,0.35666838,-0.5273485,0.520686,-0.42723220586776733,-3.6101701259613037,-8.435848236083984,-143.371826171875,-84.58271026611328, 30.390592575073242
303,1226572296,0.56139636,0.3488047,-0.5525879,0.50775594,0.982478141784668,-9.366106986999512,-7.977293491363525,-148.97006225585938,-128.03639221191406, 66.40238952636719
304,1226588963,0.54386836,0.347521,-0.57474583,0.5030942,-0.6160047054290771,-9.221549987792969,-3.4948718547821045,-57.109188079833984,-157.29779052734375, 100.83993530273438
305,1226605630,0.5229324,0.35056412,-0.59060484,0.5048093,-3.205463409423828,1.1834948062896729,6.826125144958496,14.25160026550293,-146.8408203125, 103.99060821533203
306,1226622297,0.5111216,0.34426695,-0.6083149,0.5001882,-5.314752101898193,5.821372985839844,8.476218223571777,-73.91045379638672,-99.41520690917969, 91.96226501464844
307,1226638964,0.5066836,0.33401126,-0.6236437,0.49272406,-4.886349201202393,6.475293159484863,5.078604221343994,-110.23567962646484,-52.96631622314453, 67.80929565429688
308,1226655631,0.5059809,0.32607156,-0.63279676,0.48706147,-2.3684792518615723,7.100460529327393,-2.358250379562378,-82.59227752685547,-19.006851196289062, 37.66710662841797
309,1226672298,0.5088317,0.31765074,-0.64157027,0.4780962,6.350580215454102,1.9139059782028198,-18.002941131591797,-105.40276336669922,-7.804722309112549, 15.914855003356934
310,1226688965,0.503998,0.32315615,-0.6404402,0.4810328,12.620723724365234,3.5773918628692627,2.3301446437835693,45.37970733642578,-26.102691650390625, 0.018370885401964188
311,1226705632,0.5029256,0.3257321,-0.6402473,0.48067454,8.051206588745117,3.5176169872283936,1.654199481010437,9.232341766357422,-10.517812728881836, -8.51115894317627
312,1226722299,0.5028721,0.32928872,-0.6382607,0.4809489,11.038312911987305,0.9486438035964966,-2.787118673324585,19.04859161376953,-1.7409509420394897, -17.742856979370117
313,1226738966,0.5035132,0.3332918,-0.6334567,0.4838634,9.316254615783691,3.8605215549468994,-0.9344257712364197,40.01548767089844,15.601836204528809, -19.0709285736084
314,1226755633,0.5055191,0.3362059,-0.6289755,0.48559844,8.166691780090332,2.430431842803955,-2.749335765838623,27.07109832763672,21.249271392822266, -21.98309898376465
315,1226772300,0.5082916,0.34030753,-0.6218756,0.48897985,8.606119155883789,0.8902925252914429,-2.3799545764923096,45.38033676147461,33.55020523071289, -29.845243453979492
316,1226788967,0.5126208,0.34322414,-0.6126629,0.49402568,9.555734634399414,0.033843960613012314,-0.6591089963912964,52.13447952270508,55.30143356323242, -29.135295867919922
317,1226805634,0.51983166,0.3428239,-0.6039475,0.49748808,10.15549087524414,0.5734891295433044,1.0001109838485718,25.527158737182617,73.00992584228516, -29.37364959716797
318,1226822301,0.52949923,0.33782956,-0.5935494,0.50319105,9.282254219055176,-3.923398733139038,3.8242318630218506,18.625070571899414,109.9199447631836, -14.653870582580566
319,1226838968,0.53650105,0.33346957,-0.58365464,0.5102077,3.2859296798706055,-2.915769338607788,-2.168081760406494,30.686220169067383,97.89408111572266, -2.1841142177581787
320,1226855635,0.541496,0.3304523,-0.5765856,0.5149102,-3.2706518173217773,-2.9106009006500244,-9.417513847351074,21.348472595214844,69.24656677246094, -2.800647020339966
321,1226872302,0.5432615,0.33116293,-0.57042986,0.5194304,0.43696364760398865,-2.639540195465088,-7.970221519470215,39.02889633178711,39.544612884521484, -5.025393962860107
322,1226888969,0.5392705,0.33165833,-0.5729918,0.5204524,0.7336753606796265,-7.218914985656738,-10.835326194763184,6.571597099304199,-22.457056045532227, 23.02656364440918
323,1226905636,0.52829796,0.33590472,-0.58048385,0.5206801,-2.1378262042999268,-4.990079879760742,-6.394647598266602,15.800676345825195,-83.0198974609375, 41.19693374633789
324,1226922303,0.51475906,0.33970067,-0.5945099,0.5159308,-3.0503931045532227,-2.1612188816070557,-2.3593454360961914,-23.04938507080078,-126.65367126464844, 48.931053161621094
325,1226938970,0.50128,0.34332392,-0.6118762,0.5064137,-5.134994983673096,1.7991174459457397,4.176286697387695,-55.81058120727539,-147.98587036132812, 40.54405975341797
326,1226955637,0.48934105,0.34672683,-0.6271161,0.4970426,-8.267353057861328,3.882359743118286,8.84741497039795,-52.542762756347656,-132.9515380859375, 31.855709075927734
327,1226972304,0.4813545,0.34730098,-0.6386015,0.4897634,-11.024923324584961,5.78113317489624,11.572976112365723,-49.85651779174805,-88.8890609741211, 28.88176918029785
328,1226988971,0.47832978,0.34482592,-0.6460236,0.4847158,-10.024164199829102,4.8343305587768555,11.701733589172363,-48.69417190551758,-38.275390625, 23.637653350830078
329,1227005638,0.48330402,0.3340273,-0.6545135,0.4758733,-6.64725923538208,1.5291011333465576,-7.6914448738098145,-115.56288146972656,11.93336296081543, 24.172420501708984
330,1227022305,0.4804608,0.3352845,-0.65398437,0.47858778,17.09425926208496,-3.719343423843384,-10.598288536071777,23.941316604614258,-5.580024242401123, 13.395153045654297
331,1227038972,0.4774516,0.33741525,-0.6567329,0.47633278,9.183868408203125,0.27539244294166565,10.043867111206055,-5.6341729164123535,-31.226085662841797, 1.1546692848205566
332,1227055639,0.4719128,0.33980754,-0.6621526,0.47263423,10.407194137573242,-6.29287052154541,4.603433609008789,-14.399300575256348,-56.024078369140625, 10.028011322021484
333,1227072306,0.4645419,0.34431347,-0.6633403,0.47500396,9.505000114440918,-4.297666549682617,2.0010554790496826,38.07117462158203,-43.6038703918457, 16.057350158691406
334,1227088973,0.45817336,0.34789595,-0.66434014,0.47717682,14.293767929077148,0.5594989061355591,0.46599435806274414,32.528194427490234,-36.12594985961914, 15.80335521697998
335,1227105640,0.45699784,0.34594953,-0.66826135,0.47423494,7.587970733642578,2.0241684913635254,0.60239177942276,-30.280967712402344,-15.711280822753906, 15.252791404724121
336,1227122307,0.45698583,0.34408522,-0.6700938,0.4730155,6.202980995178223,0.659724235534668,-4.136771202087402,-18.073375701904297,0.016001561656594276, 11.824270248413086
337,1227138974,0.45880064,0.34209597,-0.66770595,0.4760685,5.903354167938232,3.950406551361084,-4.58059024810791,10.687503814697266,32.372467041015625, 10.043034553527832
338,1227155641,0.46522397,0.33570045,-0.66575795,0.47711477,5.887118339538574,2.8336641788482666,-3.4216256141662598,-24.64497184753418,62.02035903930664, 10.156423568725586
339,1227172308,0.47379395,0.3292113,-0.6617318,0.47880113,5.601747035980225,3.2090513706207275,-3.471273899078369,-20.16448211669922,80.40801239013672, 1.019442081451416
340,1227188975,0.4847902,0.32466403,-0.65444267,0.48091233,6.2162065505981445,3.9555561542510986,-2.2608776092529297,-6.678704261779785,96.72868347167969, -21.639497756958008
341,1227205642,0.49777675,0.31986636,-0.6464588,0.4816586,6.722773551940918,1.3696579933166504,3.0046772956848145,-15.852964401245117,105.76692962646484, -33.0531005859375
342,1227222309,0.5094698,0.31322947,-0.64167845,0.48018405,1.7325336933135986,-2.1921424865722656,-0.6505492925643921,-39.90053176879883,90.00883483886719, -21.12847900390625
343,1227238976,0.5159629,0.3126329,-0.6346429,0.48298198,-3.4959301948547363,-4.600659370422363,-1.603290319442749,18.63043212890625,64.3023910522461, -20.57600212097168
344,1227255643,0.5177082,0.3184054,-0.62542826,0.48932165,-4.246779441833496,-3.3776931762695312,-4.627022743225098,74.19615173339844,37.688331604003906, -25.202390670776367
345,1227272310,0.517847,0.32497698,-0.62088066,0.49064404,-0.6726958751678467,-0.005231473594903946,-8.030842781066895,43.58487319946289,0.22443993389606476, -31.538654327392578
346,1227288977,0.51819015,0.32647002,-0.62884665,0.47900778,-1.1422847509384155,-1.9522104263305664,-7.207788467407227,-72.28656768798828,-55.229679107666016, -28.931692123413086
347,1227305644,0.5098831,0.33108464,-0.6392294,0.47094372,-5.229231357574463,-8.162466049194336,-4.258596897125244,-34.404048919677734,-102.91486358642578, 4.527776718139648
348,1227322311,0.4932784,0.34507132,-0.64083785,0.4763709,-9.139284133911133,-2.203333854675293,6.074398517608643,105.26751708984375,-108.37484741210938, 16.94384002685547
349,1227338978,0.48181432,0.35525385,-0.64032584,0.4812823,-10.619575500488281,5.603279113769531,10.908936500549316,85.08464050292969,-68.1042709350586, 9.360843658447266
350,1227355645,0.48324677,0.35349056,-0.6438569,0.4764089,-10.500505447387695,6.042735576629639,11.29161262512207,-42.4764518737793,-9.639442443847656, -3.27005934715271
351,1227372312,0.49111202,0.3450987,-0.6480936,0.46871167,-8.254851341247559,1.483184814453125,6.377628326416016,-95.2771987915039,31.43086814880371, -2.0324654579162598
352,1227388979,0.4997382,0.33495498,-0.65204686,0.4614131,-5.294332981109619,0.12399136275053024,-2.8014187812805176,-100.58745574951172,42.59782409667969, 4.489198684692383
353,1227405646,0.5004447,0.32752392,-0.65754807,0.45816365,2.331482410430908,-12.940919876098633,-24.47500228881836,-59.87167739868164,2.849813222885132, 35.23231887817383
354,1227422313,0.49336985,0.33451533,-0.6554525,0.46375412,13.584274291992188,6.145928382873535,13.384139060974121,71.4678955078125,-30.984268188476562, 7.316085338592529
355,1227438980,0.49287936,0.32716802,-0.66569,0.45484948,5.231096267700195,-4.825972080230713,6.26170539855957,-96.99112701416016,-31.457136154174805, 30.38819122314453
356,1227455647,0.48779994,0.3269257,-0.66994876,0.45424607,12.313597679138184,-2.986907958984375,1.5435800552368164,-6.129124641418457,-35.50836944580078, 27.441715240478516
357,1227472314,0.48330224,0.32821962,-0.67304784,0.45353886,10.956439018249512,3.7536511421203613,-0.4228311777114868,0.9043312668800354,-34.10478973388672, 15.62062931060791
358,1227488981,0.48303005,0.3249908,-0.6788523,0.4474623,6.365965366363525,2.540743350982666,-0.7063269019126892,-56.87534713745117,-21.62030792236328, 11.905322074890137
359,1227505648,0.48489758,0.32111678,-0.68106836,0.44486475,7.068673610687256,2.263350009918213,-3.6850478649139404,-36.55500411987305,10.235115051269531, 12.3571138381958
360,1227522315,0.487861,0.32064196,-0.67787504,0.44683972,4.921011447906494,3.643951177597046,-4.106312274932861,10.360758781433105,33.16630172729492, -3.4658870697021484
361,1227538982,0.49434465,0.31906644,-0.6725996,0.44880953,6.223384857177734,3.938783884048462,-2.8782055377960205,5.2944016456604,60.04544448852539, -13.60238265991211
362,1227555649,0.5038151,0.31544623,-0.66619205,0.45039123,7.51351261138916,3.618076801300049,-1.9473841190338135,-6.515101909637451,83.13717651367188, -17.113203048706055
363,1227572316,0.51464564,0.31136188,-0.65987784,0.45028314,7.669793605804443,2.2374579906463623,1.8563978672027588,-19.170066833496094,86.81575012207031, -24.707338333129883
364,1227588983,0.52484053,0.3078651,-0.65466183,0.4485306,3.017333745956421,-1.4274920225143433,4.234925270080566,-26.66280746459961,74.49209594726562, -28.893468856811523
365,1227605650,0.5306123,0.3090179,-0.64911103,0.449014,-4.763601303100586,-2.9879415035247803,-2.1380343437194824,10.438932418823242,46.08527755737305, -28.80281639099121
366,1227622317,0.5310439,0.3169007,-0.6411857,0.45436478,-5.380425453186035,-2.828261137008667,-5.138025283813477,75.53182220458984,20.2580509185791, -30.298295974731445
367,1227638984,0.5284318,0.3243146,-0.6370569,0.45797223,-1.9595288038253784,-4.634586334228516,-6.914475917816162,61.27497863769531,-9.852006912231445, -17.946828842163086
368,1227655651,0.5209369,0.33201423,-0.6391869,0.4580735,-2.0299782752990723,-4.291546821594238,-8.11140251159668,38.302642822265625,-62.690242767333984, -3.090564012527466
369,1227672318,0.50913566,0.3408116,-0.64697057,0.45393544,-2.8980069160461426,-3.287768840789795,-7.565155982971191,15.71538257598877,-114.77095031738281, 3.196174144744873
370,1227688985,0.49423754,0.3510615,-0.65768874,0.4471362,-4.2158026695251465,-2.377469301223755,-2.5828216075897217,7.21737813949585,-149.6000213623047, 3.5647308826446533
371,1227705652,0.47797167,0.36353606,-0.6667909,0.44133297,-8.174948692321777,0.6831730604171753,6.226736545562744,27.546873092651367,-154.56590270996094, -2.741514205932617
372,1227722319,0.46370724,0.37626925,-0.67038673,0.4404303,-11.329365730285645,3.4971330165863037,11.082777976989746,62.59345245361328,-116.2198257446289, -7.947226524353027
373,1227738986,0.45693603,0.38354006,-0.67056566,0.44096303,-11.42851734161377,6.258486747741699,14.493678092956543,42.80870056152344,-51.42509841918945, -10.45769214630127
374,1227755653,0.4592366,0.38289306,-0.66988945,0.4401623,-9.999436378479004,3.4917500019073486,11.486344337463379,-9.568159103393555,12.93288516998291, -8.122526168823242
375,1227772320,0.46701515,0.3746396,-0.6727461,0.43468928,-8.019021987915039,-2.764634132385254,-17.990236282348633,-80.34469604492188,37.87151336669922, 5.472018241882324
376,1227788987,0.45879743,0.38357025,-0.66620487,0.44558963,12.092696189880371,-3.273696184158325,-15.891061782836914,119.86074829101562,-13.863175392150879, 2.9307875633239746
377,1227805654,0.45317176,0.38697797,-0.6654521,0.44950724,1.4202907085418701,0.5966863036155701,11.049544334411621,46.267242431640625,-23.266817092895508, 10.94137191772461
378,1227822321,0.4523493,0.38448462,-0.6678984,0.448847,14.0297269821167,-7.050924777984619,4.733381748199463,-15.917071342468262,-4.8720197677612305, 18.316787719726562
379,1227838988,0.4459469,0.388082,-0.6650207,0.45636752,11.877313613891602,-1.091051459312439,2.012977123260498,71.72071075439453,-11.508500099182129, 18.63434410095215
380,1227855655,0.44351006,0.38907993,-0.66456574,0.45855016,12.15787124633789,2.163632869720459,0.782606840133667,21.1882266998291,-7.5916948318481445, 7.526042938232422
381,1227872322,0.44541273,0.3876688,-0.6659645,0.4558638,9.040672302246094,3.34930157661438,-0.45962250232696533,-25.89089012145996,1.4125245809555054, -4.425974369049072
382,1227888989,0.44992694,0.385596,-0.6657405,0.45350987,11.726326942443848,-0.33357682824134827,0.6213802099227905,-28.268095016479492,21.478986740112305, -12.46313762664795
383,1227905656,0.45643464,0.38200307,-0.6639159,0.45272171,10.629191398620605,0.06089504063129425,1.3779058456420898,-26.087738037109375,44.276611328125, -11.200760841369629
384,1227922323,0.46767518,0.37339443,-0.6624747,0.45053753,9.828967094421387,-0.4018123745918274,3.9143831729888916,-61.875728607177734,76.97477722167969, -5.74690580368042
385,1227938990,0.47958124,0.36356968,-0.65786874,0.45279995,4.395971298217773,-0.727236807346344,2.8744285106658936,-37.515933990478516,105.54259490966797, 4.4198784828186035
386,1227955657,0.48874867,0.35686752,-0.6568444,0.4498065,-1.7952749729156494,-1.3779315948486328,-3.826944589614868,-55.3253288269043,58.408485412597656, -9.555116653442383
387,1227972324,0.4920111,0.35708094,-0.65163183,0.4536459,-4.825634956359863,-4.054865837097168,-0.26259270310401917,26.12591552734375,41.84766387939453, -9.114628791809082
388,1227988991,0.4929149,0.36041936,-0.64429045,0.46045935,-8.05639934539795,-2.5009591579437256,-1.9071671962738037,62.63206481933594,35.286075592041016, -12.344513893127441
389,1228005658,0.4957404,0.36379492,-0.6358946,0.4664043,-6.428597450256348,3.2146525382995605,1.84988534450531,57.58391189575195,44.90237808227539, -24.725557327270508
390,1228022325,0.5045411,0.35827243,-0.63472575,0.4628203,-6.827467918395996,-1.6466960906982422,-0.5317510366439819,-52.4482307434082,50.826499938964844, -19.7010440826416
391,1228038992,0.5084597,0.35418093,-0.6317799,0.4657027,-9.055686950683594,-5.361457347869873,0.14693284034729004,-1.7803152799606323,47.87937545776367, 8.702582359313965
392,1228055659,0.50640315,0.35535538,-0.6247321,0.4764331,-10.453954696655273,-3.395789384841919,1.2310839891433716,78.53335571289062,38.1446533203125, 21.595046997070312
393,1228072326,0.50163954,0.3583638,-0.61841077,0.48734114,-6.739083290100098,-0.9925727844238281,-2.2551393508911133,90.03925323486328,17.97952651977539, 24.26395606994629
394,1228088993,0.49731582,0.36065432,-0.6167033,0.49222195,-5.610453128814697,1.1535180807113647,-2.967207431793213,45.55511474609375,-8.979389190673828, 15.661306381225586
395,1228105660,0.4942819,0.3601373,-0.62184685,0.48917615,-5.462472915649414,1.1761527061462402,-3.832162857055664,-24.092933654785156,-36.78756332397461, 13.386252403259277
396,1228122327,0.4892299,0.360482,-0.6304918,0.48289442,-3.9476163387298584,0.014308932237327099,-2.570096492767334,-41.9300422668457,-67.4816665649414, 15.002324104309082
397,1228138994,0.48141062,0.36311057,-0.63861537,0.4780847,-4.447013854980469,-0.36421817541122437,1.4886674880981445,-19.307632446289062,-81.47036743164062, 18.074291229248047
398,1228155661,0.4766542,0.36338386,-0.6445535,0.47466183,-5.496600151062012,6.372890949249268,1.0537291765213013,-21.542919158935547,-49.415348052978516, 17.7524471282959
399,1228172328,0.47486377,0.359752,-0.6538438,0.4664456,4.728488445281982,-2.0355682373046875,-14.168057441711426,-74.05724334716797,-45.683624267578125, 19.44890022277832
400,1228188995,0.47126004,0.35887286,-0.6600681,0.4619895,11.05923080444336,4.553377628326416,7.8582282066345215,-33.75540542602539,-42.80221939086914, 17.843286514282227
401,1228205662,0.46763927,0.35569423,-0.66946244,0.45454958,8.06982421875,-0.8323425650596619,1.4860799312591553,-64.82103729248047,-53.39460372924805, 26.960227966308594
402,1228222329,0.45949918,0.36073637,-0.6713607,0.45607513,13.972806930541992,0.38773974776268005,0.8159920573234558,37.35429000854492,-53.63998031616211, 14.314144134521484
403,1228238996,0.45256954,0.3668663,-0.6717956,0.4574723,10.605749130249023,0.7189509868621826,-0.16193942725658417,41.81173324584961,-47.61541748046875, 0.9684233069419861
404,1228255663,0.4497365,0.37015036,-0.6728638,0.45604822,8.350669860839844,0.5063462853431702,-0.3766092360019684,7.614212989807129,-29.140043258666992, -6.2837629318237305
405,1228272330,0.45204508,0.36928284,-0.6733872,0.45369062,7.898028373718262,-0.7659811973571777,-0.49968454241752625,-20.91293716430664,6.979799747467041, -7.3244781494140625
406,1228288997,0.4579758,0.36470145,-0.6732947,0.45158094,8.152095794677734,-0.21858158707618713,-0.00978071242570877,-38.586517333984375,38.3432502746582, -1.355143427848816
407,1228305664,0.4680686,0.35528797,-0.6744663,0.44696486,8.710322380065918,0.8327282071113586,2.4535765647888184,-79.80057525634766,62.38727569580078, 3.632646083831787
408,1228322331,0.48046032,0.34411475,-0.67547065,0.4410016,6.892234802246094,0.9762983322143555,2.6163580417633057,-96.89404296875,75.92420959472656, 0.8108708262443542
409,1228338998,0.49181864,0.3366381,-0.67097896,0.44110814,2.9751007556915283,-1.4870096445083618,1.624046802520752,-37.510032653808594,92.6697769165039, -5.310622215270996
410,1228355665,0.49684888,0.33719265,-0.665082,0.44396886,-2.9121057987213135,-0.780910313129425,-0.42934080958366394,21.1810302734375,50.06095886230469, -17.397165298461914
411,1228372332,0.4999103,0.33815157,-0.6597333,0.44776702,-6.211010456085205,-2.5970921516418457,-1.7267810106277466,29.72610092163086,39.986900329589844, -9.229350090026855
412,1228388999,0.4998902,0.34211686,-0.65386784,0.45334634,-7.9614577293396,-1.6331974267959595,-2.850148916244507,56.909481048583984,22.612634658813477, -8.958378791809082
413,1228405666,0.5017775,0.34338722,-0.6508016,0.45471087,-5.6706223487854,0.9415284395217896,-1.257193922996521,15.551590919494629,19.855932235717773, -11.450457572937012
414,1228422333,0.50557274,0.34092325,-0.6501466,0.45329562,-7.305530071258545,1.2067219018936157,0.9334353804588318,-21.778949737548828,25.05684471130371, -4.965106010437012
415,1228439000,0.508285,0.3388853,-0.6466813,0.4567347,-10.79024887084961,-1.1838737726211548,3.3002941608428955,12.632962226867676,40.27372360229492, 7.23209285736084
416,1228455667,0.50986433,0.33815694,-0.64022696,0.46454033,-11.412439346313477,0.06901499629020691,4.633179664611816,48.68315505981445,51.365718841552734, 12.540326118469238
417,1228472334,0.5091369,0.34019852,-0.6328479,0.47386515,-6.714227199554443,-0.5341621041297913,-2.724097728729248,73.39231872558594,38.91035461425781, 10.557425498962402
418,1228489001,0.5068039,0.3448647,-0.6270668,0.48063034,-5.501014709472656,1.6006367206573486,-4.1423420906066895,70.15164184570312,11.299223899841309, -1.956512212753296
419,1228505668,0.50418013,0.3477697,-0.6269513,0.48144668,-5.9185075759887695,0.06089014187455177,-5.498405933380127,20.388805389404297,-17.954561233520508, -0.8643283247947693
420,1228522335,0.49969956,0.35039437,-0.6317915,0.47787413,-4.462604999542236,0.8085479736328125,-6.368045806884766,-11.422945022583008,-52.55888366699219, 3.038792133331299
421,1228539002,0.49328002,0.3531427,-0.6412852,0.4698068,-3.4180991649627686,0.33300167322158813,-4.1563639640808105,-41.11463928222656,-87.96515655517578, 4.710953235626221
422,1228555669,0.4848026,0.35841793,-0.64786196,0.46559444,-5.230226516723633,3.4052045345306396,0.6109610795974731,-1.160848617553711,-85.40855407714844, 6.909850597381592
423,1228572336,0.48034057,0.35889348,-0.6537828,0.46155876,0.2058979570865631,0.832668125629425,-11.846497535705566,-24.149492263793945,-49.71110534667969, 14.229201316833496
424,1228589003,0.47932306,0.3560471,-0.65928286,0.45697495,14.48371410369873,3.7475638389587402,7.6885905265808105,-44.673431396484375,-23.15971565246582, 15.696235656738281
425,1228605670,0.4769142,0.35098696,-0.66836005,0.4501732,10.967190742492676,-4.405429840087891,5.15690279006958,-69.92501068115234,-39.53150939941406, 32.77999496459961
426,1228622337,0.46711212,0.35588446,-0.6712081,0.45236313,18.79071044921875,-3.2854230403900146,3.6127779483795166,41.14860153198242,-62.15511703491211, 24.832124710083008
427,1228639004,0.46107462,0.3583775,-0.67460096,0.45154113,13.286847114562988,0.22825844585895538,1.687111258506775,8.600198745727539,-47.01358413696289, 15.196514129638672
428,1228655671,0.4589122,0.36005577,-0.6793992,0.44516996,9.747904777526855,1.817999243736267,-0.36540454626083374,-33.59967041015625,-44.39073181152344, -6.373368263244629
429,1228672338,0.46051547,0.36382306,-0.6807095,0.4383982,10.120552062988281,0.3559228479862213,0.3464183509349823,-27.507062911987305,-23.28650665283203, -37.50642013549805
430,1228689005,0.4655125,0.3642695,-0.6780803,0.43682134,7.598143577575684,-0.38539445400238037,1.0352966785430908,-10.350225448608398,27.849397659301758, -25.80013084411621
431,1228705672,0.47449037,0.35901406,-0.6748489,0.4365168,5.394525527954102,1.1456255912780762,1.576680302619934,-30.870471954345703,68.63651275634766, -8.43525218963623
432,1228722339,0.4875697,0.34861678,-0.67041767,0.4373585,3.8156397342681885,0.4712175726890564,3.951263666152954,-48.92100143432617,109.72676849365234, 3.899456739425659
433,1228739006,0.4981935,0.34098333,-0.6649601,0.43972918,-2.8050472736358643,-0.858214259147644,-3.123305082321167,-23.745756149291992,97.33747100830078, 1.8323265314102173
434,1228755673,0.5044737,0.33804044,-0.659875,0.44249305,-5.86476469039917,-2.311518907546997,-2.5870859622955322,3.1193697452545166,63.182151794433594, -4.063051223754883
435,1228772340,0.5060682,0.34091124,-0.6534984,0.44789988,-7.311731815338135,-2.4632036685943604,-5.241122722625732,50.10911560058594,34.7000732421875, -10.780722618103027
436,1228789007,0.50559217,0.34576893,-0.64867383,0.45171073,-4.835167407989502,-0.7346833944320679,-4.3846845626831055,50.02512741088867,9.806517601013184, -16.531156539916992
437,1228805674,0.5055748,0.34861717,-0.64662725,0.45247477,-6.504211902618408,0.11499878764152527,0.614329993724823,19.809009552001953,1.0191248655319214, -13.71092700958252
438,1228822341,0.5054964,0.3508428,-0.6430064,0.4559885,-10.85172176361084,-0.45211583375930786,4.6681389808654785,34.88246536254883,14.923961639404297, -4.658884048461914
439,1228839008,0.5079869,0.35048738,-0.63612074,0.46309677,-13.596837043762207,0.27011770009994507,7.6522698402404785,45.90663146972656,53.725189208984375, 2.154033899307251
440,1228855675,0.5122459,0.34898576,-0.6274247,0.4713295,-11.578977584838867,1.4353164434432983,6.325072765350342,48.33574676513672,73.73888397216797, 0.6597052216529846
441,1228872342,0.5174111,0.34580544,-0.61999804,0.4778148,-6.486577987670898,-0.0405183881521225,-1.7435928583145142,28.629032135009766,74.06782531738281, 1.5013023614883423
442,1228889009,0.5217785,0.34284997,-0.6152062,0.48137566,-5.591325759887695,0.6496711373329163,-5.004352569580078,10.296764373779297,53.47623062133789, -1.3545161485671997
443,1228905676,0.5235021,0.34149173,-0.6142121,0.4817391,-5.642381191253662,0.5101420283317566,-7.446725845336914,-3.7881600856781006,16.031267166137695, -1.8522608280181885
444,1228922343,0.5214509,0.3418754,-0.61844563,0.478263,-3.8762199878692627,-0.6151247620582581,-9.600980758666992,-22.199764251708984,-33.056114196777344, 2.1157166957855225
445,1228939010,0.5126412,0.3467211,-0.6261955,0.4741971,-2.932948112487793,-1.9404518604278564,-11.362321853637695,-4.355720043182373,-90.14205169677734, 11.5196533203125
446,1228955677,0.5000411,0.35664555,-0.6312986,0.47352403,2.251898765563965,2.4365625381469727,0.4236149787902832,45.846946716308594,-105.24333190917969, 7.643411159515381
447,1228972344,0.49735972,0.35531667,-0.63937056,0.46646422,3.788165807723999,2.025545120239258,5.277087688446045,-54.56667709350586,-51.648162841796875, 9.282480239868164
448,1228989011,0.49325392,0.3516941,-0.6494794,0.4595523,11.232839584350586,-4.478806972503662,3.0000064373016357,-64.94876861572266,-56.682308197021484, 30.73662757873535
449,1229005678,0.4857189,0.35215944,-0.65563023,0.4584865,11.756613731384277,-1.3309024572372437,2.2665953636169434,-4.22991418838501,-57.210540771484375, 34.075218200683594
450,1229022345,0.48104677,0.35063896,-0.6622869,0.4549972,11.337067604064941,-0.3609503507614136,0.7871540784835815,-30.335636138916016,-45.461029052734375, 27.71969223022461
451,1229039012,0.48056456,0.34622893,-0.6678349,0.45075482,10.084122657775879,1.6894067525863647,-1.340480923652649,-49.95447540283203,-15.188054084777832, 23.497608184814453
452,1229055679,0.48315495,0.34106177,-0.67086005,0.4474205,10.028413772583008,0.9091924428939819,-2.9711055755615234,-47.766944885253906,12.037320137023926, 15.25040054321289
453,1229072346,0.4872137,0.33689168,-0.67189837,0.44461152,9.833765983581543,2.0472023487091064,-1.5539476871490479,-39.35542678833008,23.878406524658203, 3.997244119644165
454,1229089013,0.49285927,0.33350042,-0.6718261,0.44104087,10.646148681640625,1.7807790040969849,1.156050443649292,-40.56926345825195,30.781843185424805, -9.325874328613281
455,1229105680,0.50257105,0.32772177,-0.67047083,0.43645164,10.582603454589844,2.5743186473846436,3.4688186645507812,-58.86626052856445,58.67410659790039, -16.879541397094727
456,1229122347,0.5173763,0.31804118,-0.6669239,0.4317223,6.246232032775879,2.8664000034332275,3.5078186988830566,-78.0457534790039,101.09160614013672, -18.93994903564453
457,1229139014,0.5335268,0.3104751,-0.65783054,0.43152472,0.1059051975607872,0.8965019583702087,3.721461296081543,-36.10017395019531,128.9452667236328, -32.42937469482422
458,1229155681,0.5464398,0.30058002,-0.65272045,0.43012962,-8.355813980102539,-2.945319652557373,-1.6301119327545166,-55.006492614746094,103.93482971191406, -8.182210922241211
459,1229172348,0.5534179,0.2984267,-0.645361,0.43379647,-9.772418975830078,-8.562969207763672,-14.716843605041504,15.726165771484375,73.40328216552734, -11.160512924194336
460,1229189015,0.55312794,0.3069597,-0.63297695,0.44627976,-1.6538498401641846,-2.5677545070648193,-6.26981258392334,125.01734161376953,48.178855895996094, -10.830852508544922
461,1229205682,0.5524397,0.31332937,-0.6256906,0.452931,-5.931402683258057,-0.3012356758117676,-4.192277431488037,76.90869903564453,20.950639724731445, -13.478699684143066
462,1229222349,0.5500148,0.31747705,-0.6228204,0.45693186,-9.9061279296875,-2.129554271697998,-3.808166742324829,47.135990142822266,-2.1015512943267822, 0.5227016806602478
463,1229239016,0.54492456,0.32215396,-0.62144864,0.46160117,-9.662490844726562,-3.4443795680999756,-0.29898110032081604,53.1768798828125,-19.365583419799805, 12.104211807250977
464,1229255683,0.5377384,0.32753128,-0.6217966,0.4657571,-8.929107666015625,-1.7436020374298096,-1.5730910301208496,53.006263732910156,-38.68681335449219, 16.31294822692871
465,1229272350,0.5290333,0.3335798,-0.6233755,0.46930945,-7.248783588409424,1.1959022283554077,-1.5328114032745361,52.42023468017578,-53.32844924926758, 18.54973793029785
466,1229289017,0.5216648,0.33781466,-0.6281365,0.46817935,-7.783214092254639,1.870383858680725,-2.510183811187744,12.395465850830078,-64.00146484375, 12.374872207641602
467,1229305684,0.5153552,0.34060565,-0.635102,0.46372673,-6.549821376800537,3.684633493423462,-1.9103608131408691,-16.711545944213867,-70.2733383178711, 8.575822830200195
468,1229322351,0.50996315,0.3424684,-0.64487326,0.45474333,-5.070034027099609,3.490391254425049,-1.7817052602767944,-50.922672271728516,-83.64073181152344, 0.6718117594718933
469,1229339018,0.50298136,0.3464506,-0.6541288,0.44620332,-4.97525691986084,1.3697028160095215,0.4057202935218811,-36.2230339050293,-94.01126098632812, -2.4341259002685547
470,1229355685,0.49285612,0.3546361,-0.6580648,0.44528317,-5.718543529510498,1.55604088306427,3.207204580307007,36.414066314697266,-84.68817901611328, 1.6563395261764526
471,1229372352,0.4855331,0.36151785,-0.6557653,0.45114788,-3.073817014694214,1.5036165714263916,-1.7066950798034668,74.95191192626953,-30.92784881591797, 5.761064052581787
472,1229389019,0.48268616,0.36085057,-0.6565131,0.45364285,14.477795600891113,-2.993515729904175,-1.6337605714797974,13.98835277557373,-5.9308271408081055, 22.092769622802734
473,1229405686,0.476471,0.3635897,-0.65618384,0.45847648,13.219114303588867,-0.7916656732559204,10.457138061523438,47.557979583740234,-22.66836929321289, 21.843955993652344
474,1229422353,0.46992952,0.36340988,-0.66135716,0.4579371,13.135013580322266,-5.162121772766113,6.7803635597229,-2.8705759048461914,-46.81568145751953, 32.24932098388672
475,1229439020,0.46696705,0.36143234,-0.6656296,0.45633966,10.97224235534668,-0.2751443684101105,1.1641924381256104,-19.651386260986328,-24.50632667541504, 24.172237396240234
476,1229455687,0.4679264,0.35733065,-0.6702326,0.45182744,10.402759552001953,1.3565675020217896,-1.6873149871826172,-50.58342361450195,-7.943218231201172, 13.815123558044434
477,1229472354,0.4730246,0.35219806,-0.6725401,0.44709527,6.882739067077637,3.6940112113952637,-4.480278968811035,-57.91044235229492,21.529085159301758, 0.2383485585451126
478,1229489021,0.48136187,0.34755728,-0.67100203,0.4441296,7.017857074737549,3.226256847381592,-4.19985818862915,-44.118690490722656,52.23439025878906, -14.574015617370605
479,1229505688,0.49237952,0.34299925,-0.665956,0.44318926,6.969668865203857,2.6944618225097656,-1.7630993127822876,-30.212764739990234,80.8344955444336, -24.74275016784668
480,1229522355,0.5037393,0.34223068,-0.6561469,0.44564137,6.8688645362854,1.8073866367340088,2.3443803787231445,11.809621810913086,94.78815460205078, -43.24009704589844
481,1229539022,0.517392,0.3339356,-0.6532153,0.4405707,3.3492536544799805,-2.9926040172576904,5.530045032501221,-74.67430877685547,86.00501251220703, -27.39933204650879
482,1229555689,0.5279196,0.32666984,-0.6499825,0.43830433,-3.5530238151550293,-4.8014092445373535,-3.396908760070801,-50.51659393310547,76.89437866210938, -11.548603057861328
483,1229572356,0.5332023,0.32620612,-0.64277196,0.44286487,-4.900904178619385,-5.882411003112793,-11.019862174987793,28.45083999633789,62.76613235473633, -10.688055038452148
484,1229589023,0.5347357,0.32857975,-0.63707703,0.4474663,-2.632131338119507,-1.8537263870239258,-4.475142002105713,43.04318618774414,31.883678436279297, -9.948369979858398
485,1229605690,0.5331548,0.3304894,-0.6381873,0.4463631,-3.3993163108825684,-3.1952176094055176,-8.791874885559082,2.470700263977051,-18.078758239746094, -3.9578967094421387
486,1229622357,0.5274458,0.33423555,-0.6431328,0.44324705,-6.631662845611572,-2.041119337081909,-7.219882965087891,-1.8950823545455933,-60.46333694458008, 1.2115410566329956
487,1229639024,0.5183546,0.34031886,-0.65005875,0.4392212,-7.315262794494629,-2.0787153244018555,-4.326988220214844,4.290439605712891,-91.43936920166016, 2.753734588623047
488,1229655691,0.5068676,0.34837338,-0.6572248,0.43563408,-8.203771591186523,-1.932219386100769,-0.059470146894454956,18.164072036743164,-107.75929260253906, 3.337359666824341
489,1229672358,0.4940716,0.35781246,-0.662922,0.4340485,-8.732412338256836,-0.611960768699646,3.7703051567077637,39.56917190551758,-108.16577911376953, 3.767029047012329
490,1229689025,0.4813202,0.36677614,-0.66712964,0.43444693,-7.169906139373779,1.6436930894851685,4.001113414764404,51.27593994140625,-96.94609069824219, 8.31399917602539
491,1229705692,0.47261137,0.37133086,-0.67316306,0.43081722,-6.222280025482178,4.562167167663574,4.731925964355469,2.496112823486328,-81.63912963867188, 7.581570625305176
492,1229722359,0.4676102,0.37115264,-0.6822016,0.4221226,-5.197007656097412,1.6969417333602905,3.748274803161621,-54.70553207397461,-73.02671813964844, 10.446929931640625
493,1229739026,0.46184063,0.37165743,-0.6898498,0.41554958,-5.4781174659729,0.050675660371780396,4.819195747375488,-36.50077438354492,-68.37757110595703, 13.889641761779785
494,1229755693,0.45532385,0.37393662,-0.6934398,0.4147205,-6.964174747467041,1.6933579444885254,7.388179779052734,9.799571990966797,-49.78352737426758, 14.871922492980957
495,1229772360,0.45403156,0.37261215,-0.69442016,0.41568774,-8.067618370056152,1.6922991275787354,-10.151527404785156,1.1216645240783691,-1.7684305906295776, 16.66796112060547
496,1229789027,0.4529419,0.37358427,-0.69071525,0.4221269,15.53781509399414,-1.6580100059509277,-7.936212539672852,47.3973388671875,21.74884796142578, 10.490290641784668
497,1229805694,0.45560622,0.36926726,-0.6913918,0.4219506,7.133008003234863,3.040052890777588,10.525093078613281,-22.938106536865234,23.946413040161133, 14.320477485656738
498,1229822361,0.45370013,0.36481574,-0.6986793,0.41582808,10.037078857421875,-6.488288402557373,4.079761505126953,-59.10006332397461,-33.040855407714844, 27.982751846313477
499,1229839028,0.452521,0.36188194,-0.7008718,0.41598672,16.7552490234375,-0.8317066431045532,3.3366541862487793,-11.515027046203613,-2.4936721324920654, 25.21586799621582
500,1229855695,0.45075175,0.36036697,-0.70559496,0.41121086,14.42457103729248,1.8898252248764038,0.907498300075531,-36.59041213989258,-29.550649642944336, 11.800182342529297
501,1229872362,0.4534229,0.35605866,-0.71003616,0.40432486,13.449803352355957,3.7826924324035645,-0.014032425358891487,-65.539794921875,-4.282931327819824, 6.799872875213623
502,1229889029,0.46051836,0.3530336,-0.70687944,0.40448937,12.260043144226074,2.344115972518921,-1.177381992340088,-17.202421188354492,53.64704895019531, -11.065506935119629
503,1229905696,0.47039342,0.35511327,-0.6927375,0.4156193,8.204788208007812,2.10971736907959,0.6727333664894104,76.06800842285156,114.30884552001953, -35.429603576660156
504,1229922363,0.48404709,0.35069698,-0.68535364,0.41593343,2.7421014308929443,2.4665169715881348,1.7773321866989136,-24.950637817382812,102.81510162353516, -32.81562805175781
505,1229939030,0.50004196,0.34077075,-0.68052584,0.41318044,1.4448564052581787,-0.9830172061920166,4.230373859405518,-70.70777893066406,113.97930908203125, -16.396347045898438
506,1229955697,0.5126682,0.3314134,-0.6770409,0.4110385,-3.6056711673736572,-2.630356550216675,2.7256600856781006,-61.91190719604492,92.68635559082031, -6.284683704376221
507,1229972364,0.5202241,0.32596105,-0.675029,0.4092093,-8.077016830444336,-5.761457920074463,-8.600909233093262,-39.319339752197266,53.53638458251953, -5.774858474731445
508,1229989031,0.51917034,0.3310215,-0.66898894,0.4163425,-5.7368574142456055,-3.9232921600341797,-6.7301459312438965,70.56079864501953,18.837310791015625, -7.523642063140869
509,1230005698,0.5153083,0.33700988,-0.66559136,0.4217464,-5.343398571014404,-0.2906147837638855,-4.064321994781494,64.78877258300781,-9.848041534423828, -4.052400588989258
510,1230022365,0.50933564,0.3431493,-0.6647842,0.42530912,-7.407655239105225,-0.3241526782512665,-2.3212928771972656,54.30513000488281,-33.235538482666016, 0.8079833388328552
511,1230039032,0.5029935,0.3483463,-0.6655847,0.4273749,-9.245945930480957,-0.14120714366436005,-0.041678186506032944,40.347015380859375,-41.184539794921875, 4.826430797576904
512,1230055699,0.49653402,0.35384434,-0.66549486,0.4305403,-10.266840934753418,0.08247797936201096,2.4703667163848877,49.32341384887695,-36.891273498535156, 5.292352676391602
513,1230072366,0.49078256,0.35944447,-0.6643492,0.43424916,-10.11352825164795,1.9487066268920898,4.919707775115967,53.550086975097656,-29.248550415039062, 1.4137563705444336
514,1230089033,0.4877041,0.36190608,-0.6653574,0.4341297,-8.078802108764648,1.6581546068191528,2.005236864089966,12.408546447753906,-24.580995559692383, -0.024601062759757042
515,1230105700,0.4853413,0.36369205,-0.667157,0.4325201,-6.753166198730469,2.4381680488586426,1.3188635110855103,-0.8373321890830994,-25.875812530517578, -2.669630527496338
516,1230122367,0.48261374,0.36611223,-0.66976416,0.42949015,-5.682456970214844,1.386300802230835,-0.17320871353149414,-6.720471382141113,-35.49178695678711, -6.630967617034912
517,1230139034,0.47729298,0.37077707,-0.6723362,0.42741078,-4.564777374267578,0.5695837140083313,-0.023662686347961426,11.717947959899902,-51.66259002685547, -6.666515350341797
518,1230155701,0.46873403,0.3772662,-0.67520267,0.42668507,-3.554053544998169,-0.1496564745903015,-3.953904151916504,31.326820373535156,-69.53268432617188, -0.5282983183860779
519,1230172368,0.45678014,0.38417247,-0.6792224,0.42710721,1.0658588409423828,-6.702908515930176,-18.4968204498291,43.37297058105469,-87.31842041015625, 13.638364791870117
520,1230189035,0.4421924,0.39474922,-0.6786821,0.43362388,12.57681941986084,3.0088281631469727,10.123858451843262,103.65823364257812,-79.7851791381836, 10.325791358947754
521,1230205702,0.43592575,0.3926158,-0.68780655,0.42748562,4.173343658447266,-3.8993752002716064,1.5301231145858765,-45.6455078125,-67.4911117553711, 32.12443542480469
522,1230222369,0.43057728,0.3903932,-0.69820565,0.41797772,15.149868965148926,-1.5831290483474731,2.7033629417419434,-67.96234893798828,-75.29415893554688, 24.52906608581543
523,1230239036,0.42567337,0.39016125,-0.70474565,0.4122015,15.972854614257812,1.204306721687317,0.8079801201820374,-34.02229309082031,-57.00434494018555, 16.211639404296875
524,1230255703,0.42346728,0.39264375,-0.70546865,0.41087744,18.701677322387695,1.6970618963241577,2.8157639503479004,4.707681655883789,-22.88542938232422, -7.165180206298828
525,1230272370,0.42273015,0.39792976,-0.6986702,0.4181044,10.928664207458496,3.923645496368408,-2.1268649101257324,71.50968933105469,20.844560623168945, -20.697534561157227
526,1230289037,0.42382342,0.40010667,-0.6964946,0.41854954,9.883139610290527,3.6974267959594727,1.4868535995483398,11.420193672180176,6.1102471351623535, -19.100847244262695
527,1230305704,0.42976967,0.39723632,-0.6964517,0.415279,6.767352104187012,1.8107116222381592,1.2774488925933838,-40.48584747314453,27.445106506347656, -13.373931884765625
528,1230322371,0.437524,0.39521247,-0.69459456,0.41221154,3.483382225036621,-1.6692030429840088,2.5516510009765625,-36.55662155151367,39.94811248779297, -25.694549560546875
529,1230339038,0.4469776,0.3894375,-0.6945564,0.40760386,-1.3036930561065674,-6.81686544418335,-0.0026669874787330627,-65.0619125366211,48.8032341003418, -12.849238395690918
530,1230355705,0.44997582,0.3887325,-0.69126165,0.41056827,-6.652419567108154,-5.4139580726623535,0.20367766916751862,13.235087394714355,34.49653625488281, -3.416853189468384
531,1230372372,0.45106226,0.39085603,-0.68465954,0.4183492,-8.154585838317871,-1.3351815938949585,1.7526863813400269,59.20512390136719,40.373878479003906, -6.387565612792969
532,1230389039,0.45965376,0.3875701,-0.68047804,0.41887662,-7.463826656341553,5.065878391265869,4.523780822753906,-18.93696403503418,64.01268768310547, -19.498878479003906
533,1230405706,0.47108206,0.37928882,-0.6789812,0.41618085,-7.833531379699707,-1.756648063659668,3.3442087173461914,-65.00312042236328,74.7663345336914, -6.575035095214844
534,1230422373,0.47870618,0.37311015,-0.67370874,0.4215991,-8.924714088439941,-2.801685333251953,1.601344347000122,0.4768758714199066,84.67919158935547, 11.860079765319824
535,1230439040,0.48224008,0.37171075,-0.6625346,0.43626112,-10.079329490661621,-1.0772926807403564,2.5215559005737305,86.62206268310547,95.10877990722656, 16.886476516723633
536,1230455707,0.48415756,0.37197602,-0.64898276,0.45392388,-8.863975524902344,0.5630308985710144,2.5027503967285156,117.04953002929688,97.63907623291016, 15.898524284362793
537,1230472374,0.4868026,0.37052834,-0.63811177,0.4674885,-6.668993949890137,0.8761873841285706,-1.7822294235229492,82.88392639160156,86.5316162109375, 13.861695289611816
538,1230489041,0.48859128,0.36899257,-0.63128644,0.47602597,-5.9784698486328125,-0.06429821252822876,-5.241067409515381,49.78476333618164,56.69192123413086, 10.318432807922363
539,1230505708,0.48828775,0.36822334,-0.62906116,0.4798635,-6.324874401092529,-1.572023868560791,-7.649518013000488,22.30115509033203,17.705493927001953, 9.229738235473633
540,1230522375,0.4849451,0.3684871,-0.63125753,0.48016608,-5.58140754699707,-0.020646151155233383,-7.876933574676514,3.627772569656372,-22.313762664794922, 14.22710132598877
541,1230539042,0.4790419,0.36860326,-0.6388548,0.47593608,-4.631953716278076,-0.4190770983695984,-7.971229076385498,-27.87653160095215,-62.046817779541016, 22.154573440551758
542,1230555709,0.47155607,0.36871433,-0.6496149,0.46870586,-3.7757484912872314,1.4927070140838623,-10.575404167175293,-47.426151275634766,-86.4432144165039, 26.177783966064453
543,1230572376,0.46706644,0.36644083,-0.6619965,0.45752698,0.5665342807769775,1.6285045146942139,-6.489527702331543,-85.58245086669922,-80.0536880493164, 19.158296585083008
544,1230589043,0.4592471,0.36650074,-0.67580134,0.4450415,8.135706901550293,-2.0904200077056885,8.875041007995605,-80.03563690185547,-109.65460968017578, 20.137714385986328
545,1230605710,0.4463895,0.3704754,-0.6869469,0.43770826,12.26974105834961,-2.5296342372894287,0.8004310727119446,-22.858238220214844,-123.63060760498047, 28.127853393554688
546,1230622377,0.43403625,0.37724492,-0.6914709,0.43722638,19.242177963256836,2.285522937774658,1.4596987962722778,36.65877151489258,-92.25816345214844, 16.82647132873535
547,1230639044,0.42736095,0.3804885,-0.6955952,0.43444073,13.865091323852539,2.0486013889312744,1.168385624885559,1.7154514789581299,-59.531192779541016, 9.189204216003418
548,1230655711,0.4265113,0.38026372,-0.69733953,0.43267238,11.811454772949219,1.958267092704773,-0.5961517095565796,-11.680556297302246,-11.699188232421875, 5.664836883544922
549,1230672378,0.4310117,0.37695277,-0.6964673,0.43251464,10.426233291625977,1.7423124313354492,-1.7118607759475708,-19.286237716674805,34.76936340332031, 2.1268069744110107
550,1230689045,0.43912175,0.37177864,-0.6938184,0.43309218,7.787727355957031,3.5129454135894775,-1.3443936109542847,-25.276248931884766,64.93673706054688, -1.2923364639282227
551,1230705712,0.4519809,0.36353508,-0.6910161,0.43133786,6.505955219268799,2.7156734466552734,2.087249517440796,-57.38564682006836,91.20238494873047, -7.996011257171631
552,1230722379,0.4685874,0.3531712,-0.6831513,0.434742,3.483558416366577,-1.803471565246582,1.2008198499679565,-33.868438720703125,143.9922637939453, -4.8187994956970215
553,1230739046,0.47937992,0.35150072,-0.67544,0.4363753,-2.8897085189819336,-1.5382368564605713,-2.049743890762329,-0.644639790058136,85.88744354248047, -33.46651840209961
554,1230755713,0.48569146,0.35202214,-0.66796076,0.44046867,-5.5138139724731445,-4.238364219665527,-1.9643009901046753,28.052074432373047,63.578304290771484, -22.340547561645508
555,1230772380,0.48832148,0.35509026,-0.6608551,0.4457843,-6.543965816497803,-2.1464433670043945,-6.3694586753845215,49.90996551513672,40.43463134765625, -19.286373138427734
556,1230789047,0.49218512,0.35598058,-0.65791917,0.44516766,-4.861848831176758,3.074885129928589,-3.6811153888702393,-0.11715295165777206,24.300512313842773, -23.569374084472656
557,1230805714,0.49508768,0.35328606,-0.6606255,0.44005814,-6.643229961395264,-1.8250819444656372,-4.5625152587890625,-47.469207763671875,1.0027515888214111, -5.588902950286865
558,1230822381,0.49374926,0.35316196,-0.6618612,0.43980476,-10.189146041870117,-2.0295424461364746,-1.8108454942703247,-1.8839941024780273,-9.030325889587402, 8.610424041748047
559,1230839048,0.4889125,0.35734275,-0.6586302,0.44662866,-12.137331008911133,-2.879831075668335,0.20054088532924652,66.95399475097656,-5.562747478485107, 12.527846336364746
560,1230855715,0.48318467,0.36319295,-0.6530786,0.45619276,-10.153424263000488,1.892783761024475,1.9422028064727783,94.29852294921875,-0.4591733515262604, 10.080138206481934
561,1230872382,0.4814649,0.36486477,-0.65138066,0.4590955,-8.239892959594727,3.450307607650757,-0.7499171495437622,28.404193878173828,0.7431864738464355, 2.5476317405700684
562,1230889049,0.4820333,0.36416236,-0.65272796,0.45713902,-7.462873458862305,2.7843902111053467,-1.3008012771606445,-16.561983108520508,-3.751713752746582, -2.4307758808135986
563,1230905716,0.48253307,0.36324877,-0.6562063,0.45233354,-6.681060791015625,0.644152045249939,-2.8902649879455566,-36.56645202636719,-17.287891387939453, -4.621057510375977
564,1230922383,0.47935954,0.36520797,-0.6596986,0.44903868,-5.612600803375244,-0.642058253288269,-4.382640361785889,-11.078670501708984,-38.97949981689453, -1.16231107711792
565,1230939050,0.4717124,0.37087518,-0.6628995,0.44777608,-4.099359512329102,0.835220992565155,-4.808906078338623,22.498342514038086,-64.62185668945312, 1.4466612339019775
566,1230955717,0.4610785,0.37994218,-0.6641829,0.4493457,-0.863067626953125,0.4245396554470062,-3.385300874710083,59.94429016113281,-75.24812316894531, -0.8728452324867249
567,1230972384,0.460118,0.37788418,-0.66759586,0.44700214,3.539639949798584,2.0446770191192627,6.328210830688477,-25.108356475830078,-13.981776237487793, 12.158357620239258
568,1230989051,0.45850942,0.37311047,-0.67659837,0.4390586,12.265700340270996,-5.93332576751709,9.453490257263184,-74.86548614501953,-40.587703704833984, 24.893756866455078
569,1231005718,0.44999588,0.37226412,-0.6856178,0.4345707,13.490163803100586,-6.823322772979736,4.172619819641113,-28.696306228637695,-75.56625366210938, 40.03458786010742
570,1231022385,0.44239455,0.37393364,-0.69015795,0.43375456,15.456418991088867,1.9154545068740845,2.9140613079071045,7.404135227203369,-55.730125427246094, 25.30915069580078
571,1231039052,0.44105855,0.37093332,-0.6955008,0.42913246,8.86594009399414,3.3585996627807617,-0.3592897653579712,-43.40085220336914,-24.571407318115234, 19.263153076171875
572,1231055719,0.4429003,0.36787942,-0.6964864,0.42826495,7.071778774261475,2.1349422931671143,-6.102204322814941,-20.70382308959961,13.829119682312012, 11.680453300476074
573,1231072386,0.44753027,0.3653065,-0.6937584,0.43007836,6.723186016082764,4.316427230834961,-4.5207953453063965,-2.4463751316070557,44.070213317871094, 0.39372748136520386
574,1231089053,0.45650518,0.36153272,-0.6897343,0.43030664,8.312661170959473,4.138779163360596,-2.095170259475708,-20.78072738647461,68.4273452758789, -14.664020538330078
575,1231105720,0.4696406,0.3549593,-0.68507725,0.42908132,10.30510139465332,2.7969295978546143,1.3744769096374512,-44.96632766723633,94.82967376708984, -19.493379592895508
576,1231122387,0.4835737,0.3524639,-0.67438555,0.43258503,9.551645278930664,1.5082080364227295,6.19362211227417,6.2224507331848145,117.43831634521484, -40.43406295776367
577,1231139054,0.4961166,0.34600878,-0.6707447,0.42924124,-1.0056591033935547,-1.4240599870681763,4.016875743865967,-56.45878219604492,82.01644897460938, -25.243633270263672
578,1231155721,0.50733286,0.3379496,-0.6689999,0.42525607,-8.036757469177246,-5.041665077209473,-8.055521011352539,-67.38972473144531,72.89197540283203, -10.151091575622559
579,1231172388,0.5105622,0.34086046,-0.66097254,0.43157357,-5.073943614959717,-5.50020170211792,-11.521087646484375,55.18958282470703,50.31542205810547, -15.771484375
580,1231189055,0.5132227,0.3426473,-0.6574611,0.4323658,-2.999203681945801,1.9602091312408447,-5.499684810638428,14.18934154510498,22.134252548217773, -20.121604919433594
581,1231205722,0.51261157,0.34421843,-0.65901196,0.42947248,-6.3759918212890625,-2.7156968116760254,-6.983293533325195,-10.55743408203125,-18.3189697265625, -10.163458824157715
582,1231222389,0.5086045,0.3465123,-0.66308445,0.42611015,-10.377035140991211,-2.79864764213562,-5.453216552734375,-9.508530616760254,-45.544898986816406, 1.0854424238204956
583,1231239056,0.499853,0.353432,-0.6653753,0.42721006,-9.613544464111328,-3.122117757797241,-2.779196262359619,43.582275390625,-63.72956466674805, 4.909539222717285
584,1231255723,0.48783076,0.36321858,-0.66651183,0.43110976,-8.323530197143555,-1.2195751667022705,0.8425267338752747,77.60260009765625,-76.56560516357422, 6.815320014953613
585,1231272390,0.47508773,0.37184417,-0.66902936,0.43407786,-7.094658374786377,0.2426219880580902,0.13972152769565582,67.10231018066406,-83.62349700927734, 13.80038833618164
586,1231289057,0.46363282,0.37891275,-0.67296976,0.4342598,-6.5235595703125,3.1297521591186523,1.3706156015396118,41.578800201416016,-85.08314514160156, 10.836931228637695
587,1231305724,0.4549384,0.38290712,-0.6798405,0.42922047,-5.299864768981934,2.1633381843566895,0.41897380352020264,-8.375243186950684,-86.1075668334961, 7.912928104400635
588,1231322391,0.4471033,0.38657132,-0.6876326,0.4216905,-4.467122554779053,2.806382417678833,1.3771899938583374,-26.032957077026367,-90.40686798095703, 2.082435131072998
589,1231339058,0.43981472,0.3904446,-0.6957932,0.41229632,-4.369754314422607,2.3465871810913086,2.70035719871521,-36.71632766723633,-94.42725372314453, -4.7891340255737305
590,1231355725,0.4311598,0.39618367,-0.70095634,0.40718573,-5.064599514007568,1.519683599472046,6.49695348739624,1.6109075546264648,-85.63531494140625, -4.47332239151001
591,1231372392,0.4240298,0.4006174,-0.7018895,0.40872452,-6.428351402282715,0.16247843205928802,-0.8886927962303162,37.28264236450195,-44.382022857666016, 4.928307056427002
592,1231389059,0.41910464,0.40373856,-0.69670427,0.41946352,5.651411056518555,-3.1214845180511475,-9.657678604125977,88.9276123046875,13.087671279907227, 14.736356735229492
593,1231405726,0.4138924,0.4054029,-0.6926061,0.42969573,17.325342178344727,1.1372536420822144,10.833395004272461,79.7811050415039,11.137336730957031, 22.84588050842285
594,1231422393,0.41571325,0.3987134,-0.6975989,0.42610577,8.000776290893555,-4.035453796386719,5.390529632568359,-56.34611892700195,4.412714004516602, 28.022924423217773
595,1231439060,0.4172302,0.39314714,-0.70196295,0.4226138,14.928736686706543,-2.700993776321411,4.8123779296875,-49.757015228271484,2.0389909744262695, 23.597198486328125
596,1231455727,0.41716588,0.3914694,-0.7026352,0.42311737,14.516341209411621,0.8316560983657837,0.6196230053901672,-4.205710411071777,4.503848552703857, 11.835103988647461
597,1231472394,0.4192455,0.3914267,-0.7018874,0.4223417,11.8121919631958,4.174400806427002,-0.6592722535133362,-7.31888484954834,10.620922088623047, -9.53572940826416
598,1231489061,0.42507702,0.39105272,-0.6995853,0.42067546,9.27077579498291,4.15496301651001,-2.711977958679199,-18.21550941467285,31.54906463623047, -25.846467971801758
599,1231505728,0.435129,0.38847786,-0.6954015,0.41971958,6.212784290313721,2.7000434398651123,-1.548446774482727,-27.129911422729492,65.55674743652344, -30.527725219726562
600,1231522395,0.4496816,0.38358334,-0.6885373,0.42019847,4.443771839141846,0.8204554319381714,1.6441842317581177,-31.419294357299805,105.70417022705078, -34.912967681884766
601,1231539062,0.46461278,0.3748404,-0.68636864,0.41536483,-2.2402913570404053,-2.9270968437194824,2.906712770462036,-83.03966522216797,89.99763488769531, -21.897693634033203
602,1231555729,0.4765617,0.36698428,-0.6839766,0.41278034,-5.944106578826904,-6.768313407897949,-9.40125846862793,-61.203086853027344,80.08843231201172, -10.11926555633545
603,1231572396,0.4793975,0.36888894,-0.6756342,0.42144686,-2.916910171508789,-4.659858703613281,-6.335188865661621,63.625816345214844,57.850929260253906, -8.170025825500488
604,1231589063,0.48007858,0.36928347,-0.673206,0.424203,-3.090153455734253,-0.7865609526634216,-5.281496047973633,19.484006881713867,17.642114639282227, -0.8907222151756287
605,1231605730,0.47664136,0.370928,-0.6750349,0.4237375,-5.530050754547119,-0.9914173483848572,-6.988163471221924,6.748856067657471,-27.22027015686035, 5.054161548614502
606,1231622397,0.47103837,0.37317777,-0.6802768,0.41962463,-8.195633888244629,-0.27769994735717773,-5.0484299659729,-12.571427345275879,-59.192169189453125, 5.631492614746094
607,1231639064,0.46299112,0.37762982,-0.68644834,0.41451627,-8.455781936645508,-0.4294906258583069,-2.067009687423706,-6.445001602172852,-82.20146179199219, 2.135516405105591
608,1231655731,0.45278528,0.38381174,-0.6929633,0.40923852,-8.69015884399414,-0.656403124332428,-0.45880651473999023,2.8339056968688965,-98.87393951416016, -0.10979261249303818
609,1231672398,0.44001234,0.39264518,-0.69710654,0.40775198,-8.193102836608887,0.07079015672206879,1.2520744800567627,42.557151794433594,-101.15312194824219, -0.16372334957122803
610,1231689065,0.4276601,0.40108448,-0.700414,0.40701175,-7.564250469207764,2.756558895111084,3.145385980606079,46.010414123535156,-93.64453125, -0.11596594005823135
611,1231705732,0.41879952,0.4062726,-0.70504034,0.403073,-6.428727626800537,3.1997554302215576,4.930930137634277,7.549139976501465,-80.66581726074219, -0.652652382850647
612,1231722399,0.41383785,0.4077195,-0.7112464,0.39576727,-5.943114757537842,1.8641526699066162,6.891817569732666,-34.8466796875,-65.41410064697266, 1.5731562376022339
613,1231739066,0.41095978,0.4077093,-0.7161592,0.38987345,-6.49318790435791,0.7847743630409241,7.7302350997924805,-34.31549072265625,-43.5904541015625, 4.1226067543029785
614,1231755733,0.41021675,0.4056849,-0.71984214,0.3859657,-6.38871431350708,1.0256714820861816,-3.7704033851623535,-32.91801452636719,-18.7332820892334, 10.659134864807129
615,1231772400,0.40464827,0.40648782,-0.7223611,0.3862923,3.8208653926849365,-7.851206302642822,-16.520023345947266,12.778495788574219,-34.68096923828125, 18.954547882080078
616,1231789067,0.3977002,0.4097707,-0.72381794,0.38731158,13.38566780090332,3.753516435623169,13.838974952697754,29.557865142822266,-43.038814544677734, 8.057239532470703
617,1231805734,0.391165,0.40834853,-0.73260146,0.37886262,6.198000907897949,-3.8327224254608154,2.6264445781707764,-50.918853759765625,-75.53789520263672, 26.304109573364258
618,1231822401,0.38448414,0.40913916,-0.73786366,0.37461242,17.88080596923828,0.3357642889022827,2.3272976875305176,-14.217933654785156,-60.866310119628906, 17.161766052246094
619,1231839068,0.38121057,0.40956926,-0.7387702,0.37569964,12.942974090576172,3.3222360610961914,0.5274547934532166,13.650132179260254,-16.348968505859375, 12.637596130371094
620,1231855735,0.38086644,0.41016638,-0.73899716,0.37495014,15.477579116821289,2.635565996170044,1.0242469310760498,-1.589524269104004,-5.4098381996154785, -1.9353983402252197
621,1231872402,0.38458964,0.40905932,-0.7364393,0.3773839,12.790952682495117,3.435155153274536,0.6130810976028442,5.690738677978516,35.59644317626953, -3.563229560852051
622,1231889069,0.39128274,0.40773976,-0.7324817,0.3796272,10.033416748046875,1.939186930656433,0.9602512121200562,-0.5440196990966797,54.17204284667969, -14.46543025970459
623,1231905736,0.39839754,0.41028553,-0.72293854,0.3876923,6.850234508514404,0.2964790463447571,5.536901473999023,52.48161697387695,77.36219787597656, -35.234439849853516
624,1231922403,0.40891388,0.40527236,-0.7202271,0.38706163,-1.5608071088790894,-3.3050637245178223,-3.278993606567383,-39.61192321777344,70.71747589111328, -12.519948959350586
625,1231939070,0.41449666,0.40246475,-0.71633077,0.39126074,-3.244758367538452,-5.058334827423096,-1.0955950021743774,7.737311840057373,57.621456146240234, 1.181201457977295
626,1231955737,0.416659,0.4020774,-0.7119643,0.39728582,-6.311097621917725,-2.6310837268829346,-3.0437545776367188,34.22498321533203,40.681976318359375, 1.7096452713012695
627,1231972404,0.41874534,0.40282416,-0.7078726,0.4016238,-5.231695652008057,1.978550910949707,-0.07569736242294312,28.814407348632812,32.07181167602539, -7.213352680206299
628,1231989071,0.42492148,0.399163,-0.70879155,0.39714643,-6.156399250030518,1.7751144170761108,0.425197571516037,-52.19733810424805,25.11762046813965, -9.939435005187988
629,1232005738,0.42953995,0.39477518,-0.71111405,0.39238375,-8.36589527130127,-2.1287319660186768,0.9671807885169983,-54.98804473876953,14.952306747436523, 2.224571466445923
630,1232022405,0.42954314,0.3938397,-0.70976543,0.3957473,-10.286649703979492,-2.4055511951446533,2.484537363052368,17.363384246826172,16.0621395111084, 11.744060516357422
631,1232039072,0.42717737,0.3964803,-0.70307684,0.40743834,-11.030108451843262,0.16798920929431915,5.676362037658691,89.49711608886719,33.15947723388672, 10.789143562316895
632,1232055739,0.4273237,0.3973155,-0.69521433,0.419776,-9.918499946594238,1.8364542722702026,6.597115993499756,83.53931427001953,55.290645599365234, 9.91142463684082
633,1232072406,0.4297991,0.39601213,-0.6883619,0.42965707,-7.422018051147461,1.1153029203414917,4.187957763671875,56.18079376220703,62.730098724365234, 8.587303161621094
634,1232089073,0.43179336,0.3946384,-0.68326586,0.43699303,-5.669087886810303,-0.8262656331062317,0.33903738856315613,39.998531341552734,48.367305755615234, 7.11297082901001
635,1232105740,0.4302868,0.39548832,-0.6789734,0.4443394,-4.658383846282959,-1.590951919555664,-1.5982606410980225,53.75862503051758,22.914831161499023, 9.341675758361816
636,1232122407,0.42614913,0.3968282,-0.67735267,0.44957516,-4.562198162078857,-0.3742882311344147,-3.2678329944610596,44.33491134643555,-4.4975481033325195, 15.805035591125488
637,1232139074,0.42250133,0.39600694,-0.6806153,0.448814,-4.940417766571045,0.38281387090682983,-5.345733642578125,-6.360066890716553,-26.111682891845703, 19.93256378173828
638,1232155741,0.42102525,0.39067596,-0.6914054,0.4382565,-1.3859872817993164,-1.0629197359085083,-24.824235916137695,-94.28015899658203,-50.05545425415039, 27.42940902709961
639,1232172408,0.41602018,0.38931295,-0.7002753,0.43008995,11.729637145996094,0.22376590967178345,-2.0722062587738037,-55.7713623046875,-65.68936920166016, 22.407657623291016
640,1232189075,0.41175818,0.38610598,-0.7075644,0.42512354,6.451167106628418,1.1497975587844849,3.9354381561279297,-42.937137603759766,-43.64057540893555, 34.17848205566406
641,1232205742,0.4055648,0.38788652,-0.70886576,0.42728278,17.425256729125977,1.7406142950057983,-0.6681033968925476,28.738195419311523,-31.624958038330078, 21.445219039916992
642,1232222409,0.40030214,0.3910099,-0.70850146,0.42999473,18.74150848388672,4.311542510986328,3.011225700378418,37.363319396972656,-25.34269905090332, 8.294472694396973
643,1232239076,0.39670777,0.39307135,-0.7114123,0.4266269,14.929152488708496,3.290168046951294,2.078519344329834,-9.43063735961914,-39.81550598144531, 0.5342007875442505
644,1232255743,0.39627075,0.39828596,-0.7089374,0.42631617,17.197662353515625,0.40537717938423157,7.085418701171875,21.51820182800293,-10.742802619934082, -29.53757667541504
645,1232272410,0.39933804,0.39906797,-0.70755494,0.42501745,8.4652738571167,0.9743771553039551,5.438982009887695,-8.591426849365234,12.884054183959961, -19.34573745727539
646,1232289077,0.4028092,0.39640018,-0.71163857,0.4173517,0.6131172776222229,-1.5456746816635132,-0.863482654094696,-65.96153259277344,-7.566097736358643, -5.2765936851501465
647,1232305744,0.40167215,0.39789304,-0.71190035,0.4165797,-3.898730993270874,-2.9190149307250977,1.5731335878372192,2.9396674633026123,-12.510467529296875, -3.2643024921417236
648,1232322411,0.40067536,0.40042397,-0.7079671,0.42178503,-9.886811256408691,-1.6844472885131836,2.9736521244049072,46.6389274597168,13.151313781738281, -3.9945127964019775
649,1232339078,0.4095796,0.3984051,-0.7023645,0.42450237,-9.405938148498535,7.201399326324463,7.673170566558838,-0.561492919921875,72.22831726074219, -22.66951560974121
650,1232355745,0.434042,0.3845111,-0.7030877,0.41161448,-6.040067195892334,4.445748329162598,5.7097296714782715,-170.42332458496094,121.41717529296875, -36.95820617675781
651,1232372412,0.45533255,0.36848325,-0.70361125,0.40227306,-7.191769123077393,-5.88758659362793,1.8479127883911133,-150.39944458007812,122.3685073852539, -5.163448810577393
652,1232389079,0.4633689,0.3625169,-0.69748497,0.40912786,-7.99064302444458,-5.939567565917969,-2.281404495239258,11.027816772460938,91.84757995605469, 13.6495361328125
653,1232405746,0.45964524,0.36840475,-0.68540484,0.42804727,-4.746599197387695,-2.0113208293914795,-6.7565693855285645,152.72825622558594,51.345314025878906, 13.334348678588867
654,1232422413,0.45024246,0.3800083,-0.67314816,0.44693094,-5.624670505523682,1.1923532485961914,-7.275326728820801,185.61622619628906,8.598672866821289, 2.92525577545166
655,1232439080,0.44356716,0.38721052,-0.66849405,0.45434794,-6.926466464996338,3.634580612182617,-7.133523464202881,88.30684661865234,-19.040143966674805, -2.959184169769287
656,1232455747,0.4406568,0.38968393,-0.67209756,0.44972545,-5.440462112426758,1.789205551147461,-7.1585822105407715,-17.219850540161133,-43.953025817871094, -7.654839038848877
657,1232472414,0.43638426,0.39206967,-0.6794366,0.4406997,-4.247150897979736,0.039158403873443604,-6.6002044677734375,-45.64592361450195,-72.6747055053711, -5.780923843383789
658,1232489081,0.42905957,0.39704964,-0.6865913,0.43226382,-4.64512300491333,-0.434699684381485,-2.1320488452911377,-26.190425872802734,-92.18923950195312, -6.5171332359313965
659,1232505748,0.42032024,0.40243286,-0.69214004,0.42699072,-6.431903839111328,0.49612653255462646,-0.5920813679695129,-1.5525293350219727,-86.81147003173828, -0.13399638235569
660,1232522415,0.413065,0.40396312,-0.6981215,0.42286834,-3.9664669036865234,-3.3762991428375244,-15.773134231567383,-12.60098648071289,-66.4411392211914, 18.348960876464844
661,1232539082,0.40484634,0.40623793,-0.702699,0.4210515,12.852117538452148,0.6686747074127197,6.2575883865356445,7.544200897216797,-62.168025970458984, 20.795055389404297
662,1232555749,0.40221468,0.40078953,-0.71222585,0.41270518,3.222705841064453,-3.602710008621216,1.4566853046417236,-75.43244934082031,-45.13155746459961, 37.99507141113281
663,1232572416,0.39568546,0.39920136,-0.7212262,0.4048507,12.948441505432129,-3.0407347679138184,1.8746416568756104,-49.727054595947266,-72.06551361083984, 31.809762954711914
664,1232589083,0.3917799,0.39901,-0.7244436,0.40308946,12.877881050109863,0.4529048204421997,0.49884405732154846,-6.742984771728516,-30.656673431396484, 18.67552947998047
665,1232605750,0.3914431,0.3971495,-0.7285968,0.39773294,10.765376091003418,2.6233668327331543,-0.14336585998535156,-41.6087760925293,-20.9141902923584, 9.794943809509277
666,1232622417,0.39488026,0.39432976,-0.72888696,0.39660764,10.120525360107422,3.6188817024230957,-1.830485224723816,-23.23522186279297,22.025686264038086, 3.337212085723877
667,1232639084,0.40200883,0.39209884,-0.72438854,0.39988586,8.490382194519043,2.381394624710083,-0.802208662033081,3.48934006690979,63.75571823120117, -10.594259262084961
668,1232655751,0.4128667,0.38790143,-0.71864164,0.40327156,6.290698051452637,2.30924129486084,-0.464834988117218,-8.037111282348633,91.38044738769531, -14.037886619567871
669,1232672418,0.42842865,0.37964574,-0.7138084,0.40347946,4.673587322235107,1.1545019149780273,0.9112892150878906,-50.34727478027344,114.73711395263672, -13.548389434814453
670,1232689085,0.44692397,0.3678748,-0.7080876,0.4043998,1.698703646659851,-3.2257962226867676,5.120129108428955,-62.42491149902344,143.28041076660156, -4.61465311050415
671,1232705752,0.45772275,0.3631487,-0.7023935,0.40651765,-6.007141590118408,-1.0329399108886719,-5.295022010803223,-15.603614807128906,89.01102447509766, -13.796278953552246
672,1232722419,0.4642353,0.36049742,-0.698232,0.40865558,-5.668830394744873,-4.94384241104126,-6.873588562011719,-2.5253140926361084,57.97115707397461, -8.032097816467285
673,1232739086,0.4643082,0.36327016,-0.6945384,0.41239437,-4.661503791809082,-1.4327296018600464,-10.21277141571045,37.155792236328125,14.57400131225586, -9.855466842651367
674,1232755753,0.46140373,0.3676637,-0.6947766,0.41135836,-3.655515193939209,1.2258756160736084,-8.13638687133789,15.87876033782959,-28.3675594329834, -14.679099082946777
675,1232772420,0.45669806,0.37048376,-0.7002509,0.40474364,-5.747635841369629,-1.265376091003418,-5.316359996795654,-25.969463348388672,-62.98139190673828, -6.570918083190918
676,1232789087,0.44771478,0.37509552,-0.7054543,0.4014839,-8.095490455627441,-2.9047977924346924,-2.1262805461883545,7.485368251800537,-78.97689056396484, 6.475617408752441
677,1232805754,0.43554685,0.383211,-0.7062473,0.40578732,-10.2598876953125,-0.6197986602783203,1.6756012439727783,75.34754180908203,-70.89996337890625, 10.070508003234863
678,1232822421,0.42475137,0.39109364,-0.7046592,0.41241664,-10.427557945251465,2.1646292209625244,4.4338812828063965,88.9621353149414,-50.31597900390625, 7.987188339233398
679,1232839088,0.41854984,0.3951533,-0.7045118,0.41513026,-9.094132423400879,3.1497790813446045,4.77752685546875,42.37009811401367,-32.02777099609375, 5.9085693359375
680,1232855755,0.41611615,0.3958869,-0.70666105,0.41322055,-7.062456130981445,1.7298285961151123,1.7331809997558594,-6.403086185455322,-23.545690536499023, 4.227967739105225
681,1232872422,0.41378513,0.39670599,-0.70845884,0.41169468,-6.255293369293213,1.0648037195205688,1.0353479385375977,-3.5780105590820312,-21.251352310180664, 3.665330648422241
682,1232889089,0.4105123,0.3981284,-0.7103139,0.41039962,-5.141088962554932,-0.2752844989299774,-1.740975022315979,1.7940913438796997,-26.944196701049805, 4.838296890258789
683,1232905756,0.40741447,0.3986846,-0.7119647,0.41008565,-2.7514729499816895,0.5804627537727356,-5.685025215148926,4.266564846038818,-20.289636611938477, 10.818190574645996
684,1232922423,0.40515652,0.397436,-0.71401423,0.40997148,4.236105442047119,-3.047316789627075,-1.3283261060714722,-3.1985578536987305,-11.502325057983398, 18.9049129486084
685,1232939090,0.4020879,0.3966419,-0.72192544,0.3997803,10.011591911315918,-2.017021656036377,12.48544979095459,-65.71727752685547,-60.669673919677734, 6.899648666381836
686,1232955757,0.39269173,0.39812452,-0.7325451,0.38815954,12.562045097351074,-5.951026439666748,5.952021598815918,-56.49943542480469,-110.03421020507812, 17.728979110717773
687,1232972424,0.38227183,0.40321228,-0.7348004,0.38904566,18.715038299560547,1.31447172164917,2.0545506477355957,40.80177307128906,-68.64558410644531, 11.329172134399414
688,1232989091,0.37922174,0.4040534,-0.7365359,0.3878748,10.949256896972656,4.915343284606934,0.36488965153694153,0.1789243221282959,-24.72222900390625, 6.390658378601074
689,1233005758,0.3832279,0.40111342,-0.7333883,0.39292,9.433959007263184,2.7818164825439453,-2.3310163021087646,15.225786209106445,50.90899658203125, 9.518115043640137
690,1233022425,0.38886085,0.39876765,-0.7266974,0.40209773,4.756158828735352,4.179624557495117,-4.689975738525391,42.727176666259766,78.1701889038086, 3.340034008026123
691,1233039092,0.39622763,0.3962413,-0.72211784,0.40563825,5.986939907073975,4.118875026702881,-2.3542699813842773,3.779111623764038,66.4926986694336, -8.728511810302734
692,1233055759,0.40749452,0.3919656,-0.7173047,0.40716732,7.225119113922119,2.5894346237182617,-0.9016115069389343,-20.791330337524414,86.01142883300781, -16.21303367614746
693,1233072426,0.4179024,0.3943939,-0.7060736,0.4138494,6.507327079772949,0.9019569754600525,2.294475555419922,43.55577850341797,94.74646759033203, -50.04880905151367
